time,seconds_elapsed,z,y,x
1782987658149865000,0.078864990234375,-0.21726561735272407,0.11959259410798549,-0.888480067390576
1782987658159939800,0.08893994140625,0.07778875760138035,-0.05609831931889057,-0.9765595520555973
1782987658170014000,0.099013916015625,0.30656653357148167,-0.24475100564956664,-0.9130811324227601
1782987658180088800,0.1090888671875,0.49468438237309453,-0.324969913007319,-0.7968458128534257
1782987658190164000,0.1191640625,0.7067945166587829,-0.3085977471381426,-0.7122991784896702
1782987658200237800,0.12923779296875,0.7957219233900308,-0.2610623812422156,-0.7191425415784121
1782987658210313000,0.13931298828125,0.7551537661582232,-0.282085880048573,-0.738576871497184
1782987658220387800,0.149387939453125,0.6219225227981805,-0.2562508893072605,-0.7434747265413403
1782987658230462000,0.1594619140625,0.42491818770766254,-0.2512020814850926,-0.74817274816446
1782987658240536800,0.169536865234375,0.16499474736750125,-0.2547021985605359,-0.6852090000554919
1782987658250611700,0.17961181640625,-0.02664718390703201,-0.2597948455244303,-0.6385138843759894
1782987658260685800,0.189685791015625,-0.1451069745928049,-0.3142506583333015,-0.5767325509846211
1782987658270760700,0.1997607421875,-0.22622341531217097,-0.4230214141756296,-0.5387563099421561
1782987658280834800,0.209834716796875,-0.11874912902116774,-0.5364052167713642,-0.5247065956711768
1782987658290909700,0.21990966796875,0.16959668820500373,-0.6811541717067361,-0.48983928042948244
1782987658300984800,0.22998486328125,0.41546237709820266,-0.8046312060326337,-0.4389415984936058
1782987658311058700,0.24005859375,0.6647726534873247,-0.8225149455085397,-0.44525998786017296
1782987658321133800,0.2501337890625,0.853823983746767,-0.8611673322468996,-0.47990949563272295
1782987658331209000,0.260208984375,0.9160100985467433,-0.9429054119959474,-0.5403139146476984
1782987658341282800,0.27028271484375,0.8758663042068481,-1.036163833668828,-0.6769942024830728
1782987658351358000,0.28035791015625,0.8452887951135635,-1.1098869492664933,-0.8181927714604884
1782987658361432800,0.290432861328125,0.7849433397442102,-1.1400792584344743,-0.8553562348153442
1782987658371507000,0.3005068359375,0.796557205170393,-1.1466992610961197,-0.7991229640051722
1782987658381581800,0.310581787109375,0.9337573521614074,-1.0951321554660796,-0.743626044645533
1782987658391657000,0.320656982421875,0.9749585465997457,-1.0947422793656587,-0.6405271969597787
1782987658401730800,0.330730712890625,1.052911554852128,-1.1000284030750394,-0.5255673772189766
1782987658411806000,0.340805908203125,1.1386650077223777,-1.1108607627347111,-0.4455773832462728
1782987658421881000,0.350881103515625,1.1635276463001967,-1.1324719983011484,-0.3142052848216146
1782987658431955000,0.360954833984375,1.146771741810441,-1.1572948893904684,-0.2338365206643939
1782987658442030000,0.371030029296875,1.1602695212870835,-1.1504805332005024,-0.23264015048667788
1782987658452104700,0.381104736328125,1.250180678358674,-1.2229460499525069,-0.19454576295726
1782987658462179000,0.391178955078125,1.3056640806496143,-1.296324589896202,-0.12263335004337131
1782987658472253700,0.401253662109375,1.2740952224314213,-1.4054641790509224,-0.08620718798711896
1782987658482328000,0.411328125,1.110939380928874,-1.4670885683149097,-0.05010923497192561
1782987658492402700,0.421402587890625,0.8855945020169019,-1.4888684384465216,-0.03400229591019451
1782987658502477800,0.431477783203125,0.6726239515095949,-1.5288520737886429,-0.004971431737020611
1782987658512551700,0.4415517578125,0.4201958353608846,-1.5125246238440275,0.005405439240112901
1782987658522626800,0.451626708984375,0.082239307269454,-1.4575535549893974,-0.13323854988366365
1782987658532702000,0.461701904296875,-0.006541968989372253,-1.348662387637794,-0.26129275593198836
1782987658542775800,0.47177587890625,0.04984335057735443,-1.3425845290288327,-0.2944314938154071
1782987658552851000,0.481850830078125,0.05081424143612385,-1.3971984550088643,-0.26875841563753783
1782987658562925800,0.49192578125,0.12487491842508315,-1.4233105091258882,-0.38286147241853175
1782987658573000000,0.502,0.15006781187057494,-1.391374863421917,-0.48569494716636835
1782987658583074800,0.51207470703125,0.13157763093411923,-1.3907958944901824,-0.4823025282490998
1782987658593150000,0.52214990234375,0.22641630753576755,-1.4763585009634494,-0.4156386104479432
1782987658603223800,0.532223876953125,0.413680754378438,-1.4120809668421745,-0.35189576772525905
1782987658613299000,0.542298828125,0.5857277583450079,-1.3181050445497036,-0.289350025832653
1782987658623373800,0.552373779296875,0.6532213319033384,-1.276374565540254,-0.1015813557948917
1782987658633448000,0.562447998046875,0.6433195310920476,-1.1837275537639855,0.1506825827680528
1782987658643523000,0.572523193359375,0.5865946043074131,-1.0704437044113875,0.3213700618844479
1782987658653598000,0.582597900390625,0.4544827203661203,-1.0933066936045885,0.5605080499578267
1782987658663672000,0.592672119140625,0.4103291058629751,-1.2978884782120585,0.9332407809413968
1782987658673747000,0.602746826171875,0.6268599792003631,-1.4252297867506742,1.3645714660398662
1782987658683821800,0.61282177734375,0.9249141204923391,-1.4388225510343908,1.5273007526934146
1782987658693896000,0.62289599609375,0.9770534730523824,-1.3318857326209543,1.172751401719451
1782987658703970800,0.632970703125,0.3174403942853212,-1.07485859824419,0.3915007790133357
1782987658714045000,0.643044921875,-0.9812743056178093,-0.7483525617107748,-0.41216750027127563
1782987658724119800,0.653119873046875,-2.4900509751051665,-0.313320976267755,-0.8902242807094007
1782987658734194700,0.663194580078125,-3.6184669760137793,0.1073249409481883,-0.9352306395843625
1782987658744268800,0.673268798828125,-3.7936920254945754,0.4935115392014384,-0.7698545647490769
1782987658754343700,0.68334375,-3.1866356479167934,0.6320829745456576,-0.31446145153976973
1782987658764418800,0.693418701171875,-2.2622896827012298,0.6266650411501526,0.3262142139799893
1782987658774493000,0.703492919921875,-1.3576917895287275,0.5196332379296422,0.8788101025737821
1782987658784567800,0.71356787109375,-0.565367107361555,0.2873836941957474,1.1620748171433806
1782987658794643000,0.723642822265625,0.16603636537492275,0.14336276127398012,1.1503291420310735
1782987658804716800,0.733716796875,0.7161474514156579,-0.0026999066084623337,0.9877772577710449
1782987658814792000,0.7437919921875,1.0328437493354081,-0.5410033582165837,0.621183102607727
1782987658824866800,0.75386669921875,1.3800889147758484,-0.062275838910043235,0.7752548894226551
1782987658834941000,0.76394091796875,1.2586731968939304,0.44722997275888915,0.35774230179637667
1782987658845015800,0.774015869140625,0.9091501496493816,0.5414084318861365,0.8276277584776282
1782987658855091000,0.784091064453125,0.5617874953091144,0.7211781390592455,1.1536448424503207
1782987658865164800,0.794164794921875,0.4188298077046871,0.9475240117073058,1.080047106797993
1782987658875240000,0.804239990234375,0.33399463872313495,1.093022031444311,0.9335777578108012
1782987658885314800,0.814314697265625,0.2697252879083156,1.1400748745203018,0.818476483772695
1782987658895389200,0.82438916015625,0.20944003829360008,1.048743329256773,0.7380747671939433
1782987658905464000,0.834464111328125,0.10733224747180937,0.9348109528675674,0.5864551958367228
1782987658915539000,0.8445390625,-0.006388824254274368,0.8974763707295059,0.44901817134991284
1782987658925613000,0.854613037109375,-0.1049216791987419,0.8759118969142436,0.3449649455487728
1782987658935688000,0.86468798828125,-0.17579495832324027,0.883768455633521,0.3618583588130772
1782987658945762000,0.874761962890625,-0.15467676697075367,0.9558692307263612,0.40152284520342946
1782987658955837000,0.8848369140625,-0.09909341143667698,1.047407696738839,0.44474283211827276
1782987658965912000,0.894912109375,-0.13843757983148097,1.022827089972794,0.40405864729136226
1782987658975986000,0.90498583984375,-0.2478770287156105,0.928237711957097,0.20866291644126175
1782987658986061000,0.91506103515625,-0.3018985417604446,0.9225123200476169,-0.0490580454185605
1782987658996136200,0.92513623046875,-0.13969021024107933,0.9184668440490961,-0.304239405798167
1782987659006210000,0.9352099609375,0.08898352083265781,0.7788812632262706,-0.4643004961557686
1782987659016285200,0.94528515625,0.3449228599727154,0.598898205563426,-0.5598658795967698
1782987659026360000,0.955360107421875,0.6367535967051983,0.4710933711662888,-0.5890922663420438
1782987659036434200,0.96543408203125,0.9335077613145113,0.41522359990626573,-0.46183659026026724
1782987659046509000,0.975509033203125,1.1616279501587152,0.3381514661416411,-0.3379730408348143
1782987659056584200,0.985584228515625,1.328703010931611,0.3517369239017367,-0.24656024702861903
1782987659066658000,0.995657958984375,1.3950725488960742,0.34870267077237366,-0.22666429094746707
1782987659076733200,1.005733154296875,1.3764011661738156,0.32422581664174793,-0.18068506845235824
1782987659086808300,1.015808349609375,1.2918804699689148,0.27616438104510305,-0.16905658997893333
1782987659096882200,1.025882080078125,1.0944874278217553,0.2811886389479041,-0.14533347682505846
1782987659106957300,1.035957275390625,1.0088239913225174,0.3077683105766773,-0.1178570024870336
1782987659117032000,1.046031982421875,0.9931909533828497,0.28627836330235,-0.08730199748650193
1782987659127106300,1.056106201171875,0.9978063382238149,0.2133975437477231,-0.02352759058177471
1782987659137181000,1.066180908203125,0.9652233345270156,0.062333122055232525,-0.03724018185287714
1782987659147256000,1.076256103515625,0.8548574184477329,-0.09584873042702674,-0.12395371192693709
1782987659157330000,1.086329833984375,0.7268401103436947,-0.26095512147545813,-0.19206644029691813
1782987659167405000,1.096405029296875,0.5664794525176287,-0.3650231064543128,-0.24826412833705544
1782987659177480200,1.106480224609375,0.42813948784172534,-0.4204609160378575,-0.31470088631883264
1782987659187554000,1.116553955078125,0.3402104444980621,-0.48026130474507805,-0.33929859035015103
1782987659197629200,1.126629150390625,0.237258604067564,-0.5632014537602663,-0.3000504296757281
1782987659207703000,1.136703125,0.08276186983883381,-0.6343038654655218,-0.2568326347179711
1782987659217778200,1.146778076171875,-0.06979892789125441,-0.6278454831063747,-0.19097309210225938
1782987659227853000,1.15685302734375,-0.17926351121664047,-0.5785162195309996,-0.13200111704319714
1782987659237927200,1.16692724609375,-0.1583569167882204,-0.6181190388619899,-0.06517623652666807
1782987659248002000,1.177001953125,-0.08897767561376094,-0.7330003865391016,0.02640738380178809
1782987659258077200,1.1870771484375,-0.09642623805403709,-0.8532964527413248,0.14108575625270603
1782987659268151000,1.197151123046875,-0.2245668802767992,-0.9570350596353411,0.1377161336891353
1782987659278226200,1.20722607421875,-0.41912732934653757,-0.985566157592833,0.026619711378216743
1782987659288301300,1.21730126953125,-0.6273550692409277,-0.9531976734295486,-0.0701538788087666
1782987659298375200,1.227375244140625,-0.7123539043515921,-0.8945639904141426,-0.11095189927369356
1782987659308450300,1.2374501953125,-0.7122989592939615,-0.9544806989774107,-0.029853724863380192
1782987659318525200,1.247525146484375,-0.5265338110983372,-1.206863806940615,0.1899045860879123
1782987659328599300,1.257599365234375,-0.13845453096628188,-1.4671063962325452,0.3668256258316338
1782987659338674200,1.267674072265625,0.16463585092723368,-1.5216735604614018,0.394964509601146
1782987659348749000,1.2777490234375,0.18218319805562494,-1.4520233933910727,0.30981676753908394
1782987659358823200,1.2878232421875,-0.084714172950387,-1.2999962641462683,0.15882599560469388
1782987659368898000,1.29789794921875,-0.6223930629193782,-1.0556713749542832,-0.0386319284722209
1782987659378973000,1.307972900390625,-1.2235340789735316,-0.714927554231882,-0.2578796595528722
1782987659389047000,1.318047119140625,-1.7323317423731088,-0.35545097598880526,-0.43410351081266996
1782987659399122000,1.328121826171875,-2.063427737045288,0.026807342904806134,-0.5257268786296249
1782987659409196000,1.338196044921875,-2.1780776140540836,0.31995734554231164,-0.46149362204149363
1782987659419271000,1.34827099609375,-2.059603794842958,0.5273170704305171,-0.34078999795168635
1782987659429346000,1.358345947265625,-1.7392396220654247,0.6291738091006874,-0.132170189999789
1782987659439420200,1.368420166015625,-1.3015923011660575,0.5741729296296835,0.06295169234499334
1782987659449495000,1.3784951171875,-0.7400210789561271,0.42930239414125676,0.17997414370402692
1782987659459570200,1.388570068359375,-0.1992301944464445,0.30297698464691636,0.1317240536674857
1782987659469644000,1.39864404296875,0.2568576230287552,0.19169044659137724,0.05116378552615642
1782987659479719200,1.40871923828125,0.5590314745992422,0.09892974530756472,-0.09142273067831992
1782987659489794000,1.4187939453125,0.6634662470638751,0.006334755979478359,-0.35356888856925067
1782987659499868200,1.4288681640625,0.5160772990137338,-0.032219138820469374,-0.7329205993011594
1782987659509943000,1.438943115234375,0.19650515339672564,-0.05667611920684576,-1.1266295558832584
1782987659520018200,1.44901806640625,-0.30353111139833927,0.010746142680943012,-1.4642634278915823
1782987659530092000,1.459092041015625,-0.7923574153929949,0.13229483929276464,-1.696647411660105
1782987659540167200,1.469167236328125,-1.1022188988566397,0.3098679132044315,-1.7044754749372601
1782987659550242300,1.4792421875,-1.136008940255642,0.4496247589409351,-1.4906925851337611
1782987659560316200,1.489316162109375,-0.8766565778017044,0.5771101521253585,-1.1573700004532932
1782987659570391300,1.499391357421875,-0.40565526883304115,0.6659031188219785,-0.7988898859016597
1782987659580466000,1.5094658203125,0.13655249673724174,0.7131415475979447,-0.4427819073088467
1782987659590540300,1.519540283203125,0.5937023904860019,0.7132526067569851,-0.14422142392992973
1782987659600615000,1.529614990234375,1.0154401945918798,0.6861024417638778,0.03594853460714221
1782987659610689300,1.539689208984375,1.3740455429583787,0.6246142461001872,0.11112535614445805
1782987659620764000,1.549763916015625,1.6591864266633987,0.5598764009907842,0.12522153990566728
1782987659630839000,1.559839111328125,1.7742121512472628,0.4758157235130667,0.026873540008813143
1782987659640913000,1.569912841796875,1.7527122671008109,0.41691637529879805,-0.18092355338335037
1782987659650988000,1.579988037109375,1.6418009920984507,0.3254483441740274,-0.4233326720818877
1782987659661063200,1.590063232421875,1.4930945317089557,0.21872458398938177,-0.5958028698965907
1782987659671137000,1.600136962890625,1.2864128522127867,0.1328121411651373,-0.6702753425568342
1782987659681212200,1.610212158203125,1.101239240169525,0.06136340024024248,-0.6804261496931314
1782987659691287000,1.620287109375,0.9354974738270043,0.09387684583216906,-0.6813982095956802
1782987659701361200,1.630361083984375,0.7574263872653245,0.11563362734913825,-0.6730221570469439
1782987659711436000,1.64043603515625,0.6445587174981832,0.15265899740755556,-0.6387791111834347
1782987659721511200,1.65051123046875,0.5974181961387396,0.18909750748872756,-0.5451686612024903
1782987659731585000,1.6605849609375,0.6200894621521235,0.19468086057901382,-0.4927440619602799
1782987659741660200,1.67066015625,0.6422773285627364,0.21644670218527315,-0.40264381205737587
1782987659751735300,1.6807353515625,0.7374550278604031,0.2250935344994068,-0.2684139130488038
1782987659761809200,1.69080908203125,0.8501531862795353,0.18612462915778158,-0.14815072620287537
1782987659771884300,1.70088427734375,0.9000111499041319,0.1292903967797756,-0.12379340679869055
1782987659781959200,1.710959228515625,0.9586948095411062,0.011300561693310738,-0.1625869555734098
1782987659792033300,1.721033203125,0.973316624611616,-0.12859189312160013,-0.28763357730358835
1782987659802108200,1.731108154296875,0.8386182313084601,-0.23008885856866834,-0.42199236338883633
1782987659812182300,1.741182373046875,0.5440425797820091,-0.3041156332880258,-0.5895259815841913
1782987659822257200,1.751257080078125,0.29160277319550515,-0.35743221293389793,-0.6152003749363124
1782987659832332000,1.76133203125,0.11160217987596988,-0.36918636361360546,-0.5555969701059162
1782987659842406100,1.77140625,0.0006955810487270354,-0.3861123639732599,-0.45064621094316243
1782987659852481000,1.78148095703125,-0.10266834731400012,-0.41999885148406024,-0.36273631069138645
1782987659862556200,1.79155615234375,-0.22240356476306913,-0.4465367297977209,-0.26521117148473855
1782987659872630000,1.801630126953125,-0.33677228674292564,-0.47889410804510113,-0.25005934119075535
1782987659882705200,1.811705078125,-0.265735341489315,-0.5563222156405448,-0.18606486179456114
1782987659892779300,1.821779296875,-0.13826806848347187,-0.5762509049475193,-0.14435001874566078
1782987659902853400,1.831853271484375,-0.027227029621601104,-0.5224713839650154,-0.0835841460071504
1782987659912928300,1.84192822265625,-0.012148702955245972,-0.4526929143399,-0.02140153833851218
1782987659923003400,1.85200341796875,-0.14873568648397922,-0.39747780759632584,0.09796703775525092
1782987659933077200,1.8620771484375,-0.29529636701643464,-0.6080342826992273,0.44140565051957964
1782987659943152400,1.87215234375,-0.17549568311572075,-0.8671095817774533,0.7910673755824565
1782987659953227300,1.882227294921875,0.16286884125471116,-0.9948913275599479,0.9647187460057437
1782987659963301400,1.89230126953125,0.6325228272676467,-1.06260585039258,1.1621801772139966
1782987659973376300,1.902376220703125,0.2296948908150196,-0.9318512262791394,1.2007514615401624
1782987659983450400,1.912450439453125,-0.6530138266324996,-0.6111468617618083,0.9252914293721318
1782987659993525200,1.922525146484375,-1.5051818598657845,-0.5262023871868848,0.7052075397282839
1782987660003600400,1.932600341796875,-2.1210510739743706,-0.6103676940828562,0.2285917518787086
1782987660013674200,1.94267431640625,-2.5236300041019915,-0.6410773051232099,-0.29481150610893964
1782987660023749400,1.952749267578125,-2.9695658453971148,-0.490159013903141,-0.7100463580615818
1782987660033824500,1.962824462890625,-3.110411070892215,-0.06563041003495454,-0.9151112500108778
1782987660043898400,1.9728984375,-2.7454852873325346,0.4090992718070745,-0.7647710509397089
1782987660053973500,1.982973388671875,-1.856492375048995,0.577700519233942,-0.17747662779986859
1782987660064048400,1.99304833984375,-0.527772412982583,0.5043114578962326,0.616462796087563
1782987660074122500,2.00312255859375,0.7133896771401167,0.3802472713321447,1.1675779446043073
1782987660084197400,2.013197265625,1.5602087505608797,0.22183540948629377,1.3592163687475025
1782987660094272300,2.023272216796875,1.9169272622674702,0.06171440563499927,1.1999556349873541
1782987660104346400,2.033346435546875,1.7984528585344552,-0.07241174073815346,0.7686777029894292
1782987660114421200,2.043421142578125,1.4117080418765544,-0.12941431542038917,0.1573388257868588
1782987660124496400,2.053496337890625,0.8687970964729785,-0.12141513336002827,-0.38128582059964533
1782987660134570200,2.0635703125,0.2311538574516773,-0.056175476208329196,-0.8580145673044025
1782987660144645400,2.073645263671875,-0.38681086763143535,0.08356091126203537,-1.2153355749487875
1782987660154719200,2.08371923828125,-0.8840022643893957,0.24988661497235296,-1.3006919913254678
1782987660164794400,2.09379443359375,-1.1929448794424533,0.38624563496410846,-1.1822887531325221
1782987660174869200,2.103869140625,-1.3437953661233186,0.5071580794990063,-0.8813258847869933
1782987660184943400,2.113943359375,-1.3391010708272457,0.6286760887116193,-0.5843471176415681
1782987660195018200,2.124018310546875,-1.1829448789536952,0.8164718659520149,-0.36511794513091445
1782987660205093400,2.13409326171875,-0.8143605728864669,1.0146364769935607,-0.21297683411762117
1782987660215167200,2.144167236328125,-0.2723983065098524,1.1175707817673683,-0.15484890866726636
1782987660225242400,2.154242431640625,0.29112697237730023,1.2033283262908459,-0.14421163318827748
1782987660235317500,2.1643173828125,0.84367259208858,1.1715478711485863,-0.177036628947407
1782987660245391400,2.174391357421875,1.2809803057700395,1.0902630881249904,-0.2076512551806867
1782987660255466500,2.184466552734375,1.4556640879809855,0.9924316594481467,-0.25842764882445335
1782987660265541400,2.194541259765625,1.5178186385989187,0.9263619812130928,-0.36024098674431443
1782987660275615500,2.204615478515625,1.6437106251120566,0.8673071501761674,-0.41034707991108293
1782987660285690400,2.2146904296875,1.8389602254897355,0.7832020490348338,-0.4012586413092911
1782987660295765500,2.224765625,1.9593916085094212,0.6841489696085452,-0.3017065263196826
1782987660305839400,2.23483935546875,1.9347826524317264,0.5874579431384801,-0.17944091361016035
1782987660315914500,2.24491455078125,1.765651243650913,0.5591203219264745,-0.09415215564221144
1782987660325989000,2.254989013671875,1.5448036761581896,0.5346843843281269,-0.1028032257400453
1782987660336063500,2.2650634765625,1.3094435991883278,0.5234194784700871,-0.16191826253160832
1782987660346138400,2.275138427734375,1.1286351966172457,0.46851533737182616,-0.19662877977639437
1782987660356212500,2.28521240234375,1.0039484942406416,0.3966720441713929,-0.16426906344145537
1782987660366287400,2.295287353515625,0.8818576535761355,0.34629911676198244,-0.046346156111359595
1782987660376362200,2.3053623046875,0.7730886512994766,0.2780178999572992,0.11382979279756546
1782987660386436400,2.315436279296875,0.6676876641511916,0.23889584988057613,0.25276801562756296
1782987660396511200,2.32551123046875,0.5329875172823667,0.2169587433606386,0.3792095988474786
1782987660406586400,2.33558642578125,0.4683545938521623,0.20179858362972736,0.5141271878592669
1782987660416660200,2.34566015625,0.38089433706402775,0.1389852768421173,0.61098524145931
1782987660426735400,2.3557353515625,0.19262685065865515,0.04698328497111797,0.6699747521750629
1782987660436810200,2.365810302734375,-0.059086979740858074,-0.06905979996174573,0.7171627659380435
1782987660446884400,2.37588427734375,-0.2157645651400089,-0.22741817805469033,0.7151543487250804
1782987660456959200,2.385959228515625,-0.34620296291112895,-0.3983288714677095,0.6585794979356229
1782987660467034400,2.396034423828125,-0.49386371363997456,-0.5219789242729544,0.5445604661762714
1782987660477108500,2.4061083984375,-0.5171674323379993,-0.6063049746885896,0.4888865097492933
1782987660487183400,2.416183349609375,-0.3992360494405031,-0.6907844621002673,0.4720793134637177
1782987660497257500,2.426257568359375,-0.28378596196472644,-0.7557099387362599,0.5106671105332672
1782987660507332400,2.436332275390625,-0.23738602983951568,-0.820772485755384,0.492805436758697
1782987660517407500,2.446407470703125,-0.29408991383612154,-0.814336315228045,0.3631714872382581
1782987660527481300,2.4564814453125,-0.4082014461845159,-0.7730497805938125,0.29210999206528065
1782987660537556500,2.466556396484375,-0.6424480089545249,-0.7317071318581699,0.18231997617781162
1782987660547631400,2.47663134765625,-0.9371440719902515,-0.6280588335961103,0.000883650966733694
1782987660557705500,2.48670556640625,-1.1769225499242544,-0.6390227106809616,-0.17797551723271607
1782987660567780400,2.4967802734375,-1.103359885585308,-0.832965612374246,-0.11609788386002182
1782987660577855200,2.506855224609375,-0.6421919883668422,-1.0250386285424231,0.10711275950223206
1782987660587929300,2.516929443359375,-0.1911041711360216,-1.125445460665226,0.26288652792945505
1782987660598004200,2.527004150390625,0.06793722567260264,-1.1342638501539826,0.16233604955226183
1782987660608079400,2.537079345703125,0.0968663830369711,-1.0085217935055493,-0.15234773950129746
1782987660618153200,2.5471533203125,-0.08291209196448325,-0.8759744407564402,-0.5074442029640078
1782987660628228400,2.557228271484375,-0.3776671917110681,-0.8120294995903968,-0.8039837019093334
1782987660638303200,2.56730322265625,-0.7649673041641711,-0.6796005125239492,-1.0216806964166463
1782987660648377300,2.57737744140625,-1.1976426818698644,-0.39256665467917917,-1.136572857748717
1782987660658452200,2.5874521484375,-1.5915782868146895,-0.08202449547499417,-1.1279960219308733
1782987660668526300,2.5975263671875,-1.8615262775629757,0.16893588620871305,-0.945667131794244
1782987660678601200,2.607601318359375,-2.0057699133247135,0.33177959302216764,-0.7119650511644781
1782987660688676400,2.61767626953125,-1.9395289701759815,0.4568412661910057,-0.5132242476701736
1782987660698750200,2.627750244140625,-1.6305799253821371,0.5720727424800396,-0.35947584759071466
1782987660708825300,2.637825439453125,-1.1836404600024222,0.6157406192928552,-0.15203034411519764
1782987660718900500,2.647900390625,-0.748947312733531,0.5988569967702031,-0.026392770754545925
1782987660728974300,2.657974365234375,-0.43113808513581753,0.5844020626991987,-0.06102525432705879
1782987660739049500,2.668049560546875,-0.3399059085935354,0.6086646895572543,-0.251191121699661
1782987660749124400,2.678124267578125,-0.40763036829829213,0.6538587530240416,-0.567904663015157
1782987660759198500,2.688198486328125,-0.568867808958888,0.5926014435067772,-0.9027291766911745
1782987660769273300,2.6982734375,-0.7486392696976661,0.5251756744876503,-1.2167689687527716
1782987660779348500,2.708348388671875,-0.8590770819693804,0.5365951863855123,-1.4735256156250833
1782987660789422300,2.71842236328125,-0.8534048815518617,0.558957240319252,-1.6283279086716471
1782987660799497500,2.72849755859375,-0.6699743137836456,0.6271405497074127,-1.6217593439362943
1782987660809572400,2.738572265625,-0.3141588883966207,0.7069394780874252,-1.4351632978744804
1782987660819646500,2.748646484375,0.21917525036633012,0.732318834015727,-1.1424342971280217
1782987660829721300,2.758721435546875,0.7883131084382533,0.7380708216711879,-0.8538153620488941
1782987660839795500,2.76879541015625,1.2966858244240282,0.7403861128762363,-0.6264063902139664
1782987660849870300,2.778870361328125,1.7700877647936344,0.6751788966894149,-0.44136371107399464
1782987660859945200,2.7889453125,2.080130450043082,0.5939516890719533,-0.34881124571338296
1782987660870019300,2.799019287109375,2.154068377435207,0.46775428987145423,-0.30379706885814667
1782987660880094200,2.80909423828125,2.019541833567619,0.38901948359161614,-0.29520035929605365
1782987660890169300,2.81916943359375,1.776962911260128,0.3699859895586967,-0.36901466030851005
1782987660900248000,2.829248046875,1.4660790990114212,0.3755854170009494,-0.5062291280858219
1782987660910323200,2.8393232421875,1.0810662207126618,0.31199060444682836,-0.5622387462079524
1782987660920398300,2.8493984375,0.6987006420522928,0.2463973115518689,-0.6248264275461435
1782987660930472200,2.85947216796875,0.30853403425216674,0.1953241269186139,-0.7352645320788025
1782987660940547300,2.86954736328125,0.04703881455063819,0.1451853005260229,-0.8002939074806869
1782987660950622200,2.879622314453125,-0.09325871393382548,0.06777385180443525,-0.8173499639607965
1782987660960696300,2.8896962890625,-0.1676414624840021,0.0005064882174134254,-0.8289189673319458
1782987660970771200,2.899771240234375,-0.2572410693883896,0.024373393756151197,-0.8664565977614372
1782987660980846000,2.90984619140625,-0.36332653166949747,0.08277151445001363,-0.9064261315129697
1782987660990920200,2.919920166015625,-0.5289490555465222,0.10350947431325912,-0.9123248341627418
1782987661000995000,2.9299951171875,-0.710669896787405,0.15678718325346708,-0.8632477917827666
1782987661011069200,2.940069091796875,-0.8024901023507117,0.18949936628788708,-0.8766590620197355
1782987661021144000,2.95014404296875,-0.8019248696833848,0.20646394509226082,-0.9526388705030083
1782987661031219200,2.96021923828125,-0.6606266397237778,0.19673253241181374,-0.9287424466088413
1782987661041293000,2.97029296875,-0.3919084830313921,0.1285235040605068,-0.8419112084392457
1782987661051368200,2.9803681640625,-0.07079203058183192,0.07141805352568625,-0.7238681087955832
1782987661061443000,2.990443115234375,0.14867431168556214,0.05790858361124992,-0.5940666937537491
1782987661071517200,3.00051708984375,0.22894378018677233,0.10916443133503198,-0.5074514364223927
1782987661081592000,3.010592041015625,0.12245149067044257,0.12868512436300517,-0.4168842996601015
1782987661091667200,3.020667236328125,-0.06004091946482658,0.14321370819211005,-0.3747835990987718
1782987661101741000,3.030740966796875,-0.17995266252458095,0.14523440036475657,-0.446452558645606
1782987661111816200,3.040816162109375,-0.21746844644844532,0.11036240894794463,-0.5574303230129182
1782987661121891300,3.050891357421875,-0.26360826633274553,0.04716068736463785,-0.6763382227923721
1782987661131965200,3.060965087890625,-0.2759621364712715,-0.02130640740096569,-0.7532652489978819
1782987661142040300,3.071040283203125,-0.2634130360215902,-0.11810294007211923,-0.7177092939049005
1782987661152114200,3.0811142578125,-0.1845084261327982,-0.33165655116438864,-0.5180814784429967
1782987661162189300,3.091189208984375,0.07510930925905704,-0.6474100152760743,-0.1932799077399075
1782987661172264200,3.10126416015625,0.3920990371674299,-0.7474377849534154,-0.02694265972226858
1782987661182338300,3.11133837890625,0.4735328732728958,-0.77124536152035,-0.0420486050479114
1782987661192413200,3.1214130859375,0.07578910821676253,-0.706814974924922,-0.11402122371643782
1782987661202488000,3.131488037109375,-0.7644102548032998,-0.47962592945098875,-0.218134801402688
1782987661212562200,3.141562255859375,-1.719462908449769,-0.14443214407116173,-0.3330518049150705
1782987661222637000,3.151636962890625,-2.5658967819452285,0.1716243946403265,-0.41736119645684955
1782987661232712200,3.161712158203125,-2.968860327476263,0.41644700422137976,-0.42342414975762366
1782987661242786000,3.1717861328125,-2.8299755883991717,0.49972588367164134,-0.3119078945994377
1782987661252861200,3.181861083984375,-2.1067951696068046,0.3704676355957985,-0.14595789233371614
1782987661262936000,3.19193603515625,-1.1182605175971985,0.09483137007802725,0.12663739805296062
1782987661273010200,3.20201025390625,-0.24939152493178843,-0.23846885664016007,0.39380744852051136
1782987661283085000,3.2120849609375,0.3292839768141508,-0.39861791754215953,0.39659357210770246
1782987661293159200,3.2221591796875,0.5500602326363325,-0.31979514071792364,0.12651055680289863
1782987661303234000,3.232234130859375,0.5081517667114734,-0.09680880763083696,-0.24696006000116466
1782987661313309200,3.24230908203125,0.32715807070136066,0.09370470413565635,-0.5407261487103998
1782987661323383000,3.252383056640625,0.23784078786969184,0.2816962962090969,-0.6690024000115692
1782987661333458200,3.262458251953125,0.33182547799050804,0.45489071664512154,-0.6247121535167097
1782987661343533000,3.272532958984375,0.628956659218669,0.492879963299632,-0.3757778708331287
1782987661353607200,3.282607177734375,0.8587988495498895,0.4720756602019071,-0.10401333218216896
1782987661363682300,3.292682373046875,0.9206827665328979,0.4966729258418083,0.07735285040214657
1782987661373757200,3.302757080078125,0.8584317698031664,0.616311697179079,0.047732788164168594
1782987661383831300,3.312831298828125,0.6429214716851711,0.8020315449282527,-0.14949088876545427
1782987661393906200,3.32290625,0.3702566231936216,0.9505968432813883,-0.2941322916731238
1782987661403981300,3.332981201171875,0.17172610144913195,1.0065963784009218,-0.3887492883481085
1782987661414055200,3.34305517578125,0.06054068568050861,0.9618176177367568,-0.4082869325108826
1782987661424130300,3.35313037109375,-0.04159048601686954,0.80620473895967,-0.43447643577829
1782987661434205000,3.363204833984375,-0.08839023111462592,0.6077893680274487,-0.4423835556410253
1782987661444279300,3.373279296875,0.019426585003733635,0.43736412004381414,-0.4096114591129124
1782987661454354000,3.38335400390625,0.23834932191371916,0.25901509332358835,-0.38091786407008765
1782987661464428300,3.39342822265625,0.4997299753248691,0.07948445560336112,-0.31417467048764225
1782987661474503200,3.403503173828125,0.7587737102210521,-0.013743278670310973,-0.2881444494351744
1782987661484578000,3.413578125,0.9567162029445171,-0.07347323248982429,-0.2653461960412562
1782987661494652200,3.423652099609375,1.037501219752431,-0.10695873798429965,-0.20962240912318228
1782987661504727000,3.43372705078125,0.9837275439888238,-0.11356354307681321,-0.16079481145963073
1782987661514802200,3.44380224609375,0.8744014923512935,-0.18400076887160538,-0.15234642432704568
1782987661524876000,3.4538759765625,0.7731272297441959,-0.27525223463624715,-0.10536123965978622
1782987661534951200,3.463951171875,0.7335071670174598,-0.39305677628368135,-0.061408700686693185
1782987661545026000,3.474026123046875,0.7034060432642698,-0.5226856112375855,-0.04220445319674909
1782987661555100200,3.48410009765625,0.7246101593345403,-0.6395239382013678,-0.10806268063820898
1782987661565175000,3.494175048828125,0.6494055730074644,-0.7404170925363898,-0.20063830767869947
1782987661575250200,3.504250244140625,0.4781581949859857,-0.8236804821565746,-0.28718919453695413
1782987661585324000,3.514323974609375,0.2804360670149326,-0.9427627886548637,-0.3617107670359313
1782987661595399200,3.524399169921875,0.17335984013080596,-1.0598097899332641,-0.36148528771698474
1782987661605473000,3.53447314453125,0.1545218686699867,-1.1030702549889684,-0.36314532988369463
1782987661615548200,3.544548095703125,0.16575287225842475,-1.1541314569234848,-0.28738961247988043
1782987661625623300,3.554623291015625,0.21848317644894122,-1.2090262456715106,-0.159198262983188
1782987661635697200,3.564697265625,0.25562720445096493,-1.302686233882606,0.027161782365664838
1782987661645772300,3.574772216796875,0.30011984165012834,-1.3283622346699238,0.24791326907277106
1782987661655847200,3.58484716796875,0.29054420405328274,-1.2634326663807034,0.3644301089972257
1782987661665921300,3.59492138671875,0.28434184228181836,-1.1811878061532974,0.46421778630837796
1782987661675996200,3.60499609375,0.2977542815625667,-1.0834393795847892,0.5775431367151439
1782987661686071000,3.615071044921875,0.3185539084851742,-0.9758037652522324,0.6717859663154929
1782987661696145200,3.625145263671875,0.366706821757555,-0.8639616391405462,0.7650131160672754
1782987661706220000,3.635219970703125,0.44026422539949417,-0.7452662861332296,0.8797628732539713
1782987661716295200,3.645295166015625,0.5460369684696197,-0.6576894172281026,1.00924353190884
1782987661726369000,3.655369140625,0.6614923166424036,-0.5939870526462793,1.2026968234542756
1782987661736444200,3.665444091796875,0.7598083139657974,-0.48709319659173483,1.3327195530965923
1782987661746518000,3.67551806640625,0.6250239959448576,-0.41638884429335593,1.4259411498904226
1782987661756593200,3.68559326171875,0.3584089490115642,-0.4433165987074375,1.492695010997355
1782987661766668000,3.69566796875,0.13200257834792137,-0.4514174875766039,1.5148539435744284
1782987661776742100,3.7057421875,0.047743747949600214,-0.4502601342350244,1.4564005855619906
1782987661786817000,3.715817138671875,-0.026696868267655372,-0.46422903835475443,1.4045812587365507
1782987661796892200,3.72589208984375,-0.16658581595122812,-0.588586654907465,1.435237678284943
1782987661806966000,3.735966064453125,-0.10878419984579085,-0.8566250126421451,1.5702055361792444
1782987661817041200,3.746041259765625,0.18438216940462587,-0.9356669851750135,1.5448444465599953
1782987661827116300,3.7561162109375,0.4844119946837425,-0.744301532754302,1.2094921096175908
1782987661837190100,3.766190185546875,0.4471861336171627,-0.48831017116606235,0.7695802778523415
1782987661847265300,3.776265380859375,-0.11237959398925304,-0.24702830293178557,0.37762218352556226
1782987661857340200,3.786340087890625,-1.0037228687912225,0.06469955892562866,-0.04931720781140029
1782987661867414300,3.796414306640625,-1.8566689006596802,0.4583826504141092,-0.4949360190466046
1782987661877489200,3.8064892578125,-2.3569430658638475,0.8133142787039279,-0.7819902620922774
1782987661887563300,3.816563232421875,-2.2567115903079507,1.016361401090026,-0.7356848763827234
1782987661897634300,3.82663427734375,-1.6734318096369505,0.9851099382579326,-0.40246180655397473
1782987661907709400,3.83670947265625,-1.0336989048600196,0.783293234449625,0.007407280581817031
1782987661917783300,3.846783203125,-0.4877881931185722,0.6807984901368618,0.29119316948130725
1782987661927858400,3.8568583984375,-0.061060910162329674,0.7303256143718957,0.34346382027082145
1782987661937933600,3.86693359375,0.18627894293665884,0.8106272315770388,0.34695882277972995
1782987661948007400,3.87700732421875,0.30129589969217774,0.8539069858551025,0.3166103732019663
1782987661958082600,3.88708251953125,0.3652081076323986,0.8120347602874041,0.32266200139112766
1782987661968157200,3.8971572265625,0.4757897122889757,0.7269353874117136,0.23207623299360275
1782987661978231600,3.9072314453125,0.6403472372829914,0.5957715979754924,0.0385313907071948
1782987661988306200,3.91730615234375,0.7206266426563263,0.42371699522435663,-0.1574427976179868
1782987661998381300,3.92738134765625,0.6603671120047568,0.26752807012498375,-0.3336802390117198
1782987662008455200,3.937455078125,0.4804261399179697,0.22179916912913322,-0.5551655929513275
1782987662018530300,3.9475302734375,0.313149419093132,0.2698801862090826,-0.7892855336669832
1782987662028604200,3.957604248046875,0.19020108481645584,0.32991058427989484,-0.9147598062247038
1782987662038679300,3.96767919921875,0.07075520570278167,0.3841162217199802,-0.8699097338899969
1782987662048754400,3.97775439453125,0.03588847498297691,0.4631745608657598,-0.740574840381369
1782987662058828300,3.987828369140625,-0.012440963900089263,0.5594277804404497,-0.5869114151716232
1782987662068903400,3.9979033203125,-0.1200362462222576,0.6460293745726347,-0.5077832987252623
1782987662078978300,4.007978271484375,-0.36387247511446474,0.6847673937678337,-0.49447629258036613
1782987662089052400,4.018052490234375,-0.687967066591978,0.7164367897510528,-0.5017532978460192
1782987662099127300,4.028127197265625,-0.8858861784398555,0.7193307576268911,-0.490317054009065
1782987662109202400,4.038202392578125,-0.9091320294708013,0.6580576660186052,-0.46532633207216856
1782987662119276300,4.0482763671875,-0.7662912462443113,0.5506996995836496,-0.3952631272215396
1782987662129351400,4.058351318359375,-0.4730740235894918,0.41093759315013884,-0.36737419962510465
1782987662139425300,4.06842529296875,-0.09164484899640082,0.2859346644312143,-0.4016414300817996
1782987662149500400,4.07850048828125,0.28312720579504963,0.19776012189388273,-0.5111530674193054
1782987662159575600,4.088575439453125,0.5827034420877695,0.12407646152377128,-0.6658814915120601
1782987662169649400,4.0986494140625,0.7827174803882837,0.03590308803021908,-0.8250000403225421
1782987662179724500,4.108724609375,0.9316583340555429,-0.025693244183063506,-0.9491932600937784
1782987662189799400,4.11879931640625,1.024805988830328,-0.0762654935568571,-0.9893084859263152
1782987662199873500,4.12887353515625,1.0814216100215912,-0.06927110462486744,-0.9814498083151877
1782987662209948400,4.138948486328125,1.1034534090876578,-0.10522563058137893,-0.9850050165787338
1782987662220023300,4.149023193359375,1.0675374615758657,-0.1528355230182409,-0.910986059839651
1782987662230097400,4.159097412109375,0.9526473460704088,-0.18038228611350057,-0.8208073378730565
1782987662240172300,4.16917236328125,0.7643114706039428,-0.20800912870764732,-0.7557212638478725
1782987662250247400,4.179247314453125,0.5204658893615007,-0.24187398890852926,-0.7451848183948546
1782987662260321300,4.1893212890625,0.35247312922179697,-0.30213235051631926,-0.7224347880568355
1782987662270396400,4.199396484375,0.26041677681505676,-0.3588111000716686,-0.6832070856485516
1782987662280470300,4.20947021484375,0.17462006932497023,-0.42800183293670413,-0.6128953859295696
1782987662290545400,4.21954541015625,0.08205459835231303,-0.4766168107628822,-0.5604242441318928
1782987662300620300,4.229620361328125,0.11796586968898773,-0.4989122292011976,-0.5641577315717935
1782987662310694400,4.2396943359375,0.2829056719988584,-0.5454600453644991,-0.5450627166099846
1782987662320769300,4.249769287109375,0.45351767472624777,-0.6463187129080296,-0.5268295791745186
1782987662330844400,4.259844482421875,0.5636632260531187,-0.7036486198484897,-0.5169598540019243
1782987662340918300,4.269918212890625,0.5751461585760116,-0.7145557983100413,-0.4885029172591865
1782987662350993400,4.279993408203125,0.48699791952371596,-0.7685030770748853,-0.4501460063360631
1782987662361068300,4.290068359375,0.3602934475839138,-0.7447597979158163,-0.42617242555245755
1782987662371142400,4.300142333984375,0.2133767932206392,-0.7390531107068061,-0.3999685284335166
1782987662381217500,4.310217529296875,0.06545885286033153,-0.7655208463937043,-0.2888065666057169
1782987662391292400,4.32029248046875,0.028308395117521284,-0.7949579532802105,-0.1263577773939818
1782987662401366500,4.330366455078125,0.03260463100671768,-0.8541115685164928,0.057413712766394016
1782987662411441400,4.34044140625,0.04449965146183967,-0.8753905033886432,0.17787118007540703
1782987662421515500,4.350515625,0.03404313937723637,-0.8723357919931412,0.22607618886120617
1782987662431590400,4.36059033203125,-0.051260231637954706,-0.8646908301979302,0.2667000218030065
1782987662441665500,4.37066552734375,-0.21199556799530983,-0.7775392009675502,0.2955835864599794
1782987662451739400,4.380739501953125,-0.44293665947914124,-0.615457710698247,0.3041320729661733
1782987662461814500,4.390814453125,-0.7058177805811167,-0.42124271406531333,0.29148703786134716
1782987662471889200,4.40088916015625,-0.9124608816325664,-0.22779168754220008,0.20250117894113062
1782987662481963500,4.410963623046875,-0.9621195232927798,-0.09528291323781013,0.12818287392929195
1782987662492038100,4.4210380859375,-0.8613309983760118,-0.051527942663431164,0.13816986880600451
1782987662502113300,4.43111328125,-0.45830607804656026,-0.268855519336462,0.33769385856725276
1782987662512187100,4.441187255859375,0.16352584385871885,-0.582445083412528,0.7194448855258524
1782987662522262300,4.45126220703125,0.6215384919166564,-0.820613788062334,0.8973177461016922
1782987662532337400,4.46133740234375,0.6362731197118758,-0.8628928408652543,0.6657394526928663
1782987662542411300,4.471411376953125,0.19056524195373056,-0.759855660238862,0.19770963381566106
1782987662552486400,4.481486328125,-0.6272422565162181,-0.5535720401495695,-0.2468658789116889
1782987662562560300,4.491560302734375,-1.574762761092186,-0.21945815896093845,-0.6676610684052109
1782987662572635400,4.501635498046875,-2.352162845849991,0.18054069154560565,-0.8924661413520574
1782987662582710300,4.511710205078125,-2.7800597571074963,0.5834937156826258,-0.9220326467718929
1782987662592784400,4.521784423828125,-2.6171558445394036,1.0577478889673948,-0.8195222664985805
1782987662602859300,4.531859375,-1.8699293642491102,1.3875789782702923,-0.5324235267240554
1782987662612934400,4.541934326171875,-0.9040589639902115,1.3380033387184143,-0.03123107763119042
1782987662623008300,4.55200830078125,-0.027132337075471878,1.117261569687724,0.4881147947244346
1782987662633083400,4.56208349609375,0.6783715552508831,1.0057675263613461,0.7880706049192696
1782987662643158500,4.572158447265625,1.1238701741725206,1.0162947655946015,0.8559872261952608
1782987662653232400,4.582232421875,1.4353320785701273,1.1013771873354912,0.7886061000354587
1782987662663307500,4.5923076171875,1.6293775638550518,1.126982168713212,0.7681011452104896
1782987662673381400,4.60238134765625,1.7232833435207604,1.081677630609274,0.7785428981173783
1782987662683456500,4.61245654296875,1.717209576565027,0.9977718514323234,0.7835127224192023
1782987662693531400,4.622531494140625,1.500872764495015,0.9383119467258453,0.7083519752338528
1782987662703605500,4.63260546875,1.0656032786428928,0.9201181183874606,0.54636283942312
1782987662713680400,4.642680419921875,0.5518085376083851,0.8648959973812103,0.29225707238577303
1782987662723755300,4.65275537109375,0.07054594686627387,0.8031547037392854,0.03201039144061506
1782987662733829400,4.662829345703125,-0.30425474949777126,0.7507108152747154,-0.17520006117001174
1782987662743904300,4.672904296875,-0.5589163237869739,0.7050164010703563,-0.251898831577599
1782987662753979400,4.6829794921875,-0.6667629505217075,0.6861229000300169,-0.1735688067063689
1782987662764053200,4.69305322265625,-0.6485761364459991,0.6861690772593021,-0.05686265475489199
1782987662774128400,4.70312841796875,-0.5956593697726726,0.6900397812128066,0.11039185423813759
1782987662784203300,4.713203369140625,-0.4953659348964691,0.6828063228279352,0.2680740866351872
1782987662794277400,4.72327734375,-0.24365794971585272,0.6640344023406505,0.4105965976927429
1782987662804352300,4.733352294921875,0.055202831783890724,0.60724576267004,0.4649762765254825
1782987662814426400,4.74342626953125,0.39511809272766113,0.4982581492066383,0.4458049814570695
1782987662824501200,4.753501220703125,0.7096130812108516,0.3521107256501913,0.39581929979957636
1782987662834576400,4.763576416015625,1.0109984127521514,0.21138357357680795,0.3417645420722663
1782987662844650200,4.773650146484375,1.2709662767559289,0.061790978002548215,0.2941208204310387
1782987662854725400,4.783725341796875,1.384531865659356,-0.03935819692015648,0.26040552476868034
1782987662864800500,4.793800537109375,1.4016437439799307,-0.10415595552325248,0.24193039527088403
1782987662874874400,4.803874267578125,1.2721002492219209,-0.14624620775580405,0.22055939820110795
1782987662884949500,4.813949462890625,1.0692185465306043,-0.17132687299847602,0.1524034152112901
1782987662895024400,4.8240244140625,0.9066337829142809,-0.22740356500744818,0.06378492829874158
1782987662905098000,4.834097900390625,0.755764007011056,-0.2919873885989189,0.01787796732224524
1782987662915173000,4.844173095703125,0.5757517232537269,-0.34615094046294687,0.016800620414316653
1782987662925247000,4.8542470703125,0.4738362401336431,-0.36476562456190587,-0.00946589361205697
1782987662935322000,4.864322021484375,0.41458910139501093,-0.3497656238287687,-0.015521759584918617
1782987662945397000,4.87439697265625,0.39463527764677997,-0.3607803543180227,0.04416472041904926
1782987662955471000,4.88447119140625,0.3521364446133375,-0.39175533829629416,0.15027597472853957
1782987662965546000,4.8945458984375,0.29993805534243584,-0.4271253423631191,0.16168883768990636
1782987662975620900,4.904620849609375,0.21026421415805815,-0.46271980283558367,0.13573168187364934
1782987662985695000,4.914695068359375,0.16535072119832037,-0.47759062423110005,0.1650808182157576
1782987662995769900,4.924769775390625,0.17658347835242746,-0.5146095645487309,0.19285422967374324
1782987663005845000,4.934844970703125,0.13742927957177162,-0.5771732804894447,0.188572606831789
1782987663015918800,4.9449189453125,0.014990063861012457,-0.5560229404330254,0.11135141998529434
1782987663025994000,4.954993896484375,-0.09949030179977417,-0.5058931741297245,-0.05402560469806194
1782987663036068900,4.96506884765625,-0.26033961992561816,-0.43071372224390503,-0.19527656144984065
1782987663046143000,4.97514306640625,-0.5229466002613306,-0.35993338209986686,-0.327897417826578
1782987663056217900,4.9852177734375,-0.7518868733167647,-0.28990298354029653,-0.4467113557122647
1782987663066292000,4.9952919921875,-0.9618173254758119,-0.18715864838063717,-0.4667041962966323
1782987663076366800,5.005366943359375,-1.0930845752865075,-0.12906126419901848,-0.3953205564972013
1782987663086442000,5.01544189453125,-1.0183896920472384,-0.1810825433373451,-0.17815913017131388
1782987663096515800,5.025515869140625,-0.6485071628630161,-0.4130091387271881,0.2177843805298209
1782987663106591000,5.035591064453125,-0.06167290458083152,-0.6330646790593862,0.5330403434481471
1782987663116666000,5.045666015625,0.3563824116200208,-0.6820330003678798,0.5810141007613391
1782987663126740000,5.055739990234375,0.33521044425368307,-0.6770826844841241,0.2878727928869426
1782987663136815000,5.065815185546875,-0.010633622217178344,-0.5843652378201485,-0.22991386732794344
1782987663146890000,5.075889892578125,-0.3975122943878174,-0.4939110599130392,-0.6521013879626989
1782987663156964000,5.085964111328125,-0.6654787559300661,-0.46618894025087354,-0.8272888088468462
1782987663167039000,5.0960390625,-0.8819079224586486,-0.3991132998436689,-0.8987382804241031
1782987663177113000,5.106113037109375,-1.033477955585718,-0.2708464008927345,-0.9425325600955635
1782987663187188000,5.11618798828125,-1.1827052249789238,-0.09701368255317211,-0.9338597165573388
1782987663197263000,5.12626318359375,-1.253932724368572,0.03834463596343994,-0.9021480888675898
1782987663207337000,5.1363369140625,-1.2201865221112966,0.17836276298463344,-0.8331566779669374
1782987663217412000,5.146412109375,-1.066339776223898,0.272954771348834,-0.720743693164736
1782987663227487000,5.156487060546875,-0.7249409987241029,0.39464638356268406,-0.587951060417667
1782987663237561000,5.16656103515625,-0.30590602383613585,0.405181806102395,-0.4174180412106216
1782987663247636000,5.176635986328125,0.09448445633649825,0.38169688561856746,-0.1999087512951344
1782987663257710800,5.1867109375,0.2770142758727073,0.3446744381695986,-0.09061426383964717
1782987663267785000,5.196784912109375,0.22805530691444872,0.3396703462719917,-0.12289740780703723
1782987663277859800,5.20685986328125,0.08431845163106917,0.42386020308732986,-0.3250998229973018
1782987663287934000,5.216933837890625,-0.13471300635039807,0.451450805324316,-0.5892855238918214
1782987663298008800,5.2270087890625,-0.27043489748239513,0.426487628981471,-0.8367540448717773
1782987663308084000,5.237083984375,-0.384306775856018,0.41055706939995285,-0.9847530145790427
1782987663318157800,5.24715771484375,-0.5515794050276279,0.48999943942725654,-1.0948502697847784
1782987663328233000,5.25723291015625,-0.6064613342940807,0.6056202072948217,-1.0980089530114083
1782987663338308000,5.26730810546875,-0.43812195267379284,0.7012748764544725,-0.9497883764427155
1782987663348382000,5.2773818359375,-0.08017302238941192,0.7807248452663421,-0.6525501546435057
1782987663358457000,5.28745703125,0.38443712423741816,0.7965975371807813,-0.34665976676791904
1782987663368532000,5.297531982421875,0.8411749300539493,0.7615139488399029,-0.11791932713352143
1782987663378606000,5.307606201171875,1.2418278605550528,0.6521686079800129,0.03879252586141228
1782987663388681000,5.317680908203125,1.5406728599637747,0.5087076470285654,0.12113887370191513
1782987663398756000,5.327756103515625,1.7141519425600766,0.3552987080365419,0.14640600142739713
1782987663408830000,5.337829833984375,1.7349270195633173,0.2252630458474159,0.13287183546312153
1782987663418905000,5.347905029296875,1.7278519666105507,0.10920154847502708,0.07617781527340411
1782987663428979000,5.35797900390625,1.6854086631566285,0.01655073730647564,-0.030557927609980103
1782987663439054000,5.36805419921875,1.5768080031841993,-0.07260287939608097,-0.058712593470513816
1782987663449129200,5.378129150390625,1.3759423164904117,-0.10720774430930614,-0.11491605366431176
1782987663459203000,5.388203125,1.0735802488714457,-0.1245937633961439,-0.2066170167621225
1782987663469278200,5.3982783203125,0.8202829486727714,-0.16718495088815688,-0.29577910903207955
1782987663479352800,5.408352783203125,0.6191612413913011,-0.22377017694115636,-0.34594606554061175
1782987663489427200,5.41842724609375,0.3795739021152258,-0.2413213234618306,-0.38145065577253695
1782987663499501800,5.428501708984375,0.11365735884010791,-0.22448037103712556,-0.37707397505827245
1782987663509576200,5.438576171875,-0.16175883418619633,-0.19472528424263,-0.3492141274258494
1782987663519650800,5.44865087890625,-0.2968897736877203,-0.14715806190371514,-0.300992386700958
1782987663529726000,5.458725830078125,-0.305139131116867,-0.05102729966491461,-0.254327593094483
1782987663539799800,5.4687998046875,-0.16078502071797846,-0.026573826409876346,-0.15412242102362214
1782987663549875000,5.478875,0.08293371927440166,-0.07759937250912188,-0.0069105100408196445
1782987663559949800,5.48894970703125,0.19411212078034876,-0.18726970753967762,0.09540471298657358
1782987663570024000,5.49902392578125,0.27847733416259285,-0.2669116917923093,0.07219166824668645
1782987663580098800,5.509098876953125,0.3422773138999939,-0.3207876588866114,0.012263488441333174
1782987663590174000,5.519174072265625,0.3356798153311014,-0.4118856876552105,-0.09019947249367832
1782987663600248000,5.529248046875,0.2661971137821674,-0.5107341844201088,-0.20748883116059005
1782987663610323000,5.539322998046875,0.25711305909454824,-0.637755467224121,-0.34896117557808753
1782987663620398000,5.549398193359375,0.31370062323510645,-0.7200424130275845,-0.5128500805955379
1782987663630472000,5.559471923828125,0.36231589332222935,-0.8170303766176104,-0.5710054055094719
1782987663640547000,5.569547119140625,0.36944589133262634,-0.9282236834317446,-0.5372547462727875
1782987663650621000,5.579620849609375,0.363107335960865,-1.0311287621110676,-0.4876544106710702
1782987663660696000,5.589696044921875,0.2953863833874464,-1.127664598019421,-0.43287206932157274
1782987663670771000,5.59977099609375,0.09505904135406017,-1.147446864593029,-0.34010186955705285
1782987663680845000,5.609844970703125,-0.17850597084760664,-1.1422504649937153,-0.22155169717408715
1782987663690920000,5.619919921875,-0.4398328482449054,-1.1292392999902368,-0.16203589756190775
1782987663700995000,5.6299951171875,-0.7070914537787437,-1.05100542896986,-0.14023556916415691
1782987663711069000,5.64006884765625,-0.9736164843410253,-0.902868000639975,-0.16501337900273502
1782987663721144000,5.65014404296875,-1.1415057841062546,-0.7701701335042714,-0.23152049880698322
1782987663731219000,5.660218994140625,-1.2346253818303345,-0.6679179657757282,-0.31257600311934947
1782987663741293000,5.67029296875,-1.153211419469118,-0.5774339772522449,-0.3688683106403798
1782987663751368000,5.680367919921875,-0.8304489533782005,-0.7506713600471615,-0.11778386418558656
1782987663761442000,5.690442138671875,-0.20978899786174296,-1.0134823385223746,0.38630847106724975
1782987663771517000,5.700516845703125,0.2777659710228443,-1.105735967066884,0.6109791039794683
1782987663781591800,5.710591796875,0.3265004835754633,-1.0547399393230676,0.47324433865509924
1782987663791666000,5.720666015625,-0.11280278783738612,-0.9127136873498558,0.11461093323789537
1782987663801740800,5.73074072265625,-0.7933493490397929,-0.8359607025370002,-0.18838650967516005
1782987663811816000,5.74081591796875,-1.4001637345552445,-0.8228454926371573,-0.2398260434027761
1782987663821889800,5.750889892578125,-1.8250012582421302,-0.7482406257688998,-0.26507417416684326
1782987663831965000,5.76096484375,-1.9768664749234914,-0.5556614136442541,-0.37630481731668114
1782987663842040000,5.7710400390625,-1.9935376237392424,-0.2873550526231527,-0.49659554975666104
1782987663852114000,5.781114013671875,-2.0142893198668954,-0.03055237465202808,-0.6025752866409718
1782987663862189000,5.79118896484375,-1.934294576653838,0.21047084264606236,-0.7211473785948008
1782987663872263000,5.801262939453125,-1.6048399194478988,0.47766807338148354,-0.8383125263601541
1782987663882338000,5.811338134765625,-0.9725900639027356,0.6538590452849865,-0.8329477844566107
1782987663892413000,5.821412841796875,-0.17872049038112162,0.6771335378885269,-0.6392208636015653
1782987663902486300,5.831486328125,0.6518155567586421,0.6467009902238845,-0.28589652437791224
1782987663912561400,5.8415615234375,1.3666460803568363,0.6223550689965486,0.10713263324648141
1782987663922636300,5.85163623046875,1.7878659980684517,0.6211264039844274,0.41153015221580863
1782987663932710400,5.86171044921875,1.9329595286577939,0.6357400357484817,0.5055268250353634
1782987663942785300,5.871785400390625,1.835713790914416,0.6689560766518116,0.4414586958810687
1782987663952860400,5.8818603515625,1.5548878477990626,0.668597180211544,0.24857290202528237
1782987663962934300,5.891934326171875,1.0875532446444034,0.7044377243995666,-0.031875439949333666
1782987663973009400,5.902009521484375,0.5250789361149072,0.73164195766747,-0.3340083019223064
1782987663983083300,5.912083251953125,0.006443769311904907,0.8171312066435813,-0.6343567646965385
1782987663993158400,5.922158447265625,-0.37358430631160733,0.841654822525382,-0.8864042840298265
1782987664003233500,5.932233642578125,-0.6661977178543805,0.8415981239020824,-1.018461661304906
1782987664013307400,5.942307373046875,-0.8564706988632679,0.794789026454091,-1.0695169449552893
1782987664023382500,5.952382568359375,-0.9516004673659801,0.7438415140271186,-1.0612167341217398
1782987664033457200,5.96245703125,-0.9453916758537292,0.7708259670644998,-0.9895163565233349
1782987664043531500,5.972531494140625,-0.7696586768507957,0.8241302717506885,-0.9239643454868346
1782987664053606100,5.982606201171875,-0.4768324993401766,0.8917308128148317,-0.8625822405461221
1782987664063681300,5.992681396484375,-0.06501929239928722,0.950826560384035,-0.7913562755264342
1782987664073755400,6.00275537109375,0.3702747433722019,0.9430763846486806,-0.7401593914482743
1782987664083830300,6.012830322265625,0.7117980240345001,0.8966326133817434,-0.715708037085086
1782987664093904400,6.022904296875,0.957977016660571,0.8065197962582111,-0.7334080174919217
1782987664103979300,6.032979248046875,1.0734083994358778,0.7224807460904121,-0.7519635918147861
1782987664114054400,6.043054443359375,1.0905185241907835,0.6567904225617647,-0.7941559892475605
1782987664124128300,6.053128173828125,1.0795675065875052,0.6140957746952772,-0.8168173183888197
1782987664134203400,6.063203369140625,1.1116688642472028,0.5592191061258316,-0.8109994258902966
1782987664144278300,6.0732783203125,1.1629635826766491,0.4697615380406379,-0.730035253123194
1782987664154352400,6.083352294921875,1.1358300765573979,0.41124622070789335,-0.6053126757156103
1782987664164427300,6.09342724609375,1.007601171529293,0.3897767316997051,-0.4794393939029425
1782987664174502400,6.10350244140625,0.8875199171215296,0.3984615579366684,-0.3644297436710447
1782987664184576300,6.113576171875,0.7634019545435905,0.4034142119079828,-0.27501053483486176
1782987664194651400,6.1236513671875,0.6166220783025026,0.3965834891051054,-0.19878135470040142
1782987664204725200,6.133725341796875,0.4604015890210867,0.33659576113224027,-0.1605901557330042
1782987664214800400,6.14380029296875,0.39108606073260305,0.18960370344519614,-0.18208806711807846
1782987664224875500,6.15387548828125,0.4380915575355291,0.033353403547406194,-0.23992080901414153
1782987664234949400,6.163949462890625,0.4894318686723709,-0.07105214282274246,-0.24694654293246565
1782987664245024500,6.1740244140625,0.4639852927267551,-0.14406360301971435,-0.1859538026355207
1782987664255099400,6.184099365234375,0.31859774762690063,-0.16740239303112028,-0.1591420027513057
1782987664265173500,6.194173583984375,0.16437106251120567,-0.14980010084509848,-0.2040592220380902
1782987664275248400,6.204248291015625,0.06401333022713661,-0.16542670904397963,-0.1866108783047646
1782987664285323300,6.2143232421875,-0.019667408022284505,-0.19596914682388306,-0.1109833173252642
1782987664295397400,6.2243974609375,-0.11462591161131858,-0.23720102866142986,-0.06070274437442422
1782987664305472300,6.23447216796875,-0.2549859839379787,-0.26287907527536153,-0.10705065405145286
1782987664315546400,6.24454638671875,-0.37500469450354573,-0.3026002602890134,-0.16196882367506624
1782987664325621200,6.254621337890625,-0.41908115211725233,-0.35404140145182605,-0.1873190996393561
1782987664335696400,6.2646962890625,-0.46732174367308615,-0.44206133794933555,-0.19916078247204422
1782987664345770200,6.274770263671875,-0.5615396580278873,-0.4904635498076677,-0.2427632658984512
1782987664355845400,6.284845458984375,-0.5736930371582508,-0.513283284381032,-0.2825968983106315
1782987664365920300,6.294920166015625,-0.49683308483958244,-0.5829816745072602,-0.2969492487899959
1782987664375994400,6.304994384765625,-0.33159342280030246,-0.7505395503610373,-0.18069405547641218
1782987664386069200,6.3150693359375,-0.19186814124584198,-0.8712871597230434,-0.014399842882901429
1782987664396143400,6.325143310546875,-0.0630377631932497,-0.9855588510692119,0.156133176324144
1782987664406218200,6.33521826171875,0.08922375932931899,-1.1502362030506132,0.21980638787671922
1782987664416293400,6.34529345703125,0.16266776572465896,-1.1557596426472068,-0.1120870407834649
1782987664426367200,6.3553671875,-0.2117395474076271,-0.9658686466932296,-0.6791435625366866
1782987664436442400,6.3654423828125,-0.9962000720709562,-0.6461079927667975,-1.1949085076656192
1782987664446517500,6.375517578125,-1.9305343473374843,-0.2916749616488814,-1.5539920680031178
1782987664456592400,6.38559228515625,-2.7570506374418735,0.05750584802925587,-1.7300202505603433
1782987664466666500,6.39566650390625,-3.085723204359412,0.37149405603408814,-1.6484340003721416
1782987664476741400,6.405741455078125,-2.8632734623670575,0.5776461586982011,-1.4120622621417045
1782987664486816500,6.41581640625,-2.287873621290922,0.6363768723472952,-1.0712813242793082
1782987664496890400,6.425890380859375,-1.6007243008226155,0.6003554186344147,-0.6783733088165521
1782987664506965500,6.435965576171875,-0.9878653744459152,0.5655842572435736,-0.4448564485605806
1782987664517039400,6.446039306640625,-0.589254178905487,0.5632607827320695,-0.3973823113325983
1782987664527114500,6.456114501953125,-0.31458500485420227,0.609674158860743,-0.520290971186012
1782987664537189000,6.466189208984375,-0.04937982471883297,0.6872498582333326,-0.747593633102253
1782987664547263500,6.476263427734375,0.19897066672742367,0.7038537870317697,-0.9775761817522346
1782987664557338400,6.48633837890625,0.3490963462650776,0.603931815816462,-1.1984468378596007
1782987664567413200,6.496413330078125,0.31621523640453814,0.5586690710276365,-1.4575436181172727
1782987664577487400,6.5064873046875,0.13249649934470653,0.5910208963170648,-1.7483111095324158
1782987664587562200,6.516562255859375,-0.22519173417687416,0.666400254689157,-1.9996460236169398
1782987664597637400,6.526637451171875,-0.6843202345222235,0.7576628263697027,-2.124952173066139
1782987664607711200,6.536711181640625,-1.047885251122713,0.8955214372694492,-2.132464156131446
1782987664617786400,6.546786376953125,-1.2388619964867829,1.057206621697545,-2.042653244563937
1782987664627860200,6.556860107421875,-1.2599930473208427,1.1995824177607892,-1.8574112434595822
1782987664637935400,6.566935302734375,-1.0971440798103809,1.3283069973513484,-1.5223960295170544
1782987664648010200,6.57701025390625,-0.7733926026821136,1.4163754491657017,-1.218550883733481
1782987664658084400,6.58708447265625,-0.2833610145509243,1.4424696753650903,-0.9093312783699482
1782987664668159200,6.5971591796875,0.2517980015516281,1.341838386836648,-0.6787614313513041
1782987664678234400,6.607234375,0.7712637739598751,1.2123244104340671,-0.483420280232653
1782987664688308500,6.61730859375,1.155606205651164,1.0720561080440878,-0.40735038231313225
1782987664698383400,6.62738330078125,1.3533634049355983,0.9074453915581107,-0.4468124049339443
1782987664708458500,6.63745849609375,1.4835107108056544,0.8070853211864829,-0.5498278121199458
1782987664718532400,6.647532470703125,1.518386793875694,0.7006590826436877,-0.7119046992793678
1782987664728607500,6.657607421875,1.5115058021903036,0.5557113902658224,-0.8941740412484854
1782987664738681300,6.667681396484375,1.389655200022459,0.3987137791320681,-1.058989048134908
1782987664748756500,6.677756591796875,1.1620663415759802,0.27351123618781564,-1.2205348971575498
1782987664758831400,6.687831298828125,0.8671540054410696,0.21341770975291727,-1.3610653576150535
1782987664768905500,6.697905517578125,0.5952244854867458,0.1739656970694661,-1.4982970687881112
1782987664778980400,6.70798046875,0.3555266715735197,0.132486270211637,-1.5673625678382812
1782987664789055200,6.71805517578125,0.14710779302120208,0.11152297715991735,-1.5757007725946603
1782987664799129300,6.72812939453125,0.018352233770489692,0.08480185123383999,-1.6003823555171488
1782987664809204200,6.738204345703125,-0.05537994191646576,0.02653875509649515,-1.6015027378492057
1782987664819279400,6.748279296875,-0.05463876816034317,0.017865911558270452,-1.5541919744893908
1782987664829353200,6.758353271484375,-0.04959434425234795,-0.019277531921863555,-1.4500880414143205
1782987664839428400,6.768428466796875,-0.014872574961185454,-0.08758417542874812,-1.3680743595942855
1782987664849502200,6.778502197265625,0.05409224019348621,-0.109595223967731,-1.270919515004754
1782987664859577300,6.788577392578125,0.12524667434692383,-0.15575900924950836,-1.1797051663801073
1782987664869652200,6.79865234375,0.16837679102122782,-0.20109101988226175,-1.0648071598291395
1782987664879726300,6.808726318359375,0.14658230784237383,-0.2634156663700938,-0.930456483985111
1782987664889801200,6.81880126953125,0.061037529286742206,-0.2906374352946877,-0.8343716067146509
1782987664899877000,6.828877197265625,-0.02132861923277378,-0.30548516807556153,-0.7558532927297055
1782987664909951000,6.838950927734375,-0.09254559722840786,-0.33428339253664013,-0.7062044418111443
1782987664920026000,6.849026123046875,-0.1477782396286726,-0.3980047540798783,-0.6914242943737655
1782987664930100000,6.859099853515625,-0.21549626959264276,-0.47802813886553047,-0.6369945658542215
1782987664940175000,6.869175048828125,-0.36301673506796356,-0.5349249150857329,-0.6201119662448763
1782987664950250000,6.87925,-0.5109720848292112,-0.5609799783185124,-0.6483651971090585
1782987664960324000,6.889323974609375,-0.6015887598216534,-0.5774705098703503,-0.7166848462279886
1782987664970399000,6.89939892578125,-0.641176089322567,-0.5783350177451968,-0.7512549320887774
1782987664980474000,6.90947412109375,-0.6274848331004381,-0.579535625706613,-0.7733487635403871
1782987664990548000,6.9195478515625,-0.6371306133240461,-0.6252694951385259,-0.7601940253477543
1782987665000623000,6.929623046875,-0.6139853000581265,-0.7267600308448076,-0.6894297595556825
1782987665010698000,6.939697998046875,-0.515386978662014,-0.8528250358372926,-0.5176541929416358
1782987665020772000,6.949772216796875,-0.28308804282844063,-1.0140417259708046,-0.2767492682609707
1782987665030847000,6.959846923828125,0.09224807558655738,-1.222699673976004,-0.05556501615978777
1782987665040921900,6.969921875,0.37516076184809205,-1.2707593560069799,-0.03255765005983412
1782987665050996000,6.979995849609375,0.2802747389733791,-1.1731243266850708,-0.3233311328243464
1782987665061070800,6.99007080078125,-0.3028174101710319,-0.9381029801502824,-0.8016885036442428
1782987665071145000,7.00014501953125,-1.1376064385801552,-0.6085840255364775,-1.2542957124620675
1782987665081219800,7.0102197265625,-1.9003350239068268,-0.22563597081303596,-1.5403165938720107
1782987665091295000,7.020294921875,-2.5289655199110506,0.12367781759500503,-1.63650522377789
1782987665101368800,7.030368896484375,-2.7911037136912342,0.39668256556540726,-1.5336667805939912
1782987665111444000,7.04044384765625,-2.534162504032254,0.6466764403045178,-1.3342165136560797
1782987665121519000,7.05051904296875,-1.8743693925231695,0.7821382191956042,-1.0184528934765607
1782987665131593000,7.060593017578125,-1.0593372039854525,0.8359113104373216,-0.6482151211138815
1782987665141668000,7.070668212890625,-0.2869727753072977,0.8037684517234563,-0.3112996995732188
1782987665151742000,7.080741943359375,0.41446167562305924,0.6725742671489715,-0.06760426739118992
1782987665161817000,7.090817138671875,0.8961866231799125,0.49193829853534693,0.12455313912481068
1782987665171892000,7.10089208984375,1.199221475493908,0.3508493274122476,0.21041589758843182
1782987665181966000,7.110966064453125,1.3000532550305128,0.25037469075024127,0.22260208300985396
1782987665192041000,7.121041015625,1.2402163337051868,0.19940555101335047,0.07850516224242747
1782987665202116000,7.1311162109375,1.0127496403336524,0.22613690607249737,-0.2336821338202804
1782987665212190000,7.14118994140625,0.5984083762198686,0.2968628856807947,-0.6612632571268826
1782987665222265000,7.15126513671875,0.06694470750391483,0.4240075026035309,-1.0476949161823839
1782987665232340200,7.16134033203125,-0.4623223279505968,0.6106207920610904,-1.358142163644731
1782987665242414000,7.1714140625,-0.9422592230468988,0.8359902208924292,-1.4535732531815766
1782987665252489200,7.1814892578125,-1.2905325624912976,1.0461316854536533,-1.3462518193647264
1782987665262563000,7.19156298828125,-1.44666654253304,1.2106605688750742,-1.0761454962495713
1782987665272638200,7.20163818359375,-1.404450033572316,1.3496499373704194,-0.7158481031429023
1782987665282712800,7.211712890625,-1.2273825710952282,1.4444912443205713,-0.39012686031162735
1782987665292787200,7.221787109375,-0.9477169039309025,1.5127876586943865,-0.18550313625857232
1782987665302861800,7.23186181640625,-0.6703992611974477,1.4797686016678808,0.004110942450165749
1782987665312937000,7.24193701171875,-0.4418120393633842,1.3567501247644425,0.08524711078330874
1782987665323010800,7.2520107421875,-0.2567687757015228,1.2279378668904304,0.01532492183856666
1782987665333086000,7.2620859375,-0.13443769654035567,1.1057727919459341,-0.1772168808851391
1782987665343160800,7.272160888671875,-0.022999767315387724,1.0193132366329432,-0.3443101349018514
1782987665353235000,7.28223486328125,0.12220423791110514,0.9776403330296277,-0.47684104797281324
1782987665363310000,7.29231005859375,0.30710721631944177,0.874682062858343,-0.5523934248242527
1782987665373384000,7.302384033203125,0.4209370091170072,0.7475251709759235,-0.5774178298350423
1782987665383459000,7.312458984375,0.422006099653244,0.6232967337608337,-0.558440522968769
1782987665393534000,7.322533935546875,0.3330535584807396,0.5302963785022496,-0.5330519608207047
1782987665403608000,7.332608154296875,0.18947744671702385,0.48304187537431714,-0.5252568499650806
1782987665413683000,7.342682861328125,-0.039542905837297436,0.5283586884379387,-0.5380572217620909
1782987665423758000,7.352758056640625,-0.23344226064980028,0.5561871910840273,-0.553591986959055
1782987665433832000,7.36283203125,-0.2505395259231329,0.5665425808817148,-0.48962812189683314
1782987665443907000,7.372906982421875,-0.11113573140799998,0.5248036263048649,-0.38399909814633426
1782987665453981000,7.38298095703125,0.11031272458732128,0.5124824893921613,-0.22285678842328488
1782987665464056000,7.39305615234375,0.32549159879386425,0.49192485453188417,-0.11577603149451315
1782987665474131000,7.403130859375,0.5207622419595718,0.5014484696805477,-0.014836846060678362
1782987665484205000,7.413205078125,0.6972165409743786,0.5199719683647156,0.0331745398491621
1782987665494280200,7.4232802734375,0.829817669737339,0.5235398899793624,0.08132248468548059
1782987665504355000,7.43335498046875,0.9093740215331315,0.5084475347876548,0.13998722042627632
1782987665514429200,7.44342919921875,0.948195042836666,0.4831646249711513,0.1895765231773257
1782987665524504000,7.453504150390625,0.9154431123137473,0.48695875655710696,0.20035050371326504
1782987665534579000,7.463578857421875,0.7491092252969741,0.4648913016557693,0.17400427551418543
1782987665544653000,7.473653076171875,0.3966664912134409,0.4606739762216806,0.10677665941566228
1782987665554728000,7.48372802734375,-0.025990765824913976,0.4803852233856916,0.0015643997725099325
1782987665564802000,7.493802001953125,-0.37520226290225983,0.5097399126857519,-0.1205189151726663
1782987665574877000,7.503876953125,-0.5916939732730389,0.5445563745230436,-0.2567611038517207
1782987665584951800,7.513951904296875,-0.7357400406360626,0.5503577542781829,-0.3373271806793287
1782987665595026000,7.52402587890625,-0.8793710974574088,0.5522837539047002,-0.37130868952982127
1782987665605100800,7.534100830078125,-0.981079075306654,0.500302806776762,-0.3369961586266756
1782987665615176000,7.544176025390625,-0.9511544771641492,0.4296387864887714,-0.2452779521331191
1782987665625250000,7.55425,-0.7784159838020801,0.318147665771842,-0.1070454664196819
1782987665635325000,7.564324951171875,-0.5110182620584964,0.18534136982560157,-0.014995397623255849
1782987665645399000,7.57439892578125,-0.17551555685997008,0.011603928554058075,0.054040217745304105
1782987665655474000,7.584473876953125,0.20665128435790536,-0.18241408420205116,0.09990593339595943
1782987665665549000,7.594549072265625,0.5171919822573662,-0.4058183504402637,0.02937912962157279
1782987665675623000,7.604622802734375,0.619482143908739,-0.5346013822197914,-0.2635325707480311
1782987665685698000,7.614697998046875,0.3037351095378399,-0.5362631779521704,-0.7526543505579233
1782987665695773000,7.62477294921875,-0.4253133245050907,-0.3251566677510738,-1.2070516576629131
1782987665705847000,7.634846923828125,-1.2677654348880052,-0.0025187048226594923,-1.5867758549690245
1782987665715922000,7.644921875,-2.0088702174276114,0.384793682590127,-1.8026742756217717
1782987665725997000,7.6549970703125,-2.408175240451097,0.8909329404354095,-1.8842181479729712
1782987665736071000,7.66507080078125,-2.35768423961997,1.3210206397354602,-1.6974777250044046
1782987665746146000,7.67514599609375,-2.0384709904432294,1.4694453605741262,-1.2240424668870866
1782987665756220200,7.68522021484375,-1.56612002043128,1.4176613973230123,-0.6661489833418279
1782987665766295000,7.695294921875,-1.135749412536621,1.3687778316885233,-0.28619463054165245
1782987665776370200,7.7053701171875,-0.7343652451515197,1.2834218537032605,-0.24500691663939506
1782987665786444000,7.715444091796875,-0.22339199127852916,1.150865148603916,-0.4043076536163687
1782987665796519200,7.725519287109375,0.40045068592727184,0.9955512527734041,-0.628260785908997
1782987665806593800,7.73559375,1.0332195969104767,0.7708639609873295,-0.7671801579080522
1782987665816668200,7.745668212890625,1.5641805768013,0.5380903933793306,-0.7977074711840599
1782987665826742800,7.75574267578125,1.9103548981398344,0.30884207728803154,-0.8096963804677129
1782987665836818000,7.76581787109375,1.9255185650020836,0.13818740446269512,-0.8634728327102958
1782987665846891800,7.775891845703125,1.663506627950072,0.07876198654770851,-0.9715273300420493
1782987665856967000,7.785966796875,1.2553513589948415,0.12322305956482886,-1.073547807906568
1782987665867040800,7.796040771484375,0.7038958726078272,0.18886837490797043,-1.1322932076681405
1782987665877116000,7.806115966796875,0.18868249694705008,0.2460509823322296,-1.0789919717218726
1782987665887191000,7.81619091796875,-0.23824644606113432,0.2852349917292595,-0.9532976266726851
1782987665897265000,7.826264892578125,-0.5528782126665115,0.29720950716137884,-0.7336759477131068
1782987665907340000,7.836340087890625,-0.6845026053518056,0.32708500546514985,-0.46452648693136867
1782987665917415200,7.846415283203125,-0.7016817036896944,0.3357277461260557,-0.21975392703711985
1782987665927489000,7.856489013671875,-0.5877595564335585,0.3107692459583282,-0.008553674137964843
1782987665937564200,7.866564208984375,-0.5177595530122518,0.2598147192686796,0.1192881678013131
1782987665947638000,7.876637939453125,-0.4928682728618383,0.16336159320771693,0.14061441241391
1782987665957713200,7.886713134765625,-0.4544119932174682,0.10002630837261677,0.1069475590031594
1782987665967788000,7.8967880859375,-0.40037528260350225,0.04881926822662353,0.025656711564958093
1782987665977862100,7.906862060546875,-0.40999183673262596,-0.018261632877588273,-0.08262202297672629
1782987665987937000,7.91693701171875,-0.39831835007369515,-0.007737316253781318,-0.2229292326049879
1782987665998012200,7.92701220703125,-0.36059798348844047,0.047725627771019935,-0.33693525875229385
1782987666008086000,7.9370859375,-0.3275023540943861,0.1008481461495161,-0.4131576438197866
1782987666018161200,7.9471611328125,-0.3521814527988434,0.1294032095044851,-0.5380347907345742
1782987666028236000,7.957236083984375,-0.3726028940588236,0.13047872978150843,-0.6999933852765708
1782987666038310100,7.96731005859375,-0.3121697604060173,0.1261801558047533,-0.8526658997528255
1782987666048385000,7.977385009765625,-0.10350362909436225,0.0989747534930706,-0.9261378170683979
1782987666058459100,7.987459228515625,0.16735095510482786,0.08003799783289432,-0.9677512455694377
1782987666068534000,7.997533935546875,0.4014800289750099,0.05791325978636741,-0.9351402578871697
1782987666078609000,8.00760888671875,0.609452332803607,0.02751636795699596,-0.8662203047875314
1782987666088683000,8.01768310546875,0.7075099714517593,0.03473696686029434,-0.7555597166106104
1782987666098758000,8.0277578125,0.7524602892905473,0.06250351018607617,-0.6071952745918184
1782987666108833000,8.0378330078125,0.7234224108546972,0.057789925667643544,-0.5124200916804373
1782987666118907000,8.047906982421875,0.7076736375808715,0.060900751164555546,-0.40943639480695126
1782987666128982000,8.05798193359375,0.7643938881903887,0.04824292964339256,-0.32816103719882667
1782987666139055900,8.068055908203124,0.8098416341572999,-0.027219430837035177,-0.2512482587143779
1782987666149131000,8.078131103515625,0.8625193313777446,-0.13902736241817473,-0.21003573916442692
1782987666159206000,8.088205810546874,0.8623457283765077,-0.2543646371692419,-0.16382745715379715
1782987666169280000,8.098280029296875,0.7472679813444614,-0.3780401166766882,-0.1610376072395593
1782987666179355100,8.108355224609374,0.5494985071003436,-0.4576981752812862,-0.23169782813526688
1782987666189430000,8.118429931640625,0.3200736653983593,-0.49279988380074496,-0.32829065492786463
1782987666199504100,8.128504150390626,0.12179682615399359,-0.5264882183909416,-0.3942605260502547
1782987666209579000,8.1385791015625,-0.12379121484160423,-0.573709403771162,-0.4588661230821162
1782987666219654100,8.148654052734376,-0.3142898212999105,-0.5901362224370241,-0.502273083936423
1782987666229728000,8.15872802734375,-0.43274844294190407,-0.6048749418854713,-0.5561670981440693
1782987666239803100,8.16880322265625,-0.5493173053145408,-0.631394115498662,-0.5649155642017721
1782987666249877000,8.178876953125,-0.5846078144043684,-0.729088766053319,-0.4803890227779746
1782987666259952000,8.1889521484375,-0.5218073670983314,-0.8656663972318172,-0.32739005282633005
1782987666270027000,8.199027099609374,-0.3008376345306635,-0.9780629423558711,-0.15019005001075564
1782987666280101000,8.20910107421875,-0.03352349941730499,-0.9652414547055959,-0.0648855099517852
1782987666290176000,8.219176025390626,0.05123801980614662,-0.9274866013288497,-0.20170557158403096
1782987666300251000,8.2292509765625,-0.12025193479955196,-0.9632564183682203,-0.5115367329746484
1782987666310325200,8.2393251953125,-0.4734580544710159,-0.9378951826184988,-0.7529716728787869
1782987666320400000,8.24939990234375,-0.8490250590324402,-0.7940010909467935,-0.8015238876670598
1782987666330474200,8.25947412109375,-1.1212176138371228,-0.6226566822916269,-0.7013277756854891
1782987666340549000,8.269549072265624,-1.153700079768896,-0.4610001394361257,-0.4937632489401847
1782987666350624000,8.2796240234375,-0.9952321038216352,-0.362941331744194,-0.23406375354900955
1782987666360698000,8.289697998046876,-0.8529863638788461,-0.27998481611609455,-0.04532601928338408
1782987666370773000,8.29977294921875,-0.8974445142865181,-0.19866437725722788,-0.012178951963037251
1782987666380847900,8.309847900390626,-1.1223843195289374,-0.050045595151185986,-0.10473419380262493
1782987666390922000,8.319921875,-1.2993389692813158,0.1951101919069886,-0.3095421883814037
1782987666400996900,8.329996826171875,-1.2757085028469561,0.45468028876483435,-0.459072605439648
1782987666411072000,8.340072021484374,-1.112946044576168,0.6120359195560217,-0.44788755988478657
1782987666421145900,8.350145751953125,-0.7940145349502563,0.6815133604079484,-0.32675679642409083
1782987666431221000,8.360220947265624,-0.38279754033684726,0.6924041722565889,-0.22018245464749633
1782987666441294800,8.370294921875,0.047338089758157724,0.666094257479906,-0.15628244860172272
1782987666451370000,8.380369873046876,0.4705214164972305,0.6033277124434709,-0.10883081546649336
1782987666461445000,8.390445068359375,0.8733113590270281,0.5164578227639198,-0.054655061708018184
1782987666471519000,8.40051904296875,1.0877297702550888,0.42314474829435345,-0.023998496029153465
1782987666481594000,8.410593994140624,1.1168132413983345,0.3493693179875612,-0.06965403952784836
1782987666491669000,8.4206689453125,0.9968395390182733,0.3210872263550758,-0.24190701439529655
1782987666501743000,8.4307431640625,0.7399287244975566,0.3282487885475158,-0.49706287500746543
1782987666511818000,8.44081787109375,0.43211131408214565,0.3409422659039497,-0.727923594731465
1782987666521892000,8.45089208984375,0.07357143216729163,0.3612134850382805,-0.9098110247109085
1782987666531967000,8.460967041015625,-0.2364654078632593,0.42581133715510366,-0.9645120444525033
1782987666542042000,8.4710419921875,-0.4904828390300274,0.5150070394337177,-0.941099677748233
1782987666552116000,8.481115966796875,-0.6867471694082021,0.5866057102233171,-0.8728169996388256
1782987666562191000,8.491191162109375,-0.807739693441987,0.7032739413172007,-0.8063816298965364
1782987666572266000,8.501265869140624,-0.8156102806866169,0.7675187422126531,-0.6992617830663919
1782987666582340000,8.511340087890625,-0.7289274380117654,0.8131167103052139,-0.5876258470512926
1782987666592415000,8.5214150390625,-0.5615548555970191,0.8336363512426614,-0.5106328064048663
1782987666602489000,8.531489013671875,-0.29039924262464045,0.8789420583903789,-0.44669159156586974
1782987666612564000,8.54156396484375,-0.04213876754939556,0.873124896544218,-0.35562790345828976
1782987666622638800,8.551638916015625,0.1615291170835495,0.845489286121726,-0.30863347603864966
1782987666632713000,8.561712890625,0.35339842737317084,0.8087444865703582,-0.2974053219944238
1782987666642787800,8.571787841796874,0.5509925450503825,0.7224386605143547,-0.33096327167060224
1782987666652863000,8.581863037109375,0.6745476130485534,0.6316115576416254,-0.33872864497508853
1782987666662936800,8.591936767578124,0.7536573901206255,0.5843132153719663,-0.3128875167539343
1782987666673012000,8.602011962890625,0.7654168014973401,0.5143845236212015,-0.29881635783612726
1782987666683087000,8.612087158203124,0.7102998944312333,0.46617374268174167,-0.2852005780030042
1782987666693161000,8.622160888671875,0.5094646028757095,0.45483810967504973,-0.2996133169000968
1782987666703236000,8.632236083984376,0.29569559546709057,0.4418231452792883,-0.3210291760249063
1782987666713310000,8.64231005859375,0.1739811868995428,0.4283195205837488,-0.35968349899202584
1782987666723385000,8.652385009765625,0.10188450345993041,0.3735287767320871,-0.4062783691674471
1782987666733460000,8.6624599609375,0.050340778705477714,0.3170399967908859,-0.37945367326904084
1782987666743534000,8.6725341796875,0.029353520256280897,0.2704366510480642,-0.3665309537339955
1782987666753609000,8.68260888671875,0.0129272861123085,0.251814952686429,-0.4165391760168597
1782987666763684000,8.69268408203125,0.11890928801894188,0.23483050013780593,-0.503038990275003
1782987666773758000,8.702758056640626,0.25865444331765175,0.19850071112811565,-0.5628112123336643
1782987666783833000,8.7128330078125,0.37520050933659077,0.15620587623417376,-0.6244194541804492
1782987666793907000,8.722906982421875,0.4864695117354393,0.11807225267291069,-0.7032485146149993
1782987666803982000,8.732982177734375,0.5259007738918066,0.07367723062932491,-0.793650523943454
1782987666814057200,8.74305712890625,0.48431496405005453,0.07378244456946849,-0.8494000298246741
1782987666824131000,8.753131103515624,0.37706688773036,0.054176411345601076,-0.8031636176981032
1782987666834206200,8.763206298828125,0.2443395022392273,0.008753215298056602,-0.8422530806794762
1782987666844280800,8.77328076171875,0.13630758206546306,0.0015530746608972549,-0.9370533249668777
1782987666854355200,8.783355224609375,0.04349836546480655,-0.003945522755384445,-1.0448556741684674
1782987666864429800,8.793429931640626,-0.058690089377760886,0.006384732601046562,-1.1424585547864436
1782987666874505000,8.8035048828125,-0.14580255564153194,0.042834348598122594,-1.1422810062624513
1782987666884578800,8.813578857421875,-0.25248364572823045,0.10079612370133399,-1.0729185700923203
1782987666894654000,8.823654052734375,-0.416763522824645,0.17371639848351478,-1.0212051147941499
1782987666904728300,8.833728271484375,-0.6274468391776085,0.29607378112971783,-0.9898086174681782
1782987666914803500,8.843803466796874,-0.7920464497476816,0.3599702069789171,-0.9475675585880875
1782987666924878600,8.853878662109375,-0.8439666065990924,0.4142518322646618,-0.8994679829381406
1782987666934952400,8.863952392578126,-0.7652163104891777,0.42277006976306436,-0.7236443830423057
1782987666945027600,8.874027587890625,-0.603426496642828,0.3370733155161142,-0.5062731498906389
1782987666955102500,8.8841025390625,-0.3609510347098112,0.18179039934575555,-0.21735325910355893
1782987666965176600,8.894176513671875,-0.042863574692606925,-0.040783261287212366,0.04326159756686538
1782987666975251500,8.90425146484375,0.37314006967544555,-0.2532844407171011,0.25974194629341363
1782987666985325600,8.91432568359375,0.821630271628499,-0.41440088534653186,0.3445633790105581
1782987666995400400,8.924400390625,1.1929232521325348,-0.49642742664813994,0.11860668834317475
1782987667005475600,8.9344755859375,1.2045295187741518,-0.47202305323183535,-0.5269545937936753
1782987667015549400,8.944549560546875,0.7532318581849337,-0.32264439266920086,-1.344238433715701
1782987667025624600,8.95462451171875,-0.012905658802390097,0.025445406901836394,-1.9885285634055732
1782987667035699500,8.964699462890625,-0.8778852428138255,0.5555547383993864,-2.412908552583307
1782987667045773600,8.974773681640626,-1.711689351838827,1.0603466732889413,-2.549993110370636
1782987667055848700,8.9848486328125,-2.1778724468708037,1.4513064772933721,-2.416071400528401
1782987667065922600,8.994922607421875,-2.008642838412523,1.664314437201619,-2.0820584954962134
1782987667075997700,9.004997802734374,-1.2558674918234347,1.605630193042755,-1.5833898657925427
1782987667086072300,9.015072265625,-0.3042103258341551,1.2889911782681942,-0.9322179406996816
1782987667096146700,9.025146728515624,0.4641553885966539,0.9398334572046995,-0.2822296359008178
1782987667106221300,9.03522119140625,0.8859493068039417,0.6751613610327244,0.11032847014572471
1782987667116296400,9.04529638671875,0.9430430669009685,0.6068845281422138,0.05958188711833209
1782987667126370300,9.055370361328125,0.5453238517642021,0.6664636753141879,-0.38648773662429303
1782987667136445400,9.065445556640626,-0.21598902154564856,0.6858622032672167,-0.9657613869264722
1782987667146519300,9.075519287109374,-0.9898206001669168,0.7441045488774776,-1.5161208947703242
1782987667156594400,9.085594482421875,-1.726984536126256,0.9004770138502121,-1.8468201452098785
1782987667166669300,9.09566943359375,-2.3013094414472577,1.0187854133665561,-1.9040711416952312
1782987667176743400,9.105743408203125,-2.4615268914103505,1.018897641569376,-1.6506211351528763
1782987667186818600,9.115818603515624,-2.1691016959160567,0.9568518120229244,-1.1467943189684302
1782987667196893400,9.1258935546875,-1.4945745411336422,0.8073509863853454,-0.6506542578943073
1782987667206967600,9.135967529296876,-0.7110971822887658,0.6565911005973816,-0.2455857759732753
1782987667217042400,9.14604248046875,0.02398819383084774,0.4358931707084179,0.04645049326866865
1782987667227116500,9.156116455078125,0.641082565820217,0.22592472462654112,0.2362798221632838
1782987667237191400,9.16619140625,1.055115786898136,0.038655017086863516,0.36900866895914075
1782987667247266600,9.1762666015625,1.2247580678105354,-0.13703180468678475,0.43533268728144464
1782987667257340400,9.18634033203125,1.2412795790225266,-0.272464357483387,0.38309637715294953
1782987667267415600,9.19641552734375,1.0186468816787004,-0.3336754897713661,0.19295155256837604
1782987667277490400,9.206490478515626,0.6877706672370434,-0.3375771733850241,-0.07771773819178342
1782987667287564500,9.216564453125,0.2924830631613731,-0.28812428342998025,-0.3348221755884588
1782987667297639400,9.226639404296876,-0.10003273811340331,-0.2335617953762412,-0.5920055234402418
1782987667307714600,9.236714599609375,-0.4564356079995632,-0.22069880667179823,-0.7860386607002466
1782987667317788700,9.24678857421875,-0.681264354082942,-0.20987579936236142,-0.905793386567384
1782987667327863600,9.256863525390624,-0.8062392257511616,-0.19985826321691275,-1.0006357894960791
1782987667337937700,9.266937744140625,-0.8564180918931961,-0.1678217874869704,-1.10229313313663
1782987667348012500,9.277012451171874,-0.7549480144530535,-0.12473872482478618,-1.211918825307861
1782987667358087400,9.28708740234375,-0.49331952376067634,-0.059007192502915855,-1.2389089043684303
1782987667368161500,9.29716162109375,-0.05227846876978874,-0.03173310886919498,-1.2109440619915723
1782987667378236400,9.307236328125,0.36576164986193177,-0.04128039715439081,-1.120379993969202
1782987667388311300,9.317311279296876,0.6459773521244525,-0.035596798560023304,-1.0628185432951898
1782987667398385400,9.327385498046874,0.7962316264778375,-0.0744271722137928,-0.9393994497016072
1782987667408460300,9.337460205078125,0.8323287757754325,-0.019708909076452254,-0.8373205196481197
1782987667418534400,9.347534423828124,0.7934826200306415,0.012758359286189078,-0.7759828383710234
1782987667428609300,9.357609375,0.7169535071015357,0.07130524080097675,-0.6848432354830205
1782987667438684400,9.367684326171876,0.6229588801085949,0.09860942731201648,-0.5797413043465465
1782987667448758500,9.377758544921875,0.5124018253713846,0.09166355369687079,-0.44519437527805567
1782987667458833400,9.38783349609375,0.3791413559168577,0.04234101212322712,-0.30152875859998163
1782987667468908500,9.397908447265625,0.24652678315043447,-0.05496376233100891,-0.19665289130434394
1782987667478982400,9.407982421875,0.15926935545802115,-0.17536825734376907,-0.12255319747924803
1782987667489057500,9.4180576171875,0.20959902824759483,-0.2755763520240784,-0.08846921463496983
1782987667499131400,9.42813134765625,0.2849310403466225,-0.3196720988601446,-0.06860555338822305
1782987667509206500,9.43820654296875,0.30197511412799355,-0.3839075474053621,-0.03465520686097443
1782987667519281400,9.448281494140625,0.2746837870985269,-0.4685737895607948,0.07923201521225273
1782987667529355500,9.45835546875,0.3056108402818441,-0.613014409199357,0.22074622601009905
1782987667539430400,9.468430419921875,0.4660825572669506,-0.6976648692637681,0.22945896316729483
1782987667549505500,9.478505615234376,0.46730420801639555,-0.7463163797080516,0.03579487841539085
1782987667559579400,9.488579345703124,0.13341127610206605,-0.6984346845924854,-0.2864296814065426
1782987667569654500,9.498654541015625,-0.5228852254629135,-0.47470542418360706,-0.6098924047213048
1782987667579728600,9.508728759765624,-1.2674912941217422,-0.09050970748662948,-0.9419790909312665
1782987667589803500,9.518803466796875,-1.900172526821494,0.32219606437981124,-1.1724438701402395
1782987667599878700,9.528878662109374,-2.072360985085368,0.5802449430197477,-1.2407758672840892
1782987667609952500,9.538952392578125,-1.7929133445858954,0.6927554699122905,-1.186343289220333
1782987667620027600,9.549027587890626,-1.2693687784314154,0.6092576870143414,-1.0780595862425864
1782987667630102300,9.559102294921875,-0.9272247355222701,0.47201223957687616,-0.7826848202276975
1782987667640176600,9.5691767578125,-0.9182043937206268,0.49485447824299333,-0.41729156528674066
1782987667650251300,9.579251220703124,-1.085267179533839,0.6689905634433031,-0.32917700930833815
1782987667660326400,9.589326416015625,-1.2254758606910705,0.8128998526841401,-0.4362361389271915
1782987667670400300,9.599400146484374,-1.107815111428499,0.8782242655098438,-0.5237694609515369
1782987667680475400,9.609475341796875,-0.6421674384474754,0.857380507184565,-0.4448706962816417
1782987667690549200,9.61954931640625,0.010320903006196022,0.7506716523081064,-0.19474325829073785
1782987667700624400,9.629624267578125,0.6248726047754287,0.5337625933080912,0.097156086698547
1782987667710699500,9.639699462890626,1.1384048954814672,0.3058995940953493,0.41417818250656124
1782987667720773400,9.6497734375,1.4443693715065717,0.1578992361485958,0.6232381354413926
1782987667730848500,9.6598486328125,1.6235037033855915,-0.009589666122198104,0.5947624939981848
1782987667740923400,9.66992333984375,1.5576760172128676,-0.17180150477290151,0.3723100120594725
1782987667750997500,9.67999755859375,1.1864093401938676,-0.2658095757693052,0.03515066222772002
1782987667761072400,9.690072265625,0.5861410153210163,-0.2900660651475191,-0.29011447086650877
1782987667771146500,9.700146484375,-0.0667979925096035,-0.2466559624880552,-0.5604038589309901
1782987667781221400,9.710221435546876,-0.6757622495353222,-0.06015197862386703,-0.7123880988821387
1782987667791296500,9.720296630859375,-1.1294038429021835,0.1438742179274559,-0.7730833175372331
1782987667801370400,9.730370361328125,-1.39565823982954,0.28354280085861683,-0.5694037424664944
1782987667811445500,9.740445556640625,-1.5330343279093503,0.3800242762312293,-0.2752142407134175
1782987667821519400,9.750519287109375,-1.5302917512029408,0.49903410201519727,0.03444386566523462
1782987667831594500,9.760594482421874,-1.4542705877959727,0.6678615594133734,0.23533315243031827
1782987667841669600,9.770669677734375,-1.2846528568029403,0.8104287863954901,0.3484256439292803
1782987667851743500,9.780743408203126,-1.081831944388151,0.8992521482303738,0.37858058022893964
1782987667861818600,9.790818603515625,-0.8400532325476407,0.9467106494978069,0.2673242363822646
1782987667871893500,9.8008935546875,-0.5289928946882486,0.9657409286603331,0.024309242478758094
1782987667881967600,9.810967529296875,-0.12827858938872813,0.9269508870169519,-0.21073179513718931
1782987667892042500,9.82104248046875,0.20547639535963533,0.7561176427543163,-0.3901948840465396
1782987667902116900,9.831116943359374,0.51912441162467,0.5887476906880736,-0.5281028870459645
1782987667912190700,9.841190673828125,0.7912731272876262,0.4744812600389123,-0.5439127793898806
1782987667922265900,9.851265869140626,0.988505425915122,0.4332476246356964,-0.4341173566749319
1782987667932339700,9.861339599609375,1.0713315931618212,0.38191023610830305,-0.2995417129686102
1782987667942414800,9.871414794921876,1.0836936466068028,0.34860534787774083,-0.16846742844674736
1782987667952489700,9.88148974609375,0.9910895971894264,0.32170711181908845,-0.08400712065957486
1782987667962563800,9.891563720703125,0.8330687804877758,0.32298896832317114,-0.07887501846812665
1782987667972638700,9.901638671875,0.658061757671833,0.32690760307162997,-0.1088607722133398
1782987667982713600,9.911713623046875,0.5401379735589027,0.28799598087519407,-0.08746887848600744
1782987667992787700,9.92178759765625,0.42058746502697464,0.22373072171360253,-0.08945490120407193
1782987668002862600,9.931862548828125,0.3057821051955223,0.14877572623342275,-0.17722309143021703
1782987668012936700,9.941936767578126,0.20860358746945856,0.04668459428548813,-0.333936442262493
1782987668023011600,9.952011474609375,0.18924539152681827,-0.01103811136484146,-0.4736605182405561
1782987668033086700,9.962086669921876,0.21449498359560965,-0.05635317086279392,-0.5700626812992617
1782987668043160600,9.97216064453125,0.26194763964414597,-0.07947510325312614,-0.5707884017579257
1782987668053235700,9.982235595703125,0.2766723305672407,-0.07696516625881195,-0.5153300973756239
1782987668063309600,9.9923095703125,0.23943945523798466,-0.0795092977836728,-0.4440509773965925
1782987668073384700,10.002384765625,0.15384382327795026,-0.07557312737852334,-0.39640707309227435
1782987668083458600,10.01245849609375,0.02407002689540386,-0.10387918440848588,-0.4054887166270986
1782987668093533700,10.02253369140625,-0.13923954386413095,-0.1319441261589527,-0.4879924835190177
1782987668103608800,10.03260888671875,-0.35936288873553274,-0.1802487228617072,-0.5484773473590612
1782987668113682700,10.0426826171875,-0.6291174027383327,-0.2631508779540658,-0.5025120437914505
1782987668123757800,10.0527578125,-0.8083575330793857,-0.33955256511121984,-0.4503222031531855
1782987668133832700,10.062832763671874,-0.8174789971679448,-0.35516777513325215,-0.44142121341489254
1782987668143906800,10.07290673828125,-0.788380912977457,-0.30438860501050946,-0.556204069153592
1782987668153981700,10.082981689453124,-0.7332248429447412,-0.30450200225710866,-0.741899805374816
1782987668164055800,10.093055908203125,-0.6132078859448432,-0.35562545577287674,-0.9063103231135755
1782987668174130700,10.103130615234376,-0.40323768629729745,-0.36418753241300583,-1.0504600700467823
1782987668184205800,10.113205810546875,-0.2111824980467558,-0.3320855902314186,-1.109553114202246
1782987668194279700,10.12327978515625,-0.04479191240668297,-0.26760347344875335,-1.086837789851427
1782987668204354800,10.133354736328124,0.03672083415389061,-0.14313012156188487,-1.037799325916171
1782987668214429700,10.1434296875,-0.004320201286673545,0.043731005176901816,-0.9955839859992265
1782987668224503800,10.15350390625,-0.3467237719148397,0.1665086590617895,-0.9878092603445052
1782987668234579000,10.163578857421875,-0.9789940857261419,0.27230478300750255,-1.0166631605155765
1782987668244652800,10.17365283203125,-1.591359091106057,0.4627800085902214,-1.0589042193956673
1782987668254728000,10.18372802734375,-2.0356711305916306,0.704164752677083,-1.1075854673910885
1782987668264802800,10.193802734375,-2.2071587471097707,0.8890113247230649,-1.081427162979543
1782987668274877000,10.203876953125,-2.001091984641552,1.0065633529141544,-0.8923780246771872
1782987668284951800,10.213951904296875,-1.5822855578124522,1.0236059653908014,-0.644688627488166
1782987668295026700,10.224026611328124,-1.0371282947868108,0.9438692885920404,-0.40321726456377655
1782987668305100800,10.234100830078125,-0.4235439767450094,0.8383870529010892,-0.21540077332891522
1782987668315175700,10.24417578125,0.2150461877375841,0.7984916803643107,-0.09267872208878397
1782987668325249800,10.254249755859375,0.714582686316967,0.7722627218693494,-0.03572714694142341
1782987668335324700,10.26432470703125,1.0071569348931313,0.6558230388343333,0.023745836442336438
1782987668345399600,10.274399658203125,1.1560825909912587,0.4852531216830015,-0.07827471448741853
1782987668355473700,10.2844736328125,1.190823064982891,0.26070553062856194,-0.35127474975008516
1782987668365548800,10.294548828125,1.1270341911613941,0.16477379809319972,-0.6441990904055536
1782987668375623700,10.304623779296875,0.6159013628125191,0.25397651463449,-0.960138578608632
1782987668385697800,10.31469775390625,0.001994388687610626,0.39026773008704185,-1.1874127450827507
1782987668395772700,10.324772705078125,-0.45496378188133235,0.46967502880096434,-1.1734784738849848
1782987668405847800,10.334847900390624,-0.55883039906919,0.533063505128026,-0.98988687033616
1782987668415921700,10.344921630859375,-0.3117196785509586,0.5510562579363584,-0.733166902212426
1782987668425996800,10.354996826171876,0.0027419921845197675,0.5063713130354881,-0.45814643050543963
1782987668436071700,10.36507177734375,0.27697219029664993,0.4694365438699722,-0.1991005767174065
1782987668446145800,10.375145751953125,0.4711176288247108,0.4741770163953304,0.017619462516531348
1782987668456220700,10.385220703125,0.6295172157108784,0.5298714310884476,0.16381627817265687
1782987668466295800,10.3952958984375,0.7263800916165113,0.550426727861166,0.27927067649737
1782987668476369700,10.40536962890625,0.7761071223378181,0.5482990681827068,0.3099975309334695
1782987668486444800,10.41544482421875,0.7364519882977009,0.5127221433669329,0.295510667354241
1782987668496519000,10.425518798828126,0.6196949098765849,0.5043588041692972,0.20668832843266427
1782987668506593800,10.43559375,0.42685763133764265,0.43678339754641055,0.07381656603477894
1782987668516668700,10.445668701171876,0.16359598648548127,0.362197235378623,-0.08354227962680161
1782987668526742800,10.45574267578125,-0.08349895194172859,0.33378128823339936,-0.201347917252779
1782987668536817700,10.465817626953125,-0.29714871688485145,0.30846856780052184,-0.4217403613891452
1782987668546892500,10.475892578125,-0.3595481821745634,0.2635673498004675,-0.5934446163326501
1782987668556966700,10.485966552734375,-0.2209106958568096,0.18786182821393013,-0.6178239283729344
1782987668567041500,10.49604150390625,0.07186229016184806,0.0959597895860672,-0.5512798375591635
1782987668577115600,10.50611572265625,0.41165129437744613,0.03833995978832245,-0.47396600399315353
1782987668587190500,10.5161904296875,0.7155372105628252,-0.051072600111365316,-0.42472047317847605
1782987668597265700,10.526265625,0.9104746762514114,-0.10016191745102405,-0.4446905174091458
1782987668607339500,10.536339599609375,0.9571785597592591,-0.1513204422801733,-0.470048172962293
1782987668617414700,10.54641455078125,0.8873761247366666,-0.13089666293263436,-0.4327960084106773
1782987668627489800,10.55648974609375,0.8653308816671371,-0.10093465538918972,-0.4765308860450983
1782987668637563600,10.566563720703124,0.8018103033930063,-0.12371113534271716,-0.5049082547456025
1782987668647638800,10.576638671875,0.505009961554408,-0.23835925878584382,-0.3912497268617153
1782987668657712600,10.586712646484376,0.17142507267594337,-0.336588746869564,-0.28726489012166856
1782987668667787800,10.596787841796875,0.037515783923864364,-0.38457974757850166,-0.26855660945512355
1782987668677862700,10.606862548828126,0.1489969677686691,-0.4370283122181892,-0.22535854211114345
1782987668687936800,10.616936767578125,0.37493104474544525,-0.5099941797077655,-0.12643171941302717
1782987668698011600,10.62701171875,0.6292325535506009,-0.6484101322293281,-0.1135195578046143
1782987668708085800,10.637085693359374,0.7725871315181255,-0.8163543770521878,-0.09818060744069516
1782987668718160600,10.64716064453125,0.7314858903229237,-0.8834136508464813,-0.0995735961690545
1782987668728235800,10.65723583984375,0.5931973635733128,-0.7698778725594282,-0.08831694668270647
1782987668738309600,10.6673095703125,0.2944756982833147,-0.6322650531142949,-0.10555325510054826
1782987668748384800,10.677384765625,0.12615151423215865,-0.9774848502069711,-0.07313464818522333
1782987668758460000,10.6874599609375,0.18611761489510534,-1.3098206158071755,0.07199789924025535
1782987668768533800,10.69753369140625,0.29785365028381344,-1.4100941769391298,-0.027771804022789
1782987668778609000,10.70760888671875,0.24045360071659086,-1.4436048168748616,-0.3921840851023793
1782987668788682800,10.717682861328125,-0.26468320208787915,-1.3799877924889326,-0.7003903487049042
1782987668798758000,10.7277578125,-0.9982476522505283,-1.2299638197600842,-0.9047519877556711
