time,seconds_elapsed,z,y,x
1782987658149865000,0.078864990234375,0.87095707654953,0.625188410282135,0.0987616628408432
1782987658159939800,0.08893994140625,0.8215354681015015,0.6373375058174133,0.07798255980014801
1782987658170014000,0.099013916015625,0.7795525789260864,0.5920171737670898,0.05140155553817749
1782987658180088800,0.1090888671875,0.7478683590888977,0.49370673298835754,0.025037525221705437
1782987658190164000,0.1191640625,0.7277811765670776,0.3396354019641876,-0.013731174170970917
1782987658200237800,0.12923779296875,0.7051770091056824,0.18722577393054962,-0.06682725995779037
1782987658210313000,0.13931298828125,0.6837491989135742,0.10777701437473297,-0.131344735622406
1782987658220387800,0.149387939453125,0.6769845485687256,0.12584789097309113,-0.18679653108119965
1782987658230462000,0.1594619140625,0.6780145764350891,0.2149619162082672,-0.21189278364181519
1782987658240536800,0.169536865234375,0.6914240121841431,0.3147553503513336,-0.20643498003482819
1782987658250611700,0.17961181640625,0.7099534869194031,0.38926127552986145,-0.17227700352668762
1782987658260685800,0.189685791015625,0.7266760468482971,0.4204985499382019,-0.11387122422456741
1782987658270760700,0.1997607421875,0.7255727052688599,0.3903571665287018,-0.07182737439870834
1782987658280834800,0.209834716796875,0.7220929265022278,0.3425031900405884,-0.0582490898668766
1782987658290909700,0.21990966796875,0.7255886197090149,0.3201395571231842,-0.051593851298093796
1782987658300984800,0.22998486328125,0.7297120094299316,0.29917851090431213,-0.0612899549305439
1782987658311058700,0.24005859375,0.7402163147926331,0.2592422664165497,-0.08879455178976059
1782987658321133800,0.2501337890625,0.7395039796829224,0.22407856583595276,-0.1152525395154953
1782987658331209000,0.260208984375,0.7182698249816895,0.21653783321380615,-0.12905943393707275
1782987658341282800,0.27028271484375,0.6847931146621704,0.22994019091129303,-0.12888388335704803
1782987658351358000,0.28035791015625,0.6456025242805481,0.24651490151882172,-0.12364811450242996
1782987658361432800,0.290432861328125,0.6190628409385681,0.2548452317714691,-0.11769452691078186
1782987658371507000,0.3005068359375,0.600917398929596,0.25541114807128906,-0.10860063135623932
1782987658381581800,0.310581787109375,0.5896126627922058,0.2533928155899048,-0.10088145732879639
1782987658391657000,0.320656982421875,0.5836021900177002,0.24492500722408295,-0.09642412513494492
1782987658401730800,0.330730712890625,0.5830170512199402,0.22313809394836426,-0.10634419322013855
1782987658411806000,0.340805908203125,0.5981842875480652,0.2059393972158432,-0.12425927817821503
1782987658421881000,0.350881103515625,0.6200588941574097,0.23037679493427277,-0.13375207781791687
1782987658431955000,0.360954833984375,0.6335070133209229,0.28958791494369507,-0.1390989124774933
1782987658442030000,0.371030029296875,0.6400340795516968,0.33423715829849243,-0.14633694291114807
1782987658452104700,0.381104736328125,0.6541655659675598,0.3461039364337921,-0.1525527536869049
1782987658462179000,0.391178955078125,0.672733724117279,0.3432621955871582,-0.15649785101413727
1782987658472253700,0.401253662109375,0.6744006276130676,0.30707091093063354,-0.14282304048538208
1782987658482328000,0.411328125,0.6684245467185974,0.25114309787750244,-0.12396557629108429
1782987658492402700,0.421402587890625,0.6641078591346741,0.2189049869775772,-0.0856751799583435
1782987658502477800,0.431477783203125,0.66996830701828,0.2441597580909729,-0.03537676855921745
1782987658512551700,0.4415517578125,0.6802006959915161,0.3012734055519104,0.032961275428533554
1782987658522626800,0.451626708984375,0.6805359125137329,0.39485791325569153,0.07325486093759537
1782987658532702000,0.461701904296875,0.6808874607086182,0.5019577145576477,0.100862517952919
1782987658542775800,0.47177587890625,0.6732048392295837,0.6185707449913025,0.11973893642425537
1782987658552851000,0.481850830078125,0.6565893888473511,0.7041618227958679,0.1373368352651596
1782987658562925800,0.49192578125,0.6260989308357239,0.6865538954734802,0.17542600631713867
1782987658573000000,0.502,0.5933955907821655,0.5917773246765137,0.2228499799966812
1782987658583074800,0.51207470703125,0.5636706352233887,0.5223185420036316,0.2568901777267456
1782987658593150000,0.52214990234375,0.5302160382270813,0.510700523853302,0.27914994955062866
1782987658603223800,0.532223876953125,0.48986056447029114,0.5122669339179993,0.2762089669704437
1782987658613299000,0.542298828125,0.46736350655555725,0.49220481514930725,0.26820510625839233
1782987658623373800,0.552373779296875,0.4688830077648163,0.4662324786186218,0.2544996738433838
1782987658633448000,0.562447998046875,0.4961460530757904,0.476866751909256,0.23911909759044647
1782987658643523000,0.572523193359375,0.5375862717628479,0.6096474528312683,0.21072478592395782
1782987658653598000,0.582597900390625,0.591234564781189,0.8139675259590149,0.16777971386909485
1782987658663672000,0.592672119140625,0.661795437335968,0.9069181084632874,0.1028038039803505
1782987658673747000,0.602746826171875,0.7226790189743042,0.7124311923980713,-0.008744297549128532
1782987658683821800,0.61282177734375,0.7317965030670166,0.22283487021923065,-0.15464362502098083
1782987658693896000,0.62289599609375,0.6676473617553711,-0.3206726312637329,-0.30470821261405945
1782987658703970800,0.632970703125,0.5496723055839539,-0.5608212947845459,-0.40414392948150635
1782987658714045000,0.643044921875,0.4384653866291046,-0.3771340250968933,-0.4001670479774475
1782987658724119800,0.653119873046875,0.38078975677490234,0.14867910742759705,-0.2965496778488159
1782987658734194700,0.663194580078125,0.3938317894935608,0.8052425980567932,-0.15428520739078522
1782987658744268800,0.673268798828125,0.4756690561771393,1.3060070276260376,-0.046574655920267105
1782987658754343700,0.68334375,0.603943407535553,1.5173656940460205,0.02404092438519001
1782987658764418800,0.693418701171875,0.7300873398780823,1.515446662902832,0.06865258514881134
1782987658774493000,0.703492919921875,0.8130109310150146,1.3714940547943115,0.09615770727396011
1782987658784567800,0.71356787109375,0.8290315270423889,1.1708524227142334,0.09708184748888016
1782987658794643000,0.723642822265625,0.7840835452079773,0.9667006731033325,0.08028848469257355
1782987658804716800,0.733716796875,0.6674480438232422,0.7667829990386963,0.07825494557619095
1782987658814792000,0.7437919921875,0.5534927248954773,0.5602407455444336,0.05611022561788559
1782987658824866800,0.75386669921875,0.4607604742050171,0.27049708366394043,0.02087859995663166
1782987658834941000,0.76394091796875,0.46470940113067627,0.17819616198539734,0.025638466700911522
1782987658845015800,0.774015869140625,0.5202081799507141,0.20515915751457214,0.032898932695388794
1782987658855091000,0.784091064453125,0.5910338759422302,0.2635798454284668,-0.0008339995983988047
1782987658865164800,0.794164794921875,0.6585057973861694,0.33236202597618103,-0.07446962594985962
1782987658875240000,0.804239990234375,0.7280257344245911,0.4005296230316162,-0.16102449595928192
1782987658885314800,0.814314697265625,0.7826114892959595,0.43214482069015503,-0.24540488421916962
1782987658895389200,0.82438916015625,0.8202190399169922,0.39693647623062134,-0.31078895926475525
1782987658905464000,0.834464111328125,0.8235531449317932,0.3025301992893219,-0.3317843973636627
1782987658915539000,0.8445390625,0.8002824783325195,0.19608314335346222,-0.3274458646774292
1782987658925613000,0.854613037109375,0.7774477005004883,0.10923894494771957,-0.2868560254573822
1782987658935688000,0.86468798828125,0.7870108485221863,0.07490067929029465,-0.22837112843990326
1782987658945762000,0.874761962890625,0.8123381733894348,0.05638689175248146,-0.16057713329792023
1782987658955837000,0.8848369140625,0.847516655921936,0.05324409529566765,-0.10401558130979538
1782987658965912000,0.894912109375,0.866759181022644,0.14051759243011475,-0.04219191521406174
1782987658975986000,0.90498583984375,0.8670308589935303,0.2765694260597229,0.030987491831183434
1782987658986061000,0.91506103515625,0.8562541604042053,0.41105547547340393,0.0924413725733757
1782987658996136200,0.92513623046875,0.8364580869674683,0.5019446015357971,0.1351984292268753
1782987659006210000,0.9352099609375,0.7911267876625061,0.5969855785369873,0.14919012784957886
1782987659016285200,0.94528515625,0.7406684160232544,0.6577919125556946,0.1485898494720459
1782987659026360000,0.955360107421875,0.6769370436668396,0.6221871972084045,0.1309308409690857
1782987659036434200,0.96543408203125,0.6119133234024048,0.550565779209137,0.11609863489866257
1782987659046509000,0.975509033203125,0.5576936602592468,0.46357011795043945,0.11481370031833649
1782987659056584200,0.985584228515625,0.5136931538581848,0.3215794265270233,0.10860347747802734
1782987659066658000,0.995657958984375,0.4646078944206238,0.18273206055164337,0.09449192136526108
1782987659076733200,1.005733154296875,0.41289222240448,0.08434662222862244,0.08039234578609467
1782987659086808300,1.015808349609375,0.3738389313220978,0.05321640521287918,0.07626902312040329
1782987659096882200,1.025882080078125,0.34235477447509766,0.0645713210105896,0.05955369025468826
1782987659106957300,1.035957275390625,0.3223119080066681,0.08390041440725327,0.035520367324352264
1782987659117032000,1.046031982421875,0.3122369050979614,0.10882706940174103,0.0056761871092021465
1782987659127106300,1.056106201171875,0.30677616596221924,0.11255256831645966,-0.02180439606308937
1782987659137181000,1.066180908203125,0.2942638397216797,0.10361260175704956,-0.03154650330543518
1782987659147256000,1.076256103515625,0.26448801159858704,0.06890442222356796,-0.0318610705435276
1782987659157330000,1.086329833984375,0.20943674445152283,0.024540947750210762,-0.016776924952864647
1782987659167405000,1.096405029296875,0.13792556524276733,-0.026197737082839012,0.010292576625943184
1782987659177480200,1.106480224609375,0.06658055633306503,-0.09739948064088821,0.035449862480163574
1782987659187554000,1.116553955078125,-0.00269245239906013,-0.151879221200943,0.055946655571460724
1782987659197629200,1.126629150390625,-0.0733751431107521,-0.15089917182922363,0.07114158570766449
1782987659207703000,1.136703125,-0.13029925525188446,-0.09754620492458344,0.08204759657382965
1782987659217778200,1.146778076171875,-0.1509219855070114,-0.03420797735452652,0.08868099749088287
1782987659227853000,1.15685302734375,-0.15733803808689117,0.01114700362086296,0.08369520306587219
1782987659237927200,1.16692724609375,-0.159648597240448,0.001179857412353158,0.05974512919783592
1782987659248002000,1.177001953125,-0.1668374389410019,-0.06614035367965698,0.034413401037454605
1782987659258077200,1.1870771484375,-0.1777620017528534,-0.14458028972148895,0.021421173587441444
1782987659268151000,1.197151123046875,-0.20312222838401794,-0.20179854333400726,0.01621900126338005
1782987659278226200,1.20722607421875,-0.22719240188598633,-0.20201532542705536,0.016241637989878654
1782987659288301300,1.21730126953125,-0.24343064427375793,-0.13552503287792206,0.01935899816453457
1782987659298375200,1.227375244140625,-0.24329589307308197,-0.004603234585374594,0.029496585950255394
1782987659308450300,1.2374501953125,-0.2562181353569031,0.12766490876674652,0.049776580184698105
1782987659318525200,1.247525146484375,-0.28539812564849854,0.12197879701852798,0.02598549798130989
1782987659328599300,1.257599365234375,-0.33581310510635376,-0.059956613928079605,-0.06437444686889648
1782987659338674200,1.267674072265625,-0.3828698396682739,-0.307479590177536,-0.19261977076530457
1782987659348749000,1.2777490234375,-0.4302244782447815,-0.5535590052604675,-0.3374098539352417
1782987659358823200,1.2878232421875,-0.47751128673553467,-0.6823854446411133,-0.46774470806121826
1782987659368898000,1.29789794921875,-0.5253372192382812,-0.6326530575752258,-0.5591505765914917
1782987659378973000,1.307972900390625,-0.5605812072753906,-0.47812607884407043,-0.6073991060256958
1782987659389047000,1.318047119140625,-0.5662399530410767,-0.28647512197494507,-0.597761869430542
1782987659399122000,1.328121826171875,-0.5298094749450684,-0.08864858746528625,-0.5154273509979248
1782987659409196000,1.338196044921875,-0.4533758759498596,0.08943886309862137,-0.36746495962142944
1782987659419271000,1.34827099609375,-0.3601101040840149,0.1686607003211975,-0.16410359740257263
1782987659429346000,1.358345947265625,-0.2669675946235657,0.16466489434242249,0.06519683450460434
1782987659439420200,1.368420166015625,-0.18395181000232697,0.057064659893512726,0.2976444661617279
1782987659449495000,1.3784951171875,-0.1320175677537918,-0.14532145857810974,0.4685509204864502
1782987659459570200,1.388570068359375,-0.10280561447143555,-0.3816072642803192,0.5549244284629822
1782987659469644000,1.39864404296875,-0.08383891731500626,-0.5946034789085388,0.5475518107414246
1782987659479719200,1.40871923828125,-0.08642537891864777,-0.7327709794044495,0.447407603263855
1782987659489794000,1.4187939453125,-0.11893674731254578,-0.7727115154266357,0.27840614318847656
1782987659499868200,1.4288681640625,-0.17135894298553467,-0.7221513986587524,0.09177476912736893
1782987659509943000,1.438943115234375,-0.24132519960403442,-0.5701628923416138,-0.06944750249385834
1782987659520018200,1.44901806640625,-0.3298412263393402,-0.3242258131504059,-0.1591787189245224
1782987659530092000,1.459092041015625,-0.41658005118370056,-0.061864372342824936,-0.16317467391490936
1782987659540167200,1.469167236328125,-0.48629918694496155,0.1688718944787979,-0.08771667629480362
1782987659550242300,1.4792421875,-0.5177584290504456,0.3237914443016052,0.046457063406705856
1782987659560316200,1.489316162109375,-0.5095574855804443,0.35797205567359924,0.2010492980480194
1782987659570391300,1.499391357421875,-0.48466092348098755,0.29253777861595154,0.35293570160865784
1782987659580466000,1.5094658203125,-0.45584630966186523,0.1769329011440277,0.48169660568237305
1782987659590540300,1.519540283203125,-0.42614826560020447,0.07697752118110657,0.5752770304679871
1782987659600615000,1.529614990234375,-0.38961929082870483,0.0005317467730492353,0.6100198030471802
1782987659610689300,1.539689208984375,-0.343346506357193,-0.06385337561368942,0.5791342854499817
1782987659620764000,1.549763916015625,-0.2896502614021301,-0.09280113875865936,0.5015350580215454
1782987659630839000,1.559839111328125,-0.2472286969423294,-0.06938115507364273,0.40170058608055115
1782987659640913000,1.569912841796875,-0.22875860333442688,-0.03110673651099205,0.29719310998916626
1782987659650988000,1.579988037109375,-0.23770272731781006,-0.011651290580630302,0.21526910364627838
1782987659661063200,1.590063232421875,-0.2592921853065491,-0.0006178140174597502,0.16433322429656982
1782987659671137000,1.600136962890625,-0.2823866307735443,0.005194829776883125,0.13944412767887115
1782987659681212200,1.610212158203125,-0.297163724899292,-0.0054231928661465645,0.1395362764596939
1782987659691287000,1.620287109375,-0.3136979639530182,-0.006230004131793976,0.16167545318603516
1782987659701361200,1.630361083984375,-0.3249167799949646,-0.004391358233988285,0.20303115248680115
1782987659711436000,1.64043603515625,-0.3275943100452423,0.003993197809904814,0.23521606624126434
1782987659721511200,1.65051123046875,-0.3149261772632599,0.03803398832678795,0.25942179560661316
1782987659731585000,1.6605849609375,-0.2867511808872223,0.08756303787231445,0.273529052734375
1782987659741660200,1.67066015625,-0.23844625055789948,0.12456180155277252,0.28505465388298035
1782987659751735300,1.6807353515625,-0.18450652062892914,0.12581592798233032,0.2917936146259308
1782987659761809200,1.69080908203125,-0.1217760294675827,0.1271301954984665,0.2825298011302948
1782987659771884300,1.70088427734375,-0.07829097658395767,0.12188161164522171,0.26188474893569946
1782987659781959200,1.710959228515625,-0.0492904856801033,0.07882335782051086,0.2355375736951828
1782987659792033300,1.721033203125,-0.05382721498608589,0.017413504421710968,0.2171919345855713
1782987659802108200,1.731108154296875,-0.07161153852939606,-0.017017172649502754,0.22610953450202942
1782987659812182300,1.741182373046875,-0.10258032381534576,-0.012144207954406738,0.2622084319591522
1782987659822257200,1.751257080078125,-0.1369396299123764,-0.005966473370790482,0.30054330825805664
1782987659832332000,1.76133203125,-0.16386528313159943,0.009904774837195873,0.3368956744670868
1782987659842406100,1.77140625,-0.1822352260351181,0.08668796718120575,0.3617677390575409
1782987659852481000,1.78148095703125,-0.18951426446437836,0.16365556418895721,0.38172635436058044
1782987659862556200,1.79155615234375,-0.20162339508533478,0.25515246391296387,0.3958488404750824
1782987659872630000,1.801630126953125,-0.22369793057441711,0.29639533162117004,0.38596343994140625
1782987659882705200,1.811705078125,-0.24792097508907318,0.2843221426010132,0.33849072456359863
1782987659892779300,1.821779296875,-0.2573259472846985,0.2578410506248474,0.26654335856437683
1782987659902853400,1.831853271484375,-0.2502371370792389,0.2300909161567688,0.17598387598991394
1782987659912928300,1.84192822265625,-0.2193296104669571,0.3261722922325134,0.09864756464958191
1782987659923003400,1.85200341796875,-0.17710065841674805,0.5082643628120422,0.0490989163517952
1782987659933077200,1.8620771484375,-0.11686530709266663,0.5350282192230225,-0.005293550435453653
1782987659943152400,1.87215234375,-0.06516563147306442,0.33914870023727417,-0.11814766377210617
1782987659953227300,1.882227294921875,-0.03715592622756958,-0.06767778098583221,-0.2955225706100464
1782987659963301400,1.89230126953125,0.018234625458717346,-0.4722846746444702,-0.5350400805473328
1782987659973376300,1.902376220703125,0.12575411796569824,-0.4924570322036743,-0.7304507493972778
1782987659983450400,1.912450439453125,0.2181309163570404,-0.31999045610427856,-0.858656644821167
1782987659993525200,1.922525146484375,0.22877754271030426,-0.0922468975186348,-0.9200215935707092
1782987660003600400,1.932600341796875,0.15598508715629578,0.10261819511651993,-0.8853179216384888
1782987660013674200,1.94267431640625,0.060330264270305634,0.29072830080986023,-0.7270175814628601
1782987660023749400,1.952749267578125,-0.026687726378440857,0.4993533790111542,-0.43470877408981323
1782987660033824500,1.962824462890625,-0.05722292140126228,0.6166555285453796,-0.044420335441827774
1782987660043898400,1.9728984375,-0.012902861461043358,0.5933113098144531,0.3316084146499634
1782987660053973500,1.982973388671875,0.07697152346372604,0.3678175210952759,0.6185452342033386
1782987660064048400,1.99304833984375,0.1896703690290451,-0.00008968031033873558,0.7539046406745911
1782987660074122500,2.00312255859375,0.3058088421821594,-0.348712295293808,0.7443110346794128
1782987660084197400,2.013197265625,0.3929978013038635,-0.6072799563407898,0.6026966571807861
1782987660094272300,2.023272216796875,0.43864041566848755,-0.7324939966201782,0.36414632201194763
1782987660104346400,2.033346435546875,0.4280681908130646,-0.7368845343589783,0.07598777115345001
1782987660114421200,2.043421142578125,0.36896684765815735,-0.6524818539619446,-0.19761423766613007
1782987660124496400,2.053496337890625,0.27359533309936523,-0.5090983510017395,-0.42538216710090637
1782987660134570200,2.0635703125,0.16323314607143402,-0.3431519865989685,-0.5722746849060059
1782987660144645400,2.073645263671875,0.05632346495985985,-0.20636802911758423,-0.6358648538589478
1782987660154719200,2.08371923828125,-0.03037024848163128,-0.12045592069625854,-0.6002826690673828
1782987660164794400,2.09379443359375,-0.09202030301094055,-0.10427401959896088,-0.49338075518608093
1782987660174869200,2.103869140625,-0.12065873295068741,-0.12966874241828918,-0.33142170310020447
1782987660184943400,2.113943359375,-0.1254739910364151,-0.15609769523143768,-0.1408996880054474
1782987660195018200,2.124018310546875,-0.11227807402610779,-0.1691138744354248,0.03083225153386593
1782987660205093400,2.13409326171875,-0.08571197092533112,-0.174333393573761,0.1536356657743454
1782987660215167200,2.144167236328125,-0.06133618950843811,-0.18171903491020203,0.2276211827993393
1782987660225242400,2.154242431640625,-0.03895365074276924,-0.19807855784893036,0.25737082958221436
1782987660235317500,2.1643173828125,-0.03309928625822067,-0.2094181478023529,0.23956207931041718
1782987660245391400,2.174391357421875,-0.037319332361221313,-0.19170039892196655,0.21278372406959534
1782987660255466500,2.184466552734375,-0.05531415343284607,-0.1435379534959793,0.17923353612422943
1782987660265541400,2.194541259765625,-0.09796254336833954,-0.12527267634868622,0.14066243171691895
1782987660275615500,2.204615478515625,-0.1535293608903885,-0.1646653264760971,0.08500201255083084
1782987660285690400,2.2146904296875,-0.20035572350025177,-0.23774060606956482,0.020876556634902954
1782987660295765500,2.224765625,-0.23082701861858368,-0.31642380356788635,-0.04931081086397171
1782987660305839400,2.23483935546875,-0.2580772936344147,-0.38185209035873413,-0.11408234387636185
1782987660315914500,2.24491455078125,-0.29073384404182434,-0.40486180782318115,-0.16769742965698242
1782987660325989000,2.254989013671875,-0.34497976303100586,-0.3909566402435303,-0.22743239998817444
1782987660336063500,2.2650634765625,-0.405161589384079,-0.3498086929321289,-0.2781929075717926
1782987660346138400,2.275138427734375,-0.4656635522842407,-0.3033738136291504,-0.33698832988739014
1782987660356212500,2.28521240234375,-0.5153064727783203,-0.2606225907802582,-0.3847956359386444
1782987660366287400,2.295287353515625,-0.544979453086853,-0.2391948252916336,-0.41491466760635376
1782987660376362200,2.3053623046875,-0.5612226724624634,-0.21911300718784332,-0.4288594424724579
1782987660386436400,2.315436279296875,-0.5652598142623901,-0.2006879299879074,-0.4281347990036011
1782987660396511200,2.32551123046875,-0.55301833152771,-0.19626666605472565,-0.417128324508667
1782987660406586400,2.33558642578125,-0.5335399508476257,-0.2064359486103058,-0.4058293104171753
1782987660416660200,2.34566015625,-0.4949125349521637,-0.22076387703418732,-0.36916154623031616
1782987660426735400,2.3557353515625,-0.45854973793029785,-0.2233375608921051,-0.31163859367370605
1782987660436810200,2.365810302734375,-0.4286947548389435,-0.2266169935464859,-0.22700251638889313
1782987660446884400,2.37588427734375,-0.42020273208618164,-0.24661973118782043,-0.14231932163238525
1782987660456959200,2.385959228515625,-0.4227995276451111,-0.2546205222606659,-0.05261235311627388
1782987660467034400,2.396034423828125,-0.4329938292503357,-0.252819687128067,0.023431282490491867
1782987660477108500,2.4061083984375,-0.44343802332878113,-0.2790182828903198,0.06786280125379562
1782987660487183400,2.416183349609375,-0.4503438472747803,-0.32655224204063416,0.07658784836530685
1782987660497257500,2.426257568359375,-0.44615691900253296,-0.37772291898727417,0.061152540147304535
1782987660507332400,2.436332275390625,-0.44674307107925415,-0.3980441689491272,0.03681018203496933
1782987660517407500,2.446407470703125,-0.45317572355270386,-0.4060056805610657,0.011003573425114155
1782987660527481300,2.4564814453125,-0.4529286026954651,-0.3702623248100281,0.01654374785721302
1782987660537556500,2.466556396484375,-0.4556954801082611,-0.28161218762397766,0.05944081395864487
1782987660547631400,2.47663134765625,-0.47547397017478943,-0.13492447137832642,0.1353432983160019
1782987660557705500,2.48670556640625,-0.5173749327659607,0.025294864550232887,0.24519693851470947
1782987660567780400,2.4967802734375,-0.5634076595306396,0.008303096517920494,0.33328232169151306
1782987660577855200,2.506855224609375,-0.5958017110824585,-0.17940713465213776,0.3561709225177765
1782987660587929300,2.516929443359375,-0.6247846484184265,-0.3922283351421356,0.2982325255870819
1782987660598004200,2.527004150390625,-0.6559823155403137,-0.5477231740951538,0.17414657771587372
1782987660608079400,2.537079345703125,-0.6979220509529114,-0.5991895794868469,0.02041321061551571
1782987660618153200,2.5471533203125,-0.7638108730316162,-0.5946227312088013,-0.1435176432132721
1782987660628228400,2.557228271484375,-0.8386397957801819,-0.5621817111968994,-0.29423126578330994
1782987660638303200,2.56730322265625,-0.9006713628768921,-0.4589938819408417,-0.40113478899002075
1782987660648377300,2.57737744140625,-0.9209507703781128,-0.32067036628723145,-0.4412883222103119
1782987660658452200,2.5874521484375,-0.899899959564209,-0.19590260088443756,-0.4136245548725128
1782987660668526300,2.5975263671875,-0.8517702221870422,-0.09636110812425613,-0.2972273826599121
1782987660678601200,2.607601318359375,-0.7960676550865173,-0.033755380660295486,-0.1139410212635994
1782987660688676400,2.61767626953125,-0.7370285987854004,-0.06272365152835846,0.0871390849351883
1782987660698750200,2.627750244140625,-0.6665478944778442,-0.1993342638015747,0.25891995429992676
1782987660708825300,2.637825439453125,-0.578770637512207,-0.38100364804267883,0.36787864565849304
1782987660718900500,2.647900390625,-0.48303842544555664,-0.5441880226135254,0.39005324244499207
1782987660728974300,2.657974365234375,-0.3996298015117645,-0.648589015007019,0.3510643243789673
1782987660739049500,2.668049560546875,-0.34269189834594727,-0.6808188557624817,0.27996113896369934
1782987660749124400,2.678124267578125,-0.3164011836051941,-0.6242727637290955,0.19722604751586914
1782987660759198500,2.688198486328125,-0.3064507246017456,-0.5193505883216858,0.12204185873270035
1782987660769273300,2.6982734375,-0.3240419626235962,-0.3761305809020996,0.06284937262535095
1782987660779348500,2.708348388671875,-0.36353519558906555,-0.20947659015655518,0.047291677445173264
1782987660789422300,2.71842236328125,-0.4060339331626892,-0.05653231590986252,0.07751961797475815
1782987660799497500,2.72849755859375,-0.4385404586791992,0.043980974704027176,0.15129636228084564
1782987660809572400,2.738572265625,-0.4484339654445648,0.07710827887058258,0.2385391741991043
1782987660819646500,2.748646484375,-0.4389212131500244,0.041393112391233444,0.3247637152671814
1782987660829721300,2.758721435546875,-0.42128363251686096,-0.04817352071404457,0.3846190571784973
1782987660839795500,2.76879541015625,-0.3988834023475647,-0.15799890458583832,0.4062117636203766
1782987660849870300,2.778870361328125,-0.38392919301986694,-0.285845547914505,0.37020954489707947
1782987660859945200,2.7889453125,-0.371700644493103,-0.3808550238609314,0.2806439697742462
1782987660870019300,2.799019287109375,-0.3546167314052582,-0.42289701104164124,0.1686314195394516
1782987660880094200,2.80909423828125,-0.3365342915058136,-0.4210634231567383,0.04846208915114403
1782987660890169300,2.81916943359375,-0.3194759488105774,-0.40026092529296875,-0.05972137302160263
1782987660900248000,2.829248046875,-0.3071334958076477,-0.3797699511051178,-0.12950389087200165
1782987660910323200,2.8393232421875,-0.2988976538181305,-0.3654671907424927,-0.15080146491527557
1782987660920398300,2.8493984375,-0.2991875410079956,-0.3668307065963745,-0.11712463945150375
1782987660930472200,2.85947216796875,-0.3181130290031433,-0.3809795379638672,-0.05770178511738777
1782987660940547300,2.86954736328125,-0.34324902296066284,-0.43211793899536133,0.005345555022358894
1782987660950622200,2.879622314453125,-0.36843666434288025,-0.48349592089653015,0.04742909222841263
1782987660960696300,2.8896962890625,-0.39171215891838074,-0.5119466185569763,0.06188781559467316
1782987660970771200,2.899771240234375,-0.41163182258605957,-0.4951420724391937,0.05248046666383743
1782987660980846000,2.90984619140625,-0.42158347368240356,-0.4326649308204651,0.044245995581150055
1782987660990920200,2.919920166015625,-0.4182036519050598,-0.34791916608810425,0.05696498602628708
1782987661000995000,2.9299951171875,-0.42591792345046997,-0.23110231757164001,0.09939033538103104
1782987661011069200,2.940069091796875,-0.4440508484840393,-0.1142401471734047,0.15160854160785675
1782987661021144000,2.95014404296875,-0.46237340569496155,-0.025384966284036636,0.21296104788780212
1782987661031219200,2.96021923828125,-0.4790969789028168,0.0027292256709188223,0.2554267346858978
1782987661041293000,2.97029296875,-0.49118903279304504,-0.03635544329881668,0.2729460597038269
1782987661051368200,2.9803681640625,-0.4968133568763733,-0.12944410741329193,0.2672479748725891
1782987661061443000,2.990443115234375,-0.48099493980407715,-0.22648492455482483,0.24493640661239624
1782987661071517200,3.00051708984375,-0.4581593871116638,-0.2833103835582733,0.22474804520606995
1782987661081592000,3.010592041015625,-0.4232773184776306,-0.29208308458328247,0.21522170305252075
1782987661091667200,3.020667236328125,-0.4084347188472748,-0.2625254690647125,0.20877417922019958
1782987661101741000,3.030740966796875,-0.41183847188949585,-0.21821072697639465,0.19275592267513275
1782987661111816200,3.040816162109375,-0.4256187379360199,-0.1360466182231903,0.16220681369304657
1782987661121891300,3.050891357421875,-0.4359876811504364,-0.011978457681834698,0.11702526360750198
1782987661131965200,3.060965087890625,-0.44978711009025574,0.12070102989673615,0.056421566754579544
1782987661142040300,3.071040283203125,-0.4615103602409363,0.28536441922187805,0.00637830700725317
1782987661152114200,3.0811142578125,-0.4701307713985443,0.34257790446281433,-0.0534549355506897
1782987661162189300,3.091189208984375,-0.4705510437488556,0.1979788988828659,-0.15708056092262268
1782987661172264200,3.10126416015625,-0.4829123616218567,-0.11831995844841003,-0.3118283450603485
1782987661182338300,3.11133837890625,-0.5109429955482483,-0.43043121695518494,-0.46759477257728577
1782987661192413200,3.1214130859375,-0.5272506475448608,-0.5874850153923035,-0.5805330872535706
1782987661202488000,3.131488037109375,-0.5266111493110657,-0.5491733551025391,-0.6097652912139893
1782987661212562200,3.141562255859375,-0.5214805603027344,-0.31926342844963074,-0.538500964641571
1782987661222637000,3.151636962890625,-0.4999130964279175,0.031042637303471565,-0.35237863659858704
1782987661232712200,3.161712158203125,-0.46345070004463196,0.33552664518356323,-0.09251351654529572
1782987661242786000,3.1717861328125,-0.4419049918651581,0.46617043018341064,0.1448773294687271
1782987661252861200,3.181861083984375,-0.4249374568462372,0.33899277448654175,0.3229522705078125
1782987661262936000,3.19193603515625,-0.41127315163612366,0.05397817865014076,0.4276280701160431
1782987661273010200,3.20201025390625,-0.4247298240661621,-0.2558630406856537,0.4629381000995636
1782987661283085000,3.2120849609375,-0.46715420484542847,-0.47925740480422974,0.4443763494491577
1782987661293159200,3.2221591796875,-0.5288127660751343,-0.5076285600662231,0.3647465109825134
1782987661303234000,3.232234130859375,-0.5893932580947876,-0.3699485957622528,0.2715301215648651
1782987661313309200,3.24230908203125,-0.6267653703689575,-0.13958194851875305,0.19776831567287445
1782987661323383000,3.252383056640625,-0.6441506743431091,0.044272053986787796,0.1432839334011078
1782987661333458200,3.262458251953125,-0.6500629186630249,0.06920216232538223,0.10163130611181259
1782987661343533000,3.272532958984375,-0.6247461438179016,-0.04559526965022087,0.0658627450466156
1782987661353607200,3.282607177734375,-0.5733897686004639,-0.22025629878044128,0.04575134441256523
1782987661363682300,3.292682373046875,-0.5184440612792969,-0.40022847056388855,0.017366131767630577
1782987661373757200,3.302757080078125,-0.46448227763175964,-0.5264625549316406,-0.012016522698104382
1782987661383831300,3.312831298828125,-0.41725337505340576,-0.56801837682724,-0.030950291082262993
1782987661393906200,3.32290625,-0.3736848533153534,-0.5227134823799133,-0.04810104891657829
1782987661403981300,3.332981201171875,-0.32663023471832275,-0.4415552616119385,-0.0619671493768692
1782987661414055200,3.34305517578125,-0.2794952094554901,-0.3432829976081848,-0.06236156448721886
1782987661424130300,3.35313037109375,-0.24156422913074493,-0.2317972332239151,-0.034109510481357574
1782987661434205000,3.363204833984375,-0.22573067247867584,-0.1767915040254593,0.021673062816262245
1782987661444279300,3.373279296875,-0.22888311743736267,-0.1847192496061325,0.08364740014076233
1782987661454354000,3.38335400390625,-0.24699874222278595,-0.23161059617996216,0.1300140917301178
1782987661464428300,3.39342822265625,-0.2642815113067627,-0.2964383065700531,0.14326097071170807
1782987661474503200,3.403503173828125,-0.2806607484817505,-0.3700896203517914,0.1285419464111328
1782987661484578000,3.413578125,-0.28064146637916565,-0.4319572448730469,0.09531470388174057
1782987661494652200,3.423652099609375,-0.2708684504032135,-0.47099998593330383,0.0641930028796196
1782987661504727000,3.43372705078125,-0.25895848870277405,-0.4831191301345825,0.055158697068691254
1782987661514802200,3.44380224609375,-0.24291080236434937,-0.482185423374176,0.06998398154973984
1782987661524876000,3.4538759765625,-0.21760492026805878,-0.49835479259490967,0.0824425145983696
1782987661534951200,3.463951171875,-0.18473166227340698,-0.5170435309410095,0.08922798186540604
1782987661545026000,3.474026123046875,-0.15429843962192535,-0.533898651599884,0.09309501945972443
1782987661555100200,3.48410009765625,-0.13210497796535492,-0.5511572360992432,0.09787140041589737
1782987661565175000,3.494175048828125,-0.11494813114404678,-0.542851984500885,0.11188025772571564
1782987661575250200,3.504250244140625,-0.11569967120885849,-0.48433512449264526,0.13520288467407227
1782987661585324000,3.514323974609375,-0.1346232295036316,-0.4030017852783203,0.16938666999340057
1782987661595399200,3.524399169921875,-0.1603379249572754,-0.32257458567619324,0.2124723494052887
1782987661605473000,3.53447314453125,-0.19254226982593536,-0.2778480648994446,0.2551037073135376
1782987661615548200,3.544548095703125,-0.22971627116203308,-0.25949063897132874,0.29732704162597656
1782987661625623300,3.554623291015625,-0.26656395196914673,-0.2583726942539215,0.33449065685272217
1782987661635697200,3.564697265625,-0.2925657331943512,-0.271416574716568,0.35953742265701294
1782987661645772300,3.574772216796875,-0.3042610287666321,-0.2849219739437103,0.38768771290779114
1782987661655847200,3.58484716796875,-0.3117876648902893,-0.28535714745521545,0.417026162147522
1782987661665921300,3.59492138671875,-0.31759747862815857,-0.27801015973091125,0.44095250964164734
1782987661675996200,3.60499609375,-0.32021403312683105,-0.24240104854106903,0.4698651134967804
1782987661686071000,3.615071044921875,-0.3297106921672821,-0.16359330713748932,0.48124662041664124
1782987661696145200,3.625145263671875,-0.33640003204345703,-0.08757764101028442,0.4698064923286438
1782987661706220000,3.635219970703125,-0.3185136020183563,-0.02870284765958786,0.4434153139591217
1782987661716295200,3.645295166015625,-0.2901194989681244,0.003952833823859692,0.40135735273361206
1782987661726369000,3.655369140625,-0.24927440285682678,-0.003010844113305211,0.34320101141929626
1782987661736444200,3.665444091796875,-0.18949788808822632,-0.024466335773468018,0.2962486743927002
1782987661746518000,3.67551806640625,-0.11519632488489151,-0.009079480543732643,0.28157487511634827
1782987661756593200,3.68559326171875,-0.047813549637794495,0.008554373867809772,0.30238959193229675
1782987661766668000,3.69566796875,0.007371161598712206,-0.02590573951601982,0.33861345052719116
1782987661776742100,3.7057421875,0.047906868159770966,-0.07445570081472397,0.36858198046684265
1782987661786817000,3.715817138671875,0.09616746008396149,-0.028959063813090324,0.39474159479141235
1782987661796892200,3.72589208984375,0.13884834945201874,0.047402817755937576,0.40229618549346924
1782987661806966000,3.735966064453125,0.16778165102005005,-0.01913573406636715,0.336872398853302
1782987661817041200,3.746041259765625,0.18426741659641266,-0.2524999976158142,0.1842583566904068
1782987661827116300,3.7561162109375,0.2062581181526184,-0.5905110836029053,-0.04396415874361992
1782987661837190100,3.766190185546875,0.23856891691684723,-0.8409180045127869,-0.2745071053504944
1782987661847265300,3.776265380859375,0.2322748452425003,-0.7915424108505249,-0.4340153932571411
1782987661857340200,3.786340087890625,0.18174296617507935,-0.4801025390625,-0.47299209237098694
1782987661867414300,3.796414306640625,0.12019482254981995,-0.026534108445048332,-0.4008101522922516
1782987661877489200,3.8064892578125,0.07124139368534088,0.37489932775497437,-0.25159165263175964
1782987661887563300,3.816563232421875,0.04870591312646866,0.5488897562026978,-0.09056869894266129
1782987661897634300,3.82663427734375,0.046338628977537155,0.49944448471069336,0.04841608181595802
1782987661907709400,3.83670947265625,0.05019880458712578,0.3453235924243927,0.1685863882303238
1782987661917783300,3.846783203125,0.050178565084934235,0.16110235452651978,0.24644416570663452
1782987661927858400,3.8568583984375,0.0502895824611187,0.03970160335302353,0.2690414488315582
1782987661937933600,3.86693359375,0.06698627024888992,0.040151942521333694,0.24651271104812622
1782987661948007400,3.87700732421875,0.11001935601234436,0.14073888957500458,0.19468894600868225
1782987661958082600,3.88708251953125,0.15825240314006805,0.23832908272743225,0.12305229902267456
1782987661968157200,3.8971572265625,0.1810409426689148,0.2802334129810333,0.050560347735881805
1782987661978231600,3.9072314453125,0.18319304287433624,0.25350725650787354,-0.01873483508825302
1782987661988306200,3.91730615234375,0.16867679357528687,0.1831005960702896,-0.06147846207022667
1782987661998381300,3.92738134765625,0.14968925714492798,0.09899531304836273,-0.07796821743249893
1782987662008455200,3.937455078125,0.10199780762195587,0.02734869346022606,-0.08466565608978271
1782987662018530300,3.9475302734375,0.0354885496199131,-0.04248951002955437,-0.0868808701634407
1782987662028604200,3.957604248046875,-0.016566526144742966,-0.1039426401257515,-0.10454057157039642
1782987662038679300,3.96767919921875,-0.04571295902132988,-0.12828978896141052,-0.13969430327415466
1782987662048754400,3.97775439453125,-0.05060127377510071,-0.15073034167289734,-0.18941526114940643
1782987662058828300,3.987828369140625,-0.04285333678126335,-0.15409471094608307,-0.24442125856876373
1782987662068903400,3.9979033203125,-0.023019179701805115,-0.10684438794851303,-0.28977009654045105
1782987662078978300,4.007978271484375,0.005205268040299416,-0.005475419573485851,-0.2961702048778534
1782987662089052400,4.018052490234375,0.036114200949668884,0.11428705602884293,-0.25775960087776184
1782987662099127300,4.028127197265625,0.06456954777240753,0.19671456515789032,-0.18487103283405304
1782987662109202400,4.038202392578125,0.09613680839538574,0.2253308743238449,-0.0841989517211914
1782987662119276300,4.0482763671875,0.12232047319412231,0.21010585129261017,0.023763198405504227
1782987662129351400,4.058351318359375,0.1344597339630127,0.15896093845367432,0.10217855125665665
1782987662139425300,4.06842529296875,0.13630343973636627,0.08996801823377609,0.13711948692798615
1782987662149500400,4.07850048828125,0.12322928011417389,0.046738386154174805,0.135731041431427
1782987662159575600,4.088575439453125,0.09949039667844772,0.03538719564676285,0.08564843237400055
1782987662169649400,4.0986494140625,0.06797748059034348,0.050184477120637894,0.010323802940547466
1782987662179724500,4.108724609375,0.048717767000198364,0.07295317202806473,-0.07409653812646866
1782987662189799400,4.11879931640625,0.03616931289434433,0.08764622360467911,-0.16065369546413422
1782987662199873500,4.12887353515625,0.029829658567905426,0.1000797301530838,-0.22874167561531067
1782987662209948400,4.138948486328125,0.033322107046842575,0.10992318391799927,-0.2804781496524811
1782987662220023300,4.149023193359375,0.03809928521513939,0.08599308133125305,-0.3006795644760132
1782987662230097400,4.159097412109375,0.05583186820149422,0.04424962401390076,-0.2980332374572754
1782987662240172300,4.16917236328125,0.08048342168331146,0.01676873117685318,-0.2622009515762329
1782987662250247400,4.179247314453125,0.10245445370674133,0.004009010270237923,-0.19881170988082886
1782987662260321300,4.1893212890625,0.10624200105667114,-0.015656303614377975,-0.12841132283210754
1782987662270396400,4.199396484375,0.10787168890237808,-0.04310803860425949,-0.046461738646030426
1782987662280470300,4.20947021484375,0.1138124018907547,-0.02324751392006874,0.03773942589759827
1782987662290545400,4.21954541015625,0.12102226912975311,0.01707085222005844,0.11654028296470642
1782987662300620300,4.229620361328125,0.11271506547927856,0.03560858592391014,0.16414614021778107
1782987662310694400,4.2396943359375,0.09920039772987366,0.026995394378900528,0.18018588423728943
1782987662320769300,4.249769287109375,0.08027517795562744,0.0034250873140990734,0.16537150740623474
1782987662330844400,4.259844482421875,0.05592762678861618,-0.00913209654390812,0.15060563385486603
1782987662340918300,4.269918212890625,0.022746238857507706,-0.018000954762101173,0.12846997380256653
1782987662350993400,4.279993408203125,-0.015342100523412228,-0.004555193707346916,0.10814867168664932
1782987662361068300,4.290068359375,-0.04648564010858536,0.03708120062947273,0.08808388561010361
1782987662371142400,4.300142333984375,-0.07360260933637619,0.09592655301094055,0.07016083598136902
1782987662381217500,4.310217529296875,-0.08590508252382278,0.1493237465620041,0.05987384542822838
1782987662391292400,4.32029248046875,-0.09293626248836517,0.2153066098690033,0.049421582370996475
1782987662401366500,4.330366455078125,-0.09816937893629074,0.22593767940998077,0.03229239583015442
1782987662411441400,4.34044140625,-0.0995536670088768,0.20284655690193176,0.00502031808719039
1782987662421515500,4.350515625,-0.09718984365463257,0.18651020526885986,-0.022329280152916908
1782987662431590400,4.36059033203125,-0.08988159894943237,0.16562093794345856,-0.03461945801973343
1782987662441665500,4.37066552734375,-0.06875927001237869,0.1497969776391983,-0.028644923120737076
1782987662451739400,4.380739501953125,-0.0352226197719574,0.1629450023174286,0.016176875680685043
1782987662461814500,4.390814453125,0.0032565973233431578,0.196050226688385,0.08303633332252502
1782987662471889200,4.40088916015625,0.04076977074146271,0.2599029839038849,0.165875643491745
1782987662481963500,4.410963623046875,0.08051291853189468,0.3946719765663147,0.24268920719623566
1782987662492038100,4.4210380859375,0.11858754605054855,0.5352254509925842,0.3198700249195099
1782987662502113300,4.43111328125,0.1574483960866928,0.44276800751686096,0.3504822552204132
1782987662512187100,4.441187255859375,0.2042618989944458,0.13673801720142365,0.3178872764110565
1782987662522262300,4.45126220703125,0.23842625319957733,-0.23064878582954407,0.22755523025989532
1782987662532337400,4.46133740234375,0.22490260004997253,-0.5524144768714905,0.11507047712802887
1782987662542411300,4.471411376953125,0.16147994995117188,-0.7425617575645447,0.010139001533389091
1782987662552486400,4.481486328125,0.0678873360157013,-0.7055251002311707,-0.07401342689990997
1782987662562560300,4.491560302734375,-0.009478829801082611,-0.43957841396331787,-0.09908042848110199
1782987662572635400,4.501635498046875,-0.051553696393966675,-0.015060674399137497,-0.05271630734205246
1782987662582710300,4.511710205078125,-0.056530073285102844,0.42883872985839844,0.06937871128320694
1782987662592784400,4.521784423828125,-0.03880084306001663,0.702334463596344,0.21108964085578918
1782987662602859300,4.531859375,-0.005777910351753235,0.7023147344589233,0.32569530606269836
1782987662612934400,4.541934326171875,0.03808549419045448,0.5283340811729431,0.40579575300216675
1782987662623008300,4.55200830078125,0.08191287517547607,0.31191739439964294,0.4458473026752472
1782987662633083400,4.56208349609375,0.1044468879699707,0.12526218593120575,0.4357779324054718
1782987662643158500,4.572158447265625,0.11882609128952026,0.005827672779560089,0.3705584704875946
1782987662653232400,4.582232421875,0.1370244175195694,-0.05225682258605957,0.2577064335346222
1782987662663307500,4.5923076171875,0.16589175164699554,-0.07040387392044067,0.09753382951021194
1782987662673381400,4.60238134765625,0.19744029641151428,-0.10980505496263504,-0.08255777508020401
1782987662683456500,4.61245654296875,0.22799794375896454,-0.18077190220355988,-0.2494889795780182
1782987662693531400,4.622531494140625,0.25096383690834045,-0.2347291260957718,-0.37285223603248596
1782987662703605500,4.63260546875,0.25126850605010986,-0.25267431139945984,-0.44071489572525024
1782987662713680400,4.642680419921875,0.22963698208332062,-0.2526880204677582,-0.4693201184272766
1782987662723755300,4.65275537109375,0.18012988567352295,-0.20570480823516846,-0.4572663903236389
1782987662733829400,4.662829345703125,0.13216783106327057,-0.13812711834907532,-0.4230897128582001
1782987662743904300,4.672904296875,0.09899577498435974,-0.07605335861444473,-0.3741525411605835
1782987662753979400,4.6829794921875,0.08014961332082748,-0.01701558567583561,-0.31166133284568787
1782987662764053200,4.69305322265625,0.07878900319337845,0.030656330287456512,-0.2320629060268402
1782987662774128400,4.70312841796875,0.09567317366600037,0.07215050607919693,-0.13292859494686127
1782987662784203300,4.713203369140625,0.12248321622610092,0.08854971826076508,-0.03229547664523125
1782987662794277400,4.72327734375,0.15667997300624847,0.09119513630867004,0.05180913209915161
1782987662804352300,4.733352294921875,0.18464183807373047,0.08489862084388733,0.11005299538373947
1782987662814426400,4.74342626953125,0.19648902118206024,0.06308016926050186,0.13057765364646912
1782987662824501200,4.753501220703125,0.18737967312335968,0.03420804440975189,0.1204075887799263
1782987662834576400,4.763576416015625,0.16717647016048431,-0.0034272093325853348,0.07659915834665298
1782987662844650200,4.773650146484375,0.1437385231256485,-0.04568145424127579,0.01531982608139515
1782987662854725400,4.783725341796875,0.12363442778587341,-0.1040668711066246,-0.05160610005259514
1782987662864800500,4.793800537109375,0.10195310413837433,-0.1645624339580536,-0.1110374704003334
1782987662874874400,4.803874267578125,0.07580897957086563,-0.1650499552488327,-0.13791011273860931
1782987662884949500,4.813949462890625,0.04091145098209381,-0.13315433263778687,-0.15326297283172607
1782987662895024400,4.8240244140625,0.006765427533537149,-0.12147130072116852,-0.15926241874694824
1782987662905098000,4.834097900390625,-0.023669710382819176,-0.11598172783851624,-0.14847901463508606
1782987662915173000,4.844173095703125,-0.05753728002309799,-0.10485877841711044,-0.12843720614910126
1782987662925247000,4.8542470703125,-0.09014449268579483,-0.11286929994821548,-0.1123431921005249
1782987662935322000,4.864322021484375,-0.11692751944065094,-0.13440679013729095,-0.09432721883058548
1782987662945397000,4.87439697265625,-0.13143135607242584,-0.1367812603712082,-0.0805211216211319
1782987662955471000,4.88447119140625,-0.14511999487876892,-0.1309964954853058,-0.07035338133573532
1782987662965546000,4.8945458984375,-0.16405373811721802,-0.12110283970832825,-0.05179087817668915
1782987662975620900,4.904620849609375,-0.18270549178123474,-0.11363957822322845,-0.03223728761076927
1782987662985695000,4.914695068359375,-0.20038114488124847,-0.14338761568069458,-0.011046512052416801
1782987662995769900,4.924769775390625,-0.21580608189105988,-0.21045657992362976,-0.002559749176725745
1782987663005845000,4.934844970703125,-0.22861455380916595,-0.26621678471565247,-0.0036268779076635838
1782987663015918800,4.9449189453125,-0.2545800507068634,-0.29140082001686096,-0.01206832192838192
1782987663025994000,4.954993896484375,-0.28332674503326416,-0.2975812256336212,-0.0288584865629673
1782987663036068900,4.96506884765625,-0.3178345561027527,-0.2765277326107025,-0.04151185229420662
1782987663046143000,4.97514306640625,-0.35155925154685974,-0.2286853790283203,-0.03634532168507576
1782987663056217900,4.9852177734375,-0.3743748366832733,-0.17959336936473846,0.007477418053895235
1782987663066292000,4.9952919921875,-0.38880330324172974,-0.08150860667228699,0.09199683368206024
1782987663076366800,5.005366943359375,-0.396522581577301,0.08265414088964462,0.19063198566436768
1782987663086442000,5.01544189453125,-0.38837331533432007,0.17772606015205383,0.2805757224559784
1782987663096515800,5.025515869140625,-0.3601936101913452,0.026040134951472282,0.320508748292923
1782987663106591000,5.035591064453125,-0.3378233015537262,-0.2913833558559418,0.2746022641658783
1782987663116666000,5.045666015625,-0.3332444727420807,-0.5655863881111145,0.17292934656143188
1782987663126740000,5.055739990234375,-0.3505598306655884,-0.6297461986541748,0.052200257778167725
1782987663136815000,5.065815185546875,-0.3904656171798706,-0.5048813223838806,-0.08129255473613739
1782987663146890000,5.075889892578125,-0.4453331232070923,-0.33992186188697815,-0.2009718269109726
1782987663156964000,5.085964111328125,-0.4910471737384796,-0.22849160432815552,-0.28318485617637634
1782987663167039000,5.0960390625,-0.5308973789215088,-0.17985562980175018,-0.3174440264701843
1782987663177113000,5.106113037109375,-0.562308132648468,-0.17203982174396515,-0.29717007279396057
1782987663187188000,5.11618798828125,-0.5788812637329102,-0.16181862354278564,-0.22956837713718414
1782987663197263000,5.12626318359375,-0.5839827060699463,-0.11421073228120804,-0.12463901191949844
1782987663207337000,5.1363369140625,-0.5817935466766357,-0.06750501692295074,-0.00783862266689539
1782987663217412000,5.146412109375,-0.5714201331138611,-0.07173062115907669,0.11191920191049576
1782987663227487000,5.156487060546875,-0.5589642524719238,-0.13268104195594788,0.1936364471912384
1782987663237561000,5.16656103515625,-0.5387137532234192,-0.2442397177219391,0.22230888903141022
1782987663247636000,5.176635986328125,-0.5032963752746582,-0.3744643032550812,0.18920738995075226
1782987663257710800,5.1867109375,-0.46282726526260376,-0.45663759112358093,0.1154063418507576
1782987663267785000,5.196784912109375,-0.42990100383758545,-0.45561227202415466,0.02619311399757862
1782987663277859800,5.20685986328125,-0.41547447443008423,-0.402486115694046,-0.06155713275074959
1782987663287934000,5.216933837890625,-0.42816656827926636,-0.32885557413101196,-0.13229389488697052
1782987663298008800,5.2270087890625,-0.4612119495868683,-0.2537470757961273,-0.1844925731420517
1782987663308084000,5.237083984375,-0.49482208490371704,-0.16444514691829681,-0.19460326433181763
1782987663318157800,5.24715771484375,-0.5288780927658081,-0.022357668727636337,-0.14463993906974792
1782987663328233000,5.25723291015625,-0.5596285462379456,0.10207214206457138,-0.06298848986625671
1782987663338308000,5.26730810546875,-0.5666186213493347,0.16837409138679504,0.03455250710248947
1782987663348382000,5.2773818359375,-0.5402432084083557,0.1639614999294281,0.11825699359178543
1782987663358457000,5.28745703125,-0.4945504367351532,0.11087030917406082,0.18357838690280914
1782987663368532000,5.297531982421875,-0.4471219480037689,0.05789737403392792,0.20938947796821594
1782987663378606000,5.307606201171875,-0.41127046942710876,0.004130812827497721,0.21433043479919434
1782987663388681000,5.317680908203125,-0.38196882605552673,-0.06845629215240479,0.1900223046541214
1782987663398756000,5.327756103515625,-0.35500532388687134,-0.1402852088212967,0.1409214735031128
1782987663408830000,5.337829833984375,-0.3421417474746704,-0.19073453545570374,0.07173707336187363
1782987663418905000,5.347905029296875,-0.3349755108356476,-0.2286187708377838,-0.02368718385696411
1782987663428979000,5.35797900390625,-0.33027660846710205,-0.24513490498065948,-0.13184614479541779
1782987663439054000,5.36805419921875,-0.31687527894973755,-0.2365809977054596,-0.23823949694633484
1782987663449129200,5.378129150390625,-0.3048127293586731,-0.1984056532382965,-0.3265749514102936
1782987663459203000,5.388203125,-0.29807931184768677,-0.14902757108211517,-0.3793490529060364
1782987663469278200,5.3982783203125,-0.30375078320503235,-0.11723768711090088,-0.4027606248855591
1782987663479352800,5.408352783203125,-0.3148747980594635,-0.13106468319892883,-0.39664730429649353
1782987663489427200,5.41842724609375,-0.31949537992477417,-0.14764979481697083,-0.35681599378585815
1782987663499501800,5.428501708984375,-0.31899136304855347,-0.1275317221879959,-0.2870938181877136
1782987663509576200,5.438576171875,-0.30685293674468994,-0.06970784068107605,-0.20895320177078247
1782987663519650800,5.44865087890625,-0.2807760238647461,0.012921194545924664,-0.13033659756183624
1782987663529726000,5.458725830078125,-0.24249866604804993,0.07474301755428314,-0.06624042987823486
1782987663539799800,5.4687998046875,-0.1913222223520279,0.09394419193267822,-0.024171723052859306
1782987663549875000,5.478875,-0.13777165114879608,0.0893036350607872,0.010178794153034687
1782987663559949800,5.48894970703125,-0.08388790488243103,0.08399994671344757,0.04718448221683502
1782987663570024000,5.49902392578125,-0.043120503425598145,0.06846706569194794,0.08837932348251343
1782987663580098800,5.509098876953125,-0.01157650351524353,0.03426541015505791,0.12137158215045929
1782987663590174000,5.519174072265625,0.01677843928337097,0.02603224664926529,0.1543862670660019
1782987663600248000,5.529248046875,0.024294354021549225,0.05198757350444794,0.1802765130996704
1782987663610323000,5.539322998046875,0.010798519477248192,0.07842770218849182,0.18580415844917297
1782987663620398000,5.549398193359375,-0.009342074394226074,0.07578331232070923,0.17177234590053558
1782987663630472000,5.559471923828125,-0.026003610342741013,0.08774623274803162,0.14618869125843048
1782987663640547000,5.569547119140625,-0.042972397059202194,0.10598915815353394,0.10933191329240799
1782987663650621000,5.579620849609375,-0.05323808267712593,0.08482768386602402,0.0738636702299118
1782987663660696000,5.589696044921875,-0.060199130326509476,0.03584522008895874,0.04435526952147484
1782987663670771000,5.59977099609375,-0.056291207671165466,-0.02144789695739746,0.03763611614704132
1782987663680845000,5.609844970703125,-0.050355952233076096,-0.05895094946026802,0.03806433454155922
1782987663690920000,5.619919921875,-0.03649553284049034,-0.09552494436502457,0.05138386785984039
1782987663700995000,5.6299951171875,-0.015484257601201534,-0.10516900569200516,0.08274662494659424
1782987663711069000,5.64006884765625,0.005621826741844416,-0.06367696076631546,0.1315075159072876
1782987663721144000,5.65014404296875,0.011795379221439362,0.005070914980024099,0.18338589370250702
1782987663731219000,5.660218994140625,0.009629696607589722,0.1526009738445282,0.21202978491783142
1782987663741293000,5.67029296875,0.007903301157057285,0.3741587996482849,0.22913210093975067
1782987663751368000,5.680367919921875,0.018636638298630714,0.37632477283477783,0.2003779411315918
1782987663761442000,5.690442138671875,0.05536185950040817,0.14652565121650696,0.10420622676610947
1782987663771517000,5.700516845703125,0.09501180052757263,-0.11569026112556458,-0.04003218188881874
1782987663781591800,5.710591796875,0.111757293343544,-0.26014381647109985,-0.1855781078338623
1782987663791666000,5.720666015625,0.09862978011369705,-0.2058214396238327,-0.28892046213150024
1782987663801740800,5.73074072265625,0.07272422313690186,-0.04418117552995682,-0.3290782868862152
1782987663811816000,5.74081591796875,0.06184467300772667,0.08058365434408188,-0.31247028708457947
1782987663821889800,5.750889892578125,0.04388449341058731,0.12291979789733887,-0.24864719808101654
1782987663831965000,5.76096484375,0.0333586148917675,0.09111286699771881,-0.15456198155879974
1782987663842040000,5.7710400390625,0.030662791803479195,0.0797162652015686,-0.04637441039085388
1782987663852114000,5.781114013671875,0.03605089709162712,0.181692436337471,0.08422701060771942
1782987663862189000,5.79118896484375,0.03482704237103462,0.34689590334892273,0.2223837971687317
1782987663872263000,5.801262939453125,0.0192965529859066,0.498060941696167,0.3485262989997864
1782987663882338000,5.811338134765625,0.00519094942137599,0.5669074654579163,0.4389939606189728
1782987663892413000,5.821412841796875,0.006389105226844549,0.5159425735473633,0.49006539583206177
1782987663902486300,5.831486328125,0.038596898317337036,0.33780786395072937,0.4913887083530426
1782987663912561400,5.8415615234375,0.1001494750380516,0.10552268475294113,0.4470776915550232
1782987663922636300,5.85163623046875,0.17114733159542084,-0.10157272219657898,0.35788625478744507
1782987663932710400,5.86171044921875,0.23724539577960968,-0.26163533329963684,0.2356276959180832
1782987663942785300,5.871785400390625,0.2810426950454712,-0.35567474365234375,0.0814618244767189
1782987663952860400,5.8818603515625,0.3113100528717041,-0.3847484886646271,-0.06873885542154312
1782987663962934300,5.891934326171875,0.32216876745224,-0.35876908898353577,-0.18032996356487274
1782987663973009400,5.902009521484375,0.31378859281539917,-0.31058716773986816,-0.2391519993543625
1782987663983083300,5.912083251953125,0.28566133975982666,-0.2672145366668701,-0.24427759647369385
1782987663993158400,5.922158447265625,0.24586546421051025,-0.24707463383674622,-0.21818126738071442
1782987664003233500,5.932233642578125,0.19959624111652374,-0.24275898933410645,-0.1550731509923935
1782987664013307400,5.942307373046875,0.14667895436286926,-0.22971561551094055,-0.0800180733203888
1782987664023382500,5.952382568359375,0.09875843673944473,-0.1767425537109375,0.00496443547308445
1782987664033457200,5.96245703125,0.06053434684872627,-0.107195183634758,0.08736211061477661
1782987664043531500,5.972531494140625,0.035959627479314804,-0.057379309087991714,0.15062467753887177
1782987664053606100,5.982606201171875,0.02444332093000412,-0.03773343563079834,0.18427664041519165
1782987664063681300,5.992681396484375,0.01819661073386669,-0.058827001601457596,0.19155080616474152
1782987664073755400,6.00275537109375,0.0032168624456971884,-0.10130521655082703,0.17169107496738434
1782987664083830300,6.012830322265625,-0.022889288142323494,-0.1350313276052475,0.1414366215467453
1782987664093904400,6.022904296875,-0.05754899978637695,-0.16837143898010254,0.11062996834516525
1782987664103979300,6.032979248046875,-0.10220406204462051,-0.18829739093780518,0.08138608187437057
1782987664114054400,6.043054443359375,-0.1456759124994278,-0.19720886647701263,0.06175566092133522
1782987664124128300,6.053128173828125,-0.1969401240348816,-0.2040637731552124,0.03329227864742279
1782987664134203400,6.063203369140625,-0.25185078382492065,-0.2219889760017395,-0.00036022329004481435
1782987664144278300,6.0732783203125,-0.3024894595146179,-0.2509198486804962,-0.0336541049182415
1782987664154352400,6.083352294921875,-0.3384389281272888,-0.2797163426876068,-0.05597751960158348
1782987664164427300,6.09342724609375,-0.36720389127731323,-0.2935623526573181,-0.07194720953702927
1782987664174502400,6.10350244140625,-0.38243770599365234,-0.29677814245224,-0.08680738508701324
1782987664184576300,6.113576171875,-0.3825715184211731,-0.3007076382637024,-0.09198851883411407
1782987664194651400,6.1236513671875,-0.3757290542125702,-0.27397245168685913,-0.0976589247584343
1782987664204725200,6.133725341796875,-0.3810896575450897,-0.23637686669826508,-0.0859960988163948
1782987664214800400,6.14380029296875,-0.41340765357017517,-0.2160465568304062,-0.0857928991317749
1782987664224875500,6.15387548828125,-0.453548401594162,-0.2405480444431305,-0.09624840319156647
1782987664234949400,6.163949462890625,-0.4806617796421051,-0.26555246114730835,-0.11043426394462585
1782987664245024500,6.1740244140625,-0.4946964681148529,-0.275809645652771,-0.11262355744838715
1782987664255099400,6.184099365234375,-0.5086014270782471,-0.2678595781326294,-0.10870764404535294
1782987664265173500,6.194173583984375,-0.5234113335609436,-0.2659492790699005,-0.09849637746810913
1782987664275248400,6.204248291015625,-0.5279712080955505,-0.2664789855480194,-0.08572226017713547
1782987664285323300,6.2143232421875,-0.5233808755874634,-0.2668043375015259,-0.07092282176017761
1782987664295397400,6.2243974609375,-0.514137327671051,-0.27181798219680786,-0.04640389606356621
1782987664305472300,6.23447216796875,-0.5117746591567993,-0.2892450988292694,-0.010093700140714645
1782987664315546400,6.24454638671875,-0.5137989521026611,-0.31513503193855286,0.025373214855790138
1782987664325621200,6.254621337890625,-0.5152273178100586,-0.3471800684928894,0.05659456551074982
1782987664335696400,6.2646962890625,-0.5154377222061157,-0.351656049489975,0.07840745151042938
1782987664345770200,6.274770263671875,-0.5217965245246887,-0.32218044996261597,0.10164698958396912
1782987664355845400,6.284845458984375,-0.5344625115394592,-0.28268203139305115,0.1257997304201126
1782987664365920300,6.294920166015625,-0.5589319467544556,-0.268034964799881,0.14175403118133545
1782987664375994400,6.304994384765625,-0.5695939064025879,-0.3105448782444,0.14915761351585388
1782987664386069200,6.3150693359375,-0.5711575746536255,-0.38044843077659607,0.13469986617565155
1782987664396143400,6.325143310546875,-0.5902495384216309,-0.49261969327926636,0.07559366524219513
1782987664406218200,6.33521826171875,-0.6272308230400085,-0.76482754945755,-0.06571068614721298
1782987664416293400,6.34529345703125,-0.691314697265625,-1.0790646076202393,-0.2783220410346985
1782987664426367200,6.3553671875,-0.7759172916412354,-1.1410480737686157,-0.49515658617019653
1782987664436442400,6.3654423828125,-0.8544160723686218,-0.900303840637207,-0.6403409242630005
1782987664446517500,6.375517578125,-0.9128788709640503,-0.4889813959598541,-0.6934762001037598
1782987664456592400,6.38559228515625,-0.9522547721862793,-0.07429339736700058,-0.6352767944335938
1782987664466666500,6.39566650390625,-0.9587078094482422,0.19289787113666534,-0.4714013338088989
1782987664476741400,6.405741455078125,-0.9430968761444092,0.23761607706546783,-0.25116804242134094
1782987664486816500,6.41581640625,-0.8949859738349915,0.09944531321525574,-0.012764223851263523
1782987664496890400,6.425890380859375,-0.8358789682388306,-0.1561742126941681,0.2142052799463272
1782987664506965500,6.435965576171875,-0.7906238436698914,-0.40094611048698425,0.40334710478782654
1782987664517039400,6.446039306640625,-0.761513352394104,-0.5196410417556763,0.5300847887992859
1782987664527114500,6.456114501953125,-0.7408843636512756,-0.575175404548645,0.5755918025970459
1782987664537189000,6.466189208984375,-0.722464919090271,-0.6220816969871521,0.5398162603378296
1782987664547263500,6.476263427734375,-0.7187296152114868,-0.6672101616859436,0.43904680013656616
1782987664557338400,6.48633837890625,-0.7416884303092957,-0.6980205178260803,0.30700647830963135
1782987664567413200,6.496413330078125,-0.7942553758621216,-0.7008749842643738,0.1795681118965149
1782987664577487400,6.5064873046875,-0.8664249181747437,-0.676048219203949,0.062122173607349396
1782987664587562200,6.516562255859375,-0.9390364289283752,-0.6038157343864441,-0.014340663328766823
1782987664597637400,6.526637451171875,-1.0021103620529175,-0.49750953912734985,-0.04309241846203804
1782987664607711200,6.536711181640625,-1.0565587282180786,-0.3878381550312042,-0.042174115777015686
1782987664617786400,6.546786376953125,-1.0945862531661987,-0.28928306698799133,-0.014591222628951073
1782987664627860200,6.556860107421875,-1.0988640785217285,-0.18437913060188293,0.044957246631383896
1782987664637935400,6.566935302734375,-1.0702705383300781,-0.09070110321044922,0.12094415724277496
1782987664648010200,6.57701025390625,-1.0287081003189087,-0.056311625987291336,0.19403381645679474
1782987664658084400,6.58708447265625,-0.9724764227867126,-0.09529231488704681,0.24251505732536316
1782987664668159200,6.5971591796875,-0.9170288443565369,-0.14965251088142395,0.2567724287509918
1782987664678234400,6.607234375,-0.8581607341766357,-0.23230664432048798,0.24382786452770233
1782987664688308500,6.61730859375,-0.8019563555717468,-0.2924715578556061,0.20904678106307983
1782987664698383400,6.62738330078125,-0.7504220604896545,-0.33403685688972473,0.16122572124004364
1782987664708458500,6.63745849609375,-0.7074597477912903,-0.3784714341163635,0.10972187668085098
1782987664718532400,6.647532470703125,-0.6858505606651306,-0.44546353816986084,0.05742831155657768
1782987664728607500,6.657607421875,-0.6749661564826965,-0.5247831344604492,0.01076254341751337
1782987664738681300,6.667681396484375,-0.6737869381904602,-0.5908031463623047,-0.02241485007107258
1782987664748756500,6.677756591796875,-0.6851173639297485,-0.6303501129150391,-0.04019387811422348
1782987664758831400,6.687831298828125,-0.7027093768119812,-0.6362732648849487,-0.0458965040743351
1782987664768905500,6.697905517578125,-0.7139153480529785,-0.6022505760192871,-0.040960390120744705
1782987664778980400,6.70798046875,-0.723141610622406,-0.5519157648086548,-0.03490223363041878
1782987664789055200,6.71805517578125,-0.7322339415550232,-0.5041372776031494,-0.026774805039167404
1782987664799129300,6.72812939453125,-0.7509064674377441,-0.4548085927963257,-0.022737452760338783
1782987664809204200,6.738204345703125,-0.7654491066932678,-0.4021923243999481,-0.007718046195805073
1782987664819279400,6.748279296875,-0.7735001444816589,-0.3524644672870636,0.014071138575673103
1782987664829353200,6.758353271484375,-0.7732530236244202,-0.32735660672187805,0.0451691634953022
1782987664839428400,6.768428466796875,-0.7765843868255615,-0.31360113620758057,0.07992874085903168
1782987664849502200,6.778502197265625,-0.7763959169387817,-0.3257591128349304,0.10422118753194809
1782987664859577300,6.788577392578125,-0.7779368758201599,-0.342825710773468,0.1136849969625473
1782987664869652200,6.79865234375,-0.7706883549690247,-0.3512475788593292,0.1048978716135025
1782987664879726300,6.808726318359375,-0.754675030708313,-0.32929378747940063,0.08510712534189224
1782987664889801200,6.81880126953125,-0.7248945832252502,-0.2909851372241974,0.06247129291296005
1782987664899877000,6.828877197265625,-0.6952117681503296,-0.25944769382476807,0.04687795042991638
1782987664909951000,6.838950927734375,-0.6638857126235962,-0.23473411798477173,0.03690828010439873
1782987664920026000,6.849026123046875,-0.6321166157722473,-0.2361953854560852,0.05327446758747101
1782987664930100000,6.859099853515625,-0.6043433547019958,-0.26571929454803467,0.08632555603981018
1782987664940175000,6.869175048828125,-0.5759670734405518,-0.28552308678627014,0.1393030285835266
1782987664950250000,6.87925,-0.559883177280426,-0.2905372977256775,0.18876111507415771
1782987664960324000,6.889323974609375,-0.5483759641647339,-0.2968106269836426,0.21830622851848602
1782987664970399000,6.89939892578125,-0.5361093282699585,-0.28116366267204285,0.22073674201965332
1782987664980474000,6.90947412109375,-0.5256337523460388,-0.23252634704113007,0.20579774677753448
1782987664990548000,6.9195478515625,-0.5132694840431213,-0.14657242596149445,0.18483100831508636
1782987665000623000,6.929623046875,-0.5023084282875061,-0.05785241723060608,0.18020084500312805
1782987665010698000,6.939697998046875,-0.4903128445148468,-0.05041128396987915,0.17479245364665985
1782987665020772000,6.949772216796875,-0.4867391586303711,-0.13174556195735931,0.1309666782617569
1782987665030847000,6.959846923828125,-0.47821974754333496,-0.39398714900016785,0.022754108533263206
1782987665040921900,6.969921875,-0.4825817346572876,-0.711479902267456,-0.13221630454063416
1782987665050996000,6.979995849609375,-0.5189222693443298,-0.9126891493797302,-0.2842138409614563
1782987665061070800,6.99007080078125,-0.5821430087089539,-0.9101263880729675,-0.3839915692806244
1782987665071145000,7.00014501953125,-0.6514824628829956,-0.7475759387016296,-0.4095660150051117
1782987665081219800,7.0102197265625,-0.7087314128875732,-0.47386693954467773,-0.3388684391975403
1782987665091295000,7.020294921875,-0.7440837621688843,-0.14973628520965576,-0.16696098446846008
1782987665101368800,7.030368896484375,-0.7700415849685669,0.10678897798061371,0.0650823712348938
1782987665111444000,7.04044384765625,-0.7748548984527588,0.21179690957069397,0.29718586802482605
1782987665121519000,7.05051904296875,-0.7528833150863647,0.16840150952339172,0.5003698468208313
1782987665131593000,7.060593017578125,-0.7106536030769348,0.05307953432202339,0.6477341055870056
1782987665141668000,7.070668212890625,-0.661770224571228,-0.0877593457698822,0.7329957485198975
1782987665151742000,7.080741943359375,-0.6230353116989136,-0.2297651767730713,0.7407101988792419
1782987665161817000,7.090817138671875,-0.5921202898025513,-0.38628101348876953,0.6971983909606934
1782987665171892000,7.10089208984375,-0.5710985660552979,-0.5500013828277588,0.6059483885765076
1782987665181966000,7.110966064453125,-0.564069926738739,-0.7050500512123108,0.47822532057762146
1782987665192041000,7.121041015625,-0.5860170125961304,-0.8344536423683167,0.32399648427963257
1782987665202116000,7.1311162109375,-0.6340665221214294,-0.9184342622756958,0.1750943511724472
1782987665212190000,7.14118994140625,-0.7098122835159302,-0.9361351132392883,0.048632800579071045
1782987665222265000,7.15126513671875,-0.8050735592842102,-0.8857169151306152,-0.04248619079589844
1782987665232340200,7.16134033203125,-0.9013105630874634,-0.79170823097229,-0.08730415254831314
1782987665242414000,7.1714140625,-0.9709972739219666,-0.6707354784011841,-0.09518285095691681
1782987665252489200,7.1814892578125,-1.0083673000335693,-0.535290539264679,-0.050270769745111465
1782987665262563000,7.19156298828125,-1.0025144815444946,-0.42992690205574036,0.03611072525382042
1782987665272638200,7.20163818359375,-0.9665268659591675,-0.39293164014816284,0.139342799782753
1782987665282712800,7.211712890625,-0.8995484113693237,-0.45467275381088257,0.2378653734922409
1782987665292787200,7.221787109375,-0.8207318186759949,-0.5850035548210144,0.33842572569847107
1782987665302861800,7.23186181640625,-0.7527770400047302,-0.7278264760971069,0.4241664707660675
1782987665312937000,7.24193701171875,-0.7172065377235413,-0.8251571655273438,0.46762344241142273
1782987665323010800,7.2520107421875,-0.7001330256462097,-0.8454824090003967,0.4653157889842987
1782987665333086000,7.2620859375,-0.699312150478363,-0.7865825295448303,0.4322182238101959
1782987665343160800,7.272160888671875,-0.7072579860687256,-0.7095186710357666,0.37436825037002563
1782987665353235000,7.28223486328125,-0.7305299639701843,-0.6619325280189514,0.2938932776451111
1782987665363310000,7.29231005859375,-0.7521615028381348,-0.6746528744697571,0.2170909196138382
1782987665373384000,7.302384033203125,-0.7725325226783752,-0.7060447931289673,0.15326416492462158
1782987665383459000,7.312458984375,-0.8025916218757629,-0.7495152950286865,0.12596595287322998
1782987665393534000,7.322533935546875,-0.8427741527557373,-0.7775871157646179,0.10809548199176788
1782987665403608000,7.332608154296875,-0.8799121975898743,-0.7791719436645508,0.11070697754621506
1782987665413683000,7.342682861328125,-0.9096636176109314,-0.712079644203186,0.12309984117746353
1782987665423758000,7.352758056640625,-0.9338544607162476,-0.6147685050964355,0.13681592047214508
1782987665433832000,7.36283203125,-0.9561969637870789,-0.5360381603240967,0.13705691695213318
1782987665443907000,7.372906982421875,-0.971798300743103,-0.5042794346809387,0.13287654519081116
1782987665453981000,7.38298095703125,-0.9729474782943726,-0.4970599114894867,0.11916588991880417
1782987665464056000,7.39305615234375,-0.9674224853515625,-0.49779412150382996,0.1107521653175354
1782987665474131000,7.403130859375,-0.958232581615448,-0.5042483806610107,0.09904066473245621
1782987665484205000,7.413205078125,-0.9487783908843994,-0.5257076025009155,0.08725963532924652
1782987665494280200,7.4232802734375,-0.9333799481391907,-0.5413469076156616,0.07763491570949554
1782987665504355000,7.43335498046875,-0.9165343642234802,-0.5614410042762756,0.07202869653701782
1782987665514429200,7.44342919921875,-0.8990898728370667,-0.6123661994934082,0.07003331929445267
1782987665524504000,7.453504150390625,-0.8788725137710571,-0.6951503157615662,0.06960108876228333
1782987665534579000,7.463578857421875,-0.8611277937889099,-0.769731879234314,0.07656583189964294
1782987665544653000,7.473653076171875,-0.8481765985488892,-0.7821022868156433,0.10386776179075241
1782987665554728000,7.48372802734375,-0.8416025042533875,-0.753969132900238,0.13891446590423584
1782987665564802000,7.493802001953125,-0.8450688719749451,-0.7043150067329407,0.16871869564056396
1782987665574877000,7.503876953125,-0.8436660170555115,-0.637026309967041,0.19052328169345856
1782987665584951800,7.513951904296875,-0.8379796147346497,-0.5546414256095886,0.21601985394954681
1782987665595026000,7.52402587890625,-0.8222143650054932,-0.479457288980484,0.2577708959579468
1782987665605100800,7.534100830078125,-0.8116655945777893,-0.4252329468727112,0.32910311222076416
1782987665615176000,7.544176025390625,-0.7938152551651001,-0.4456561803817749,0.4084831774234772
1782987665625250000,7.55425,-0.7818341851234436,-0.5141947865486145,0.4687765836715698
1782987665635325000,7.564324951171875,-0.7735240459442139,-0.5630553960800171,0.4924595355987549
1782987665645399000,7.57439892578125,-0.7674722671508789,-0.6617133021354675,0.46847590804100037
1782987665655474000,7.584473876953125,-0.7723422646522522,-0.8543022871017456,0.3607747256755829
1782987665665549000,7.594549072265625,-0.8053848743438721,-1.1545387506484985,0.14151187241077423
1782987665675623000,7.604622802734375,-0.8755738735198975,-1.4300744533538818,-0.15085312724113464
1782987665685698000,7.614697998046875,-0.9734669327735901,-1.5118135213851929,-0.426761656999588
1782987665695773000,7.62477294921875,-1.0849469900131226,-1.3290722370147705,-0.6278766989707947
1782987665705847000,7.634846923828125,-1.1769126653671265,-0.9575082659721375,-0.72624272108078
1782987665715922000,7.644921875,-1.2299281358718872,-0.56253981590271,-0.6992079019546509
1782987665725997000,7.6549970703125,-1.2385258674621582,-0.29848843812942505,-0.5611221790313721
1782987665736071000,7.66507080078125,-1.1997319459915161,-0.22856087982654572,-0.33752208948135376
1782987665746146000,7.67514599609375,-1.1199431419372559,-0.3446424603462219,-0.05761321634054184
1782987665756220200,7.68522021484375,-1.0164666175842285,-0.5364820957183838,0.24547967314720154
1782987665766295000,7.695294921875,-0.9277415871620178,-0.6624605655670166,0.5214816927909851
1782987665776370200,7.7053701171875,-0.8859768509864807,-0.675391435623169,0.7251127362251282
1782987665786444000,7.715444091796875,-0.8922930955886841,-0.6369550824165344,0.8188285827636719
1782987665796519200,7.725519287109375,-0.9194265007972717,-0.6141647100448608,0.784742534160614
1782987665806593800,7.73559375,-0.9541551470756531,-0.6367759704589844,0.643595278263092
1782987665816668200,7.745668212890625,-0.9979704022407532,-0.7113649249076843,0.4180634617805481
1782987665826742800,7.75574267578125,-1.0508999824523926,-0.8115120530128479,0.1557663381099701
1782987665836818000,7.76581787109375,-1.1086182594299316,-0.8593713641166687,-0.1035400927066803
1782987665846891800,7.775891845703125,-1.1730421781539917,-0.8411439061164856,-0.32714417576789856
1782987665856967000,7.785966796875,-1.239477276802063,-0.7651954293251038,-0.4932962954044342
1782987665867040800,7.796040771484375,-1.2974092960357666,-0.6719741225242615,-0.5988126397132874
1782987665877116000,7.806115966796875,-1.3442424535751343,-0.5774880051612854,-0.6249164342880249
1782987665887191000,7.81619091796875,-1.3610560894012451,-0.49022552371025085,-0.5835668444633484
1782987665897265000,7.826264892578125,-1.3578646183013916,-0.4154770076274872,-0.4868401885032654
1782987665907340000,7.836340087890625,-1.3238033056259155,-0.39758509397506714,-0.3651302754878998
1782987665917415200,7.846415283203125,-1.2653636932373047,-0.4483559727668762,-0.24467691779136658
1782987665927489000,7.856489013671875,-1.2059533596038818,-0.5254427790641785,-0.1406458467245102
1782987665937564200,7.866564208984375,-1.1468064785003662,-0.5831016898155212,-0.05454307422041893
1782987665947638000,7.876637939453125,-1.099581003189087,-0.6069676280021667,0.008669715374708176
1782987665957713200,7.886713134765625,-1.0622568130493164,-0.5975062251091003,0.04800380766391754
1782987665967788000,7.8967880859375,-1.0308430194854736,-0.5694105625152588,0.05831625685095787
1782987665977862100,7.906862060546875,-1.002838134765625,-0.5307325720787048,0.05655479431152344
1782987665987937000,7.91693701171875,-0.9755894541740417,-0.500897228717804,0.047754112631082535
1782987665998012200,7.92701220703125,-0.9366506934165955,-0.47782063484191895,0.04968525841832161
1782987666008086000,7.9370859375,-0.901848554611206,-0.46150797605514526,0.05945053696632385
1782987666018161200,7.9471611328125,-0.8751029372215271,-0.423929899930954,0.09886988252401352
1782987666028236000,7.957236083984375,-0.8696378469467163,-0.36689111590385437,0.140313982963562
1782987666038310100,7.96731005859375,-0.8773713111877441,-0.3228549063205719,0.179609015583992
1782987666048385000,7.977385009765625,-0.8883216977119446,-0.3005692958831787,0.194142684340477
1782987666058459100,7.987459228515625,-0.893917441368103,-0.30260249972343445,0.1786288172006607
1782987666068534000,7.997533935546875,-0.8993796110153198,-0.3021172881126404,0.14864906668663025
1782987666078609000,8.00760888671875,-0.8966231346130371,-0.29523980617523193,0.12117903679609299
1782987666088683000,8.01768310546875,-0.8850154876708984,-0.30228734016418457,0.08853267878293991
1782987666098758000,8.0277578125,-0.8492132425308228,-0.2918393611907959,0.07450055330991745
1782987666108833000,8.0378330078125,-0.8116453886032104,-0.26256322860717773,0.07584624737501144
1782987666118907000,8.047906982421875,-0.7700512409210205,-0.257046103477478,0.07207772135734558
1782987666128982000,8.05798193359375,-0.722420334815979,-0.26710379123687744,0.06305492669343948
1782987666139055900,8.068055908203124,-0.671543300151825,-0.2861799895763397,0.055167753249406815
1782987666149131000,8.078131103515625,-0.6178571581840515,-0.338013619184494,0.043245311826467514
1782987666159206000,8.088205810546874,-0.5801852941513062,-0.401143342256546,0.02522747963666916
1782987666169280000,8.098280029296875,-0.5411949753761292,-0.4319438636302948,0.012655227445065975
1782987666179355100,8.108355224609374,-0.5138120651245117,-0.44516152143478394,0.0064194113947451115
1782987666189430000,8.118429931640625,-0.48816075921058655,-0.4387132227420807,0.0034840756561607122
1782987666199504100,8.128504150390626,-0.46456649899482727,-0.4178798198699951,0.008498938754200935
1782987666209579000,8.1385791015625,-0.4493827521800995,-0.38145309686660767,0.009662208147346973
1782987666219654100,8.148654052734376,-0.4355289936065674,-0.3412139415740967,0.018530068919062614
1782987666229728000,8.15872802734375,-0.4188200533390045,-0.3082338869571686,0.02475574053823948
1782987666239803100,8.16880322265625,-0.40709882974624634,-0.24428927898406982,0.04056897014379501
1782987666249877000,8.178876953125,-0.39750826358795166,-0.16100318729877472,0.059781547635793686
1782987666259952000,8.1889521484375,-0.37294521927833557,-0.15235310792922974,0.07869254052639008
1782987666270027000,8.199027099609374,-0.34223416447639465,-0.27666333317756653,0.07419818639755249
1782987666280101000,8.20910107421875,-0.32126301527023315,-0.44907519221305847,0.0280409287661314
1782987666290176000,8.219176025390626,-0.34822192788124084,-0.5476135015487671,-0.04033972695469856
1782987666300251000,8.2292509765625,-0.40581172704696655,-0.5247405171394348,-0.12077298015356064
1782987666310325200,8.2393251953125,-0.46511900424957275,-0.3832523822784424,-0.18158173561096191
1782987666320400000,8.24939990234375,-0.4879593253135681,-0.19041912257671356,-0.21477678418159485
1782987666330474200,8.25947412109375,-0.48794496059417725,-0.03208540752530098,-0.2021866887807846
1782987666340549000,8.269549072265624,-0.47854122519493103,-0.020317669957876205,-0.1654665321111679
1782987666350624000,8.2796240234375,-0.45503294467926025,-0.14630329608917236,-0.12786909937858582
1782987666360698000,8.289697998046876,-0.4231301546096802,-0.27901691198349,-0.08682076632976532
1782987666370773000,8.29977294921875,-0.3917061686515808,-0.3094315230846405,-0.02904028631746769
1782987666380847900,8.309847900390626,-0.37726810574531555,-0.222096785902977,0.05175555869936943
1782987666390922000,8.319921875,-0.3708520233631134,-0.10810310393571854,0.1408689320087433
1782987666400996900,8.329996826171875,-0.36081787943840027,-0.013663792051374912,0.2321178913116455
1782987666411072000,8.340072021484374,-0.3271472752094269,0.0506395660340786,0.3270294964313507
1782987666421145900,8.350145751953125,-0.28233203291893005,0.074503093957901,0.41432636976242065
1782987666431221000,8.360220947265624,-0.23758962750434875,0.062422458082437515,0.49570244550704956
1782987666441294800,8.370294921875,-0.20309127867221832,-0.012590940110385418,0.553197979927063
1782987666451370000,8.380369873046876,-0.18689340353012085,-0.16790223121643066,0.5718950033187866
1782987666461445000,8.390445068359375,-0.17082025110721588,-0.3705827593803406,0.5511512756347656
1782987666471519000,8.40051904296875,-0.17052358388900757,-0.5559518337249756,0.4951697587966919
1782987666481594000,8.410593994140624,-0.19005024433135986,-0.6773702502250671,0.40261706709861755
1782987666491669000,8.4206689453125,-0.22527986764907837,-0.7231566309928894,0.2807058095932007
1782987666501743000,8.4307431640625,-0.2800634205341339,-0.7039176821708679,0.15425951778888702
1782987666511818000,8.44081787109375,-0.34975194931030273,-0.6403733491897583,0.040838416665792465
1782987666521892000,8.45089208984375,-0.42219558358192444,-0.5765990614891052,-0.032572660595178604
1782987666531967000,8.460967041015625,-0.486600399017334,-0.5368479490280151,-0.07200342416763306
1782987666542042000,8.4710419921875,-0.5385074019432068,-0.506905198097229,-0.08217137306928635
1782987666552116000,8.481115966796875,-0.5733785629272461,-0.46380218863487244,-0.0598711334168911
1782987666562191000,8.491191162109375,-0.5987377762794495,-0.41433945298194885,-0.02504139579832554
1782987666572266000,8.501265869140624,-0.6169788241386414,-0.35934385657310486,0.018019521608948708
1782987666582340000,8.511340087890625,-0.6298871040344238,-0.31288963556289673,0.06463280320167542
1782987666592415000,8.5214150390625,-0.6337124705314636,-0.3053086996078491,0.1017058715224266
1782987666602489000,8.531489013671875,-0.6317479014396667,-0.33718341588974,0.12020554393529892
1782987666612564000,8.54156396484375,-0.621796190738678,-0.34880226850509644,0.132893368601799
1782987666622638800,8.551638916015625,-0.6179772019386292,-0.3373720645904541,0.13069851696491241
1782987666632713000,8.561712890625,-0.6263595223426819,-0.33823254704475403,0.10258457809686661
1782987666642787800,8.571787841796874,-0.6326915621757507,-0.35301604866981506,0.05649316683411598
1782987666652863000,8.581863037109375,-0.6373707056045532,-0.3793339431285858,0.009818341583013535
1782987666662936800,8.591936767578124,-0.6414693593978882,-0.4169226884841919,-0.04570743814110756
1782987666673012000,8.602011962890625,-0.6427319645881653,-0.46203452348709106,-0.10460511595010757
1782987666683087000,8.612087158203124,-0.642324686050415,-0.4775821566581726,-0.1478807032108307
1782987666693161000,8.622160888671875,-0.6404522061347961,-0.44531717896461487,-0.1704065203666687
1782987666703236000,8.632236083984376,-0.6418086886405945,-0.40608537197113037,-0.16910365223884583
1782987666713310000,8.64231005859375,-0.6448060870170593,-0.3847968578338623,-0.15801744163036346
1782987666723385000,8.652385009765625,-0.6424225568771362,-0.37697476148605347,-0.13699105381965637
1782987666733460000,8.6624599609375,-0.6320964097976685,-0.36315375566482544,-0.09881464391946793
1782987666743534000,8.6725341796875,-0.6171915531158447,-0.34055086970329285,-0.05408709496259689
1782987666753609000,8.68260888671875,-0.6142386794090271,-0.3291570544242859,-0.012252029031515121
1782987666763684000,8.69268408203125,-0.6116726398468018,-0.3344017565250397,0.022094201296567917
1782987666773758000,8.702758056640626,-0.6079849600791931,-0.3412380814552307,0.04144845902919769
1782987666783833000,8.7128330078125,-0.610184907913208,-0.3634791672229767,0.05278824269771576
1782987666793907000,8.722906982421875,-0.6208863258361816,-0.4028971493244171,0.046801455318927765
1782987666803982000,8.732982177734375,-0.6311195492744446,-0.4784013628959656,0.04868486896157265
1782987666814057200,8.74305712890625,-0.6361108422279358,-0.56354820728302,0.06998482346534729
1782987666824131000,8.753131103515624,-0.6520379185676575,-0.6115376949310303,0.0962492972612381
1782987666834206200,8.763206298828125,-0.6882265210151672,-0.6414119601249695,0.10363078117370605
1782987666844280800,8.77328076171875,-0.7333483099937439,-0.6509695649147034,0.08917412161827087
1782987666854355200,8.783355224609375,-0.7737807035446167,-0.6486802697181702,0.06270124018192291
1782987666864429800,8.793429931640626,-0.8187478184700012,-0.645442545413971,0.035529688000679016
1782987666874505000,8.8035048828125,-0.8549790382385254,-0.6467946171760559,0.02460966445505619
1782987666884578800,8.813578857421875,-0.8839497566223145,-0.6433897614479065,0.026988491415977478
1782987666894654000,8.823654052734375,-0.9042260050773621,-0.6105255484580994,0.052657369524240494
1782987666904728300,8.833728271484375,-0.9274393916130066,-0.5518569946289062,0.11216171830892563
1782987666914803500,8.843803466796874,-0.9473017454147339,-0.4892100989818573,0.1927524209022522
1782987666924878600,8.853878662109375,-0.96165931224823,-0.4559621214866638,0.2799317240715027
1782987666934952400,8.863952392578126,-0.9590874910354614,-0.45379722118377686,0.37071409821510315
1782987666945027600,8.874027587890625,-0.9518841505050659,-0.47042137384414673,0.45035693049430847
1782987666955102500,8.8841025390625,-0.941497266292572,-0.47628727555274963,0.5117983818054199
1782987666965176600,8.894176513671875,-0.9288721084594727,-0.5416300296783447,0.5433628559112549
1782987666975251500,8.90425146484375,-0.913758397102356,-0.700969934463501,0.4999658465385437
1782987666985325600,8.91432568359375,-0.9228681325912476,-0.9985846281051636,0.37467724084854126
1782987666995400400,8.924400390625,-0.971920371055603,-1.3556524515151978,0.16856293380260468
1782987667005475600,8.9344755859375,-1.0835998058319092,-1.6084232330322266,-0.08390957117080688
1782987667015549400,8.944549560546875,-1.2342764139175415,-1.680043339729309,-0.3252878487110138
1782987667025624600,8.95462451171875,-1.3821148872375488,-1.5563429594039917,-0.48825615644454956
1782987667035699500,8.964699462890625,-1.4866948127746582,-1.2122081518173218,-0.5190870761871338
1782987667045773600,8.974773681640626,-1.5358741283416748,-0.7253833413124084,-0.40309128165245056
1782987667055848700,8.9848486328125,-1.5543580055236816,-0.25926944613456726,-0.19300781190395355
1782987667065922600,8.994922607421875,-1.5759435892105103,-0.026082515716552734,0.0269805695861578
1782987667075997700,9.004997802734374,-1.5854408740997314,-0.12888239324092865,0.18524903059005737
1782987667086072300,9.015072265625,-1.542283296585083,-0.4572400748729706,0.2586729824542999
1782987667096146700,9.025146728515624,-1.4759141206741333,-0.8715016841888428,0.24370254576206207
1782987667106221300,9.03522119140625,-1.4134974479675293,-1.2482298612594604,0.15036937594413757
1782987667116296400,9.04529638671875,-1.381769061088562,-1.5200097560882568,-0.029203316196799278
1782987667126370300,9.055370361328125,-1.3925939798355103,-1.5920623540878296,-0.2420065850019455
1782987667136445400,9.065445556640626,-1.4389146566390991,-1.4245264530181885,-0.43802666664123535
1782987667146519300,9.075519287109374,-1.5013152360916138,-1.100189447402954,-0.5742910504341125
1782987667156594400,9.085594482421875,-1.5342260599136353,-0.6874093413352966,-0.6285234093666077
1782987667166669300,9.09566943359375,-1.5554755926132202,-0.2692822515964508,-0.5717206001281738
1782987667176743400,9.105743408203125,-1.5503453016281128,0.017549775540828705,-0.4249474108219147
1782987667186818600,9.115818603515624,-1.522853970527649,0.15596996247768402,-0.24694757163524628
1782987667196893400,9.1258935546875,-1.4650988578796387,0.14268824458122253,-0.07305355370044708
1782987667206967600,9.135967529296876,-1.39970862865448,0.0035884128883481026,0.06480733305215836
1782987667217042400,9.14604248046875,-1.3386482000350952,-0.226231187582016,0.16067048907279968
1782987667227116500,9.156116455078125,-1.2847254276275635,-0.48493480682373047,0.21940723061561584
1782987667237191400,9.16619140625,-1.2418466806411743,-0.7057859301567078,0.21963173151016235
1782987667247266600,9.1762666015625,-1.2057844400405884,-0.8737150430679321,0.1675075888633728
1782987667257340400,9.18634033203125,-1.1708509922027588,-0.9676237106323242,0.07212940603494644
1782987667267415600,9.19641552734375,-1.1435027122497559,-0.947675347328186,-0.04504948481917381
1782987667277490400,9.206490478515626,-1.1180408000946045,-0.8520178198814392,-0.14681366086006165
1782987667287564500,9.216564453125,-1.0981886386871338,-0.7272807955741882,-0.21015731990337372
1782987667297639400,9.226639404296876,-1.0812456607818604,-0.6158227324485779,-0.22634826600551605
1782987667307714600,9.236714599609375,-1.0770328044891357,-0.5350334048271179,-0.1909283697605133
1782987667317788700,9.24678857421875,-1.0813697576522827,-0.49252989888191223,-0.1032528355717659
1782987667327863600,9.256863525390624,-1.0956307649612427,-0.47802111506462097,0.010006583295762539
1782987667337937700,9.266937744140625,-1.1078919172286987,-0.44298988580703735,0.1394532471895218
1782987667348012500,9.277012451171874,-1.122280240058899,-0.3969078063964844,0.24915142357349396
1782987667358087400,9.28708740234375,-1.1393455266952515,-0.370376318693161,0.3120371699333191
1782987667368161500,9.29716162109375,-1.1428892612457275,-0.38324517011642456,0.3262295126914978
1782987667378236400,9.307236328125,-1.141067624092102,-0.4094368517398834,0.29432162642478943
1782987667388311300,9.317311279296876,-1.1351064443588257,-0.4060322642326355,0.24994009733200073
1782987667398385400,9.327385498046874,-1.1187058687210083,-0.38436904549598694,0.20089319348335266
1782987667408460300,9.337460205078125,-1.0956110954284668,-0.36230966448783875,0.16770713031291962
1782987667418534400,9.347534423828124,-1.0651615858078003,-0.3424699008464813,0.15183016657829285
1782987667428609300,9.357609375,-1.02867591381073,-0.33187204599380493,0.16222162544727325
1782987667438684400,9.367684326171876,-0.9851095080375671,-0.3385741710662842,0.1911052018404007
1782987667448758500,9.377758544921875,-0.9337155222892761,-0.37135815620422363,0.23429802060127258
1782987667458833400,9.38783349609375,-0.8801941871643066,-0.41264355182647705,0.2753876745700836
1782987667468908500,9.397908447265625,-0.8309195041656494,-0.4138439893722534,0.3164716958999634
1782987667478982400,9.407982421875,-0.7940093874931335,-0.4108585715293884,0.336336225271225
1782987667489057500,9.4180576171875,-0.7564021348953247,-0.4478594660758972,0.3251088559627533
1782987667499131400,9.42813134765625,-0.7195961475372314,-0.49244797229766846,0.29182708263397217
1782987667509206500,9.43820654296875,-0.6706530451774597,-0.494732141494751,0.24540382623672485
1782987667519281400,9.448281494140625,-0.6203914880752563,-0.4954783618450165,0.20862743258476257
1782987667529355500,9.45835546875,-0.5719042420387268,-0.6271713972091675,0.13627023994922638
1782987667539430400,9.468430419921875,-0.5383071303367615,-0.8948547840118408,-0.007475209888070822
1782987667549505500,9.478505615234376,-0.5285167098045349,-1.1342500448226929,-0.19842807948589325
1782987667559579400,9.488579345703124,-0.5328904390335083,-1.1873705387115479,-0.3677164316177368
1782987667569654500,9.498654541015625,-0.5508108735084534,-1.0420604944229126,-0.46681004762649536
1782987667579728600,9.508728759765624,-0.5643349289894104,-0.7582277059555054,-0.4584354758262634
1782987667589803500,9.518803466796875,-0.564566433429718,-0.374674916267395,-0.3678642511367798
1782987667599878700,9.528878662109374,-0.5746022462844849,-0.09454124420881271,-0.2583332359790802
1782987667609952500,9.538952392578125,-0.5872805118560791,-0.0757363960146904,-0.1907893568277359
1782987667620027600,9.549027587890626,-0.5765437483787537,-0.2361082285642624,-0.13048553466796875
1782987667630102300,9.559102294921875,-0.528075098991394,-0.41469672322273254,-0.048858556896448135
1782987667640176600,9.5691767578125,-0.46674785017967224,-0.46809497475624084,0.05664762854576111
1782987667650251300,9.579251220703124,-0.4221746623516083,-0.3737901747226715,0.17460793256759644
1782987667660326400,9.589326416015625,-0.39379388093948364,-0.19281533360481262,0.2814960181713104
1782987667670400300,9.599400146484374,-0.3737303614616394,-0.035344067960977554,0.36929723620414734
1782987667680475400,9.609475341796875,-0.3537912964820862,0.055522456765174866,0.4251956343650818
1782987667690549200,9.61954931640625,-0.3330197036266327,0.07705917209386826,0.4408220052719116
1782987667700624400,9.629624267578125,-0.29795998334884644,-0.02010306343436241,0.4160495400428772
1782987667710699500,9.639699462890626,-0.24598398804664612,-0.2367270141839981,0.357994019985199
1782987667720773400,9.6497734375,-0.21434110403060913,-0.5341637134552002,0.2748109698295593
1782987667730848500,9.6598486328125,-0.2292879968881607,-0.8476050496101379,0.15606454014778137
1782987667740923400,9.66992333984375,-0.29081952571868896,-1.08963942527771,0.014856825582683086
1782987667750997500,9.67999755859375,-0.38701072335243225,-1.185416579246521,-0.13201287388801575
1782987667761072400,9.690072265625,-0.5007349252700806,-1.0987919569015503,-0.2654433846473694
1782987667771146500,9.700146484375,-0.6096740365028381,-0.9017390608787537,-0.3623088300228119
1782987667781221400,9.710221435546876,-0.7039831876754761,-0.6717186570167542,-0.4198046326637268
1782987667791296500,9.720296630859375,-0.778346598148346,-0.4891742765903473,-0.42988869547843933
1782987667801370400,9.730370361328125,-0.8240043520927429,-0.3810070753097534,-0.38399365544319153
1782987667811445500,9.740445556640625,-0.8291446566581726,-0.34113609790802,-0.2879110276699066
1782987667821519400,9.750519287109375,-0.8048384785652161,-0.3653538227081299,-0.1592521071434021
1782987667831594500,9.760594482421874,-0.7542127966880798,-0.4250454902648926,-0.029295463114976883
1782987667841669600,9.770669677734375,-0.6970653533935547,-0.46475696563720703,0.07630021125078201
1782987667851743500,9.780743408203126,-0.6480143070220947,-0.4471072554588318,0.15602022409439087
1782987667861818600,9.790818603515625,-0.6109119653701782,-0.389144629240036,0.1954035758972168
1782987667871893500,9.8008935546875,-0.5938361883163452,-0.34046274423599243,0.20123665034770966
1782987667881967600,9.810967529296875,-0.6045149564743042,-0.28109660744667053,0.18399401009082794
1782987667892042500,9.82104248046875,-0.642450213432312,-0.22463053464889526,0.1533568799495697
1782987667902116900,9.831116943359374,-0.6867239475250244,-0.20647044479846954,0.10243485122919083
1782987667912190700,9.841190673828125,-0.7174662351608276,-0.21917961537837982,0.049180470407009125
1782987667922265900,9.851265869140626,-0.7258021831512451,-0.2680046856403351,-0.008684426546096802
1782987667932339700,9.861339599609375,-0.7224635481834412,-0.3235192596912384,-0.061600517481565475
1782987667942414800,9.871414794921876,-0.7082433104515076,-0.3638749420642853,-0.10378072410821915
1782987667952489700,9.88148974609375,-0.6878777146339417,-0.38305747509002686,-0.13441528379917145
1782987667962563800,9.891563720703125,-0.6661239266395569,-0.3665804862976074,-0.14646290242671967
1782987667972638700,9.901638671875,-0.637260913848877,-0.34097740054130554,-0.14935645461082458
1782987667982713600,9.911713623046875,-0.6089972853660583,-0.34736260771751404,-0.13990968465805054
1782987667992787700,9.92178759765625,-0.5902292728424072,-0.3459983468055725,-0.1065594032406807
1782987668002862600,9.931862548828125,-0.5870758295059204,-0.3440294861793518,-0.059327173978090286
1782987668012936700,9.941936767578126,-0.6039886474609375,-0.3433311879634857,-0.015090785920619965
1782987668023011600,9.952011474609375,-0.6325899362564087,-0.3421332836151123,0.021918898448348045
1782987668033086700,9.962086669921876,-0.6526427268981934,-0.35533198714256287,0.05233096331357956
1782987668043160600,9.97216064453125,-0.6623134613037109,-0.39191797375679016,0.07024631649255753
1782987668053235700,9.982235595703125,-0.665398120880127,-0.4346923828125,0.08570234477519989
1782987668063309600,9.9923095703125,-0.6583127975463867,-0.4656441807746887,0.09928872436285019
1782987668073384700,10.002384765625,-0.6519156694412231,-0.4861046373844147,0.11839786916971207
1782987668083458600,10.01245849609375,-0.6557564735412598,-0.5223422646522522,0.13142843544483185
1782987668093533700,10.02253369140625,-0.6664398312568665,-0.556922197341919,0.155503049492836
1782987668103608800,10.03260888671875,-0.6805487275123596,-0.5542050004005432,0.19951817393302917
1782987668113682700,10.0426826171875,-0.6947236657142639,-0.523261308670044,0.26820501685142517
1782987668123757800,10.0527578125,-0.7111253142356873,-0.5261992812156677,0.3286478519439697
1782987668133832700,10.062832763671874,-0.731135368347168,-0.5521194934844971,0.3544727861881256
1782987668143906800,10.07290673828125,-0.7574197053909302,-0.5330299139022827,0.35853224992752075
1782987668153981700,10.082981689453124,-0.8028886318206787,-0.48438844084739685,0.33095648884773254
1782987668164055800,10.093055908203125,-0.8790406584739685,-0.4561181664466858,0.2759416997432709
1782987668174130700,10.103130615234376,-0.962999701499939,-0.4563435912132263,0.1872982382774353
1782987668184205800,10.113205810546875,-1.0446399450302124,-0.4709717631340027,0.08354148268699646
1782987668194279700,10.12327978515625,-1.1070225238800049,-0.5177834630012512,-0.044622212648391724
1782987668204354800,10.133354736328124,-1.1489858627319336,-0.611120343208313,-0.1905360072851181
1782987668214429700,10.1434296875,-1.1682014465332031,-0.7106000185012817,-0.3398262858390808
1782987668224503800,10.15350390625,-1.1817964315414429,-0.7271310687065125,-0.445759117603302
1782987668234579000,10.163578857421875,-1.1983500719070435,-0.6222778558731079,-0.4780084490776062
1782987668244652800,10.17365283203125,-1.2242450714111328,-0.42089152336120605,-0.43359890580177307
1782987668254728000,10.18372802734375,-1.2424348592758179,-0.19958816468715668,-0.3085114657878876
1782987668264802800,10.193802734375,-1.23384690284729,-0.05084368586540222,-0.1191098541021347
1782987668274877000,10.203876953125,-1.204291582107544,0.0006110931281000376,0.08747579157352448
1782987668284951800,10.213951904296875,-1.1638520956039429,0.022574182599782944,0.274470716714859
1782987668295026700,10.224026611328124,-1.1165175437927246,-0.024372389540076256,0.4100818634033203
1782987668305100800,10.234100830078125,-1.0623222589492798,-0.16189536452293396,0.4909133315086365
1782987668315175700,10.24417578125,-1.0010647773742676,-0.3496797978878021,0.5167135000228882
1782987668325249800,10.254249755859375,-0.9353097677230835,-0.5466756820678711,0.4779996871948242
1782987668335324700,10.26432470703125,-0.8869252800941467,-0.7256962656974792,0.38642898201942444
1782987668345399600,10.274399658203125,-0.8941634893417358,-0.8504997491836548,0.23666903376579285
1782987668355473700,10.2844736328125,-0.9574536681175232,-0.9383382797241211,0.06326507776975632
1782987668365548800,10.294548828125,-1.0409581661224365,-0.933932363986969,-0.0711933970451355
1782987668375623700,10.304623779296875,-1.1172343492507935,-0.7342519760131836,-0.12127111852169037
1782987668385697800,10.31469775390625,-1.1624047756195068,-0.4413897693157196,-0.0816241055727005
1782987668395772700,10.324772705078125,-1.2012208700180054,-0.2239312380552292,0.01728370413184166
1782987668405847800,10.334847900390624,-1.2286697626113892,-0.15372179448604584,0.1246810033917427
1782987668415921700,10.344921630859375,-1.2368830442428589,-0.19356846809387207,0.19587062299251556
1782987668425996800,10.354996826171876,-1.2263435125350952,-0.2781984210014343,0.233383908867836
1782987668436071700,10.36507177734375,-1.2056100368499756,-0.3527663052082062,0.2451765388250351
1782987668446145800,10.375145751953125,-1.1626654863357544,-0.4167617857456207,0.21549959480762482
1782987668456220700,10.385220703125,-1.0977048873901367,-0.4608531594276428,0.15277698636054993
1782987668466295800,10.3952958984375,-1.0242857933044434,-0.4628031253814697,0.0663510113954544
1782987668476369700,10.40536962890625,-0.9459266662597656,-0.44899946451187134,-0.01742572709918022
1782987668486444800,10.41544482421875,-0.8684781789779663,-0.41319164633750916,-0.09210182726383209
1782987668496519000,10.425518798828126,-0.7919775247573853,-0.3711503744125366,-0.12638238072395325
1782987668506593800,10.43559375,-0.7308433055877686,-0.33549755811691284,-0.11722642183303833
1782987668516668700,10.445668701171876,-0.6928133964538574,-0.3020293116569519,-0.046035557985305786
1782987668526742800,10.45574267578125,-0.658484697341919,-0.2502545118331909,0.05707911029458046
1782987668536817700,10.465817626953125,-0.632995069026947,-0.2024901807308197,0.18103566765785217
1782987668546892500,10.475892578125,-0.616718590259552,-0.18786320090293884,0.2967931032180786
1782987668556966700,10.485966552734375,-0.5984137654304504,-0.20457817614078522,0.382402241230011
1782987668567041500,10.49604150390625,-0.5843903422355652,-0.2636156678199768,0.4101792573928833
1782987668577115600,10.50611572265625,-0.5647040009498596,-0.30865564942359924,0.39133936166763306
1782987668587190500,10.5161904296875,-0.5438674688339233,-0.30641114711761475,0.3169056177139282
1782987668597265700,10.526265625,-0.5253971219062805,-0.2892304062843323,0.22662916779518127
1782987668607339500,10.536339599609375,-0.5018358826637268,-0.22962328791618347,0.1483418196439743
1782987668617414700,10.54641455078125,-0.4753018021583557,-0.1408248245716095,0.08477844297885895
1782987668627489800,10.55648974609375,-0.44313159584999084,-0.0762983113527298,0.019660431891679764
1782987668637563600,10.566563720703124,-0.3980158567428589,-0.0406215637922287,-0.002867954084649682
1782987668647638800,10.576638671875,-0.3561871647834778,0.04434339329600334,0.042159710079431534
1782987668657712600,10.586712646484376,-0.32042598724365234,0.0962783694267273,0.12499726563692093
1782987668667787800,10.596787841796875,-0.2893010973930359,0.08818316459655762,0.21547870337963104
1782987668677862700,10.606862548828126,-0.2477877289056778,0.0489049032330513,0.28158432245254517
1782987668687936800,10.616936767578125,-0.2044122815132141,-0.020246202126145363,0.2909599840641022
1782987668698011600,10.62701171875,-0.1667553186416626,-0.12644417583942413,0.25172919034957886
1782987668708085800,10.637085693359374,-0.14155729115009308,-0.20882587134838104,0.18741890788078308
1782987668718160600,10.64716064453125,-0.10797204077243805,-0.28882551193237305,0.1355634331703186
1782987668728235800,10.65723583984375,-0.11396335065364838,-0.2949811518192291,0.16737940907478333
1782987668738309600,10.6673095703125,-0.148850217461586,-0.16824199259281158,0.13836513459682465
1782987668748384800,10.677384765625,-0.14679931104183197,-0.10887213051319122,0.08917202800512314
1782987668758460000,10.6874599609375,-0.137978658080101,-0.23629027605056763,-0.03241725638508797
1782987668768533800,10.69753369140625,-0.1515924632549286,-0.44002315402030945,-0.22021140158176422
1782987668778609000,10.70760888671875,-0.1974991410970688,-0.56886887550354,-0.41172531247138977
1782987668788682800,10.717682861328125,-0.2914898097515106,-0.5695741176605225,-0.5501968860626221
1782987668798758000,10.7277578125,-0.41990241408348083,-0.4063264727592468,-0.5784938931465149
