time,seconds_elapsed,z,y,x
1782987658136012800,0.0650126953125,0.9308634996414185,0.5091543197631836,0.1119968444108963
1782987658146088000,0.075087890625,0.8892992734909058,0.6017566919326782,0.10490058362483978
1782987658156163000,0.0851630859375,0.8423488140106201,0.6432071924209595,0.08592343330383301
1782987658166237000,0.09523681640625,0.7948265671730042,0.6138991117477417,0.06326525658369064
1782987658176312000,0.10531201171875,0.7602070569992065,0.5359464883804321,0.03634895384311676
1782987658186387000,0.115386962890625,0.7375075817108154,0.40251654386520386,0.004529770463705063
1782987658196461000,0.1254609375,0.7164534330368042,0.2406352460384369,-0.04668894037604332
1782987658206536000,0.135535888671875,0.6945891380310059,0.12534193694591522,-0.10823965072631836
1782987658216610800,0.14561083984375,0.6814083456993103,0.10973767936229706,-0.1657857745885849
1782987658226685000,0.155684814453125,0.6804581880569458,0.17849810421466827,-0.20624637603759766
1782987658236759800,0.165759765625,0.6905264854431152,0.2787450850009918,-0.21281053125858307
1782987658246834700,0.175834716796875,0.703383207321167,0.36729252338409424,-0.18621514737606049
1782987658256908800,0.18590869140625,0.7232386469841003,0.4208582639694214,-0.13826093077659607
1782987658266983700,0.195983642578125,0.7298989295959473,0.4102895259857178,-0.08511489629745483
1782987658277057800,0.206057861328125,0.7245215177536011,0.35944923758506775,-0.06210970878601074
1782987658287133000,0.2161328125,0.7243414521217346,0.3302796483039856,-0.052808087319135666
1782987658297207800,0.226207763671875,0.7286640405654907,0.3096023201942444,-0.05624143406748772
1782987658307282000,0.236281982421875,0.7378247976303101,0.27580201625823975,-0.07681968063116074
1782987658317356800,0.246356689453125,0.7428061962127686,0.24093298614025116,-0.1040763333439827
1782987658327432000,0.256431884765625,0.731711745262146,0.21614322066307068,-0.12174054980278015
1782987658337505800,0.266505859375,0.6984286308288574,0.22639025747776031,-0.13047918677330017
1782987658347581000,0.276580810546875,0.6621829867362976,0.24032099545001984,-0.1284639686346054
1782987658357655800,0.28665576171875,0.631068766117096,0.25233718752861023,-0.1173415407538414
1782987658367730000,0.29672998046875,0.6095682978630066,0.25932663679122925,-0.11356198042631149
1782987658377804800,0.3068046875,0.5931751728057861,0.2566815912723541,-0.10350695252418518
1782987658387880000,0.3168798828125,0.5857654809951782,0.2518162727355957,-0.09793854504823685
1782987658397953800,0.326953857421875,0.5842387080192566,0.2361840307712555,-0.10442041605710983
1782987658408029000,0.33702880859375,0.5915168523788452,0.21196524798870087,-0.11869602650403976
1782987658418103800,0.347103759765625,0.6123219728469849,0.21944420039653778,-0.1325732171535492
1782987658428178000,0.357177978515625,0.6305606365203857,0.26842665672302246,-0.13614985346794128
1782987658438252800,0.367252685546875,0.6387458443641663,0.3237311840057373,-0.14431962370872498
1782987658448327700,0.37732763671875,0.6478672027587891,0.3438521921634674,-0.14946086704730988
1782987658458401800,0.38740185546875,0.6650182008743286,0.3506898581981659,-0.1576860398054123
1782987658468476700,0.3974765625,0.6744974851608276,0.32444092631340027,-0.14930453896522522
1782987658478550800,0.40755078125,0.6751621961593628,0.2741641700267792,-0.1335064023733139
1782987658488625700,0.417625732421875,0.6652680039405823,0.2285277098417282,-0.09963364899158478
1782987658498700800,0.42770068359375,0.6679282784461975,0.2274336963891983,-0.06101062148809433
1782987658508774700,0.437774658203125,0.676707923412323,0.27971526980400085,0.004904743749648333
1782987658518849800,0.447849853515625,0.680894136428833,0.35478630661964417,0.06481148302555084
1782987658528925000,0.457925048828125,0.6820656657218933,0.4604690670967102,0.09167879074811935
1782987658538998800,0.467998779296875,0.6826483607292175,0.5751876831054688,0.11385679244995117
1782987658549074000,0.478073974609375,0.6672134399414062,0.68276447057724,0.13005733489990234
1782987658559148800,0.488148681640625,0.6398902535438538,0.7113367319107056,0.1562870740890503
1782987658569223000,0.498222900390625,0.607002854347229,0.6302967071533203,0.20477178692817688
1782987658579297800,0.5082978515625,0.5759493112564087,0.5428398251533508,0.24580763280391693
1782987658589373000,0.518373046875,0.544992208480835,0.5151472091674805,0.2714584171772003
1782987658599446800,0.52844677734375,0.5066256523132324,0.5165001153945923,0.2786816954612732
1782987658609522000,0.53852197265625,0.47476306557655334,0.5049577355384827,0.27057263255119324
1782987658619597000,0.54859716796875,0.466979444026947,0.47560274600982666,0.25679636001586914
1782987658629671000,0.5586708984375,0.48322153091430664,0.46443983912467957,0.24599379301071167
1782987658639746000,0.56874609375,0.5222530961036682,0.5432842969894409,0.22048737108707428
1782987658649821000,0.578821044921875,0.570769727230072,0.740222692489624,0.18412403762340546
1782987658659895000,0.58889501953125,0.6357082724571228,0.9032755494117737,0.13153432309627533
1782987658669970000,0.598969970703125,0.7049121260643005,0.8282468318939209,0.04181881994009018
1782987658680044800,0.609044921875,0.7384375929832458,0.43361136317253113,-0.09793508797883987
1782987658690119000,0.619118896484375,0.7016249895095825,-0.13394448161125183,-0.25309884548187256
1782987658700193800,0.62919384765625,0.5977992415428162,-0.5173097252845764,-0.3758798837661743
1782987658710268000,0.639267822265625,0.47313347458839417,-0.486111581325531,-0.41528135538101196
1782987658720342800,0.6493427734375,0.3954589068889618,-0.08265013992786407,-0.3480874001979828
1782987658730418000,0.65941796875,0.3799896836280823,0.5629892945289612,-0.20681096613407135
1782987658740491800,0.66949169921875,0.43821677565574646,1.1534686088562012,-0.07888522744178772
1782987658750567000,0.67956689453125,0.5542435050010681,1.477307915687561,0.0013872405979782343
1782987658760641800,0.689641845703125,0.6884830594062805,1.5366593599319458,0.05552211403846741
1782987658770716000,0.6997158203125,0.787531852722168,1.4378052949905396,0.0887298658490181
1782987658780790800,0.709790771484375,0.8310830593109131,1.2481378316879272,0.09917452186346054
1782987658790866000,0.719865966796875,0.810987114906311,1.0528810024261475,0.08229274302721024
1782987658800939800,0.729939697265625,0.7169402837753296,0.8031268119812012,0.07805006206035614
1782987658811015000,0.740014892578125,0.5994179248809814,0.6835120320320129,0.06525756418704987
1782987658821089800,0.75008984375,0.48671239614486694,0.3564145863056183,0.035299934446811676
1782987658831164000,0.760163818359375,0.45041802525520325,0.1977737993001938,0.018451711162924767
1782987658841239000,0.770239013671875,0.4980502724647522,0.19098007678985596,0.033361684530973434
1782987658851314000,0.78031396484375,0.5662466287612915,0.23935054242610931,0.012300075963139534
1782987658861388000,0.790387939453125,0.6366065740585327,0.3066427707672119,-0.0441589392721653
1782987658871463000,0.800462890625,0.7043831944465637,0.3784565031528473,-0.12768100202083588
1782987658881537800,0.810537841796875,0.7652513384819031,0.42859315872192383,-0.21496076881885529
1782987658891612200,0.820612060546875,0.8102023005485535,0.42109689116477966,-0.29101160168647766
1782987658901687000,0.83068701171875,0.8261836767196655,0.3427030146121979,-0.32841435074806213
1782987658911762000,0.840761962890625,0.8097583651542664,0.2391398847103119,-0.33314573764801025
1782987658921836000,0.8508359375,0.7860066890716553,0.14031289517879486,-0.30389198660850525
1782987658931911000,0.860910888671875,0.7817230224609375,0.08420569449663162,-0.25355690717697144
1782987658941985000,0.870985107421875,0.8021113276481628,0.06785734742879868,-0.1886032074689865
1782987658952060200,0.88106005859375,0.8349995613098145,0.051716189831495285,-0.12143374979496002
1782987658962135000,0.891135009765625,0.8636583685874939,0.10267391055822372,-0.06696811318397522
1782987658972209200,0.901209228515625,0.8722521066665649,0.22662754356861115,0.0047090016305446625
1782987658982284000,0.911283935546875,0.8639401197433472,0.36734846234321594,0.07066058367490768
1782987658992359200,0.921359130859375,0.8463400602340698,0.4755942225456238,0.12235201150178909
1782987659002433000,0.93143310546875,0.8095317482948303,0.5639219880104065,0.1433558315038681
1782987659012508200,0.941508056640625,0.7631344199180603,0.6472237706184387,0.14978709816932678
1782987659022583000,0.9515830078125,0.7035994529724121,0.6476850509643555,0.14035950601100922
1782987659032657200,0.9616572265625,0.6351916193962097,0.5809499621391296,0.12074080109596252
1782987659042732000,0.97173193359375,0.5760800838470459,0.5025789737701416,0.11421498656272888
1782987659052807200,0.98180712890625,0.5310338139533997,0.3805800974369049,0.11007697135210037
1782987659062881000,0.991881103515625,0.48752546310424805,0.2348841428756714,0.10358977317810059
1782987659072956200,1.0019560546875,0.43391281366348267,0.11586401611566544,0.08284321427345276
1782987659083031300,1.01203125,0.3887261748313904,0.056894972920417786,0.07656215131282806
1782987659093105200,1.022105224609375,0.3562491834163666,0.06072885915637016,0.06547008454799652
1782987659103180300,1.03218017578125,0.3294207751750946,0.07906205952167511,0.044973332434892654
1782987659113255000,1.0422548828125,0.317059189081192,0.09738221019506454,0.016091085970401764
1782987659123329300,1.052329345703125,0.31088516116142273,0.1135537251830101,-0.013777597807347775
1782987659133404000,1.06240380859375,0.3037470877170563,0.10665161162614822,-0.030491596087813377
1782987659143479000,1.07247900390625,0.28071555495262146,0.08661425113677979,-0.03045697510242462
1782987659153553000,1.082552978515625,0.23497629165649414,0.04596962034702301,-0.024468591436743736
1782987659163628000,1.0926279296875,0.16647019982337952,-0.005060805007815361,0.002758235903456807
1782987659173703200,1.102703125,0.09727542102336884,-0.06693349033594131,0.028567196801304817
1782987659183777000,1.112777099609375,0.023374831303954124,-0.13749395310878754,0.05044719576835632
1782987659193852200,1.12285205078125,-0.04770760238170624,-0.15948712825775146,0.06851913779973984
1782987659203926000,1.132926025390625,-0.10682125389575958,-0.11936873942613602,0.07591580599546432
1782987659214001200,1.143001220703125,-0.143888458609581,-0.053520482033491135,0.08754982054233551
1782987659224076000,1.153075927734375,-0.15372031927108765,0.002817890839651227,0.08852853626012802
1782987659234150100,1.163150146484375,-0.15810202062129974,0.014808240346610546,0.07035405933856964
1782987659244225000,1.17322509765625,-0.16136465966701508,-0.034694332629442215,0.04500289633870125
1782987659254300200,1.183300048828125,-0.17115098237991333,-0.11475667357444763,0.024119718000292778
1782987659264374000,1.1933740234375,-0.1909550428390503,-0.1842084527015686,0.01618163287639618
1782987659274449200,1.20344921875,-0.21567529439926147,-0.20529723167419434,0.01625327207148075
1782987659284524300,1.213524169921875,-0.2397225797176361,-0.16453728079795837,0.015973374247550964
1782987659294598100,1.22359814453125,-0.2431524693965912,-0.058029480278491974,0.024042218923568726
1782987659304673300,1.23367333984375,-0.24866147339344025,0.09210968762636185,0.04147074371576309
1782987659314748200,1.243748046875,-0.27004560828208923,0.15202787518501282,0.043423108756542206
1782987659324822300,1.253822265625,-0.3146045506000519,0.024824390187859535,-0.02365685999393463
1782987659334897200,1.263897216796875,-0.36405277252197266,-0.21116895973682404,-0.14045831561088562
1782987659344972000,1.273971923828125,-0.4125785231590271,-0.4663163125514984,-0.2838788628578186
1782987659355046100,1.284046142578125,-0.45789405703544617,-0.6535016298294067,-0.42206788063049316
1782987659365121000,1.29412109375,-0.5057151317596436,-0.6688486337661743,-0.5353811383247375
1782987659375196200,1.304196044921875,-0.5485706925392151,-0.5427951216697693,-0.5976722240447998
1782987659385270000,1.31427001953125,-0.5678972601890564,-0.3567621111869812,-0.6098918318748474
1782987659395345200,1.32434521484375,-0.54497891664505,-0.15886688232421875,-0.5531268119812012
1782987659405419000,1.3344189453125,-0.48248809576034546,0.030057234689593315,-0.4287737309932709
1782987659415494100,1.344494140625,-0.39436888694763184,0.15263082087039948,-0.24381159245967865
1782987659425569000,1.354569091796875,-0.29809001088142395,0.1776839792728424,-0.019276492297649384
1782987659435643100,1.36464306640625,-0.2109021097421646,0.11400007456541061,0.2162630558013916
1782987659445718000,1.374718017578125,-0.14769704639911652,-0.06078105792403221,0.4110000431537628
1782987659455793200,1.384793212890625,-0.11122266203165054,-0.2924249470233917,0.5329400897026062
1782987659465867000,1.394866943359375,-0.08559239655733109,-0.5199587345123291,0.5642393827438354
1782987659475942100,1.404942138671875,-0.08133666962385178,-0.6905150413513184,0.49616047739982605
1782987659486017300,1.415017333984375,-0.10485824197530746,-0.764507532119751,0.346128910779953
1782987659496091100,1.425091064453125,-0.1489974707365036,-0.7492289543151855,0.16000618040561676
1782987659506166300,1.435166259765625,-0.21100598573684692,-0.6392662525177002,-0.013410081155598164
1782987659516241200,1.4452412109375,-0.2932718098163605,-0.4196036756038666,-0.13598553836345673
1782987659526315300,1.455315185546875,-0.38317906856536865,-0.15494456887245178,-0.17311319708824158
1782987659536390100,1.46539013671875,-0.46454983949661255,0.09396857023239136,-0.12256160378456116
1782987659546465300,1.47546533203125,-0.5082845091819763,0.2787959575653076,-0.008048871532082558
1782987659556539100,1.4855390625,-0.5137538909912109,0.36373212933540344,0.14109879732131958
1782987659566614300,1.4956142578125,-0.4925953149795532,0.3304799199104309,0.29772329330444336
1782987659576689000,1.50568896484375,-0.4664992690086365,0.22241149842739105,0.4385821521282196
1782987659586763300,1.51576318359375,-0.43644362688064575,0.11056406050920486,0.54849773645401
1782987659596838000,1.525837890625,-0.403545081615448,0.02822711132466793,0.6033545732498169
1782987659606912300,1.535912353515625,-0.36403948068618774,-0.039738889783620834,0.5995736718177795
1782987659616987100,1.545987060546875,-0.310081422328949,-0.08734609186649323,0.5357025861740112
1782987659627062000,1.55606201171875,-0.2604270577430725,-0.08093692362308502,0.4406346380710602
1782987659637136100,1.56613623046875,-0.23056529462337494,-0.043235354125499725,0.33500197529792786
1782987659647211000,1.5762109375,-0.2306814193725586,-0.015088139101862907,0.24219346046447754
1782987659657286100,1.5862861328125,-0.2520831227302551,-0.0009768474847078323,0.17975112795829773
1782987659667360000,1.596360107421875,-0.27289971709251404,0.007715444080531597,0.14316488802433014
1782987659677435100,1.60643505859375,-0.29226621985435486,0.0009494169498793781,0.13718421757221222
1782987659687510000,1.616510009765625,-0.3085160255432129,-0.006738862954080105,0.15046007931232452
1782987659697584000,1.626584228515625,-0.31996816396713257,-0.0014375743921846151,0.18573737144470215
1782987659707659000,1.636658935546875,-0.32523295283317566,-0.0006434197421185672,0.22478623688220978
1782987659717734100,1.646734130859375,-0.31929224729537964,0.021459752693772316,0.2476806342601776
1782987659727808000,1.65680810546875,-0.29986366629600525,0.07108935713768005,0.27180275321006775
1782987659737883100,1.666883056640625,-0.25787922739982605,0.11793942004442215,0.28467991948127747
1782987659747958300,1.676958251953125,-0.20343807339668274,0.13024082779884338,0.2890975773334503
1782987659758032100,1.6870322265625,-0.14383547008037567,0.13004854321479797,0.28691351413726807
1782987659768107300,1.697107177734375,-0.09220369905233383,0.13026772439479828,0.27066025137901306
1782987659778182100,1.70718212890625,-0.05633224919438362,0.10334715992212296,0.24682310223579407
1782987659788256300,1.71725634765625,-0.049733735620975494,0.04407105594873428,0.2209925651550293
1782987659798331100,1.7273310546875,-0.06383384019136429,-0.007631021551787853,0.21992410719394684
1782987659808405200,1.7374052734375,-0.08887767791748047,-0.015515043400228024,0.24539591372013092
1782987659818480000,1.747480224609375,-0.12063241004943848,-0.006641923915594816,0.28524452447891235
1782987659828555000,1.757554931640625,-0.15213440358638763,0.001059139147400856,0.323637992143631
1782987659838629000,1.767629150390625,-0.173251673579216,0.055095743387937546,0.356139212846756
1782987659848704000,1.7777041015625,-0.1853986233472824,0.1407400667667389,0.3743025064468384
1782987659858779100,1.787779052734375,-0.19474445283412933,0.22250604629516602,0.3931041359901428
1782987659868853000,1.79785302734375,-0.21275940537452698,0.29195621609687805,0.3921435475349426
1782987659878928100,1.80792822265625,-0.23715795576572418,0.29480740427970886,0.35927560925483704
1782987659889002200,1.818002197265625,-0.25485971570014954,0.2681347727775574,0.298494815826416
1782987659899076400,1.828076416015625,-0.2531861960887909,0.2395249754190445,0.21499192714691162
1782987659909151200,1.838151123046875,-0.23092615604400635,0.27017608284950256,0.12664130330085754
1782987659919226400,1.848226318359375,-0.1918615847826004,0.44620251655578613,0.06888718903064728
1782987659929300200,1.85830029296875,-0.1361096352338791,0.5535236597061157,0.02010367065668106
1782987659939375400,1.868375244140625,-0.08086396008729935,0.43561938405036926,-0.07084248214960098
1782987659949450200,1.8784501953125,-0.04918006435036659,0.11835087835788727,-0.217988520860672
1782987659959524400,1.8885244140625,-0.006370814051479101,-0.3619163930416107,-0.44493138790130615
1782987659969599200,1.89859912109375,0.08218807727098465,-0.5239942669868469,-0.6654531359672546
1782987659979673300,1.90867333984375,0.19272764027118683,-0.39643415808677673,-0.8207971453666687
1782987659989748500,1.91874853515625,0.23741096258163452,-0.17851941287517548,-0.909614622592926
1782987659999823400,1.9288232421875,0.1916501224040985,0.03694496676325798,-0.9100762009620667
1782987660009897500,1.9388974609375,0.0976133719086647,0.21547237038612366,-0.8031401634216309
1782987660019972400,1.948972412109375,0.004055728204548359,0.4315769672393799,-0.5568930506706238
1782987660030047500,1.959047607421875,-0.052203550934791565,0.5855768918991089,-0.1952214241027832
1782987660040121300,1.969121337890625,-0.037105292081832886,0.6272724270820618,0.19615858793258667
1782987660050196500,1.979196533203125,0.03947843238711357,0.47716230154037476,0.5265117287635803
1782987660060271400,1.989271240234375,0.14914368093013763,0.14504800736904144,0.7206069231033325
1782987660070345500,1.999345458984375,0.26318928599357605,-0.22914184629917145,0.7647163271903992
1782987660080420400,2.00942041015625,0.36620622873306274,-0.5188553929328918,0.6635614633560181
1782987660090495200,2.0194951171875,0.42790767550468445,-0.6980714797973633,0.4574969708919525
1782987660100569300,2.0295693359375,0.4388905465602875,-0.7455524802207947,0.18359193205833435
1782987660110644200,2.039644287109375,0.3980261981487274,-0.6903747320175171,-0.09767729043960571
1782987660120719400,2.04971923828125,0.31344446539878845,-0.563747227191925,-0.3459946811199188
1782987660130793200,2.059793212890625,0.2067827433347702,-0.4037967324256897,-0.526983380317688
1782987660140868400,2.069868408203125,0.09542585164308548,-0.25114646553993225,-0.6204153299331665
1782987660150942200,2.079942138671875,0.001383778522722423,-0.14462429285049438,-0.6215615272521973
1782987660161017300,2.090017333984375,-0.07045925408601761,-0.09844481199979782,-0.5403252840042114
1782987660171092200,2.10009228515625,-0.11147699505090714,-0.11544030904769897,-0.39687037467956543
1782987660181166300,2.110166259765625,-0.12375709414482117,-0.145361989736557,-0.21304090321063995
1782987660191241200,2.1202412109375,-0.11527279764413834,-0.1619393676519394,-0.0293701384216547
1782987660201316400,2.13031640625,-0.09472064673900604,-0.17302344739437103,0.11410633474588394
1782987660211390200,2.14039013671875,-0.07038041949272156,-0.1743701994419098,0.20629644393920898
1782987660221465300,2.15046533203125,-0.04439809173345566,-0.18559835851192474,0.25236940383911133
1782987660231540500,2.16054052734375,-0.03298138454556465,-0.20014214515686035,0.24671390652656555
1782987660241614300,2.1706142578125,-0.03241546452045441,-0.20229291915893555,0.22388343513011932
1782987660251689500,2.180689453125,-0.04375946521759033,-0.15946954488754272,0.19087621569633484
1782987660261764400,2.190764404296875,-0.07730970531702042,-0.12070325016975403,0.15448997914791107
1782987660271838500,2.20083837890625,-0.12885864078998566,-0.14218324422836304,0.10727958381175995
1782987660281913300,2.210913330078125,-0.18144169449806213,-0.2069326788187027,0.04428490623831749
1782987660291988500,2.220988525390625,-0.22009827196598053,-0.2856333553791046,-0.021264275535941124
1782987660302062300,2.231062255859375,-0.2451610267162323,-0.35965803265571594,-0.08959699422121048
1782987660312137500,2.241137451171875,-0.27462729811668396,-0.39820224046707153,-0.14750877022743225
1782987660322212400,2.25121240234375,-0.3209780156612396,-0.39892423152923584,-0.2033826857805252
1782987660332286500,2.261286376953125,-0.37954333424568176,-0.3627994954586029,-0.25860971212387085
1782987660342361300,2.271361328125,-0.44199392199516296,-0.319903701543808,-0.31575050950050354
1782987660352435500,2.281435546875,-0.4964366555213928,-0.27354684472084045,-0.36725708842277527
1782987660362510300,2.29151025390625,-0.5338642001152039,-0.24270078539848328,-0.40505242347717285
1782987660372585200,2.301585205078125,-0.5556887984275818,-0.22504615783691406,-0.42742297053337097
1782987660382659300,2.311659423828125,-0.5644274353981018,-0.20626822113990784,-0.42954471707344055
1782987660392734200,2.321734130859375,-0.5561697483062744,-0.19650639593601227,-0.4218660295009613
1782987660402809300,2.331809326171875,-0.5417056083679199,-0.197722926735878,-0.4087161421775818
1782987660412883200,2.34188330078125,-0.5112976431846619,-0.21482069790363312,-0.38566645979881287
1782987660422958300,2.351958251953125,-0.4692884087562561,-0.22090575098991394,-0.33496999740600586
1782987660433033500,2.362033447265625,-0.4368255138397217,-0.2214362472295761,-0.2598520815372467
1782987660443107300,2.372107421875,-0.42050275206565857,-0.23624715209007263,-0.17077413201332092
1782987660453182500,2.382182373046875,-0.41984042525291443,-0.2540469169616699,-0.08533460646867752
1782987660463257300,2.39225732421875,-0.4260900616645813,-0.24976962804794312,-0.0015398397808894515
1782987660473331500,2.40233154296875,-0.435977578163147,-0.26674699783325195,0.056596435606479645
1782987660483406300,2.41240625,-0.4462062418460846,-0.30581745505332947,0.07623058557510376
1782987660493480400,2.42248046875,-0.447522908449173,-0.35698822140693665,0.06970690935850143
1782987660503555300,2.432555419921875,-0.44493380188941956,-0.39038586616516113,0.046477485448122025
1782987660513630500,2.44263037109375,-0.4484371840953827,-0.40167471766471863,0.021495969966053963
1782987660523704300,2.452704345703125,-0.45443275570869446,-0.3880294859409332,0.012211925350129604
1782987660533779500,2.462779541015625,-0.4544689655303955,-0.3208126425743103,0.03879453241825104
1782987660543854600,2.4728544921875,-0.46355488896369934,-0.1973506212234497,0.09998385608196259
1782987660553928400,2.482928466796875,-0.4991552233695984,-0.018508436158299446,0.20175309479236603
1782987660564003600,2.493003662109375,-0.545954167842865,0.043052393943071365,0.30660495162010193
1782987660574078200,2.503078125,-0.5821235775947571,-0.09733720868825912,0.35849130153656006
1782987660584152600,2.513152587890625,-0.6114788055419922,-0.31240716576576233,0.3258103132247925
1782987660594227200,2.523227294921875,-0.6428135633468628,-0.4997831881046295,0.22578385472297668
1782987660604302300,2.53330224609375,-0.6780482530593872,-0.5904877781867981,0.08176890015602112
1782987660614376200,2.543376220703125,-0.7359871864318848,-0.5955624580383301,-0.0836123377084732
1782987660624451300,2.553451416015625,-0.8113325238227844,-0.5831547975540161,-0.24067945778369904
1782987660634526200,2.563526123046875,-0.8802043199539185,-0.5009949207305908,-0.3673199415206909
1782987660644600300,2.573600341796875,-0.9195948243141174,-0.36675962805747986,-0.43759891390800476
1782987660654675200,2.58367529296875,-0.9123761057853699,-0.23854652047157288,-0.43581777811050415
1782987660664749300,2.593749267578125,-0.869116485118866,-0.12740029394626617,-0.3507678806781769
1782987660674824400,2.603824462890625,-0.8139805197715759,-0.04627322405576706,-0.18837763369083405
1782987660684899300,2.6138994140625,-0.7577007412910461,-0.03591698780655861,0.013062538579106331
1782987660694973400,2.623973388671875,-0.6933832764625549,-0.1333913505077362,0.20078210532665253
1782987660705048300,2.63404833984375,-0.6125443577766418,-0.3086473047733307,0.3357604146003723
1782987660715123500,2.64412353515625,-0.5153893232345581,-0.48299169540405273,0.3891853094100952
1782987660725197300,2.654197265625,-0.4243371784687042,-0.6151816844940186,0.373731791973114
1782987660735272400,2.6642724609375,-0.3568185865879059,-0.6758530139923096,0.3123709559440613
1782987660745347300,2.674347412109375,-0.3199332654476166,-0.6525626182556152,0.22870855033397675
1782987660755421400,2.68442138671875,-0.30352047085762024,-0.5611591935157776,0.1525368094444275
1782987660765496300,2.694496337890625,-0.3120068907737732,-0.42915108799934387,0.08216091245412827
1782987660775571500,2.704571533203125,-0.3442588448524475,-0.2721225917339325,0.0451219379901886
1782987660785645300,2.714645263671875,-0.3886643946170807,-0.10823086649179459,0.059653475880622864
1782987660795720400,2.724720458984375,-0.42601707577705383,0.015517706982791424,0.12061456590890884
1782987660805795300,2.73479541015625,-0.4491085708141327,0.0740894079208374,0.2050279825925827
1782987660815869400,2.744869384765625,-0.4433601200580597,0.06587595492601395,0.2949906289577484
1782987660825944300,2.7549443359375,-0.42787837982177734,-0.01010669581592083,0.3673958480358124
1782987660836018400,2.765018310546875,-0.40396612882614136,-0.10973048955202103,0.40827563405036926
1782987660846093300,2.77509326171875,-0.3867565095424652,-0.23214562237262726,0.3892231285572052
1782987660856168200,2.785168212890625,-0.3749363124370575,-0.34740057587623596,0.31812071800231934
1782987660866242300,2.7952421875,-0.3606303632259369,-0.41067275404930115,0.21046508848667145
1782987660876317200,2.805317138671875,-0.34185081720352173,-0.4226018488407135,0.09126652777194977
1782987660886392300,2.815392333984375,-0.32483428716659546,-0.4083701968193054,-0.02112952060997486
1782987660896471300,2.82547119140625,-0.31216853857040405,-0.3846544623374939,-0.10799011588096619
1782987660906546200,2.835546142578125,-0.29822850227355957,-0.367196649312973,-0.14490152895450592
1782987660916621300,2.845621337890625,-0.29310378432273865,-0.3644181787967682,-0.1334051936864853
1782987660926695200,2.855695068359375,-0.30881696939468384,-0.37185612320899963,-0.08527574688196182
1782987660936770300,2.865770263671875,-0.33070921897888184,-0.4115137755870819,-0.01666419766843319
1782987660946845000,2.875844970703125,-0.35939517617225647,-0.4608485698699951,0.03579821065068245
1782987660956919300,2.885919189453125,-0.3811185956001282,-0.49984389543533325,0.060686249285936356
1782987660966994000,2.895993896484375,-0.40433230996131897,-0.5038040280342102,0.05600547790527344
1782987660977069000,2.906069091796875,-0.41629016399383545,-0.4562506377696991,0.0443006195127964
1782987660987143000,2.916142822265625,-0.41841617226600647,-0.38241714239120483,0.050524692982435226
1782987660997218000,2.926218017578125,-0.4190627634525299,-0.2723769247531891,0.0806058943271637
1782987661007292200,2.936292236328125,-0.43184995651245117,-0.15365080535411835,0.1308371126651764
1782987661017367000,2.946366943359375,-0.4527682662010193,-0.05217691883444786,0.19139765202999115
1782987661027442200,2.956442138671875,-0.4739246964454651,0.0068208882585167885,0.24024589359760284
1782987661037516000,2.96651611328125,-0.48682478070259094,-0.013036706484854221,0.270289808511734
1782987661047591200,2.976591064453125,-0.4954262673854828,-0.09031312167644501,0.27353566884994507
1782987661057666000,2.986666015625,-0.4878985583782196,-0.19041362404823303,0.25656840205192566
1782987661067740200,2.996740234375,-0.46505555510520935,-0.26506149768829346,0.23458720743656158
1782987661077815000,3.00681494140625,-0.4341197609901428,-0.29290643334388733,0.21921224892139435
1782987661087890200,3.01689013671875,-0.4131561517715454,-0.2732517719268799,0.2131413072347641
1782987661097964000,3.026964111328125,-0.4073113203048706,-0.23648017644882202,0.20105454325675964
1782987661108039200,3.0370390625,-0.4184129536151886,-0.16838128864765167,0.17041833698749542
1782987661118114300,3.0471142578125,-0.43017882108688354,-0.05331142619252205,0.13282489776611328
1782987661128188200,3.057188232421875,-0.44565364718437195,0.06744934618473053,0.0793994814157486
1782987661138263300,3.06726318359375,-0.4567505121231079,0.22842171788215637,0.02569444477558136
1782987661148337200,3.077337158203125,-0.46694427728652954,0.3454436957836151,-0.0260451827198267
1782987661158412300,3.087412353515625,-0.47012144327163696,0.27946174144744873,-0.10893180966377258
1782987661168487200,3.097487060546875,-0.4749537408351898,0.011648932471871376,-0.246717631816864
1782987661178561300,3.107561279296875,-0.49611228704452515,-0.32560738921165466,-0.41303685307502747
1782987661188636200,3.11763623046875,-0.5206692814826965,-0.5469834804534912,-0.5461909174919128
1782987661198711000,3.1277109375,-0.5271575450897217,-0.5829081535339355,-0.6117646098136902
1782987661208785200,3.13778515625,-0.524587869644165,-0.42401838302612305,-0.5796687006950378
1782987661218860000,3.147860107421875,-0.5079202055931091,-0.10363664478063583,-0.43394771218299866
1782987661228935200,3.15793505859375,-0.47296223044395447,0.23428067564964294,-0.19245199859142303
1782987661239009000,3.168009033203125,-0.4456469714641571,0.45260024070739746,0.06136109679937363
1782987661249084200,3.178084228515625,-0.42880356311798096,0.41491755843162537,0.2655946612358093
1782987661259159000,3.188158935546875,-0.4121244549751282,0.17278163135051727,0.3983132839202881
1782987661269233200,3.198233154296875,-0.41539454460144043,-0.14138323068618774,0.4563014805316925
1782987661279308000,3.20830810546875,-0.4468081295490265,-0.41210314631462097,0.4574117660522461
1782987661289382100,3.218382080078125,-0.503516435623169,-0.5180604457855225,0.40014633536338806
1782987661299457000,3.22845703125,-0.5680487751960754,-0.4339061677455902,0.3070840537548065
1782987661309532200,3.2385322265625,-0.6148413419723511,-0.2280435562133789,0.2228914052248001
1782987661319606000,3.24860595703125,-0.6390222907066345,-0.007918110117316246,0.16035158932209015
1782987661329681200,3.25868115234375,-0.6492376327514648,0.08023518323898315,0.11508797109127045
1782987661339756300,3.26875634765625,-0.6368265151977539,0.013865482062101364,0.07649210840463638
1782987661349830100,3.278830078125,-0.5948540568351746,-0.14894473552703857,0.05349757894873619
1782987661359905300,3.2889052734375,-0.5350727438926697,-0.3351244628429413,0.02816665731370449
1782987661369980200,3.298980224609375,-0.4828811585903168,-0.4864063858985901,-0.0013518205378204584
1782987661380054300,3.30905419921875,-0.43441644310951233,-0.5613272190093994,-0.02684093452990055
1782987661390129200,3.319129150390625,-0.38749977946281433,-0.5472233891487122,-0.04339860752224922
1782987661400204300,3.329204345703125,-0.343697726726532,-0.4724043011665344,-0.05481744185090065
1782987661410278100,3.339278076171875,-0.29928818345069885,-0.3818400502204895,-0.06268388777971268
1782987661420353300,3.349353271484375,-0.25357234477996826,-0.2680215835571289,-0.050341732800006866
1782987661430428200,3.35942822265625,-0.23001083731651306,-0.18591181933879852,-0.0006327670416794717
1782987661440502300,3.369502197265625,-0.22678974270820618,-0.17470017075538635,0.058883823454380035
1782987661450577200,3.3795771484375,-0.24080835282802582,-0.21208003163337708,0.11224637925624847
1782987661460651300,3.3896513671875,-0.2569811940193176,-0.2687845826148987,0.1410790979862213
1782987661470726100,3.39972607421875,-0.27373939752578735,-0.3422739803791046,0.13759487867355347
1782987661480801000,3.409801025390625,-0.2811557650566101,-0.40910202264785767,0.11041652411222458
1782987661490875100,3.419875244140625,-0.2735234200954437,-0.4556330442428589,0.06965790688991547
1782987661500950000,3.429949951171875,-0.26215463876724243,-0.4810028374195099,0.05579029396176338
1782987661511025200,3.440025146484375,-0.2478284388780594,-0.48393523693084717,0.060863617807626724
1782987661521099000,3.45009912109375,-0.22742170095443726,-0.4901728928089142,0.07539808750152588
1782987661531174100,3.460174072265625,-0.19372285902500153,-0.5068227052688599,0.08904145658016205
1782987661541249000,3.4702490234375,-0.16416549682617188,-0.5256451368331909,0.09220076352357864
1782987661551323100,3.4803232421875,-0.1399208903312683,-0.5434297323226929,0.09756170958280563
1782987661561398300,3.490398193359375,-0.12252138555049896,-0.5503427386283875,0.10579806566238403
1782987661571473200,3.50047314453125,-0.11277235299348831,-0.5086504220962524,0.1269928365945816
1782987661581547300,3.51054736328125,-0.1258375495672226,-0.43215858936309814,0.16010604798793793
1782987661591622100,3.5206220703125,-0.14765550196170807,-0.3504381775856018,0.19469119608402252
1782987661601696300,3.5306962890625,-0.17764322459697723,-0.2903412878513336,0.2397926151752472
1782987661611771100,3.540771240234375,-0.21390855312347412,-0.26174160838127136,0.28370043635368347
1782987661621846300,3.55084619140625,-0.2528383731842041,-0.2545958161354065,0.3222898840904236
1782987661631920000,3.560920166015625,-0.2833813726902008,-0.2619200348854065,0.35301077365875244
1782987661641995300,3.570995361328125,-0.30065464973449707,-0.2788896858692169,0.37954679131507874
1782987661652070100,3.581070068359375,-0.30834293365478516,-0.28441229462623596,0.4046449661254883
1782987661662144300,3.591144287109375,-0.31176215410232544,-0.27920421957969666,0.4346159100532532
1782987661672219100,3.60121923828125,-0.3183167278766632,-0.2587849497795105,0.46166136860847473
1782987661682294000,3.6112939453125,-0.32487449049949646,-0.19396574795246124,0.4836966395378113
1782987661692368400,3.621368408203125,-0.33205223083496094,-0.11188498884439468,0.4765298068523407
1782987661702443000,3.631443115234375,-0.3263046145439148,-0.04903864860534668,0.45212113857269287
1782987661712518100,3.64151806640625,-0.30147090554237366,-0.002016811864450574,0.4162669777870178
1782987661722592000,3.651592041015625,-0.2658308744430542,0.00788508728146553,0.3636929988861084
1782987661732667100,3.661667236328125,-0.2117023915052414,-0.021035511046648026,0.3118942379951477
1782987661742741000,3.671740966796875,-0.1409669816493988,-0.017558220773935318,0.2844809889793396
1782987661752816000,3.681816162109375,-0.06864297389984131,0.006652043666690588,0.295769602060318
1782987661762891000,3.69189111328125,-0.008189486339688301,-0.008438758552074432,0.32663509249687195
1782987661772965000,3.701965087890625,0.03376595303416252,-0.06003883481025696,0.3565328121185303
1782987661783040000,3.7120400390625,0.07810039073228836,-0.0566243976354599,0.38463395833969116
1782987661793115100,3.722115234375,0.12574781477451324,0.031444743275642395,0.4063113033771515
1782987661803189000,3.73218896484375,0.15873612463474274,0.02929716929793358,0.37190377712249756
1782987661813264100,3.74226416015625,0.1770125925540924,-0.14247804880142212,0.25005829334259033
1782987661823339300,3.75233935546875,0.197495236992836,-0.4562048316001892,0.050025083124637604
1782987661833413000,3.7624130859375,0.22914476692676544,-0.7701270580291748,-0.19258542358875275
1782987661843488300,3.77248828125,0.24171142280101776,-0.8462183475494385,-0.3890835642814636
1782987661853563100,3.782563232421875,0.20601122081279755,-0.6208339929580688,-0.4743230938911438
1782987661863637200,3.79263720703125,0.1453571915626526,-0.20061779022216797,-0.44072145223617554
1782987661873712000,3.802712158203125,0.08834823966026306,0.24923671782016754,-0.31098824739456177
1782987661883786200,3.8127861328125,0.05389705300331116,0.517342209815979,-0.15405774116516113
1782987661893857500,3.822857421875,0.04608600214123726,0.5364381670951843,0.00018349179299548268
1782987661903932400,3.832932373046875,0.05127623677253723,0.41158327460289,0.1267920285463333
1782987661914006500,3.843006591796875,0.05462569370865822,0.22947606444358826,0.2230575829744339
1782987661924081400,3.853081298828125,0.05148822441697121,0.07211706787347794,0.2660655081272125
1782987661934156500,3.863156494140625,0.0563327819108963,0.02954058162868023,0.2595173120498657
1782987661944230400,3.87323046875,0.08953094482421875,0.10057613998651505,0.21482069790363312
1782987661954305500,3.883305419921875,0.14430151879787445,0.2074248343706131,0.15429262816905975
1782987661964380200,3.893380126953125,0.17630313336849213,0.27528777718544006,0.07754193246364594
1782987661974454500,3.90345458984375,0.18641941249370575,0.2753508687019348,0.005049353465437889
1782987661984529200,3.913529052734375,0.17615026235580444,0.21158787608146667,-0.04903465509414673
1782987661994604300,3.923604248046875,0.16170580685138702,0.13334713876247406,-0.07165660709142685
1782987662004678100,3.93367822265625,0.12342126667499542,0.053884536027908325,-0.08017420023679733
1782987662014753300,3.943753173828125,0.0619342066347599,-0.014573615975677967,-0.08597163110971451
1782987662024827100,3.9538271484375,0.0022831279784440994,-0.08176703751087189,-0.09757289290428162
1782987662034902300,3.96390234375,-0.0388328842818737,-0.11871945858001709,-0.12329982966184616
1782987662044977400,3.973977294921875,-0.05095985159277916,-0.14156538248062134,-0.16793814301490784
1782987662055051300,3.98405126953125,-0.04812704771757126,-0.15651291608810425,-0.22524377703666687
1782987662065126400,3.99412646484375,-0.030356574803590775,-0.1308072805404663,-0.2772182822227478
1782987662075201300,4.004201171875,-0.0028003137558698654,-0.04620637744665146,-0.2971382141113281
1782987662085275400,4.014275390625,0.024346617981791496,0.07602632790803909,-0.2765487730503082
1782987662095350300,4.024350341796875,0.054600395262241364,0.17482587695121765,-0.2157227098941803
1782987662105425400,4.03442529296875,0.08272363990545273,0.22408822178840637,-0.12477175891399384
1782987662115499300,4.044499267578125,0.11377157270908356,0.2242317646741867,-0.013078517280519009
1782987662125574400,4.054574462890625,0.13417725265026093,0.18174023926258087,0.07726815342903137
1782987662135648300,4.064648193359375,0.1372518688440323,0.1155681386590004,0.13003548979759216
1782987662145723400,4.074723388671875,0.13161049783229828,0.06091581657528877,0.14298218488693237
1782987662155798500,4.084798583984375,0.11220510303974152,0.03792394697666168,0.11066659539937973
1782987662165872400,4.094872314453125,0.08242989331483841,0.04872439429163933,0.04313308745622635
1782987662175947500,4.104947509765625,0.055981509387493134,0.06630019098520279,-0.04123958200216293
1782987662186022400,4.1150224609375,0.04073890671133995,0.08493006974458694,-0.13032685220241547
1782987662196096500,4.125096435546875,0.034143056720495224,0.0977364107966423,-0.20503783226013184
1782987662206171400,4.13517138671875,0.034627217799425125,0.11050760000944138,-0.2634260356426239
1782987662216246300,4.145246337890625,0.03627172112464905,0.09901819378137589,-0.29628464579582214
1782987662226320400,4.1553203125,0.04813610389828682,0.062005847692489624,-0.30174705386161804
1782987662236395300,4.165395263671875,0.06962434947490692,0.0281517431139946,-0.27688857913017273
1782987662246470400,4.175470458984375,0.09788928180932999,0.01095677725970745,-0.22454603016376495
1782987662256544300,4.185544189453125,0.10981917381286621,-0.0030567762441933155,-0.15400634706020355
1782987662266619400,4.195619384765625,0.10722126066684723,-0.032766733318567276,-0.08012013882398605
1782987662276693200,4.205693359375,0.11291030794382095,-0.034573689103126526,0.00711676524952054
1782987662286768400,4.215768310546875,0.11858177185058594,0.0032261533197015524,0.09007582813501358
1782987662296843300,4.22584326171875,0.11670371145009995,0.03760702908039093,0.1508108228445053
1782987662306917400,4.23591748046875,0.10584627091884613,0.03858334571123123,0.1758732944726944
1782987662316992300,4.2459921875,0.09035945683717728,0.01293124444782734,0.1733158528804779
1782987662327067400,4.2560673828125,0.06388497352600098,-0.0029465213883668184,0.15612807869911194
1782987662337141200,4.266141357421875,0.038661640137434006,-0.01366148330271244,0.13622814416885376
1782987662347216400,4.27621630859375,0.0023086944129318,-0.010479272343218327,0.116317018866539
1782987662357291500,4.28629150390625,-0.03743099421262741,0.02370692789554596,0.09639551490545273
1782987662367365400,4.296365478515625,-0.0637211874127388,0.07611261308193207,0.0809667557477951
1782987662377440500,4.3064404296875,-0.07862743735313416,0.13348110020160675,0.06492200493812561
1782987662387515400,4.316515380859375,-0.09114615619182587,0.19183148443698883,0.05341582000255585
1782987662397589500,4.326589599609375,-0.09457630664110184,0.2308284193277359,0.04009628668427467
1782987662407664400,4.336664306640625,-0.09624477475881577,0.21198949217796326,0.01642344892024994
1782987662417738500,4.346738525390625,-0.09666688740253448,0.1930842399597168,-0.01432114839553833
1782987662427813400,4.3568134765625,-0.09462451189756393,0.17674307525157928,-0.032884180545806885
1782987662437888300,4.36688818359375,-0.0748225748538971,0.15519917011260986,-0.03374118730425835
1782987662447962400,4.37696240234375,-0.04813770204782486,0.15822185575962067,-0.0012389025650918484
1782987662458037500,4.38703759765625,-0.013373329304158688,0.18292666971683502,0.05578789860010147
1782987662468112400,4.3971123046875,0.02821512706577778,0.23316560685634613,0.12985838949680328
1782987662478186500,4.4071865234375,0.06737025082111359,0.33718547224998474,0.21259988844394684
1782987662488261400,4.417261474609375,0.10632244497537613,0.5020031929016113,0.29298314452171326
1782987662498336300,4.427336181640625,0.1443513184785843,0.5100334286689758,0.3471590280532837
1782987662508410400,4.437410400390625,0.1905723512172699,0.27075478434562683,0.3403618335723877
1782987662518485200,4.4474853515625,0.23069553077220917,-0.09128330647945404,0.2669491469860077
1782987662528560400,4.457560302734375,0.23955480754375458,-0.4423808753490448,0.16022242605686188
1782987662538634200,4.46763427734375,0.1901632845401764,-0.6914018988609314,0.04960164055228233
1782987662548709400,4.47770947265625,0.10517702251672745,-0.7442858815193176,-0.04611369967460632
1782987662558783200,4.487783203125,0.017787253484129906,-0.562391996383667,-0.0988384261727333
1782987662568858400,4.4978583984375,-0.03972823917865753,-0.18292774260044098,-0.07805033028125763
1782987662578933500,4.50793359375,-0.05805424973368645,0.274323433637619,0.015665512531995773
1782987662589007400,4.51800732421875,-0.04876008257269859,0.6309217810630798,0.15773184597492218
1782987662599082500,4.52808251953125,-0.01870790682733059,0.7299993634223938,0.2864637076854706
1782987662609157400,4.538157470703125,0.02429974637925625,0.6071320176124573,0.3797007203102112
1782987662619231500,4.5482314453125,0.0678781196475029,0.39652711153030396,0.43640023469924927
1782987662629306400,4.558306396484375,0.09717582166194916,0.19020509719848633,0.4478744566440582
1782987662639381500,4.568381591796875,0.11301683634519577,0.04759068787097931,0.4030955135822296
1782987662649455400,4.578455322265625,0.13125894963741302,-0.036735910922288895,0.3037540316581726
1782987662659530500,4.588530517578125,0.15399515628814697,-0.06060395762324333,0.1614789068698883
1782987662669604400,4.598604248046875,0.1891251802444458,-0.08960098773241043,-0.016998691484332085
1782987662679679500,4.608679443359375,0.21762846410274506,-0.15093065798282623,-0.19293829798698425
1782987662689754400,4.61875439453125,0.24217535555362701,-0.21812966465950012,-0.3318871259689331
1782987662699828500,4.628828369140625,0.25649383664131165,-0.24484144151210785,-0.4201778471469879
1782987662709903400,4.6389033203125,0.24247948825359344,-0.25566932559013367,-0.4626712501049042
1782987662719978200,4.648978271484375,0.19967342913150787,-0.22626934945583344,-0.4636182487010956
1782987662730052400,4.65905224609375,0.1530928760766983,-0.16019925475120544,-0.43798986077308655
1782987662740127200,4.669127197265625,0.11058802902698517,-0.09655077755451202,-0.39427220821380615
1782987662750202400,4.679202392578125,0.08679428696632385,-0.03534014895558357,-0.338954359292984
1782987662760276200,4.689276123046875,0.07765085250139236,0.016409600153565407,-0.2651163637638092
1782987662770351400,4.699351318359375,0.08832134306430817,0.06215152144432068,-0.16936984658241272
1782987662780426200,4.70942626953125,0.11381497979164124,0.08680706471204758,-0.06840541958808899
1782987662790500400,4.719500244140625,0.14409485459327698,0.09514223039150238,0.02719167433679104
1782987662800575200,4.7295751953125,0.1778663992881775,0.09160448610782623,0.09129555523395538
1782987662810649300,4.7396494140625,0.1948680281639099,0.07279378175735474,0.13017530739307404
1782987662820724200,4.74972412109375,0.19428080320358276,0.04772437736392021,0.13029515743255615
1782987662830799400,4.75979931640625,0.17835669219493866,0.014472948387265205,0.09475474059581757
1782987662840873200,4.769873291015625,0.15379568934440613,-0.02810913324356079,0.04282123222947121
1782987662850948400,4.7799482421875,0.13204218447208405,-0.08017739653587341,-0.024477379396557808
1782987662861023500,4.7900234375,0.11013742536306381,-0.14194434881210327,-0.09062390774488449
1782987662871097300,4.800097412109375,0.08913040906190872,-0.16987799108028412,-0.13014042377471924
1782987662881172500,4.81017236328125,0.05657219886779785,-0.1426120102405548,-0.14935512840747833
1782987662891247400,4.820247314453125,0.02178412489593029,-0.12376854568719864,-0.15767325460910797
1782987662901321000,4.830321044921875,-0.0111607750877738,-0.11834342032670975,-0.1552915871143341
1782987662911396000,4.84039599609375,-0.04284999519586563,-0.10576876997947693,-0.13919277489185333
1782987662921470000,4.850469970703125,-0.07730384171009064,-0.1054832860827446,-0.1162152886390686
1782987662931545000,4.860545166015625,-0.10432427376508713,-0.1231890395283699,-0.10079239308834076
1782987662941620000,4.870619873046875,-0.12304709851741791,-0.13569578528404236,-0.08584779500961304
1782987662951694000,4.880694091796875,-0.13790886104106903,-0.1308397650718689,-0.0729527696967125
1782987662961769200,4.890769287109375,-0.15376080572605133,-0.12577763199806213,-0.06409163773059845
1782987662971843800,4.90084375,-0.174466073513031,-0.11280670762062073,-0.03848933428525925
1782987662981918200,4.910918212890625,-0.19299688935279846,-0.1277393251657486,-0.01576831005513668
1782987662991992800,4.920992919921875,-0.2099979668855667,-0.18207712471485138,-0.008027033880352974
1782987663002068000,4.93106787109375,-0.22192546725273132,-0.24615678191184998,-0.0005576659459620714
1782987663012141800,4.941141845703125,-0.2418629676103592,-0.28395876288414,-0.008743157610297203
1782987663022217000,4.951217041015625,-0.2701907455921173,-0.29377782344818115,-0.022047512233257294
1782987663032291800,4.961291748046875,-0.30236145853996277,-0.2860269546508789,-0.03971785306930542
1782987663042366000,4.971365966796875,-0.3372073173522949,-0.24583293497562408,-0.04147526994347572
1782987663052440800,4.98144091796875,-0.3674778640270233,-0.1993434578180313,-0.017894046381115913
1782987663062515000,4.991514892578125,-0.38280224800109863,-0.1270066797733307,0.054781224578619
1782987663072589800,5.00158984375,-0.3945600986480713,0.017366206273436546,0.14915673434734344
1782987663082665000,5.0116650390625,-0.3927376866340637,0.16718553006649017,0.25294649600982666
1782987663092738800,5.02173876953125,-0.37272003293037415,0.1165362000465393,0.3150314390659332
1782987663102814000,5.03181396484375,-0.34318798780441284,-0.16278837621212006,0.3037841320037842
1782987663112889000,5.04188916015625,-0.33284613490104675,-0.4795128107070923,0.21440443396568298
1782987663122963000,5.051962890625,-0.34095627069473267,-0.6301223039627075,0.09569936245679855
1782987663133038000,5.0620380859375,-0.3722822070121765,-0.5654442310333252,-0.03283624351024628
1782987663143113000,5.072113037109375,-0.42643865942955017,-0.3961223065853119,-0.160438671708107
1782987663153187000,5.08218701171875,-0.4731060266494751,-0.26112693548202515,-0.2597109377384186
1782987663163262000,5.092261962890625,-0.5144249796867371,-0.19034411013126373,-0.3129451274871826
1782987663173336000,5.102336181640625,-0.5506559610366821,-0.171456977725029,-0.308810830116272
1782987663183411000,5.112410888671875,-0.5736624598503113,-0.16747048497200012,-0.25789758563041687
1782987663193486000,5.122486083984375,-0.5818482041358948,-0.13403236865997314,-0.1667192131280899
1782987663203560000,5.132559814453125,-0.5814695358276367,-0.08014064282178879,-0.05226613208651543
1782987663213635000,5.142635009765625,-0.5743468999862671,-0.057312291115522385,0.06863392144441605
1782987663223710000,5.1527099609375,-0.5663861632347107,-0.09964296966791153,0.1663258671760559
1782987663233784000,5.1627841796875,-0.5448697209358215,-0.19725234806537628,0.21935471892356873
1782987663243859000,5.17285888671875,-0.5167784094810486,-0.3277246057987213,0.2081018090248108
1782987663253933800,5.182933837890625,-0.47725364565849304,-0.4311007857322693,0.14729411900043488
1782987663264008000,5.193008056640625,-0.43884286284446716,-0.4634243845939636,0.060750965029001236
1782987663274082800,5.203082763671875,-0.4181748628616333,-0.421856164932251,-0.03268763795495033
1782987663284157000,5.213156982421875,-0.4205016791820526,-0.3576614558696747,-0.10937149822711945
1782987663294231800,5.223231689453125,-0.4461252987384796,-0.27624276280403137,-0.1714271456003189
1782987663304307000,5.233306884765625,-0.4809280037879944,-0.2042037397623062,-0.19642330706119537
1782987663314380800,5.243380859375,-0.5145120620727539,-0.07768174260854721,-0.17074936628341675
1782987663324456000,5.2534560546875,-0.5495283603668213,0.061406370252370834,-0.10260387510061264
1782987663334531000,5.263531005859375,-0.567402720451355,0.15416426956653595,-0.0014197311829775572
1782987663344605000,5.27360498046875,-0.551712691783905,0.1731904298067093,0.09274964779615402
1782987663354680000,5.28368017578125,-0.5129575729370117,0.1336640566587448,0.1615084707736969
1782987663364755000,5.2937548828125,-0.4633396863937378,0.08112841099500656,0.20283514261245728
1782987663374829000,5.3038291015625,-0.4237283766269684,0.02617887407541275,0.21683776378631592
1782987663384904000,5.313904052734375,-0.39095842838287354,-0.03251107037067413,0.1993677020072937
1782987663394979000,5.32397900390625,-0.3637388050556183,-0.11515561491250992,0.1607249677181244
1782987663405053000,5.334052978515625,-0.3455648422241211,-0.17316006124019623,0.10133034735918045
1782987663415128000,5.344128173828125,-0.3367372751235962,-0.21392986178398132,0.014694790355861187
1782987663425202000,5.354201904296875,-0.33200138807296753,-0.24160116910934448,-0.08826994150876999
1782987663435277000,5.364277099609375,-0.32079797983169556,-0.2426920086145401,-0.19970592856407166
1782987663445352200,5.374352294921875,-0.3057207763195038,-0.213804692029953,-0.2974037230014801
1782987663455426000,5.384426025390625,-0.2980383634567261,-0.1652051955461502,-0.3619243800640106
1782987663465501200,5.394501220703125,-0.30042481422424316,-0.11983559280633926,-0.39575693011283875
1782987663475575800,5.404575927734375,-0.3094366788864136,-0.12107609212398529,-0.40394720435142517
1782987663485650200,5.414650146484375,-0.3147518038749695,-0.13994085788726807,-0.374927818775177
1782987663495724800,5.424724853515625,-0.3197476267814636,-0.13894642889499664,-0.31592121720314026
1782987663505799200,5.434799072265625,-0.31199705600738525,-0.09072457998991013,-0.23621518909931183
1782987663515873800,5.444873779296875,-0.2918339967727661,-0.015632489696145058,-0.15782877802848816
1782987663525949000,5.454948974609375,-0.25574949383735657,0.056469667702913284,-0.09119755029678345
1782987663536022800,5.465022705078125,-0.21040676534175873,0.09475526958703995,-0.03803340345621109
1782987663546098000,5.475097900390625,-0.15637709200382233,0.09322208911180496,-0.003459712490439415
1782987663556173000,5.485173095703125,-0.10187576711177826,0.08831334859132767,0.033665020018815994
1782987663566247000,5.495246826171875,-0.05783853307366371,0.08105224370956421,0.07461778074502945
1782987663576322000,5.505322021484375,-0.01973056234419346,0.04904583841562271,0.10537116229534149
1782987663586397000,5.51539697265625,0.009561280719935894,0.0265988539904356,0.14184901118278503
1782987663596471000,5.525470947265625,0.025378860533237457,0.045649778097867966,0.17142660915851593
1782987663606546000,5.5355458984375,0.017315341159701347,0.07473788410425186,0.18732115626335144
1782987663616621000,5.54562109375,0.0005036037764512002,0.08069990575313568,0.17918333411216736
1782987663626695000,5.55569482421875,-0.01763678342103958,0.08525950461626053,0.15458504855632782
1782987663636770000,5.56577001953125,-0.03453480824828148,0.10527129471302032,0.12894999980926514
1782987663646844000,5.575843994140625,-0.05074280500411987,0.09898170828819275,0.08751732856035233
1782987663656919000,5.5859189453125,-0.058459579944610596,0.05880925431847572,0.05160939693450928
1782987663666994200,5.595994140625,-0.05622279271483421,0.002555835759267211,0.0384611040353775
1782987663677068000,5.606068115234375,-0.05106770992279053,-0.0431344211101532,0.0369577519595623
1782987663687143200,5.61614306640625,-0.04596509411931038,-0.07943570613861084,0.045157093554735184
1782987663697218000,5.626218017578125,-0.023509319871664047,-0.1025649905204773,0.06821580231189728
1782987663707292200,5.636292236328125,0.0005464806454256177,-0.0830533429980278,0.11444881558418274
1782987663717367000,5.646366943359375,0.011977567337453365,-0.021222997456789017,0.16491492092609406
1782987663727442000,5.65644189453125,0.014701448380947113,0.08621104806661606,0.20562240481376648
1782987663737516000,5.66651611328125,0.005664810072630644,0.2998836636543274,0.22473697364330292
1782987663747591000,5.6765908203125,0.012713397853076458,0.4149377942085266,0.2185983806848526
1782987663757665000,5.6866650390625,0.03987870737910271,0.24799542129039764,0.1474970430135727
1782987663767740000,5.696739990234375,0.07927138358354568,-0.021079452708363533,0.012270781211555004
1782987663777815000,5.70681494140625,0.11016112565994263,-0.22531408071517944,-0.13160303235054016
1782987663787889000,5.716888916015625,0.10429152101278305,-0.24227042496204376,-0.2569798529148102
1782987663797964000,5.726964111328125,0.08137661218643188,-0.10323237627744675,-0.31804320216178894
1782987663808039000,5.737038818359375,0.06370121240615845,0.04519836977124214,-0.32486358284950256
1782987663818113000,5.747113037109375,0.054978564381599426,0.12184175103902817,-0.27608537673950195
1782987663828188000,5.75718798828125,0.041367415338754654,0.10485237836837769,-0.19329968094825745
1782987663838263000,5.767262939453125,0.03170546516776085,0.07665003836154938,-0.08914639055728912
1782987663848337000,5.7773369140625,0.03459419682621956,0.13376446068286896,0.03507143259048462
1782987663858412000,5.787412109375,0.03855511546134949,0.28591030836105347,0.17006920278072357
1782987663868486000,5.79748583984375,0.030345922335982323,0.44628214836120605,0.3031976819038391
1782987663878561000,5.80756103515625,0.008010522462427616,0.5542373657226562,0.4084833562374115
1782987663888636000,5.817635986328125,0.0018905780743807554,0.5509930849075317,0.4784073233604431
1782987663898709200,5.827709228515625,0.023492276668548584,0.41955387592315674,0.49935150146484375
1782987663908784400,5.837784423828125,0.07568331062793732,0.19350768625736237,0.4684827923774719
1782987663918859300,5.847859375,0.146183043718338,-0.025114674121141434,0.39704430103302
1782987663928933400,5.857933349609375,0.2168833166360855,-0.20841152966022491,0.2873356342315674
1782987663939008500,5.868008544921875,0.2665901482105255,-0.32592830061912537,0.1430751383304596
1782987663949083400,5.87808349609375,0.3011350631713867,-0.38016971945762634,-0.013272661715745926
1782987663959157500,5.888157470703125,0.3232235908508301,-0.37241536378860474,-0.1424628645181656
1782987663969232400,5.898232421875,0.32188403606414795,-0.3280694782733917,-0.22107352316379547
1782987663979306500,5.908306396484375,0.29933902621269226,-0.2799605429172516,-0.24655865132808685
1782987663989381400,5.91838134765625,0.2649930417537689,-0.2502809464931488,-0.230202317237854
1782987663999456500,5.92845654296875,0.21996138989925385,-0.24160224199295044,-0.1824750006198883
1782987664009530400,5.9385302734375,0.16810645163059235,-0.2376548945903778,-0.11061573028564453
1782987664019605500,5.94860546875,0.1180557981133461,-0.19677670300006866,-0.028005002066493034
1782987664029680000,5.95868017578125,0.07757921516895294,-0.12928315997123718,0.059528838843107224
1782987664039754500,5.96875439453125,0.04482739418745041,-0.06888186186552048,0.12725648283958435
1782987664049828400,5.978828369140625,0.02780739590525627,-0.0364869050681591,0.17529192566871643
1782987664059903500,5.988903564453125,0.021583322435617447,-0.04128805175423622,0.1921454668045044
1782987664069977300,5.998977294921875,0.010926683433353901,-0.08386188000440598,0.1804342269897461
1782987664080052500,6.009052490234375,-0.0075785573571920395,-0.1194092184305191,0.15534645318984985
1782987664090126300,6.019126220703125,-0.039740223437547684,-0.15489263832569122,0.11997780203819275
1782987664100201500,6.029201416015625,-0.08291805535554886,-0.1814182549715042,0.09297281503677368
1782987664110276400,6.0392763671875,-0.12680001556873322,-0.1943415105342865,0.06713056564331055
1782987664120350500,6.0493505859375,-0.17528553307056427,-0.20045161247253418,0.043295808136463165
1782987664130425300,6.05942529296875,-0.23040232062339783,-0.2123117297887802,0.01458826381713152
1782987664140500200,6.069500244140625,-0.28155258297920227,-0.23614728450775146,-0.020657341927289963
1782987664150574300,6.07957421875,-0.3248710334300995,-0.26790520548820496,-0.04844769462943077
1782987664160649200,6.089649169921875,-0.3571871519088745,-0.2861819565296173,-0.06738090515136719
1782987664170724400,6.099724365234375,-0.3782636821269989,-0.2928864657878876,-0.08195958286523819
1782987664180798200,6.109798095703125,-0.38273167610168457,-0.29872438311576843,-0.09286868572235107
1782987664190873300,6.119873291015625,-0.3758564591407776,-0.2847193479537964,-0.09447457641363144
1782987664200947200,6.129947265625,-0.37664395570755005,-0.24958080053329468,-0.09027263522148132
1782987664211022300,6.140022216796875,-0.3978797197341919,-0.21778558194637299,-0.08626990765333176
1782987664221097500,6.150097412109375,-0.43641406297683716,-0.22467492520809174,-0.0916295200586319
1782987664231171300,6.16017138671875,-0.4719741940498352,-0.2581881284713745,-0.10786095261573792
1782987664241246500,6.17024658203125,-0.4903334975242615,-0.27306056022644043,-0.1171729639172554
1782987664251321300,6.1803212890625,-0.5013099908828735,-0.271448016166687,-0.11062505096197128
1782987664261395500,6.1903955078125,-0.5169299244880676,-0.26525962352752686,-0.10260866582393646
1782987664271470300,6.20047021484375,-0.5251724123954773,-0.26597654819488525,-0.09194856882095337
1782987664281545500,6.21054541015625,-0.5244964957237244,-0.26021507382392883,-0.07827723026275635
1782987664291619300,6.220619384765625,-0.5162918567657471,-0.2631368339061737,-0.05679803341627121
1782987664301694500,6.230694580078125,-0.5096832513809204,-0.2784065902233124,-0.021953502669930458
1782987664311768300,6.240768310546875,-0.5123674273490906,-0.2988828420639038,0.013378921896219254
1782987664321843500,6.250843505859375,-0.5127394795417786,-0.334096223115921,0.04318102449178696
1782987664331918600,6.260918701171875,-0.515405535697937,-0.3523194193840027,0.06970557570457458
1782987664341992400,6.270992431640625,-0.5188543796539307,-0.3324250876903534,0.09344739466905594
1782987664352067600,6.281067626953125,-0.528174877166748,-0.29315412044525146,0.11709120124578476
1782987664362142200,6.29114208984375,-0.5491954684257507,-0.26268303394317627,0.1389259248971939
1782987664372216600,6.301216552734375,-0.5666514039039612,-0.28636226058006287,0.1508752703666687
1782987664382291200,6.311291259765625,-0.572333037853241,-0.35178786516189575,0.1433909833431244
1782987664392366300,6.321366455078125,-0.5813062787055969,-0.43382522463798523,0.10642684251070023
1782987664402440200,6.331440185546875,-0.6127137541770935,-0.6405948996543884,-0.004338821861892939
1782987664412515300,6.341515380859375,-0.6645510792732239,-0.9728639125823975,-0.19287757575511932
1782987664422589200,6.351589111328125,-0.7418555021286011,-1.1562340259552002,-0.4164861738681793
1782987664432664300,6.361664306640625,-0.8236035704612732,-1.0170199871063232,-0.5987462401390076
1782987664442739200,6.3717392578125,-0.8934463262557983,-0.6484770774841309,-0.6897110342979431
1782987664452813300,6.381813232421875,-0.9400106072425842,-0.21751980483531952,-0.6699227094650269
1782987664462888400,6.391888427734375,-0.9588029384613037,0.1191631406545639,-0.5458265542984009
1782987664472963300,6.40196337890625,-0.9521788954734802,0.25086045265197754,-0.3382507562637329
1782987664483037400,6.412037353515625,-0.9145231246948242,0.17101942002773285,-0.10232716798782349
1782987664493112300,6.4221123046875,-0.8547838926315308,-0.04932760074734688,0.13110022246837616
1782987664503187500,6.4321875,-0.804188072681427,-0.3175577223300934,0.3378957509994507
1782987664513261300,6.44226123046875,-0.7680932283401489,-0.4890671670436859,0.49223604798316956
1782987664523336400,6.45233642578125,-0.7459455728530884,-0.553504467010498,0.5738699436187744
1782987664533410300,6.462410400390625,-0.727069079875946,-0.6011391282081604,0.5625906586647034
1782987664543485400,6.4724853515625,-0.7154020071029663,-0.6483764052391052,0.4802635610103607
1782987664553560300,6.482560302734375,-0.7291202545166016,-0.6885136961936951,0.35728996992111206
1782987664563634400,6.492634521484375,-0.7697989344596863,-0.6991308927536011,0.22684726119041443
1782987664573709300,6.502709228515625,-0.8362025022506714,-0.6877975463867188,0.10304835438728333
1782987664583784400,6.512784423828125,-0.912371039390564,-0.6366419792175293,0.009827863425016403
1782987664593858300,6.5228583984375,-0.9802746772766113,-0.537737250328064,-0.039197202771902084
1782987664603933400,6.532933349609375,-1.0398067235946655,-0.42594704031944275,-0.045225001871585846
1782987664614007600,6.543007568359375,-1.0815027952194214,-0.32249921560287476,-0.027038542553782463
1782987664624082400,6.55308251953125,-1.0976455211639404,-0.2242877036333084,0.022346584126353264
1782987664634157300,6.5631572265625,-1.0831867456436157,-0.11917219310998917,0.0958213359117508
1782987664644231400,6.5732314453125,-1.0459452867507935,-0.05578044056892395,0.1692657172679901
1782987664654306300,6.583306396484375,-0.9933817386627197,-0.07569902390241623,0.22491513192653656
1782987664664381200,6.593381103515625,-0.9368952512741089,-0.12453633546829224,0.2573758661746979
1782987664674455300,6.603455322265625,-0.8796668648719788,-0.19628216326236725,0.2510170340538025
1782987664684530200,6.6135302734375,-0.8213692307472229,-0.2731196880340576,0.22394974529743195
1782987664694605300,6.623605224609375,-0.7661097049713135,-0.31709912419319153,0.18055672943592072
1782987664704679200,6.63367919921875,-0.7205808162689209,-0.3581019639968872,0.1278117597103119
1782987664714754300,6.64375439453125,-0.6924943327903748,-0.41547682881355286,0.07628518342971802
1782987664724828200,6.653828125,-0.6741776466369629,-0.49535301327705383,0.028774656355381012
1782987664734903300,6.6639033203125,-0.6705714464187622,-0.5693159103393555,-0.008626244962215424
1782987664744978400,6.673978515625,-0.6770730018615723,-0.616720974445343,-0.033434122800827026
1782987664755052300,6.68405224609375,-0.6917678117752075,-0.6388809084892273,-0.04440581426024437
1782987664765127400,6.69412744140625,-0.7096812725067139,-0.6197508573532104,-0.04459596425294876
1782987664775202300,6.704202392578125,-0.7203195691108704,-0.5680610537528992,-0.0358797051012516
1782987664785276400,6.7142763671875,-0.7302368879318237,-0.5203467607498169,-0.03213263675570488
1782987664795351300,6.724351318359375,-0.7417875528335571,-0.47223252058029175,-0.02263473905622959
1782987664805426400,6.734426513671875,-0.7578371167182922,-0.4180430471897125,-0.01575978845357895
1782987664815500300,6.744500244140625,-0.7705712914466858,-0.36668264865875244,0.004172108136117458
1782987664825575400,6.754575439453125,-0.7718650102615356,-0.3331556022167206,0.034023214131593704
1782987664835649300,6.764649169921875,-0.7754022479057312,-0.3142324984073639,0.06746133416891098
1782987664845724400,6.774724365234375,-0.7753713726997375,-0.3188091516494751,0.09655343741178513
1782987664855799600,6.784799560546875,-0.7758837342262268,-0.3352874517440796,0.1130935326218605
1782987664865873400,6.794873291015625,-0.7741849422454834,-0.34935641288757324,0.11269991844892502
1782987664875948500,6.804948486328125,-0.7588549852371216,-0.339435338973999,0.09613905102014542
1782987664886023200,6.815023193359375,-0.734924852848053,-0.3027217984199524,0.07469234615564346
1782987664896097500,6.82509765625,-0.7039480209350586,-0.26898565888404846,0.05102110654115677
1782987664906173000,6.8351728515625,-0.6747531294822693,-0.23947010934352875,0.0375516377389431
1782987664916248000,6.845248046875,-0.6449105739593506,-0.23080098628997803,0.04478504881262779
1782987664926322000,6.855322021484375,-0.6119387745857239,-0.2529885768890381,0.07017482817173004
1782987664936397000,6.86539697265625,-0.5822530388832092,-0.2787224352359772,0.12132376432418823
1782987664946471000,6.875470947265625,-0.5617416501045227,-0.28477129340171814,0.17063379287719727
1782987664956546000,6.885546142578125,-0.5496503710746765,-0.2951701283454895,0.21012340486049652
1782987664966621000,6.895620849609375,-0.5399910807609558,-0.2866549491882324,0.22260138392448425
1782987664976695000,6.905695068359375,-0.5260329246520996,-0.2563822567462921,0.21318364143371582
1782987664986770000,6.91577001953125,-0.5166593790054321,-0.1757686287164688,0.18796004354953766
1782987664996845000,6.925844970703125,-0.5041456818580627,-0.08380941301584244,0.1818781942129135
1782987665006919000,6.9359189453125,-0.49259504675865173,-0.0444209948182106,0.1828307956457138
1782987665016994000,6.945994140625,-0.4864221215248108,-0.07855739444494247,0.1572229117155075
1782987665027069200,6.956069091796875,-0.48193681240081787,-0.27846863865852356,0.07370937615633011
1782987665037143000,6.96614306640625,-0.47856390476226807,-0.5973478555679321,-0.07091838121414185
1782987665047218200,6.97621826171875,-0.5007339119911194,-0.8553090691566467,-0.23116637766361237
1782987665057292000,6.9862919921875,-0.5544650554656982,-0.935451865196228,-0.3539833724498749
1782987665067367200,6.9963671875,-0.6264950633049011,-0.8163110613822937,-0.4113752841949463
1782987665077442000,7.006442138671875,-0.6868857145309448,-0.5864962339401245,-0.3792407810688019
1782987665087516200,7.01651611328125,-0.730284571647644,-0.2677094638347626,-0.24220038950443268
1782987665097591000,7.026591064453125,-0.758301854133606,0.028720062226057053,-0.026646524667739868
1782987665107666000,7.036666015625,-0.7733244299888611,0.19410715997219086,0.2129724621772766
1782987665117740000,7.046739990234375,-0.7616267800331116,0.1959327608346939,0.42837265133857727
1782987665127815000,7.05681494140625,-0.7246948480606079,0.10025922954082489,0.6007494926452637
1782987665137890000,7.06689013671875,-0.6768735647201538,-0.030587470158934593,0.7124837636947632
1782987665147964000,7.0769638671875,-0.631960928440094,-0.1749987155199051,0.7463692426681519
1782987665158039000,7.0870390625,-0.5996402502059937,-0.32399725914001465,0.7196812033653259
1782987665168113000,7.09711279296875,-0.5758848786354065,-0.48710760474205017,0.6456839442253113
1782987665178188000,7.10718798828125,-0.5616966485977173,-0.6452000141143799,0.529745876789093
1782987665188263000,7.117262939453125,-0.5715359449386597,-0.7877446413040161,0.38698339462280273
1782987665198337000,7.1273369140625,-0.6108196973800659,-0.8930777311325073,0.22825872898101807
1782987665208412000,7.137411865234375,-0.6759709715843201,-0.9352616667747498,0.0934511199593544
1782987665218487000,7.147487060546875,-0.7698184251785278,-0.9104855060577393,-0.00947818998247385
1782987665228561000,7.157560791015625,-0.8657510280609131,-0.8287197947502136,-0.07782954722642899
1782987665238636000,7.167635986328125,-0.9479793310165405,-0.7187173962593079,-0.09869968146085739
1782987665248710000,7.1777099609375,-0.9976387619972229,-0.582344651222229,-0.07322680950164795
1782987665258785000,7.187784912109375,-1.0090019702911377,-0.4609313905239105,0.0020032296888530254
1782987665268860200,7.197860107421875,-0.9829895496368408,-0.39326953887939453,0.1011793464422226
1782987665278934000,7.20793408203125,-0.9258031845092773,-0.4189317524433136,0.20039968192577362
1782987665289009200,7.218009033203125,-0.8503816723823547,-0.5320202112197876,0.3012743592262268
1782987665299084000,7.228083984375,-0.7743332386016846,-0.671699583530426,0.39303624629974365
1782987665309158100,7.238158203125,-0.7281575202941895,-0.7917620539665222,0.4533317983150482
1782987665319233000,7.24823291015625,-0.7020566463470459,-0.8458143472671509,0.4732096195220947
1782987665329308200,7.25830810546875,-0.696068525314331,-0.8126375079154968,0.4468323588371277
1782987665339382000,7.268382080078125,-0.7016089558601379,-0.735515296459198,0.3995274305343628
1782987665349457200,7.27845703125,-0.7203161120414734,-0.6701669096946716,0.32526010274887085
1782987665359531000,7.288531005859375,-0.7434629797935486,-0.6616543531417847,0.24396845698356628
1782987665369606100,7.298606201171875,-0.7626297473907471,-0.6902498006820679,0.17412838339805603
1782987665379680800,7.3086806640625,-0.7870200276374817,-0.7331653237342834,0.13268454372882843
1782987665389755100,7.318755126953125,-0.826903760433197,-0.7643570303916931,0.11389753967523575
1782987665399830000,7.328830078125,-0.8657302856445312,-0.7845669984817505,0.10897175967693329
1782987665409905000,7.33890478515625,-0.8977430462837219,-0.7427806854248047,0.11744567006826401
1782987665419979000,7.34897900390625,-0.9240825176239014,-0.6494701504707336,0.13392265141010284
1782987665430054000,7.359053955078125,-0.9483468532562256,-0.5576323866844177,0.1393032968044281
1782987665440129000,7.36912890625,-0.964452862739563,-0.5102126598358154,0.13722948729991913
1782987665450203000,7.379202880859375,-0.9711976051330566,-0.499973326921463,0.12386175990104675
1782987665460278000,7.389278076171875,-0.9683130979537964,-0.49075081944465637,0.11225197464227676
1782987665470352000,7.399351806640625,-0.9606583714485168,-0.49862098693847656,0.10185499489307404
1782987665480427000,7.409427001953125,-0.9509522318840027,-0.5162071585655212,0.0914502888917923
1782987665490502000,7.419501953125,-0.9381823539733887,-0.5350468754768372,0.08232762664556503
1782987665500576000,7.429575927734375,-0.9207543730735779,-0.5514125823974609,0.07387475669384003
1782987665510651000,7.43965087890625,-0.9040592908859253,-0.586529552936554,0.07024433463811874
1782987665520726000,7.44972607421875,-0.8849859833717346,-0.6585108041763306,0.06842539459466934
1782987665530800000,7.459800048828125,-0.8667387962341309,-0.7419119477272034,0.06906295567750931
1782987665540875000,7.469875,-0.8527960777282715,-0.7813094258308411,0.0901421457529068
1782987665550949000,7.47994921875,-0.8401482105255127,-0.7660886645317078,0.12477708607912064
1782987665561024000,7.49002392578125,-0.8429828882217407,-0.7227132320404053,0.15639813244342804
1782987665571099100,7.50009912109375,-0.8469461798667908,-0.662585973739624,0.18107017874717712
1782987665581173000,7.510173095703125,-0.8404361009597778,-0.5841268301010132,0.2027674913406372
1782987665591248100,7.520248046875,-0.8264803290367126,-0.504335343837738,0.24000327289104462
1782987665601323000,7.530322998046875,-0.8134196996688843,-0.43653950095176697,0.29765886068344116
1782987665611397000,7.540397216796875,-0.7996056079864502,-0.424094557762146,0.3791012465953827
1782987665621472000,7.550471923828125,-0.7873324155807495,-0.4875566065311432,0.44732850790023804
1782987665631547000,7.560546875,-0.7740408182144165,-0.5435405373573303,0.48979365825653076
1782987665641621000,7.57062109375,-0.7670553922653198,-0.6116625666618347,0.48588043451309204
1782987665651695900,7.58069580078125,-0.7664045095443726,-0.7642604112625122,0.4138872027397156
1782987665661770000,7.59077001953125,-0.7896301746368408,-1.0307648181915283,0.23580853641033173
1782987665671844900,7.600844970703125,-0.8428928852081299,-1.3425631523132324,-0.0361177921295166
1782987665681920000,7.610919921875,-0.9362252354621887,-1.508018970489502,-0.33245357871055603
1782987665691993900,7.620993896484375,-1.0423895120620728,-1.4278851747512817,-0.5663097500801086
1782987665702069000,7.631069091796875,-1.1452300548553467,-1.1028088331222534,-0.6979883909225464
1782987665712144000,7.641143798828125,-1.216691493988037,-0.7009046077728271,-0.7242463827133179
1782987665722218000,7.651218017578125,-1.240368366241455,-0.37398770451545715,-0.6238476037979126
1782987665732292900,7.66129296875,-1.2180358171463013,-0.2310401350259781,-0.4303934574127197
1782987665742368000,7.671367919921875,-1.1516592502593994,-0.2849699556827545,-0.16756956279277802
1782987665752441900,7.68144189453125,-1.0552376508712769,-0.4619782865047455,0.1313289999961853
1782987665762517000,7.69151708984375,-0.9561419486999512,-0.6278418302536011,0.4228375256061554
1782987665772590800,7.7015908203125,-0.8951323628425598,-0.6788948774337769,0.6628884673118591
1782987665782666000,7.711666015625,-0.8877708911895752,-0.6504305005073547,0.8000513911247253
1782987665792741000,7.7217412109375,-0.9050044417381287,-0.6165228486061096,0.8087854981422424
1782987665802815000,7.73181494140625,-0.9401914477348328,-0.619937539100647,0.706005334854126
1782987665812890000,7.74189013671875,-0.979697048664093,-0.6758080124855042,0.5135136246681213
1782987665822965000,7.751965087890625,-1.0292127132415771,-0.7724661231040955,0.25565066933631897
1782987665833039000,7.7620390625,-1.085740089416504,-0.8506118059158325,-0.011949603445827961
1782987665843114000,7.772114013671875,-1.1483020782470703,-0.8544853329658508,-0.2508378028869629
1782987665853188000,7.78218798828125,-1.215559959411621,-0.7933189272880554,-0.4439425468444824
1782987665863263000,7.792262939453125,-1.2768843173980713,-0.7042942643165588,-0.5659576654434204
1782987665873338000,7.802338134765625,-1.3256361484527588,-0.6128469109535217,-0.6211327910423279
1782987665883412000,7.812411865234375,-1.3557783365249634,-0.5214951634407043,-0.6063572764396667
1782987665893487000,7.822487060546875,-1.360390305519104,-0.4376545548439026,-0.5272350311279297
1782987665903562000,7.83256201171875,-1.3404659032821655,-0.3955657184123993,-0.4109957814216614
1782987665913636000,7.842635986328125,-1.2878754138946533,-0.42205724120140076,-0.2908038794994354
1782987665923711000,7.8527109375,-1.2272053956985474,-0.49724653363227844,-0.17633481323719025
1782987665933785900,7.862785888671875,-1.166271686553955,-0.5643129348754883,-0.08405256271362305
1782987665943860000,7.87285986328125,-1.1130585670471191,-0.5990389585494995,-0.011471034027636051
1782987665953935000,7.88293505859375,-1.0739718675613403,-0.6030896306037903,0.038485072553157806
1782987665964009000,7.893009033203125,-1.040669560432434,-0.5790263414382935,0.05614209920167923
1782987665974084000,7.903083984375,-1.0112004280090332,-0.5438774228096008,0.059598349034786224
1782987665984159000,7.913158935546875,-0.9853062033653259,-0.5105192065238953,0.0512583926320076
1782987665994233000,7.923233154296875,-0.9509434700012207,-0.4831607937812805,0.0489686094224453
1782987666004308000,7.933307861328125,-0.9122956395149231,-0.46688756346702576,0.052617404609918594
1782987666014383000,7.943383056640625,-0.8822924494743347,-0.4372257888317108,0.08269035071134567
1782987666024457000,7.95345703125,-0.8693503141403198,-0.3837372660636902,0.12438240647315979
1782987666034532000,7.963531982421875,-0.870976984500885,-0.338282972574234,0.17010967433452606
1782987666044606000,7.97360595703125,-0.8837321996688843,-0.302753210067749,0.19243815541267395
1782987666054681000,7.98368115234375,-0.8928175568580627,-0.3003172278404236,0.1895851045846939
1782987666064756000,7.993755859375,-0.8972325325012207,-0.3010346591472626,0.16054120659828186
1782987666074830000,8.003830078125,-0.8978213667869568,-0.29320791363716125,0.12912416458129883
1782987666084905000,8.013905029296875,-0.8896316289901733,-0.29676374793052673,0.09985975176095963
1782987666094980000,8.02397998046875,-0.8606399297714233,-0.2988937497138977,0.07831504195928574
1782987666105054200,8.03405419921875,-0.8241575360298157,-0.27043256163597107,0.07471365481615067
1782987666115129000,8.044129150390624,-0.7843725681304932,-0.2544836699962616,0.07150827348232269
1782987666125204000,8.054203857421875,-0.7402629256248474,-0.2630976736545563,0.06683069467544556
1782987666135278000,8.064278076171876,-0.6888484358787537,-0.2751964032649994,0.05962258204817772
1782987666145353000,8.07435302734375,-0.6361756324768066,-0.31533825397491455,0.048228248953819275
1782987666155427000,8.084427001953125,-0.5917794108390808,-0.37961310148239136,0.031186414882540703
1782987666165502000,8.094501953125,-0.5534663796424866,-0.4229896068572998,0.018544388934969902
1782987666175576800,8.104576904296875,-0.5218456387519836,-0.44060268998146057,0.007796670310199261
1782987666185651000,8.11465087890625,-0.49699458479881287,-0.4370412528514862,0.0049247173592448235
1782987666195725800,8.124725830078125,-0.4742245674133301,-0.42609670758247375,0.003245860803872347
1782987666205801000,8.134801025390624,-0.4529520273208618,-0.39219361543655396,0.008833172731101513
1782987666215874800,8.144874755859375,-0.43879494071006775,-0.35441720485687256,0.014083328656852245
1782987666225950000,8.154949951171876,-0.4257504940032959,-0.32193514704704285,0.02353462018072605
1782987666236024000,8.165024169921875,-0.41185492277145386,-0.2729484438896179,0.03443733602762222
1782987666246099000,8.175098876953125,-0.3979010283946991,-0.1861797273159027,0.05044613033533096
1782987666256174000,8.185174072265625,-0.3820621371269226,-0.1389903724193573,0.07453574985265732
1782987666266248000,8.195248046875,-0.35062700510025024,-0.21667584776878357,0.08231884241104126
1782987666276323000,8.205322998046874,-0.32394078373908997,-0.3865322768688202,0.05151858553290367
1782987666286398000,8.21539794921875,-0.32924047112464905,-0.5212607979774475,-0.010853447020053864
1782987666296472000,8.22547216796875,-0.378555566072464,-0.5470697283744812,-0.09128597378730774
1782987666306547000,8.235546875,-0.44354867935180664,-0.4438757002353668,-0.16182804107666016
1782987666316622000,8.2456220703125,-0.4843325912952423,-0.25871357321739197,-0.20800194144248962
1782987666326696000,8.255696044921875,-0.48768046498298645,-0.07768867164850235,-0.21213142573833466
1782987666336771000,8.26577099609375,-0.4824382960796356,-0.002522812457755208,-0.18021796643733978
1782987666346845000,8.275844970703124,-0.4640033543109894,-0.08832613378763199,-0.14091184735298157
1782987666356920000,8.285920166015625,-0.43281587958335876,-0.23465964198112488,-0.10374317318201065
1782987666366995200,8.2959951171875,-0.4013761878013611,-0.3108620047569275,-0.0524648055434227
1782987666377069000,8.306069091796875,-0.37975984811782837,-0.259308785200119,0.01948954537510872
1782987666387144200,8.316144287109376,-0.37058791518211365,-0.14738360047340393,0.10708411037921906
1782987666397218800,8.32621875,-0.3649531900882721,-0.04308701679110527,0.19746381044387817
1782987666407293200,8.336293212890626,-0.33886727690696716,0.033133186399936676,0.2939240336418152
1782987666417367800,8.346367919921875,-0.29761677980422974,0.06771086901426315,0.3858211934566498
1782987666427442200,8.356442138671875,-0.25386449694633484,0.07639330625534058,0.46748143434524536
1782987666437516800,8.366516845703124,-0.21407820284366608,0.027875306084752083,0.5349451899528503
1782987666447592000,8.376592041015625,-0.19173933565616608,-0.10129599273204803,0.5684690475463867
1782987666457666000,8.386666015625,-0.17359815537929535,-0.29035326838493347,0.5644490122795105
1782987666467741000,8.396740966796875,-0.16869127750396729,-0.48938167095184326,0.5215875506401062
1782987666477816000,8.406816162109376,-0.17985685169696808,-0.6389903426170349,0.44153374433517456
1782987666487890000,8.416889892578125,-0.20860780775547028,-0.7102858424186707,0.32721593976020813
1782987666497965000,8.426965087890625,-0.2589189112186432,-0.7114884853363037,0.20224417746067047
1782987666508039000,8.437038818359374,-0.3212004005908966,-0.6666406393051147,0.08241605013608932
1782987666518114000,8.447114013671875,-0.3923068046569824,-0.596622109413147,-0.007261907681822777
1782987666528189000,8.45718896484375,-0.4633098542690277,-0.5447932481765747,-0.0597408264875412
1782987666538263000,8.467262939453125,-0.5204948782920837,-0.5171440839767456,-0.07969696074724197
1782987666548338000,8.477337890625,-0.5613962411880493,-0.4782853424549103,-0.07019932568073273
1782987666558413000,8.4874130859375,-0.5910875201225281,-0.4338015019893646,-0.03910958394408226
1782987666568487000,8.49748681640625,-0.6117967963218689,-0.3789611756801605,0.00011211907985853031
1782987666578562000,8.50756201171875,-0.6249650716781616,-0.32484573125839233,0.05169541761279106
1782987666588637200,8.51763720703125,-0.6317795515060425,-0.30089274048805237,0.08983561396598816
1782987666598711000,8.5277109375,-0.6309414505958557,-0.32506436109542847,0.11939270794391632
1782987666608786200,8.5377861328125,-0.625166118144989,-0.34424471855163574,0.13177746534347534
1782987666618860000,8.547860107421876,-0.6132455468177795,-0.3417171239852905,0.13347071409225464
1782987666628935200,8.55793505859375,-0.6206163763999939,-0.32906845211982727,0.11823130398988724
1782987666639010000,8.568010009765626,-0.629493236541748,-0.3423222005367279,0.07346782833337784
1782987666649084200,8.578084228515625,-0.6372132301330566,-0.3675149083137512,0.029047364369034767
1782987666659159000,8.588158935546875,-0.6384076476097107,-0.39877402782440186,-0.020895428955554962
1782987666669234000,8.59823388671875,-0.6449971199035645,-0.44284161925315857,-0.07995395362377167
1782987666679308000,8.60830810546875,-0.6440093517303467,-0.47640490531921387,-0.13692723214626312
1782987666689383000,8.6183828125,-0.6380574107170105,-0.45845597982406616,-0.16780391335487366
1782987666699457000,8.62845703125,-0.6382273435592651,-0.41675621271133423,-0.17340508103370667
1782987666709532000,8.638531982421876,-0.6437456607818604,-0.38555967807769775,-0.16435378789901733
1782987666719607000,8.64860693359375,-0.6429118514060974,-0.37652650475502014,-0.14478221535682678
1782987666729681000,8.658680908203126,-0.6368054747581482,-0.36509302258491516,-0.11685897409915924
1782987666739756000,8.668756103515625,-0.6218670010566711,-0.34775078296661377,-0.07347235083580017
1782987666749831000,8.678830810546875,-0.6133115887641907,-0.3282148838043213,-0.02738288789987564
1782987666759905000,8.688905029296874,-0.6104574799537659,-0.32844340801239014,0.011053450405597687
1782987666769980000,8.69897998046875,-0.6087706685066223,-0.33351537585258484,0.03813939541578293
1782987666780054000,8.709053955078126,-0.6089786291122437,-0.35131514072418213,0.053273607045412064
1782987666790129000,8.71912890625,-0.6168080568313599,-0.38458654284477234,0.04759015515446663
1782987666800204000,8.7292041015625,-0.6282186508178711,-0.4434674382209778,0.04557147994637489
1782987666810278000,8.73927783203125,-0.6331444382667542,-0.5359963178634644,0.06214166805148125
1782987666820353000,8.74935302734375,-0.6408510804176331,-0.5951584577560425,0.08863852173089981
1782987666830428200,8.75942822265625,-0.6709043383598328,-0.6281155943870544,0.10399138182401657
1782987666840502000,8.769501953125,-0.713413417339325,-0.6473798155784607,0.09714119881391525
1782987666850577200,8.7795771484375,-0.7592437863349915,-0.648542582988739,0.07298020273447037
1782987666860652000,8.789652099609375,-0.8014535307884216,-0.6426529884338379,0.04507533088326454
1782987666870726100,8.79972607421875,-0.8403370380401611,-0.6480927467346191,0.026155704632401466
1782987666880801000,8.809801025390625,-0.8715072274208069,-0.6431073546409607,0.022417157888412476
1782987666890875100,8.819875244140626,-0.8968069553375244,-0.6245450973510742,0.042998332530260086
1782987666900950500,8.829950439453125,-0.9167700409889221,-0.5788721442222595,0.08651784807443619
1782987666911025400,8.840025390625,-0.9390969276428223,-0.5065007209777832,0.1605561226606369
1782987666921099500,8.850099609375,-0.9561813473701477,-0.4595542848110199,0.2492321878671646
1782987666931174400,8.86017431640625,-0.9619755744934082,-0.451106458902359,0.33843156695365906
1782987666941249300,8.870249267578124,-0.9545706510543823,-0.46195751428604126,0.4191426634788513
1782987666951323400,8.880323486328125,-0.9449217915534973,-0.4669530689716339,0.49558791518211365
1782987666961398500,8.8903984375,-0.9327772259712219,-0.5074371099472046,0.5403700470924377
1782987666971472400,8.900472412109375,-0.9205865859985352,-0.6241655945777893,0.5253005027770996
1782987666981547500,8.910547607421876,-0.913786768913269,-0.8698134422302246,0.4313165247440338
1782987666991622400,8.920622314453125,-0.9448322653770447,-1.220800757408142,0.2521534264087677
1782987667001696500,8.930696533203125,-1.0321853160858154,-1.5331977605819702,0.015183214098215103
1782987667011771400,8.940771484375,-1.1754378080368042,-1.6739295721054077,-0.2419319450855255
1782987667021846500,8.950846435546875,-1.3285770416259766,-1.6242672204971313,-0.44317370653152466
1782987667031920400,8.96092041015625,-1.4546416997909546,-1.36253821849823,-0.5233502984046936
1782987667041995500,8.97099560546875,-1.5204665660858154,-0.9105499386787415,-0.4633319675922394
1782987667052070400,8.9810703125,-1.5474693775177002,-0.41398438811302185,-0.279107004404068
1782987667062144500,8.99114453125,-1.566208004951477,-0.07354212552309036,-0.05067329853773117
1782987667072219400,9.001219482421876,-1.5892128944396973,-0.05034759268164635,0.13540203869342804
1782987667082293500,9.01129345703125,-1.5620782375335693,-0.31512147188186646,0.2393105924129486
1782987667092368600,9.02136865234375,-1.5004560947418213,-0.7103726267814636,0.25835245847702026
1782987667102443500,9.031443603515624,-1.4318269491195679,-1.11322820186615,0.19258169829845428
1782987667112517600,9.041517578125,-1.3863651752471924,-1.4372854232788086,0.04800960421562195
1782987667122592500,9.051592529296874,-1.3810529708862305,-1.593964695930481,-0.15859709680080414
1782987667132667600,9.061667724609375,-1.4195895195007324,-1.51032555103302,-0.36925607919692993
1782987667142741500,9.071741455078126,-1.4760053157806396,-1.2312219142913818,-0.531096339225769
1782987667152816600,9.081816650390625,-1.5234484672546387,-0.8467190265655518,-0.6201460957527161
1782987667162890500,9.091890380859375,-1.5477527379989624,-0.4153814911842346,-0.6066217422485352
1782987667172965600,9.101965576171875,-1.5543880462646484,-0.06980224698781967,-0.4873078763484955
1782987667183040300,9.112040283203125,-1.5366191864013672,0.1231168732047081,-0.3128258287906647
1782987667193114600,9.122114501953124,-1.488219976425171,0.16735677421092987,-0.13610243797302246
1782987667203189200,9.132189208984375,-1.4198914766311646,0.06868771463632584,0.017017332836985588
1782987667213264400,9.142264404296874,-1.359501600265503,-0.13237108290195465,0.13205869495868683
1782987667223338500,9.15233837890625,-1.304203987121582,-0.38521960377693176,0.19937649369239807
1782987667233413400,9.162413330078126,-1.2593121528625488,-0.6251842379570007,0.22444002330303192
1782987667243487500,9.172487548828125,-1.2196811437606812,-0.8153334259986877,0.1952211558818817
1782987667253562400,9.182562255859375,-1.1827846765518188,-0.9412487149238586,0.11053503304719925
1782987667263637500,9.192637451171874,-1.1495544910430908,-0.9673008322715759,-0.0017414409667253494
1782987667273711400,9.20271142578125,-1.126670241355896,-0.893101155757904,-0.1108681932091713
1782987667283786500,9.212786376953124,-1.105012059211731,-0.7710210680961609,-0.19265280663967133
1782987667293861400,9.222861328125,-1.080867052078247,-0.6532449126243591,-0.22497080266475677
1782987667303935500,9.232935546875,-1.0765032768249512,-0.5599056482315063,-0.20645436644554138
1782987667314010400,9.24301025390625,-1.076744794845581,-0.5009176731109619,-0.1385006159543991
1782987667324084500,9.25308447265625,-1.088767409324646,-0.48255041241645813,-0.03496943414211273
1782987667334159400,9.263159423828125,-1.0993808507919312,-0.45791882276535034,0.08942575007677078
1782987667344234500,9.273234375,-1.1137903928756714,-0.4103803336620331,0.2125045359134674
1782987667354308400,9.283308349609374,-1.1305094957351685,-0.3741546869277954,0.29621967673301697
1782987667364383500,9.293383544921875,-1.1411911249160767,-0.3720574378967285,0.32858482003211975
1782987667374458600,9.303458740234374,-1.1401034593582153,-0.39859530329704285,0.3095245659351349
1782987667384532500,9.313532470703125,-1.13473379611969,-0.4083656668663025,0.26686978340148926
1782987667394607600,9.323607666015626,-1.1252191066741943,-0.3922024071216583,0.2199970781803131
1782987667404681500,9.333681396484375,-1.1031585931777954,-0.36864539980888367,0.17542321979999542
1782987667414756600,9.343756591796875,-1.0775126218795776,-0.3463137447834015,0.15577813982963562
1782987667424831500,9.35383154296875,-1.03982675075531,-0.3325214982032776,0.1567065268754959
1782987667434905600,9.363905517578125,-0.9984566569328308,-0.33451032638549805,0.1782645434141159
1782987667444980500,9.37398046875,-0.9515663385391235,-0.3521154224872589,0.21645240485668182
1782987667455055400,9.384055419921875,-0.9006637334823608,-0.4003455340862274,0.25919002294540405
1782987667465129500,9.39412939453125,-0.8474181294441223,-0.4180041551589966,0.3040613532066345
1782987667475204400,9.404204345703125,-0.8057788014411926,-0.4059688150882721,0.33092811703681946
1782987667485279500,9.414279541015626,-0.768096923828125,-0.42869728803634644,0.33103758096694946
1782987667495353300,9.424353271484375,-0.7341957092285156,-0.47612258791923523,0.30286505818367004
1782987667505428500,9.434428466796875,-0.6878145933151245,-0.4950670003890991,0.2640739977359772
1782987667515502300,9.44450244140625,-0.6369037628173828,-0.48346760869026184,0.2218059003353119
1782987667525577500,9.454577392578125,-0.5873026251792908,-0.5557005405426025,0.174875408411026
1782987667535652400,9.46465234375,-0.5436760783195496,-0.7844071984291077,0.054971374571323395
1782987667545726500,9.4747265625,-0.527425229549408,-1.05866539478302,-0.1263749748468399
1782987667555801300,9.48480126953125,-0.5293088555335999,-1.192203164100647,-0.31054243445396423
1782987667565876500,9.49487646484375,-0.5410590171813965,-1.1110225915908813,-0.43970760703086853
1782987667575950300,9.504950439453125,-0.5588585138320923,-0.8764305710792542,-0.4718516767024994
1782987667586025500,9.515025390625,-0.5656002759933472,-0.5199776887893677,-0.40693527460098267
1782987667596099300,9.525099365234375,-0.5678924918174744,-0.16882629692554474,-0.29567480087280273
1782987667606174500,9.535174560546874,-0.5811110734939575,-0.052026983350515366,-0.21011914312839508
1782987667616249600,9.54524951171875,-0.5858826637268066,-0.1607060581445694,-0.15487372875213623
1782987667626323500,9.555323486328126,-0.5483288764953613,-0.35265472531318665,-0.08457747101783752
1782987667636398600,9.565398681640625,-0.48822107911109924,-0.4648752808570862,0.01824371889233589
1782987667646473500,9.575473388671876,-0.4333977699279785,-0.422904372215271,0.1319630891084671
1782987667656547600,9.585547607421875,-0.39866188168525696,-0.26118072867393494,0.24796932935714722
1782987667666622500,9.59562255859375,-0.3783997595310211,-0.08288822323083878,0.3400947153568268
1782987667676696600,9.605696533203124,-0.35906416177749634,0.03146018832921982,0.4091891050338745
1782987667686771500,9.615771484375,-0.3384893834590912,0.08298543095588684,0.43807774782180786
1782987667696846600,9.6258466796875,-0.3140535354614258,0.03575986251235008,0.42846426367759705
1782987667706920400,9.63592041015625,-0.2648276686668396,-0.14522483944892883,0.3852313160896301
1782987667716995600,9.64599560546875,-0.22202667593955994,-0.41180458664894104,0.3105482757091522
1782987667727070500,9.656070556640625,-0.21482521295547485,-0.7322577238082886,0.20287081599235535
1782987667737144600,9.66614453125,-0.26142096519470215,-1.011069416999817,0.06898625940084457
1782987667747219500,9.676219482421875,-0.34709352254867554,-1.1698760986328125,-0.07799706608057022
1782987667757293600,9.68629345703125,-0.45649269223213196,-1.1472094058990479,-0.21926070749759674
1782987667767368400,9.696368408203124,-0.5703819990158081,-0.981120228767395,-0.3289390206336975
1782987667777443300,9.706443359375,-0.6692619919776917,-0.75450199842453,-0.4042518734931946
1782987667787517400,9.716517333984376,-0.7537837624549866,-0.547525942325592,-0.4334616959095001
1782987667797592300,9.72659228515625,-0.8109005689620972,-0.4104548990726471,-0.4112013876438141
1782987667807667500,9.73666748046875,-0.8316918611526489,-0.34683385491371155,-0.32840052247047424
1782987667817741300,9.7467412109375,-0.8145254254341125,-0.3452133238315582,-0.2087675929069519
1782987667827816400,9.75681640625,-0.7724946141242981,-0.39952901005744934,-0.07658052444458008
1782987667837890300,9.766890380859374,-0.7211462259292603,-0.4547171890735626,0.038114361464977264
1782987667847965400,9.77696533203125,-0.663722038269043,-0.4609340727329254,0.13115163147449493
1782987667858040600,9.78704052734375,-0.6211905479431152,-0.41054385900497437,0.18482550978660583
1782987667868114400,9.797114501953125,-0.5968649983406067,-0.3577858507633209,0.20290011167526245
1782987667878189600,9.807189453125,-0.5977901816368103,-0.30299848318099976,0.19424962997436523
1782987667888264400,9.817264404296875,-0.6242007613182068,-0.2416437864303589,0.16510294377803802
1782987667898338600,9.827338623046876,-0.6687940359115601,-0.20461119711399078,0.12246519327163696
1782987667908412700,9.83741259765625,-0.7084962129592896,-0.20512811839580536,0.07104434818029404
1782987667918486800,9.84748681640625,-0.7237212061882019,-0.24477805197238922,0.0105328019708395
1782987667928561700,9.857561767578124,-0.7227590084075928,-0.30209779739379883,-0.04314001277089119
1782987667938636800,9.86763671875,-0.7122014164924622,-0.35146456956863403,-0.09207799285650253
1782987667948710700,9.877710693359376,-0.6961087584495544,-0.37904879450798035,-0.1250559240579605
1782987667958785800,9.887785888671875,-0.6722803711891174,-0.3743882477283478,-0.14248071610927582
1782987667968860700,9.897860595703126,-0.6438543200492859,-0.3475331962108612,-0.14991998672485352
1782987667978934800,9.907934814453125,-0.6163129806518555,-0.3445312976837158,-0.14552843570709229
1782987667989009700,9.918009765625,-0.5923379063606262,-0.3468647599220276,-0.12019538134336472
1782987667999083800,9.928083740234374,-0.5839763879776001,-0.34041881561279297,-0.07832356542348862
1782987668009159000,9.938158935546875,-0.5958503484725952,-0.33922892808914185,-0.03141944110393524
1782987668019233800,9.94823388671875,-0.620374858379364,-0.3426649272441864,0.009514142759144306
1782987668029308000,9.958307861328125,-0.6423909068107605,-0.34428441524505615,0.04325772449374199
1782987668039382800,9.9683828125,-0.6590359807014465,-0.36965182423591614,0.06573853641748428
1782987668049457700,9.978457763671875,-0.6627817153930664,-0.41563475131988525,0.08144212514162064
1782987668059531800,9.98853173828125,-0.6578740477561951,-0.45735982060432434,0.09514142572879791
1782987668069606700,9.998606689453124,-0.6522496938705444,-0.4746592044830322,0.11230336874723434
1782987668079680800,10.0086806640625,-0.6518664360046387,-0.5057446956634521,0.12444978207349777
1782987668089755600,10.018755615234374,-0.6620165705680847,-0.5401609539985657,0.1457071304321289
1782987668099830500,10.02883056640625,-0.6760053634643555,-0.5588683485984802,0.18076418340206146
1782987668109904600,10.038904541015626,-0.6891805529594421,-0.5313065052032471,0.23968183994293213
1782987668119979500,10.0489794921875,-0.703463077545166,-0.5157677531242371,0.3087373375892639
1782987668130054700,10.0590546875,-0.7234618067741394,-0.5426324009895325,0.35012418031692505
1782987668140128800,10.069128662109375,-0.74358069896698,-0.5434446334838867,0.3590244650840759
1782987668150203600,10.07920361328125,-0.7835286259651184,-0.4998529553413391,0.3418833017349243
1782987668160277800,10.08927783203125,-0.8460074663162231,-0.4609220623970032,0.3000735342502594
1782987668170352600,10.0993525390625,-0.9318509697914124,-0.4529632031917572,0.2245558798313141
1782987668180427800,10.109427734375,-1.0147048234939575,-0.4583044648170471,0.12694808840751648
1782987668190501600,10.119501708984375,-1.0828911066055298,-0.4918823838233948,0.00401631323620677
1782987668200576800,10.12957666015625,-1.1360584497451782,-0.5686274766921997,-0.1338326334953308
1782987668210651600,10.139651611328125,-1.1618335247039795,-0.6760115027427673,-0.28631725907325745
1782987668220725800,10.149725830078125,-1.1765720844268799,-0.7366026639938354,-0.41210314631462097
1782987668230800600,10.159800537109374,-1.1930330991744995,-0.670964777469635,-0.4767918586730957
1782987668240874800,10.169874755859375,-1.2147071361541748,-0.5035470128059387,-0.45831775665283203
1782987668250949600,10.17994970703125,-1.2359437942504883,-0.2761985659599304,-0.3636951148509979
1782987668261024800,10.190024658203125,-1.2380702495574951,-0.09156666696071625,-0.1952349990606308
1782987668271099000,10.200098876953126,-1.2160537242889404,-0.008053132332861423,0.013818610459566116
1782987668281173800,10.210173828125,-1.1775590181350708,0.017491642385721207,0.20876839756965637
1782987668291249000,10.220248779296876,-1.1330629587173462,0.008779110386967659,0.36426636576652527
1782987668301322800,10.23032275390625,-1.081310749053955,-0.09800273180007935,0.4684857130050659
1782987668311398000,10.24039794921875,-1.0224748849868774,-0.2786100506782532,0.5173344612121582
1782987668321471700,10.2504716796875,-0.9574522376060486,-0.4729449152946472,0.5007539391517639
1782987668331547000,10.260546875,-0.901529848575592,-0.6644490957260132,0.4290432333946228
1782987668341621800,10.270621826171874,-0.8834599852561951,-0.8090505003929138,0.30074626207351685
1782987668351696000,10.28069580078125,-0.9274048209190369,-0.9027634263038635,0.12800882756710052
1782987668361770800,10.290770751953126,-1.010993242263794,-0.9551629424095154,-0.02744467370212078
1782987668371845600,10.300845703125,-1.0904536247253418,-0.8252262473106384,-0.1121385246515274
1782987668381919700,10.310919677734375,-1.147966980934143,-0.5491762757301331,-0.10206484794616699
1782987668391994600,10.32099462890625,-1.1851775646209717,-0.2883628308773041,-0.018854914233088493
1782987668402068700,10.33106884765625,-1.21787691116333,-0.16081471741199493,0.0839148759841919
1782987668412143600,10.3411435546875,-1.2352707386016846,-0.16690562665462494,0.17530737817287445
1782987668422218800,10.35121875,-1.2325122356414795,-0.2411726713180542,0.22462192177772522
1782987668432292600,10.361292724609376,-1.2156424522399902,-0.323456346988678,0.24009062349796295
1782987668442367700,10.37136767578125,-1.1760200262069702,-0.39010703563690186,0.23056742548942566
1782987668452442600,10.381442626953126,-1.1236989498138428,-0.4486667513847351,0.18007256090641022
1782987668462516700,10.391516845703125,-1.05343496799469,-0.4650486409664154,0.10098999738693237
1782987668472591600,10.401591552734375,-0.9740785956382751,-0.4551643133163452,0.013071327470242977
1782987668482665700,10.411665771484374,-0.8950260877609253,-0.4266458749771118,-0.06574305891990662
1782987668492740600,10.42174072265625,-0.8162112236022949,-0.384945809841156,-0.1181628555059433
1782987668502815700,10.431815673828124,-0.7506441473960876,-0.3424156606197357,-0.1283728927373886
1782987668512889600,10.4418896484375,-0.7031131386756897,-0.31460028886795044,-0.07525933533906937
1782987668522964700,10.45196484375,-0.6704279184341431,-0.27215296030044556,0.01739869825541973
1782987668533039900,10.462039794921875,-0.6396710276603699,-0.21477648615837097,0.13394182920455933
1782987668543113700,10.47211376953125,-0.6178874373435974,-0.1866561621427536,0.25913381576538086
1782987668553188900,10.48218896484375,-0.6033050417900085,-0.19014596939086914,0.35510164499282837
1782987668563262700,10.4922626953125,-0.5903218984603882,-0.23496536910533905,0.404374897480011
1782987668573337900,10.502337890625,-0.5697920918464661,-0.2953890264034271,0.40805113315582275
1782987668583412700,10.512412841796875,-0.5481752157211304,-0.3104734420776367,0.350085586309433
1782987668593486800,10.52248681640625,-0.5299757122993469,-0.2956444323062897,0.2590952217578888
1782987668603561700,10.532561767578125,-0.509040892124176,-0.25311267375946045,0.17463412880897522
1782987668613636600,10.54263671875,-0.4812811315059662,-0.1739390343427658,0.11075208336114883
1782987668623710700,10.552710693359375,-0.45477843284606934,-0.0918327197432518,0.0429256297647953
1782987668633785600,10.56278564453125,-0.4145947992801666,-0.05446164309978485,-0.002990197157487273
1782987668643859700,10.572859619140624,-0.3697833716869354,0.014282000251114368,0.020967599004507065
1782987668653934600,10.5829345703125,-0.3296349048614502,0.08628029376268387,0.09162233024835587
1782987668664009700,10.593009765625,-0.3011033833026886,0.09683626145124435,0.18218551576137543
1782987668674083600,10.60308349609375,-0.2633727788925171,0.06730500608682632,0.2600480914115906
1782987668684158700,10.61315869140625,-0.2191896140575409,0.009739979170262814,0.2952210009098053
1782987668694233600,10.623233642578125,-0.17861156165599823,-0.08682064712047577,0.2733316719532013
1782987668704307700,10.6333076171875,-0.1485718935728073,-0.17987841367721558,0.21146351099014282
1782987668714382600,10.643382568359375,-0.11794980615377426,-0.26168540120124817,0.1468360424041748
1782987668724456700,10.653456787109375,-0.10347552597522736,-0.3043955862522125,0.158081516623497
1782987668734531600,10.663531494140624,-0.13399562239646912,-0.22251775860786438,0.14991919696331024
1782987668744606700,10.673606689453125,-0.1508488953113556,-0.10577064007520676,0.11523231863975525
1782987668754680600,10.6836806640625,-0.13784947991371155,-0.17152008414268494,0.023672839626669884
1782987668764755700,10.693755615234375,-0.14135339856147766,-0.362785667181015,-0.14639103412628174
1782987668774830800,10.703830810546876,-0.17659926414489746,-0.5350218415260315,-0.34137943387031555
1782987668784904700,10.71390478515625,-0.24815282225608826,-0.582571268081665,-0.5063228607177734
1782987668794979800,10.723979736328126,-0.37352246046066284,-0.4882897734642029,-0.5809488892555237
