time,seconds_elapsed,z,y,x
1782984532030529500,0.054529541015625,-0.825531005859375,-0.4951324462890625,-0.0492401123046875
1782984532040603400,0.064603271484375,-0.8436431884765625,-0.499542236328125,-0.052734375
1782984532050677200,0.07467724609375,-0.8674468994140625,-0.50164794921875,-0.0567169189453125
1782984532060751400,0.08475146484375,-0.877349853515625,-0.5028533935546875,-0.0481414794921875
1782984532070825200,0.0948251953125,-0.8769073486328125,-0.503570556640625,-0.0376129150390625
1782984532080899600,0.104899658203125,-0.8822174072265625,-0.500640869140625,-0.0227508544921875
1782984532090973400,0.114973388671875,-0.8750457763671875,-0.4953155517578125,-0.0307464599609375
1782984532101047600,0.125047607421875,-0.8573150634765625,-0.4931488037109375,-0.0382537841796875
1782984532111121400,0.135121337890625,-0.8399658203125,-0.4968414306640625,-0.0368804931640625
1782984532121196500,0.145196533203125,-0.8281707763671875,-0.496337890625,-0.0278778076171875
1782984532131270400,0.1552705078125,-0.81939697265625,-0.4853973388671875,-0.0195159912109375
1782984532141344300,0.16534423828125,-0.8162078857421875,-0.4805755615234375,-0.019012451171875
1782984532151418400,0.17541845703125,-0.826690673828125,-0.4839019775390625,-0.0128936767578125
1782984532161492200,0.1854921875,-0.833526611328125,-0.4834442138671875,-0.0062103271484375
1782984532171566600,0.195566650390625,-0.8356170654296875,-0.4795074462890625,-0.00738525390625
1782984532181640400,0.205640380859375,-0.827911376953125,-0.4766082763671875,-0.008148193359375
1782984532191714600,0.215714599609375,-0.81866455078125,-0.4922332763671875,-0.00421142578125
1782984532201789400,0.22578955078125,-0.8248748779296875,-0.5287933349609375,-0.01763916015625
1782984532211863600,0.235863525390625,-0.8211669921875,-0.551239013671875,-0.038909912109375
1782984532221937400,0.2459375,-0.8182373046875,-0.5615081787109375,-0.05731201171875
1782984532232011300,0.25601123046875,-0.8578033447265625,-0.5731353759765625,-0.077423095703125
1782984532242085400,0.26608544921875,-0.8985137939453125,-0.5681915283203125,-0.1021728515625
1782984532252159200,0.2761591796875,-0.91888427734375,-0.556182861328125,-0.114501953125
1782984532262233600,0.286233642578125,-0.909820556640625,-0.552032470703125,-0.1164398193359375
1782984532272307500,0.296307373046875,-0.8841705322265625,-0.5532073974609375,-0.1050872802734375
1782984532282382600,0.306382568359375,-0.84478759765625,-0.554534912109375,-0.084075927734375
1782984532292456400,0.31645654296875,-0.7952423095703125,-0.564300537109375,-0.046905517578125
1782984532302530600,0.326530517578125,-0.7450103759765625,-0.5695343017578125,-0.01177978515625
1782984532312604400,0.3366044921875,-0.70794677734375,-0.55328369140625,0.0083465576171875
1782984532322678300,0.34667822265625,-0.686981201171875,-0.5401458740234375,0.0138702392578125
1782984532332752400,0.35675244140625,-0.6857452392578125,-0.53936767578125,0.0149383544921875
1782984532342826200,0.366826171875,-0.6975555419921875,-0.5506439208984375,0.0178375244140625
1782984532352900600,0.376900634765625,-0.7131195068359375,-0.5595550537109375,0.0121917724609375
1782984532362974500,0.386974365234375,-0.735809326171875,-0.5703125,0.004425048828125
1782984532373049600,0.397049560546875,-0.747100830078125,-0.5750885009765625,-0.0013275146484375
1782984532383123500,0.40712353515625,-0.7372894287109375,-0.576446533203125,0.0013427734375
1782984532393197300,0.417197265625,-0.7188262939453125,-0.5752716064453125,0.0142974853515625
1782984532403271400,0.427271484375,-0.691650390625,-0.574676513671875,0.0250244140625
1782984532413345300,0.43734521484375,-0.665252685546875,-0.58807373046875,0.0323638916015625
1782984532423419400,0.44741943359375,-0.6382598876953125,-0.59600830078125,0.0450592041015625
1782984532433493200,0.4574931640625,-0.6787872314453125,-0.5930023193359375,0.021697998046875
1782984532443567600,0.467567626953125,-0.846771240234375,-0.6234893798828125,-0.046722412109375
1782984532453642500,0.477642578125,-0.8435821533203125,-0.6807098388671875,-0.06011962890625
1782984532463716600,0.487716552734375,-0.86541748046875,-0.717926025390625,-0.084228515625
1782984532473790500,0.49779052734375,-0.857757568359375,-0.7133026123046875,-0.072296142578125
1782984532483864300,0.5078642578125,-0.813690185546875,-0.7145843505859375,-0.03363037109375
1782984532493938400,0.5179384765625,-0.7515411376953125,-0.7117156982421875,0.0032501220703125
1782984532504012300,0.52801220703125,-0.7360992431640625,-0.704132080078125,0.02423095703125
1782984532514086400,0.53808642578125,-0.75811767578125,-0.7108154296875,0.02423095703125
1782984532524160500,0.548160400390625,-0.7899627685546875,-0.7276611328125,0.0087890625
1782984532534235400,0.5582353515625,-0.80810546875,-0.730255126953125,-0.002685546875
1782984532544309500,0.5683095703125,-0.8104705810546875,-0.71405029296875,0.007080078125
1782984532554383600,0.578383544921875,-0.7910614013671875,-0.68719482421875,0.03045654296875
1782984532564457500,0.58845751953125,-0.7488555908203125,-0.67059326171875,0.04095458984375
1782984532574531300,0.59853125,-0.7189483642578125,-0.6792144775390625,0.038421630859375
1782984532584605400,0.60860546875,-0.691925048828125,-0.69671630859375,0.0253448486328125
1782984532594679300,0.61867919921875,-0.6864013671875,-0.7054443359375,0.005462646484375
1782984532604753400,0.62875341796875,-0.683502197265625,-0.6959686279296875,0.016387939453125
1782984532614827500,0.63882763671875,-0.6884613037109375,-0.6905364990234375,0.021392822265625
1782984532624902400,0.64890234375,-0.722686767578125,-0.685333251953125,0.0239715576171875
1782984532634976500,0.6589765625,-0.7582550048828125,-0.68511962890625,0.0176849365234375
1782984532645050600,0.669050537109375,-0.782196044921875,-0.6751556396484375,0.00689697265625
1782984532655124500,0.67912451171875,-0.7993011474609375,-0.676971435546875,0.005157470703125
1782984532665198300,0.6891982421875,-0.80108642578125,-0.67852783203125,0.009063720703125
1782984532675272400,0.6992724609375,-0.7927398681640625,-0.6683502197265625,0.0064849853515625
1782984532685346300,0.70934619140625,-0.789337158203125,-0.67230224609375,-0.006439208984375
1782984532695420400,0.71942041015625,-0.7906036376953125,-0.6651611328125,-0.014678955078125
1782984532705495300,0.729495361328125,-0.7924957275390625,-0.65191650390625,-0.0005340576171875
1782984532715569400,0.7395693359375,-0.7987213134765625,-0.6497039794921875,0.0015869140625
1782984532725643500,0.7496435546875,-0.79156494140625,-0.640106201171875,-0.009124755859375
1782984532735717400,0.75971728515625,-0.781585693359375,-0.63604736328125,-0.01348876953125
1782984532745791500,0.76979150390625,-0.75885009765625,-0.627349853515625,-0.01214599609375
1782984532755865300,0.779865234375,-0.75592041015625,-0.6197967529296875,-0.0161285400390625
1782984532765939500,0.789939453125,-0.75970458984375,-0.63323974609375,-0.0293121337890625
1782984532776013300,0.800013427734375,-0.7581024169921875,-0.648590087890625,-0.0250701904296875
1782984532786088400,0.81008837890625,-0.774810791015625,-0.6255035400390625,0.0055389404296875
1782984532796162300,0.820162353515625,-0.8048858642578125,-0.612884521484375,-0.0005340576171875
1782984532806236400,0.830236328125,-0.792144775390625,-0.6198577880859375,-0.014678955078125
1782984532816310500,0.840310546875,-0.779083251953125,-0.6203765869140625,0.0033416748046875
1782984532826384400,0.85038427734375,-0.783050537109375,-0.6132049560546875,0.0099639892578125
1782984532836458500,0.86045849609375,-0.8289337158203125,-0.604736328125,0.0048828125
1782984532846532400,0.870532470703125,-0.837738037109375,-0.621673583984375,-0.0307464599609375
1782984532856606500,0.8806064453125,-0.821533203125,-0.6005401611328125,-0.010528564453125
1782984532866680300,0.890680419921875,-0.8187713623046875,-0.597991943359375,0.0117340087890625
1782984532876755500,0.90075537109375,-0.79656982421875,-0.6053466796875,0.0119476318359375
1782984532886829300,0.910829345703125,-0.77288818359375,-0.611846923828125,0.0050506591796875
1782984532896903400,0.9209033203125,-0.751953125,-0.6060333251953125,0.008575439453125
1782984532906977500,0.9309775390625,-0.7335205078125,-0.6007232666015625,0.0119171142578125
1782984532917051400,0.941051513671875,-0.7370758056640625,-0.600982666015625,0.0075531005859375
1782984532927125500,0.95112548828125,-0.7619476318359375,-0.6028594970703125,-0.0063018798828125
1782984532937199400,0.961199462890625,-0.78790283203125,-0.60565185546875,-0.0112762451171875
1782984532947273500,0.9712734375,-0.805145263671875,-0.6015625,-0.0108642578125
1782984532957348400,0.981348388671875,-0.80206298828125,-0.5943450927734375,-0.0162811279296875
1782984532967422500,0.99142236328125,-0.7840118408203125,-0.5888214111328125,-0.0188751220703125
1782984532977496300,1.001496337890625,-0.7665863037109375,-0.58746337890625,-0.0102386474609375
1782984532987570400,1.0115703125,-0.741851806640625,-0.5904083251953125,-0.0031280517578125
1782984532997644500,1.02164453125,-0.7248382568359375,-0.594696044921875,0.005462646484375
1782984533007718400,1.031718505859375,-0.7294158935546875,-0.603973388671875,0.0107269287109375
1782984533017792500,1.04179248046875,-0.7559051513671875,-0.6066131591796875,0.0099029541015625
1782984533027866400,1.051866455078125,-0.796051025390625,-0.596343994140625,0.0034027099609375
1782984533037941500,1.06194140625,-0.826995849609375,-0.586639404296875,0
1782984533048015400,1.072015380859375,-0.8416900634765625,-0.58575439453125,-0.003997802734375
1782984533058089500,1.08208935546875,-0.840545654296875,-0.590362548828125,0.003662109375
1782984533068163300,1.092163330078125,-0.8288116455078125,-0.58837890625,0.01605224609375
1782984533078237400,1.102237548828125,-0.8175811767578125,-0.5890045166015625,0.0131072998046875
1782984533088311600,1.1123115234375,-0.8030853271484375,-0.5988922119140625,0.0077056884765625
1782984533098385400,1.122385498046875,-0.8032073974609375,-0.605194091796875,0.0039520263671875
1782984533108459500,1.13245947265625,-0.8009033203125,-0.60223388671875,-0.0036468505859375
1782984533118533400,1.142533447265625,-0.7977142333984375,-0.5801239013671875,-0.0106658935546875
1782984533128608500,1.1526083984375,-0.799652099609375,-0.5664215087890625,-0.0199127197265625
1782984533138682400,1.162682373046875,-0.7982635498046875,-0.5684051513671875,-0.00958251953125
1782984533148756500,1.172756591796875,-0.8145599365234375,-0.5772552490234375,0.0052032470703125
1782984533158830300,1.182830322265625,-0.842254638671875,-0.578155517578125,0.008026123046875
1782984533168904200,1.192904296875,-0.8653717041015625,-0.5689239501953125,0.00335693359375
1782984533178978600,1.202978515625,-0.875244140625,-0.566253662109375,0.000946044921875
1782984533189052400,1.213052490234375,-0.8672027587890625,-0.570648193359375,0.0035858154296875
1782984533199126500,1.22312646484375,-0.8474273681640625,-0.566162109375,0.0041961669921875
1782984533209201400,1.233201416015625,-0.8390350341796875,-0.5535430908203125,0.0074310302734375
1782984533219275500,1.243275634765625,-0.8437347412109375,-0.5513458251953125,0.000640869140625
1782984533229349400,1.253349365234375,-0.83905029296875,-0.5580596923828125,-0.006591796875
1782984533239423500,1.263423583984375,-0.8199310302734375,-0.558746337890625,0.0026702880859375
1782984533249497300,1.273497314453125,-0.803802490234375,-0.558807373046875,0.0056610107421875
1782984533259571200,1.2835712890625,-0.8006744384765625,-0.558746337890625,0.005889892578125
1782984533269645600,1.2936455078125,-0.8152008056640625,-0.556304931640625,0.0030517578125
1782984533279719400,1.303719482421875,-0.8197174072265625,-0.557373046875,-0.0048065185546875
1782984533289794600,1.313794677734375,-0.81756591796875,-0.5610809326171875,-0.001739501953125
1782984533299868400,1.323868408203125,-0.8184051513671875,-0.5662841796875,0.005096435546875
1782984533309942500,1.333942626953125,-0.814453125,-0.564666748046875,0.0052947998046875
1782984533320016400,1.344016357421875,-0.8074493408203125,-0.5677642822265625,-0.001312255859375
1782984533330090500,1.354090576171875,-0.807830810546875,-0.569366455078125,-0.0002899169921875
1782984533340164400,1.364164306640625,-0.809783935546875,-0.5696868896484375,0
1782984533350238200,1.37423828125,-0.804229736328125,-0.5711517333984375,0.0013275146484375
1782984533360312600,1.3843125,-0.7949066162109375,-0.5746307373046875,0.0023040771484375
1782984533370386400,1.394386474609375,-0.7891998291015625,-0.5724639892578125,0.0040435791015625
1782984533380461600,1.404461669921875,-0.7945709228515625,-0.567291259765625,0.002960205078125
1782984533390535400,1.414535400390625,-0.8079833984375,-0.571441650390625,0.0005645751953125
1782984533400609500,1.424609619140625,-0.818145751953125,-0.574981689453125,-0.0039825439453125
1782984533410683400,1.434683349609375,-0.828857421875,-0.583709716796875,-0.0039215087890625
1782984533420757500,1.444757568359375,-0.8487548828125,-0.586273193359375,-0.000640869140625
1782984533430831400,1.454831298828125,-0.86456298828125,-0.5861358642578125,-0.0045013427734375
1782984533440905200,1.4649052734375,-0.8618927001953125,-0.5874176025390625,-0.013824462890625
1782984533450979600,1.4749794921875,-0.83843994140625,-0.5864105224609375,-0.0131072998046875
1782984533461054200,1.48505419921875,-0.80340576171875,-0.5876617431640625,-0.0122528076171875
1782984533471128600,1.495128662109375,-0.769317626953125,-0.5902862548828125,-0.012054443359375
1782984533481202400,1.505202392578125,-0.752471923828125,-0.592315673828125,-0.0081329345703125
1782984533491276500,1.515276611328125,-0.759124755859375,-0.5917205810546875,-0.0033416748046875
1782984533501350400,1.525350341796875,-0.7769927978515625,-0.5850677490234375,-0.0053863525390625
1782984533511424300,1.53542431640625,-0.7892303466796875,-0.584625244140625,-0.0043182373046875
1782984533521498400,1.545498291015625,-0.7964935302734375,-0.587860107421875,-0.0006256103515625
1782984533531572200,1.555572265625,-0.800201416015625,-0.586212158203125,0.005889892578125
1782984533541647400,1.5656474609375,-0.8070220947265625,-0.592559814453125,0.009521484375
1782984533551721200,1.57572119140625,-0.803070068359375,-0.5940399169921875,0.0106964111328125
1782984533561795600,1.585795654296875,-0.7877349853515625,-0.5913238525390625,0.0102081298828125
1782984533571869400,1.595869384765625,-0.779937744140625,-0.595703125,0.01416015625
1782984533581943600,1.605943603515625,-0.782623291015625,-0.596527099609375,0.0098114013671875
1782984533592017400,1.616017333984375,-0.786529541015625,-0.59307861328125,0.010223388671875
1782984533602091300,1.62609130859375,-0.807891845703125,-0.587799072265625,0.0107421875
1782984533612165400,1.636165283203125,-0.8216094970703125,-0.5835418701171875,0.00341796875
1782984533622239200,1.6462392578125,-0.8173980712890625,-0.5811767578125,-0.0028839111328125
1782984533632314400,1.656314453125,-0.8095550537109375,-0.578155517578125,-0.002288818359375
1782984533642388200,1.66638818359375,-0.8140716552734375,-0.578460693359375,-0.000640869140625
1782984533652462600,1.676462646484375,-0.8243408203125,-0.5762481689453125,-0.0023956298828125
1782984533662536400,1.686536376953125,-0.820465087890625,-0.5715789794921875,-0.008453369140625
1782984533672610600,1.696610595703125,-0.8109893798828125,-0.5744781494140625,-0.00665283203125
1782984533682684400,1.706684326171875,-0.8004150390625,-0.578765869140625,-0.0025177001953125
1782984533692758300,1.71675830078125,-0.802001953125,-0.5749359130859375,-0.0010986328125
1782984533702832400,1.726832275390625,-0.8030242919921875,-0.5692596435546875,-0.00640869140625
1782984533712907300,1.7369072265625,-0.8052215576171875,-0.5668487548828125,-0.0123291015625
1782984533722981400,1.7469814453125,-0.8005523681640625,-0.5644989013671875,-0.014495849609375
1782984533733055200,1.75705517578125,-0.80413818359375,-0.56304931640625,-0.0146636962890625
1782984533743129600,1.767129638671875,-0.8089752197265625,-0.566650390625,-0.0146636962890625
1782984533753203500,1.777203369140625,-0.8132781982421875,-0.568511962890625,-0.012603759765625
1782984533763277600,1.787277587890625,-0.8272247314453125,-0.5684814453125,-0.01214599609375
1782984533773351400,1.797351318359375,-0.82952880859375,-0.568572998046875,-0.013702392578125
1782984533783425300,1.80742529296875,-0.8178558349609375,-0.5664825439453125,-0.0098114013671875
1782984533793500400,1.81750048828125,-0.810150146484375,-0.571136474609375,-0.0025787353515625
1782984533803574300,1.82757421875,-0.8040008544921875,-0.577606201171875,-0.0023651123046875
1782984533813648400,1.8376484375,-0.7935333251953125,-0.5810699462890625,-0.00531005859375
1782984533823722200,1.84772216796875,-0.78253173828125,-0.58197021484375,-0.008636474609375
1782984533833796600,1.857796630859375,-0.78436279296875,-0.581085205078125,-0.01434326171875
1782984533843870500,1.867870361328125,-0.7926483154296875,-0.5821075439453125,-0.0191497802734375
1782984533853944300,1.8779443359375,-0.80316162109375,-0.585113525390625,-0.023284912109375
1782984533864018400,1.888018310546875,-0.8068389892578125,-0.5894775390625,-0.0277099609375
1782984533874092300,1.89809228515625,-0.8022308349609375,-0.5909881591796875,-0.0296173095703125
1782984533884167400,1.90816748046875,-0.7979583740234375,-0.59234619140625,-0.0242462158203125
1782984533894241300,1.9182412109375,-0.7944488525390625,-0.5926361083984375,-0.026153564453125
1782984533904315400,1.9283154296875,-0.7933807373046875,-0.592498779296875,-0.0316925048828125
1782984533914389500,1.938389404296875,-0.799896240234375,-0.59259033203125,-0.0266265869140625
1782984533924463600,1.948463623046875,-0.8130645751953125,-0.592437744140625,-0.0284881591796875
1782984533934537700,1.958537841796875,-0.8220367431640625,-0.5893096923828125,-0.03082275390625
1782984533944611600,1.968611572265625,-0.8272552490234375,-0.5826568603515625,-0.026947021484375
1782984533954685700,1.978685791015625,-0.82281494140625,-0.5849456787109375,-0.023651123046875
1782984533964760600,1.988760498046875,-0.81597900390625,-0.5935516357421875,-0.01861572265625
1782984533974834700,1.998834716796875,-0.805877685546875,-0.596893310546875,-0.018157958984375
1782984533984908500,2.008908447265625,-0.7834930419921875,-0.59478759765625,-0.017181396484375
1782984533994982400,2.018982421875,-0.77734375,-0.59539794921875,-0.0097503662109375
1782984534005056500,2.029056396484375,-0.788330078125,-0.59405517578125,-0.0087738037109375
1782984534015130600,2.039130615234375,-0.8142852783203125,-0.586151123046875,-0.017059326171875
1782984534025204700,2.049204833984375,-0.84356689453125,-0.5789031982421875,-0.0257110595703125
1782984534035278600,2.059278564453125,-0.8443450927734375,-0.577056884765625,-0.0287017822265625
1782984534045352700,2.069352783203125,-0.8293609619140625,-0.5796966552734375,-0.0258941650390625
1782984534055427600,2.079427490234375,-0.8156890869140625,-0.5800018310546875,-0.0177001953125
1782984534065501700,2.089501708984375,-0.8085784912109375,-0.579620361328125,-0.0145721435546875
1782984534075575600,2.099575439453125,-0.8083953857421875,-0.5780792236328125,-0.0129547119140625
1782984534085649400,2.1096494140625,-0.8070220947265625,-0.57427978515625,-0.0099639892578125
1782984534095723500,2.1197236328125,-0.80572509765625,-0.5730743408203125,-0.0137176513671875
1782984534105797600,2.129797607421875,-0.811737060546875,-0.57025146484375,-0.00787353515625
1782984534115871700,2.139871826171875,-0.8196563720703125,-0.566925048828125,-0.0061492919921875
1782984534125945600,2.149945556640625,-0.8187255859375,-0.5657501220703125,-0.0084381103515625
1782984534136020700,2.160020751953125,-0.80450439453125,-0.5648345947265625,-0.006683349609375
1782984534146094600,2.170094482421875,-0.7928314208984375,-0.56683349609375,0.00146484375
1782984534156168700,2.180168701171875,-0.784881591796875,-0.57037353515625,0.0009002685546875
1782984534166242600,2.19024267578125,-0.7777252197265625,-0.572540283203125,0.0025787353515625
1782984534176316400,2.20031640625,-0.777587890625,-0.567352294921875,0.0069580078125
1782984534186390500,2.210390625,-0.792633056640625,-0.5615386962890625,0.00250244140625
1782984534196464600,2.220464599609375,-0.803253173828125,-0.56085205078125,0.0043487548828125
1782984534206538800,2.230538818359375,-0.8044891357421875,-0.5617828369140625,0.0048980712890625
1782984534216613600,2.240613525390625,-0.8130645751953125,-0.565643310546875,0.0052337646484375
1782984534226687700,2.250687744140625,-0.8280029296875,-0.569244384765625,0.003570556640625
1782984534236761600,2.26076171875,-0.8434295654296875,-0.5671844482421875,-0.0056304931640625
1782984534246835500,2.27083544921875,-0.8495941162109375,-0.5654754638671875,-0.010101318359375
1782984534256909600,2.28090966796875,-0.8386383056640625,-0.5640869140625,-0.0032958984375
1782984534266983400,2.2909833984375,-0.8311004638671875,-0.5606231689453125,-0.0046844482421875
1782984534277057500,2.3010576171875,-0.83563232421875,-0.56903076171875,-0.0045318603515625
1782984534287131600,2.311131591796875,-0.8394622802734375,-0.5744476318359375,-0.0111236572265625
1782984534297205800,2.321205810546875,-0.83685302734375,-0.57080078125,-0.01287841796875
1782984534307280600,2.33128076171875,-0.82623291015625,-0.5699615478515625,-0.0124664306640625
1782984534317354800,2.341354736328125,-0.8097991943359375,-0.5646820068359375,-0.0172119140625
1782984534327428600,2.3514287109375,-0.8013916015625,-0.5611419677734375,-0.013763427734375
1782984534337502500,2.36150244140625,-0.8055877685546875,-0.562530517578125,-0.0144195556640625
1782984534347576600,2.37157666015625,-0.815185546875,-0.56597900390625,-0.0205230712890625
1782984534357650400,2.381650390625,-0.825225830078125,-0.561676025390625,-0.0230865478515625
1782984534367724500,2.391724609375,-0.83502197265625,-0.5600738525390625,-0.0186309814453125
1782984534377798700,2.401798583984375,-0.8358154296875,-0.5622711181640625,-0.0236358642578125
1782984534387873500,2.41187353515625,-0.8372039794921875,-0.5591278076171875,-0.023101806640625
1782984534397947600,2.42194775390625,-0.8312530517578125,-0.5590362548828125,-0.01751708984375
1782984534408021800,2.432021728515625,-0.815887451171875,-0.55908203125,-0.009765625
1782984534418095600,2.442095703125,-0.796112060546875,-0.5616455078125,-0.0041046142578125
1782984534428169500,2.45216943359375,-0.78192138671875,-0.5637054443359375,-0.007781982421875
1782984534438243600,2.46224365234375,-0.77252197265625,-0.56011962890625,-0.0122833251953125
1782984534448317400,2.4723173828125,-0.7735443115234375,-0.5600128173828125,-0.0176239013671875
1782984534458391600,2.4823916015625,-0.7858734130859375,-0.5633392333984375,-0.024444580078125
1782984534468466400,2.492466552734375,-0.801116943359375,-0.5648345947265625,-0.027008056640625
1782984534478540500,2.50254052734375,-0.8156890869140625,-0.566131591796875,-0.028228759765625
1782984534488614700,2.51261474609375,-0.8262939453125,-0.56585693359375,-0.02685546875
1782984534498688800,2.522688720703125,-0.833282470703125,-0.56622314453125,-0.02685546875
1782984534508762600,2.5327626953125,-0.840118408203125,-0.567413330078125,-0.0254974365234375
1782984534518836500,2.54283642578125,-0.83929443359375,-0.57000732421875,-0.0154876708984375
1782984534528910600,2.55291064453125,-0.8361053466796875,-0.573150634765625,-0.01495361328125
1782984534538984400,2.562984375,-0.829010009765625,-0.572021484375,-0.0187835693359375
1782984534549058600,2.57305859375,-0.8247833251953125,-0.5673370361328125,-0.0152587890625
1782984534559133400,2.583133544921875,-0.823211669921875,-0.5655975341796875,-0.01513671875
1782984534569207600,2.59320751953125,-0.82525634765625,-0.568023681640625,-0.016693115234375
1782984534579281700,2.60328173828125,-0.823883056640625,-0.5657806396484375,-0.0090484619140625
1782984534589355500,2.61335546875,-0.825286865234375,-0.567413330078125,-0.0047760009765625
1782984534599429600,2.6234296875,-0.8177490234375,-0.5696258544921875,-0.0036773681640625
1782984534609503500,2.63350341796875,-0.813934326171875,-0.5686187744140625,0.0004730224609375
1782984534619577600,2.64357763671875,-0.8157806396484375,-0.5676727294921875,0.00006103515625
1782984534629651500,2.6536513671875,-0.8148956298828125,-0.5651092529296875,-0.0060272216796875
1782984534639726600,2.6637265625,-0.8126983642578125,-0.565185546875,-0.0079345703125
1782984534649800400,2.673800537109375,-0.80792236328125,-0.5637969970703125,-0.012176513671875
1782984534659874600,2.68387451171875,-0.80743408203125,-0.560516357421875,-0.0152435302734375
1782984534669948700,2.69394873046875,-0.81085205078125,-0.561553955078125,-0.012939453125
1782984534680022500,2.7040224609375,-0.812042236328125,-0.5636138916015625,-0.0079498291015625
1782984534690096600,2.7140966796875,-0.813507080078125,-0.5621185302734375,-0.00469970703125
1782984534700170500,2.72417041015625,-0.8107147216796875,-0.561767578125,-0.0042877197265625
1782984534710244600,2.73424462890625,-0.8023834228515625,-0.563934326171875,-0.0022735595703125
1782984534720318500,2.744318359375,-0.7973785400390625,-0.5679931640625,0.0016326904296875
1782984534730393600,2.7543935546875,-0.796661376953125,-0.5701751708984375,0.0027618408203125
1782984534740467500,2.764467529296875,-0.8047943115234375,-0.570037841796875,0.00030517578125
1782984534750541600,2.77454150390625,-0.8155517578125,-0.5737762451171875,0.0004425048828125
1782984534760615700,2.78461572265625,-0.8217926025390625,-0.57305908203125,0.003143310546875
1782984534770689500,2.794689453125,-0.82501220703125,-0.5741424560546875,0.0051116943359375
1782984534780763600,2.804763671875,-0.8246917724609375,-0.5738525390625,0.0011444091796875
1782984534790837500,2.81483740234375,-0.8295135498046875,-0.5685272216796875,-0.0053863525390625
1782984534800911600,2.82491162109375,-0.8333892822265625,-0.5661163330078125,-0.0132598876953125
1782984534810986500,2.834986572265625,-0.835845947265625,-0.5637359619140625,-0.0150909423828125
1782984534821060600,2.845060546875,-0.8350982666015625,-0.5601806640625,-0.015228271484375
1782984534831134500,2.855134521484375,-0.835479736328125,-0.5630340576171875,-0.0149383544921875
1782984534841208600,2.86520849609375,-0.8264923095703125,-0.561431884765625,-0.0174560546875
1782984534851282700,2.87528271484375,-0.8361663818359375,-0.553558349609375,-0.007110595703125
1782984534861356500,2.8853564453125,-0.8291473388671875,-0.55517578125,-0.016082763671875
1782984534871430700,2.8954306640625,-0.815826416015625,-0.5549468994140625,-0.0180206298828125
1782984534881504500,2.90550439453125,-0.806182861328125,-0.5576629638671875,-0.012176513671875
1782984534891578600,2.91557861328125,-0.8045501708984375,-0.555267333984375,-0.0132293701171875
1782984534901653500,2.925653564453125,-0.817352294921875,-0.555755615234375,-0.0196685791015625
1782984534911727600,2.9357275390625,-0.8306732177734375,-0.554718017578125,-0.0194091796875
1782984534921801500,2.945801513671875,-0.8430023193359375,-0.553009033203125,-0.02154541015625
1782984534931875600,2.95587548828125,-0.8354644775390625,-0.5511016845703125,-0.030853271484375
1782984534941949700,2.96594970703125,-0.8316497802734375,-0.5514373779296875,-0.0332489013671875
1782984534952023600,2.9760234375,-0.827911376953125,-0.5537567138671875,-0.029998779296875
1782984534962097700,2.98609765625,-0.8185577392578125,-0.5535888671875,-0.025848388671875
1782984534972171500,2.996171630859375,-0.813323974609375,-0.558502197265625,-0.0185699462890625
1782984534982246700,3.00624658203125,-0.8108062744140625,-0.5619964599609375,-0.0207977294921875
1782984534992320500,3.016320556640625,-0.8132476806640625,-0.5602569580078125,-0.0197296142578125
1782984535002394600,3.02639453125,-0.815399169921875,-0.558837890625,-0.0141448974609375
1782984535012468500,3.036468505859375,-0.82318115234375,-0.5583343505859375,-0.00537109375
1782984535022542600,3.04654248046875,-0.8300018310546875,-0.558441162109375,-0.0029296875
1782984535032616700,3.05661669921875,-0.824005126953125,-0.560150146484375,-0.002685546875
1782984535042690600,3.066690673828125,-0.8138580322265625,-0.5651702880859375,0.0027923583984375
1782984535052764700,3.0767646484375,-0.8166351318359375,-0.5689849853515625,0.004730224609375
1782984535062839600,3.086839599609375,-0.8185272216796875,-0.5700531005859375,-0.00579833984375
1782984535072913700,3.09691357421875,-0.816009521484375,-0.5685577392578125,-0.0170135498046875
1782984535082987500,3.106987548828125,-0.8091278076171875,-0.56903076171875,-0.0216522216796875
1782984535093061600,3.1170615234375,-0.7987518310546875,-0.5706024169921875,-0.0202484130859375
1782984535103135500,3.127135498046875,-0.791778564453125,-0.5714111328125,-0.017364501953125
1782984535113209600,3.137209716796875,-0.7942657470703125,-0.5747222900390625,-0.0171966552734375
1782984535123283700,3.14728369140625,-0.798736572265625,-0.574066162109375,-0.01690673828125
1782984535133357600,3.157357666015625,-0.80902099609375,-0.571868896484375,-0.016876220703125
1782984535143431700,3.167431640625,-0.8258056640625,-0.5720062255859375,-0.0196380615234375
1782984535153506600,3.177506591796875,-0.8370819091796875,-0.5693511962890625,-0.0200042724609375
1782984535163580700,3.18758056640625,-0.8350067138671875,-0.5703125,-0.0225372314453125
1782984535173654500,3.197654541015625,-0.8256988525390625,-0.5708465576171875,-0.021270751953125
1782984535183728600,3.207728759765625,-0.821044921875,-0.57159423828125,-0.0212554931640625
1782984535193802500,3.217802490234375,-0.812835693359375,-0.5734710693359375,-0.0247802734375
1782984535203876600,3.227876708984375,-0.802642822265625,-0.57562255859375,-0.0194091796875
1782984535213950700,3.23795068359375,-0.7979736328125,-0.5781707763671875,-0.0083465576171875
1782984535224024600,3.248024658203125,-0.8018951416015625,-0.5811614990234375,-0.0045928955078125
1782984535234099700,3.258099609375,-0.80865478515625,-0.581268310546875,-0.008270263671875
1782984535244173600,3.268173583984375,-0.8180084228515625,-0.582305908203125,-0.006927490234375
1782984535254247700,3.27824755859375,-0.817535400390625,-0.5823516845703125,-0.00323486328125
1782984535264321500,3.288321533203125,-0.82147216796875,-0.5878753662109375,-0.0034027099609375
1782984535274395400,3.2983955078125,-0.8243255615234375,-0.593231201171875,-0.00897216796875
1782984535284469500,3.308469482421875,-0.8223876953125,-0.5941009521484375,-0.011688232421875
1782984535294543600,3.318543701171875,-0.8170623779296875,-0.5912628173828125,-0.0077362060546875
1782984535304617700,3.32861767578125,-0.809661865234375,-0.59185791015625,-0.0101470947265625
1782984535314691600,3.338691650390625,-0.805450439453125,-0.5930023193359375,-0.00933837890625
1782984535324766700,3.3487666015625,-0.8040008544921875,-0.5919952392578125,-0.0048980712890625
1782984535334840600,3.358840576171875,-0.8064422607421875,-0.591644287109375,-0.0028228759765625
1782984535344914700,3.368914794921875,-0.8016204833984375,-0.5870208740234375,-0.000885009765625
1782984535354988500,3.378988525390625,-0.7977752685546875,-0.58306884765625,0.003448486328125
1782984535365062400,3.3890625,-0.79656982421875,-0.58489990234375,0.000579833984375
1782984535375136500,3.399136474609375,-0.800445556640625,-0.5847625732421875,0.0017242431640625
1782984535385210600,3.409210693359375,-0.806121826171875,-0.580657958984375,0.0035247802734375
1782984535395284700,3.41928466796875,-0.80865478515625,-0.580108642578125,0.0006866455078125
1782984535405359600,3.429359619140625,-0.808685302734375,-0.5860595703125,-0.0046539306640625
1782984535415433700,3.439433837890625,-0.8050689697265625,-0.5893707275390625,-0.0077667236328125
1782984535425507600,3.449507568359375,-0.7959442138671875,-0.5853118896484375,-0.0186767578125
1782984535435581700,3.459581787109375,-0.7856903076171875,-0.587860107421875,-0.02294921875
1782984535445655600,3.469655517578125,-0.7866668701171875,-0.5926361083984375,-0.0211639404296875
1782984535455729400,3.4797294921875,-0.7956695556640625,-0.59136962890625,-0.0220184326171875
1782984535465803500,3.489803466796875,-0.797821044921875,-0.5973052978515625,-0.024261474609375
1782984535475877600,3.499877685546875,-0.7877044677734375,-0.5996551513671875,-0.01849365234375
1782984535485951700,3.50995166015625,-0.7768707275390625,-0.6005096435546875,-0.0146026611328125
1782984535496026600,3.520026611328125,-0.776580810546875,-0.604156494140625,-0.0150299072265625
1782984535506100700,3.530100830078125,-0.781494140625,-0.6049041748046875,-0.0145416259765625
1782984535516174600,3.540174560546875,-0.7807769775390625,-0.604248046875,-0.014404296875
1782984535526248700,3.550248779296875,-0.7799072265625,-0.6034088134765625,-0.01373291015625
1782984535536322600,3.560322509765625,-0.7822418212890625,-0.602935791015625,-0.014129638671875
1782984535546396400,3.570396484375,-0.788421630859375,-0.6048126220703125,-0.009735107421875
1782984535556470500,3.580470458984375,-0.791107177734375,-0.6067352294921875,-0.0057830810546875
1782984535566544600,3.590544677734375,-0.787689208984375,-0.60589599609375,-0.006927490234375
1782984535576619500,3.60061962890625,-0.787872314453125,-0.6060028076171875,-0.003631591796875
1782984535586693600,3.610693603515625,-0.7918548583984375,-0.60772705078125,-0.0068359375
1782984535596767700,3.620767822265625,-0.795013427734375,-0.6082305908203125,-0.0124359130859375
1782984535606841600,3.630841552734375,-0.7916717529296875,-0.6057891845703125,-0.0146484375
1782984535616915500,3.64091552734375,-0.790130615234375,-0.6067657470703125,-0.0098876953125
1782984535626989600,3.650989501953125,-0.7916259765625,-0.6073455810546875,-0.009613037109375
1782984535637063400,3.6610634765625,-0.7939453125,-0.602813720703125,-0.0061798095703125
1782984535647137500,3.671137451171875,-0.79632568359375,-0.6021881103515625,-0.0113525390625
1782984535657212400,3.68121240234375,-0.804595947265625,-0.5997314453125,-0.0131072998046875
1782984535667286500,3.69128662109375,-0.8071441650390625,-0.5962677001953125,-0.0151519775390625
1782984535677360600,3.701360595703125,-0.8096771240234375,-0.59552001953125,-0.012451171875
1782984535687434800,3.711434814453125,-0.799591064453125,-0.5955963134765625,-0.009368896484375
1782984535697508600,3.721508544921875,-0.7956695556640625,-0.59271240234375,0.0081634521484375
1782984535707582500,3.73158251953125,-0.79461669921875,-0.5956268310546875,0.012115478515625
1782984535717656600,3.741656494140625,-0.7853546142578125,-0.5985870361328125,0.0111846923828125
1782984535727730400,3.75173046875,-0.7800140380859375,-0.5985565185546875,0.0095977783203125
1782984535737804500,3.761804443359375,-0.77667236328125,-0.602081298828125,0.0018463134765625
1782984535747879400,3.77187939453125,-0.77508544921875,-0.602752685546875,-0.0083160400390625
1782984535757953500,3.78195361328125,-0.7724151611328125,-0.602996826171875,-0.0188446044921875
1782984535768027600,3.792027587890625,-0.778717041015625,-0.6016693115234375,-0.0213470458984375
1782984535778101800,3.802101806640625,-0.785369873046875,-0.6039581298828125,-0.018646240234375
1782984535788175600,3.812175537109375,-0.788177490234375,-0.6082763671875,-0.0150604248046875
1782984535798249500,3.82224951171875,-0.7845458984375,-0.6075897216796875,-0.0163116455078125
1782984535808323600,3.832323486328125,-0.7861175537109375,-0.60699462890625,-0.0125732421875
1782984535818397400,3.8423974609375,-0.7826385498046875,-0.6044158935546875,-0.0113677978515625
1782984535828472600,3.85247265625,-0.786224365234375,-0.608367919921875,-0.0135650634765625
1782984535838546400,3.86254638671875,-0.7910919189453125,-0.6084747314453125,-0.0100250244140625
1782984535848620500,3.87262060546875,-0.7933349609375,-0.607757568359375,-0.0074310302734375
1782984535858694700,3.882694580078125,-0.792816162109375,-0.6045989990234375,-0.0044708251953125
1782984535868768800,3.892768798828125,-0.79046630859375,-0.5999298095703125,-0.0049591064453125
1782984535878842600,3.902842529296875,-0.7896881103515625,-0.5987091064453125,-0.00445556640625
1782984535888916500,3.91291650390625,-0.7906951904296875,-0.5999603271484375,-0.004730224609375
1782984535898990600,3.922990478515625,-0.7941131591796875,-0.5978546142578125,-0.0056915283203125
1782984535909064000,3.93306396484375,-0.7979583740234375,-0.59521484375,-0.004852294921875
1782984535919139000,3.94313916015625,-0.794769287109375,-0.595733642578125,-0.0030364990234375
1782984535929213000,3.953212890625,-0.7894439697265625,-0.5953521728515625,-0.0050048828125
1782984535939287300,3.963287353515625,-0.7855224609375,-0.5951690673828125,-0.0074005126953125
1782984535949361200,3.973361083984375,-0.7887115478515625,-0.5973358154296875,-0.01080322265625
1782984535959435300,3.983435302734375,-0.796295166015625,-0.6006317138671875,-0.014312744140625
1782984535969509000,3.993509033203125,-0.7979888916015625,-0.598663330078125,-0.0112152099609375
1782984535979582000,4.00358203125,-0.794708251953125,-0.598358154296875,-0.0094757080078125
1782984535989657000,4.013656982421875,-0.7936248779296875,-0.5993194580078125,-0.0111846923828125
1782984535999731000,4.02373095703125,-0.7923736572265625,-0.5992279052734375,-0.0133056640625
1782984536009805300,4.033805419921875,-0.7952423095703125,-0.6024017333984375,-0.0142669677734375
1782984536019879200,4.043879150390625,-0.7986907958984375,-0.6009063720703125,-0.0140380859375
1782984536029953300,4.053953369140625,-0.7921295166015625,-0.59979248046875,-0.00811767578125
1782984536040027100,4.064027099609375,-0.7861175537109375,-0.600982666015625,-0.004547119140625
1782984536050101200,4.074101318359375,-0.7841339111328125,-0.6063385009765625,-0.0021514892578125
1782984536060175000,4.084175048828125,-0.7898406982421875,-0.6092376708984375,-0.001434326171875
1782984536070250200,4.094250244140625,-0.7924652099609375,-0.6120452880859375,-0.00469970703125
1782984536080324000,4.104323974609375,-0.7885894775390625,-0.6111297607421875,-0.0086669921875
1782984536090398000,4.11439794921875,-0.7875518798828125,-0.6119232177734375,-0.012115478515625
1782984536100472300,4.124472412109375,-0.792938232421875,-0.6104278564453125,-0.0113067626953125
1782984536110546200,4.134546142578125,-0.7933197021484375,-0.610443115234375,-0.01678466796875
1782984536120620300,4.144620361328125,-0.788970947265625,-0.609375,-0.0170440673828125
1782984536130694100,4.154694091796875,-0.781768798828125,-0.6094512939453125,-0.0126800537109375
1782984536140768000,4.16476806640625,-0.781219482421875,-0.6114501953125,-0.010284423828125
1782984536150843100,4.174843017578125,-0.7816009521484375,-0.61187744140625,-0.007080078125
1782984536160917200,4.184917236328125,-0.7880401611328125,-0.616180419921875,-0.0126953125
1782984536170991000,4.1949912109375,-0.78363037109375,-0.616546630859375,-0.0186004638671875
1782984536181065000,4.20506494140625,-0.776458740234375,-0.6138153076171875,-0.0191650390625
1782984536191139300,4.215139404296875,-0.7818756103515625,-0.61376953125,-0.016326904296875
1782984536201213200,4.225213134765625,-0.800018310546875,-0.6147308349609375,-0.0188446044921875
1782984536211287300,4.235287353515625,-0.8115997314453125,-0.612884521484375,-0.0139312744140625
1782984536221361200,4.245361083984375,-0.80950927734375,-0.608123779296875,-0.010284423828125
1782984536231435000,4.25543505859375,-0.8162841796875,-0.6103973388671875,-0.01141357421875
1782984536241510100,4.26551025390625,-0.821624755859375,-0.611297607421875,-0.0127105712890625
1782984536251584000,4.275583984375,-0.81390380859375,-0.6085205078125,-0.013580322265625
1782984536261658000,4.285658203125,-0.79644775390625,-0.6071319580078125,-0.0172576904296875
1782984536271732000,4.29573193359375,-0.777099609375,-0.6107330322265625,-0.01611328125
1782984536281806300,4.305806396484375,-0.754425048828125,-0.611236572265625,-0.0155487060546875
1782984536291880200,4.315880126953125,-0.738006591796875,-0.6088409423828125,-0.0124359130859375
1782984536301954300,4.325954345703125,-0.7276763916015625,-0.61163330078125,-0.0105438232421875
1782984536312028200,4.336028076171875,-0.732330322265625,-0.614776611328125,-0.0108184814453125
1782984536322103300,4.346103271484375,-0.7524261474609375,-0.614349365234375,-0.0146026611328125
1782984536332177200,4.35617724609375,-0.7692413330078125,-0.6119384765625,-0.01739501953125
1782984536342252300,4.366252197265625,-0.7889251708984375,-0.613494873046875,-0.0162200927734375
1782984536352326100,4.376326171875,-0.803131103515625,-0.6154327392578125,-0.010406494140625
1782984536362400000,4.38639990234375,-0.8055267333984375,-0.61541748046875,-0.0044403076171875
1782984536372474000,4.39647412109375,-0.7947998046875,-0.615142822265625,-0.0023956298828125
1782984536382548000,4.4065478515625,-0.7772216796875,-0.6168670654296875,-0.00262451171875
1782984536392622300,4.416622314453125,-0.7618408203125,-0.6210174560546875,-0.0067901611328125
1782984536402696200,4.4266962890625,-0.7553253173828125,-0.6206207275390625,-0.01507568359375
1782984536412770300,4.436770263671875,-0.760101318359375,-0.6173248291015625,-0.0234527587890625
1782984536422845200,4.44684521484375,-0.768951416015625,-0.6182403564453125,-0.0284881591796875
1782984536432919300,4.456919189453125,-0.77398681640625,-0.62408447265625,-0.035858154296875
1782984536442993200,4.4669931640625,-0.778228759765625,-0.6273193359375,-0.031646728515625
1782984536453067000,4.47706689453125,-0.7805938720703125,-0.62384033203125,-0.0283966064453125
1782984536463141000,4.48714111328125,-0.78094482421875,-0.62451171875,-0.0268096923828125
1782984536473215000,4.497215087890625,-0.7801361083984375,-0.627166748046875,-0.0235137939453125
1782984536483289300,4.507289306640625,-0.77984619140625,-0.62939453125,-0.02642822265625
1782984536493363200,4.51736328125,-0.781402587890625,-0.6284637451171875,-0.0254364013671875
1782984536503437300,4.527437255859375,-0.793487548828125,-0.6278533935546875,-0.0253753662109375
1782984536513512200,4.53751220703125,-0.8033599853515625,-0.63037109375,-0.0224456787109375
1782984536523586300,4.54758642578125,-0.8050537109375,-0.62908935546875,-0.035614013671875
1782984536533660200,4.55766015625,-0.7838592529296875,-0.6319580078125,-0.0222930908203125
1782984536543734000,4.567734130859375,-0.7816009521484375,-0.627471923828125,-0.0081634521484375
1782984536553808100,4.57780810546875,-0.7699737548828125,-0.6237945556640625,-0.01470947265625
1782984536563882200,4.58788232421875,-0.7653656005859375,-0.62548828125,-0.014404296875
1782984536573956400,4.597956298828125,-0.766021728515625,-0.62469482421875,-0.0088348388671875
1782984536584030200,4.6080302734375,-0.770843505859375,-0.626922607421875,-0.0120086669921875
1782984536594105300,4.618105224609375,-0.7714996337890625,-0.6215362548828125,-0.014892578125
1782984536604179200,4.62817919921875,-0.7708587646484375,-0.6233673095703125,-0.017913818359375
1782984536614253300,4.63825341796875,-0.76898193359375,-0.624481201171875,-0.0164642333984375
1782984536624327200,4.6483271484375,-0.765869140625,-0.622955322265625,-0.0124359130859375
1782984536634401000,4.658401123046875,-0.764617919921875,-0.623291015625,-0.015350341796875
1782984536644475100,4.66847509765625,-0.756805419921875,-0.6220245361328125,-0.0150604248046875
1782984536654549200,4.67854931640625,-0.7519378662109375,-0.622283935546875,-0.009033203125
1782984536664623400,4.688623291015625,-0.7555084228515625,-0.6268157958984375,-0.0108184814453125
1782984536674698200,4.6986982421875,-0.756103515625,-0.6248321533203125,-0.0140838623046875
1782984536684772400,4.7087724609375,-0.7565155029296875,-0.624481201171875,-0.012420654296875
1782984536694846200,4.71884619140625,-0.7582855224609375,-0.62542724609375,-0.01043701171875
1782984536704920000,4.728920166015625,-0.7649078369140625,-0.6259918212890625,-0.0120086669921875
1782984536714994200,4.738994140625,-0.773712158203125,-0.628265380859375,-0.012451171875
1782984536725068000,4.749068115234375,-0.7860107421875,-0.628753662109375,-0.0142974853515625
1782984536735142100,4.75914208984375,-0.787445068359375,-0.62994384765625,-0.0185394287109375
1782984536745216300,4.76921630859375,-0.7860870361328125,-0.6294403076171875,-0.015228271484375
1782984536755290400,4.779290283203125,-0.78814697265625,-0.629364013671875,-0.0126953125
1782984536765365200,4.789365234375,-0.7777099609375,-0.6293792724609375,-0.0145721435546875
1782984536775439400,4.799439453125,-0.7716522216796875,-0.6264801025390625,-0.009857177734375
1782984536785513200,4.80951318359375,-0.773040771484375,-0.626861572265625,-0.011627197265625
1782984536795587000,4.819587158203125,-0.77154541015625,-0.6284637451171875,-0.0155181884765625
1782984536805661200,4.8296611328125,-0.7704925537109375,-0.62213134765625,-0.0137786865234375
1782984536815735000,4.839735107421875,-0.7736663818359375,-0.618408203125,-0.02459716796875
1782984536825809200,4.84980908203125,-0.7721405029296875,-0.6224212646484375,-0.0185546875
1782984536835883300,4.85988330078125,-0.76934814453125,-0.622039794921875,-0.0047760009765625
1782984536845958100,4.869958251953125,-0.759674072265625,-0.6241455078125,-0.0064239501953125
1782984536856032300,4.8800322265625,-0.751434326171875,-0.6261749267578125,-0.00323486328125
1782984536866106400,4.8901064453125,-0.7508544921875,-0.6245880126953125,-0.0019378662109375
1782984536876180200,4.90018017578125,-0.7621612548828125,-0.624481201171875,-0.0019073486328125
1782984536886254000,4.910254150390625,-0.7693634033203125,-0.6236572265625,-0.0065765380859375
1782984536896328200,4.920328125,-0.7696685791015625,-0.6245269775390625,0.0008544921875
1782984536906402600,4.930402587890625,-0.7702484130859375,-0.6316070556640625,-0.0001373291015625
1782984536916476700,4.9404765625,-0.77325439453125,-0.63104248046875,-0.000091552734375
1782984536926551600,4.950551513671875,-0.777313232421875,-0.63140869140625,-0.0026702880859375
1782984536936625700,4.960625732421875,-0.7795257568359375,-0.6318359375,-0.0060272216796875
1782984536946699500,4.970699462890625,-0.7774658203125,-0.6295318603515625,-0.0056304931640625
1782984536956773600,4.980773681640625,-0.7807464599609375,-0.632568359375,-0.004669189453125
1782984536966847700,4.99084765625,-0.783782958984375,-0.637451171875,-0.00830078125
1782984536976921600,5.000921630859375,-0.7807464599609375,-0.6338958740234375,-0.0070343017578125
1782984536986995700,5.01099560546875,-0.77777099609375,-0.62750244140625,-0.009063720703125
1782984536997069600,5.021069580078125,-0.7764129638671875,-0.6270599365234375,-0.012451171875
1782984537007143700,5.031143798828125,-0.772216796875,-0.6304931640625,0.0048065185546875
1782984537017218600,5.041218505859375,-0.7680511474609375,-0.631805419921875,0.0183868408203125
1782984537027292700,5.051292724609375,-0.765960693359375,-0.6328277587890625,0.0207977294921875
1782984537037366500,5.061366455078125,-0.7548980712890625,-0.632354736328125,0.0195770263671875
1782984537047440600,5.071440673828125,-0.7545928955078125,-0.6262969970703125,0.0158538818359375
1782984537057514800,5.0815146484375,-0.7667388916015625,-0.6249237060546875,0.0022430419921875
1782984537067588600,5.091588623046875,-0.77813720703125,-0.630828857421875,-0.007232666015625
1782984537077662700,5.101662841796875,-0.779205322265625,-0.6296844482421875,-0.0121917724609375
1782984537087736600,5.111736572265625,-0.776763916015625,-0.6313323974609375,-0.0112152099609375
1782984537097811700,5.121811767578125,-0.77044677734375,-0.6356353759765625,-0.0057525634765625
1782984537107885600,5.131885498046875,-0.7669677734375,-0.63897705078125,-0.0024566650390625
1782984537117959700,5.141959716796875,-0.7697601318359375,-0.6399078369140625,0.0020751953125
1782984537128033500,5.152033447265625,-0.76947021484375,-0.6356201171875,0.0015869140625
1782984537138108000,5.16210791015625,-0.7751312255859375,-0.6378631591796875,0.001434326171875
1782984537148181800,5.172181640625,-0.778350830078125,-0.637969970703125,0.0002288818359375
1782984537158255600,5.182255615234375,-0.770904541015625,-0.637359619140625,-0.002655029296875
1782984537168329700,5.192329833984375,-0.7651519775390625,-0.63775634765625,0.0032196044921875
1782984537178404600,5.202404541015625,-0.759613037109375,-0.636810302734375,0.0027313232421875
1782984537188478700,5.212478759765625,-0.761993408203125,-0.635406494140625,-0.0005340576171875
1782984537198552600,5.222552490234375,-0.764404296875,-0.63604736328125,-0.0004730224609375
1782984537208626700,5.232626708984375,-0.762786865234375,-0.6328277587890625,0.0019683837890625
1782984537218700500,5.242700439453125,-0.758056640625,-0.6319427490234375,0.0071563720703125
1782984537228774700,5.252774658203125,-0.756927490234375,-0.6313934326171875,0.0054779052734375
1782984537238848800,5.262848876953125,-0.7557373046875,-0.6334075927734375,0.002532958984375
1782984537248922600,5.272922607421875,-0.7613677978515625,-0.6314849853515625,-0.0001678466796875
1782984537258997800,5.282997802734375,-0.75946044921875,-0.63311767578125,-0.0072174072265625
1782984537269071600,5.293071533203125,-0.7633056640625,-0.6342315673828125,-0.0097198486328125
1782984537279145700,5.303145751953125,-0.76531982421875,-0.6385498046875,-0.010833740234375
1782984537289219600,5.313219482421875,-0.7625885009765625,-0.6376495361328125,-0.0098876953125
1782984537299293700,5.323293701171875,-0.7592010498046875,-0.6356658935546875,-0.0074920654296875
1782984537309367600,5.333367431640625,-0.761444091796875,-0.6382598876953125,-0.00946044921875
1782984537319441700,5.343441650390625,-0.7641143798828125,-0.637054443359375,-0.006988525390625
1782984537329515800,5.353515869140625,-0.7668914794921875,-0.6371612548828125,-0.00433349609375
1782984537339589600,5.363589599609375,-0.7696685791015625,-0.6396026611328125,0.0004425048828125
1782984537349664800,5.373664794921875,-0.770751953125,-0.6392364501953125,0.0020904541015625
1782984537359738600,5.383738525390625,-0.7699432373046875,-0.6400604248046875,0.0005035400390625
1782984537369812700,5.393812744140625,-0.76263427734375,-0.639923095703125,-0.0010528564453125
1782984537379886600,5.403886474609375,-0.7544097900390625,-0.6420135498046875,0.005706787109375
1782984537389960700,5.413960693359375,-0.758819580078125,-0.6460723876953125,0.009521484375
1782984537400034600,5.42403466796875,-0.764556884765625,-0.645751953125,0.00311279296875
1782984537410108700,5.434108642578125,-0.7604522705078125,-0.6405181884765625,-0.0013580322265625
1782984537420182800,5.444182861328125,-0.7500762939453125,-0.638092041015625,-0.006317138671875
1782984537430257700,5.454257568359375,-0.742706298828125,-0.640106201171875,-0.0084075927734375
1782984537440331800,5.464331787109375,-0.7383880615234375,-0.6419525146484375,-0.00506591796875
1782984537450405600,5.474405517578125,-0.750244140625,-0.6378173828125,-0.000579833984375
1782984537460479700,5.484479736328125,-0.7722320556640625,-0.6359710693359375,-0.006500244140625
1782984537470553600,5.4945537109375,-0.7835693359375,-0.638580322265625,-0.0068511962890625
1782984537480627700,5.504627685546875,-0.782806396484375,-0.6413116455078125,-0.0026702880859375
1782984537490701600,5.51470166015625,-0.7684326171875,-0.639923095703125,-0.0042724609375
1782984537500775700,5.524775634765625,-0.7548980712890625,-0.6380462646484375,-0.0067138671875
1782984537510850600,5.5348505859375,-0.7358551025390625,-0.63739013671875,-0.0033111572265625
1782984537520924700,5.544924560546875,-0.7250823974609375,-0.639923095703125,-0.0035552978515625
1782984537530998800,5.554998779296875,-0.7248992919921875,-0.6427154541015625,-0.0054779052734375
1782984537541072600,5.56507275390625,-0.725433349609375,-0.6431884765625,-0.0074310302734375
1782984537551146800,5.575146728515625,-0.7334442138671875,-0.64483642578125,-0.00579833984375
1782984537561220600,5.585220703125,-0.748565673828125,-0.6497344970703125,-0.0026092529296875
1782984537571294500,5.59529443359375,-0.76800537109375,-0.64996337890625,-0.00390625
1782984537581368600,5.60536865234375,-0.769287109375,-0.6489715576171875,-0.00762939453125
1782984537591442700,5.615442626953125,-0.7657318115234375,-0.649810791015625,-0.0049591064453125
1782984537601517600,5.625517578125,-0.7616729736328125,-0.652618408203125,-0.0069580078125
1782984537611591700,5.635591796875,-0.7568206787109375,-0.6538848876953125,-0.0103912353515625
1782984537621665800,5.645665771484375,-0.7582244873046875,-0.6514892578125,-0.01397705078125
1782984537631739600,5.65573974609375,-0.7595367431640625,-0.6475982666015625,-0.0135040283203125
1782984537641813800,5.665813720703125,-0.763763427734375,-0.6475372314453125,-0.002716064453125
1782984537651887600,5.6758876953125,-0.7690277099609375,-0.652496337890625,0.0102691650390625
1782984537661961500,5.68596142578125,-0.7667694091796875,-0.6541290283203125,0.0196380615234375
1782984537672035600,5.69603564453125,-0.753021240234375,-0.649810791015625,0.02215576171875
1782984537682110500,5.7061103515625,-0.750152587890625,-0.6528167724609375,0.014862060546875
1782984537692184600,5.7161845703125,-0.74560546875,-0.65606689453125,0.0037078857421875
1782984537702258700,5.7262587890625,-0.743682861328125,-0.65399169921875,-0.001220703125
1782984537712332800,5.736332763671875,-0.7450103759765625,-0.652618408203125,-0.0128173828125
1782984537722406700,5.74640673828125,-0.743682861328125,-0.6512603759765625,-0.0197601318359375
1782984537732480800,5.756480712890625,-0.757659912109375,-0.650604248046875,-0.0181732177734375
1782984537742554600,5.7665546875,-0.7653045654296875,-0.652313232421875,-0.0154876708984375
1782984537752628500,5.77662841796875,-0.7577056884765625,-0.6504058837890625,-0.0123138427734375
1782984537762703600,5.78670361328125,-0.7449798583984375,-0.6495513916015625,-0.0075836181640625
1782984537772777500,5.796777587890625,-0.735870361328125,-0.6516265869140625,-0.008636474609375
1782984537782851600,5.8068515625,-0.7365264892578125,-0.64947509765625,-0.0105743408203125
1782984537792925700,5.81692578125,-0.7404022216796875,-0.6484832763671875,-0.0090179443359375
1782984537802999800,5.826999755859375,-0.743896484375,-0.650726318359375,-0.004791259765625
1782984537813073700,5.83707373046875,-0.7510833740234375,-0.6494598388671875,-0.00140380859375
1782984537823147800,5.847147705078125,-0.7528228759765625,-0.6481475830078125,-0.0030517578125
1782984537833221600,5.8572216796875,-0.758087158203125,-0.644500732421875,-0.0025482177734375
1782984537843295500,5.86729541015625,-0.7542724609375,-0.6500701904296875,-0.0010986328125
1782984537853370600,5.87737060546875,-0.7612762451171875,-0.6526031494140625,0.001922607421875
1782984537863444500,5.887444580078125,-0.7745513916015625,-0.6500396728515625,0.0068511962890625
1782984537873518600,5.8975185546875,-0.776885986328125,-0.6517486572265625,0.0030975341796875
1782984537883592700,5.9075927734375,-0.769927978515625,-0.6542510986328125,0.00140380859375
1782984537893666800,5.917666748046875,-0.7596588134765625,-0.6509246826171875,-0.004150390625
1782984537903740700,5.92774072265625,-0.75689697265625,-0.64715576171875,-0.0076904296875
1782984537913813500,5.9378134765625,-0.7563018798828125,-0.6457977294921875,-0.012908935546875
1782984537923887600,5.9478876953125,-0.7526702880859375,-0.651031494140625,-0.0077667236328125
1782984537933962500,5.95796240234375,-0.7554168701171875,-0.65643310546875,-0.0019683837890625
1782984537944036600,5.96803662109375,-0.761688232421875,-0.6578826904296875,-0.00335693359375
1782984537954110700,5.97811083984375,-0.7586212158203125,-0.6566619873046875,-0.00946044921875
1782984537964184600,5.9881845703125,-0.7451171875,-0.6570281982421875,-0.0071258544921875
1782984537974258700,5.9982587890625,-0.7299652099609375,-0.656707763671875,-0.0002899169921875
1782984537984332500,6.00833251953125,-0.7229766845703125,-0.6609649658203125,-0.00189208984375
1782984537994406700,6.01840673828125,-0.719390869140625,-0.66552734375,-0.0037689208984375
1782984538004480500,6.02848046875,-0.712860107421875,-0.6642608642578125,-0.0013885498046875
1782984538014555600,6.0385556640625,-0.7064208984375,-0.6656036376953125,0.0002288818359375
1782984538024629500,6.04862939453125,-0.7119598388671875,-0.6698455810546875,-0.001953125
1782984538034703600,6.05870361328125,-0.7257232666015625,-0.672027587890625,-0.003570556640625
1782984538044777700,6.06877783203125,-0.7321929931640625,-0.671173095703125,-0.0013580322265625
1782984538054851600,6.0788515625,-0.746063232421875,-0.6722412109375,-0.0017547607421875
1782984538064925700,6.08892578125,-0.75079345703125,-0.6772003173828125,-0.0063018798828125
1782984538074999600,6.09899951171875,-0.7503509521484375,-0.6734771728515625,-0.004730224609375
1782984538085073400,6.109073486328125,-0.7532958984375,-0.672637939453125,-0.007110595703125
1782984538095148500,6.1191484375,-0.7534332275390625,-0.67169189453125,-0.01116943359375
1782984538105222400,6.129222412109375,-0.7512359619140625,-0.6703033447265625,-0.0102691650390625
1782984538115296500,6.139296630859375,-0.7379302978515625,-0.669677734375,-0.0050811767578125
1782984538125370600,6.14937060546875,-0.7316741943359375,-0.6721954345703125,-0.00079345703125
1782984538135444700,6.15944482421875,-0.7303314208984375,-0.6729888916015625,-0.0033111572265625
1782984538145518600,6.1695185546875,-0.730010986328125,-0.6709747314453125,-0.0043487548828125
1782984538155592700,6.1795927734375,-0.734466552734375,-0.6666412353515625,-0.0044708251953125
1782984538165666600,6.18966650390625,-0.7343902587890625,-0.66619873046875,-0.0040740966796875
1782984538175740400,6.199740478515625,-0.739532470703125,-0.66632080078125,-0.00445556640625
1782984538185815600,6.209815673828125,-0.744598388671875,-0.6638031005859375,-0.0085296630859375
1782984538195889400,6.219889404296875,-0.7462615966796875,-0.6604766845703125,-0.0147247314453125
1782984538205963500,6.229963623046875,-0.7413330078125,-0.6616973876953125,-0.01214599609375
1782984538216037600,6.24003759765625,-0.731903076171875,-0.664764404296875,-0.0121917724609375
1782984538226111700,6.25011181640625,-0.7232208251953125,-0.6673126220703125,-0.00543212890625
1782984538236185600,6.260185546875,-0.7199249267578125,-0.666534423828125,-0.0030364990234375
1782984538246259700,6.270259765625,-0.7198638916015625,-0.665374755859375,-0.00531005859375
1782984538256333600,6.28033349609375,-0.7256622314453125,-0.6660003662109375,-0.0054931640625
1782984538266408700,6.29040869140625,-0.728179931640625,-0.667510986328125,-0.004638671875
1782984538276482600,6.300482666015625,-0.7319793701171875,-0.671844482421875,-0.0069732666015625
1782984538286556400,6.310556396484375,-0.7311859130859375,-0.676727294921875,-0.0139923095703125
1782984538296630500,6.320630615234375,-0.7249603271484375,-0.671875,-0.0144805908203125
1782984538306704600,6.33070458984375,-0.7275390625,-0.6678924560546875,-0.0135345458984375
1782984538316778800,6.34077880859375,-0.7367095947265625,-0.670318603515625,-0.010589599609375
1782984538326852600,6.3508525390625,-0.7409515380859375,-0.6737213134765625,0.0009613037109375
1782984538336926700,6.3609267578125,-0.733062744140625,-0.6721954345703125,0.010467529296875
1782984538347001600,6.371001708984375,-0.7253875732421875,-0.6719818115234375,0.012481689453125
1782984538357075700,6.38107568359375,-0.7175750732421875,-0.679595947265625,0.01007080078125
1782984538367149600,6.391149658203125,-0.71832275390625,-0.6812744140625,0.0033416748046875
1782984538377223400,6.401223388671875,-0.7193450927734375,-0.680572509765625,-0.007049560546875
1782984538387297500,6.411297607421875,-0.7198028564453125,-0.6821136474609375,-0.0200653076171875
1782984538397371600,6.42137158203125,-0.71728515625,-0.6837310791015625,-0.0241546630859375
1782984538407445800,6.43144580078125,-0.7144622802734375,-0.6837921142578125,-0.020111083984375
1782984538417519600,6.44151953125,-0.721160888671875,-0.6837615966796875,-0.0209197998046875
1782984538427593500,6.451593505859375,-0.73486328125,-0.686676025390625,-0.0206451416015625
1782984538437668600,6.461668701171875,-0.7440032958984375,-0.68280029296875,-0.018951416015625
1782984538447742700,6.47174267578125,-0.75042724609375,-0.68109130859375,-0.0187530517578125
1782984538457816600,6.481816650390625,-0.7545318603515625,-0.6844940185546875,-0.014984130859375
1782984538467890400,6.491890380859375,-0.7524871826171875,-0.6849365234375,-0.013427734375
1782984538477964500,6.501964599609375,-0.7381591796875,-0.684783935546875,-0.0124969482421875
1782984538488038700,6.51203857421875,-0.72503662109375,-0.6824188232421875,-0.0105438232421875
1782984538498112800,6.52211279296875,-0.7172088623046875,-0.6814727783203125,-0.0118255615234375
1782984538508186600,6.5321865234375,-0.715179443359375,-0.6810455322265625,-0.01153564453125
1782984538518261800,6.54226171875,-0.7230377197265625,-0.681884765625,-0.004486083984375
1782984538528335600,6.552335693359375,-0.728240966796875,-0.6822662353515625,-0.00299072265625
1782984538538409500,6.562409423828125,-0.7205352783203125,-0.6805572509765625,-0.000579833984375
1782984538548483600,6.572483642578125,-0.7099609375,-0.6800079345703125,0.00030517578125
1782984538558557400,6.582557373046875,-0.704254150390625,-0.683135986328125,-0.0027923583984375
1782984538568631600,6.592631591796875,-0.71124267578125,-0.6825408935546875,-0.0069732666015625
1782984538578705700,6.60270556640625,-0.720947265625,-0.678863525390625,-0.0100860595703125
1782984538588779800,6.61277978515625,-0.727630615234375,-0.6819610595703125,-0.0136566162109375
1782984538598854700,6.622854736328125,-0.72503662109375,-0.6879119873046875,-0.014007568359375
1782984538608928800,6.6329287109375,-0.7279815673828125,-0.68695068359375,-0.0076446533203125
1782984538619002600,6.643002685546875,-0.7365570068359375,-0.6871185302734375,-0.012725830078125
1782984538629076500,6.653076416015625,-0.727996826171875,-0.6876678466796875,-0.008331298828125
1782984538639150600,6.663150634765625,-0.7104034423828125,-0.6897735595703125,-0.0035552978515625
1782984538649224400,6.673224365234375,-0.695037841796875,-0.6934967041015625,-0.005889892578125
1782984538659298600,6.683298583984375,-0.6815643310546875,-0.6926422119140625,-0.0048370361328125
1782984538669372700,6.69337255859375,-0.6797637939453125,-0.69134521484375,-0.003387451171875
1782984538679447600,6.703447509765625,-0.6880340576171875,-0.6907806396484375,-0.007293701171875
1782984538689521700,6.713521728515625,-0.7027435302734375,-0.6900634765625,-0.0118560791015625
1782984538699595800,6.723595703125,-0.7303924560546875,-0.6894989013671875,-0.0152130126953125
1782984538709669600,6.733669677734375,-0.7469329833984375,-0.6931304931640625,-0.018524169921875
1782984538719743500,6.743743408203125,-0.7544097900390625,-0.6946563720703125,-0.0161895751953125
1782984538729817600,6.753817626953125,-0.7451171875,-0.6934356689453125,-0.0165863037109375
1782984538739891500,6.763891357421875,-0.73333740234375,-0.693756103515625,-0.0149383544921875
1782984538749965600,6.773965576171875,-0.727081298828125,-0.6947479248046875,-0.0173187255859375
1782984538760040400,6.78404052734375,-0.713165283203125,-0.6919403076171875,-0.0169677734375
1782984538770114600,6.794114501953125,-0.710601806640625,-0.6891326904296875,-0.0135955810546875
1782984538780188700,6.804188720703125,-0.7124786376953125,-0.69024658203125,-0.01068115234375
1782984538790262800,6.8142626953125,-0.7141571044921875,-0.6878662109375,-0.0148773193359375
1782984538800336600,6.824336669921875,-0.7142791748046875,-0.680023193359375,-0.0163116455078125
1782984538810410500,6.834410400390625,-0.7171630859375,-0.67974853515625,-0.0174102783203125
1782984538820484600,6.844484619140625,-0.7150115966796875,-0.6830291748046875,-0.0145416259765625
1782984538830558500,6.854558349609375,-0.7091522216796875,-0.683013916015625,-0.01080322265625
1782984538840632600,6.864632568359375,-0.7068939208984375,-0.6822052001953125,-0.0109405517578125
1782984538850707500,6.87470751953125,-0.7047576904296875,-0.6843414306640625,-0.0086212158203125
1782984538860781600,6.884781494140625,-0.7066192626953125,-0.6870574951171875,-0.011810302734375
1782984538870855700,6.894855712890625,-0.709747314453125,-0.6861572265625,-0.012969970703125
1782984538880929500,6.904929443359375,-0.7100677490234375,-0.6872711181640625,-0.0087432861328125
1782984538891003600,6.915003662109375,-0.712554931640625,-0.6896209716796875,-0.0079345703125
1782984538901077500,6.925077392578125,-0.7144012451171875,-0.6912689208984375,-0.0105438232421875
1782984538911152000,6.935152099609375,-0.7144775390625,-0.6894073486328125,-0.00860595703125
1782984538921227300,6.945227294921875,-0.713623046875,-0.69097900390625,-0.0107269287109375
1782984538931301000,6.955301025390625,-0.7106170654296875,-0.6907196044921875,-0.00732421875
1782984538941375200,6.965375244140625,-0.71014404296875,-0.6942138671875,-0.0114898681640625
1782984538951449000,6.975448974609375,-0.712127685546875,-0.6938629150390625,-0.0113983154296875
1782984538961523000,6.98552294921875,-0.713470458984375,-0.6935272216796875,-0.01080322265625
1782984538971597300,6.995597412109375,-0.718841552734375,-0.6975860595703125,-0.0131072998046875
1782984538981671200,7.005671142578125,-0.718841552734375,-0.69488525390625,-0.013702392578125
1782984538991745300,7.015745361328125,-0.717254638671875,-0.694061279296875,-0.0129852294921875
1782984539001819100,7.025819091796875,-0.7083587646484375,-0.696746826171875,-0.016082763671875
1782984539011894300,7.035894287109375,-0.7050323486328125,-0.696990966796875,-0.0153961181640625
1782984539021968100,7.045968017578125,-0.7057647705078125,-0.6977081298828125,-0.016876220703125
1782984539032042200,7.056042236328125,-0.7064666748046875,-0.6956329345703125,-0.016754150390625
1782984539042116000,7.0661162109375,-0.7126922607421875,-0.69317626953125,-0.01971435546875
1782984539052190000,7.07618994140625,-0.721832275390625,-0.6929931640625,-0.012664794921875
1782984539062264300,7.086264404296875,-0.7254486083984375,-0.6927490234375,-0.0015106201171875
1782984539072338200,7.096338134765625,-0.7212982177734375,-0.6935272216796875,0.0060882568359375
1782984539082412300,7.106412353515625,-0.714569091796875,-0.6912689208984375,0.0093994140625
1782984539092487200,7.116487060546875,-0.702484130859375,-0.6934661865234375,0.0069427490234375
1782984539102561300,7.126561279296875,-0.6940460205078125,-0.6966705322265625,-0.0073394775390625
1782984539112635100,7.13663525390625,-0.6974334716796875,-0.696075439453125,-0.0237274169921875
1782984539122709200,7.146709228515625,-0.7024383544921875,-0.690765380859375,-0.0308990478515625
1782984539132783000,7.156783203125,-0.7122039794921875,-0.6905975341796875,-0.0345001220703125
1782984539142857000,7.16685693359375,-0.7299652099609375,-0.692657470703125,-0.0353546142578125
1782984539152931300,7.176931396484375,-0.7307281494140625,-0.69427490234375,-0.0306549072265625
1782984539163005200,7.187005126953125,-0.724456787109375,-0.69195556640625,-0.0213470458984375
1782984539173080300,7.197080322265625,-0.7107391357421875,-0.6939544677734375,-0.016632080078125
1782984539183154200,7.207154296875,-0.7038421630859375,-0.6961822509765625,-0.0158538818359375
1782984539193228300,7.217228271484375,-0.69873046875,-0.6983184814453125,-0.0160369873046875
1782984539203302100,7.22730224609375,-0.7003631591796875,-0.697601318359375,-0.012786865234375
1782984539213376300,7.237376220703125,-0.7054290771484375,-0.69970703125,-0.0084991455078125
1782984539223450000,7.2474501953125,-0.711334228515625,-0.698272705078125,-0.007965087890625
1782984539233524000,7.25752392578125,-0.711029052734375,-0.6979827880859375,-0.0067596435546875
1782984539243598300,7.267598388671875,-0.700408935546875,-0.6966400146484375,-0.0042724609375
1782984539253673000,7.2776728515625,-0.69781494140625,-0.695892333984375,-0.0028228759765625
1782984539263747300,7.287747314453125,-0.702056884765625,-0.6951751708984375,-0.003936767578125
1782984539273821200,7.2978212890625,-0.70758056640625,-0.69586181640625,-0.001739501953125
1782984539283895300,7.307895263671875,-0.70928955078125,-0.6943206787109375,0.00146484375
1782984539293969200,7.31796923828125,-0.7083282470703125,-0.6946868896484375,0.0028839111328125
1782984539304043000,7.32804296875,-0.709716796875,-0.6956024169921875,0.000732421875
1782984539314117000,7.3381171875,-0.708526611328125,-0.6955413818359375,-0.007720947265625
1782984539324191000,7.34819091796875,-0.7130584716796875,-0.695587158203125,-0.0090484619140625
1782984539334265300,7.358265380859375,-0.711578369140625,-0.6978607177734375,-0.012939453125
1782984539344340000,7.368340087890625,-0.707550048828125,-0.69903564453125,-0.011077880859375
1782984539354414300,7.378414306640625,-0.7061767578125,-0.697967529296875,-0.010833740234375
1782984539364488200,7.38848828125,-0.7067413330078125,-0.6992034912109375,-0.0134124755859375
1782984539374562300,7.398562255859375,-0.7099456787109375,-0.6992950439453125,-0.0107269287109375
1782984539384636200,7.40863623046875,-0.714111328125,-0.700958251953125,-0.0081024169921875
1782984539394710000,7.4187099609375,-0.715850830078125,-0.7000274658203125,-0.010040283203125
1782984539404784000,7.4287841796875,-0.710418701171875,-0.69793701171875,-0.011444091796875
1782984539414858000,7.43885791015625,-0.702606201171875,-0.6973724365234375,-0.0103912353515625
1782984539424933000,7.44893310546875,-0.7047882080078125,-0.7013397216796875,-0.0110321044921875
1782984539435007000,7.459007080078125,-0.7064056396484375,-0.702423095703125,-0.0121612548828125
1782984539445081300,7.469081298828125,-0.71240234375,-0.6992950439453125,-0.0124664306640625
1782984539455155200,7.4791552734375,-0.7161102294921875,-0.6989288330078125,-0.0128173828125
1782984539465229300,7.489229248046875,-0.7097015380859375,-0.70111083984375,-0.0134429931640625
1782984539475303200,7.49930322265625,-0.7030029296875,-0.7014617919921875,-0.0110015869140625
1782984539485377000,7.509376953125,-0.702117919921875,-0.703155517578125,-0.012664794921875
1782984539495451100,7.519451171875,-0.7035064697265625,-0.6989898681640625,-0.0154266357421875
1782984539505526000,7.529526123046875,-0.7048187255859375,-0.6961669921875,-0.0140380859375
1782984539515600100,7.53960009765625,-0.706939697265625,-0.69952392578125,-0.00836181640625
1782984539525674000,7.549674072265625,-0.7142181396484375,-0.7033538818359375,-0.007965087890625
1782984539535748400,7.559748291015625,-0.7186126708984375,-0.7020263671875,-0.0101470947265625
1782984539545822200,7.569822265625,-0.7137298583984375,-0.6993560791015625,-0.0096282958984375
1782984539555896300,7.579896240234375,-0.7159576416015625,-0.6994781494140625,-0.009429931640625
1782984539565970200,7.58997021484375,-0.71826171875,-0.7005157470703125,-0.0132598876953125
1782984539576044000,7.6000439453125,-0.7121734619140625,-0.6997528076171875,-0.011993408203125
1782984539586119200,7.610119140625,-0.7045745849609375,-0.6988677978515625,-0.0110626220703125
1782984539596193000,7.620193115234375,-0.7053985595703125,-0.6973419189453125,-0.0159912109375
1782984539606267100,7.63026708984375,-0.7128753662109375,-0.6955108642578125,-0.0178680419921875
1782984539616341000,7.640341064453125,-0.7174072265625,-0.694915771484375,-0.0173187255859375
1782984539626415400,7.650415283203125,-0.714019775390625,-0.6952056884765625,-0.015167236328125
1782984539636489200,7.6604892578125,-0.7073211669921875,-0.693603515625,-0.0156707763671875
1782984539646563000,7.67056298828125,-0.69873046875,-0.6928863525390625,-0.01641845703125
1782984539656637200,7.68063720703125,-0.6974334716796875,-0.6932220458984375,-0.012176513671875
1782984539666712000,7.690712158203125,-0.6974639892578125,-0.6961669921875,-0.014251708984375
1782984539676786200,7.7007861328125,-0.7016448974609375,-0.697998046875,-0.0136260986328125
1782984539686860000,7.710860107421875,-0.7108001708984375,-0.6971435546875,-0.0180511474609375
1782984539696934100,7.72093408203125,-0.7171173095703125,-0.69744873046875,-0.018463134765625
1782984539707008000,7.731008056640625,-0.7188568115234375,-0.7024688720703125,-0.0164031982421875
1782984539717082400,7.741082275390625,-0.71722412109375,-0.7078399658203125,-0.01275634765625
1782984539727156200,7.75115625,-0.7086029052734375,-0.70587158203125,-0.022979736328125
1782984539737230000,7.76122998046875,-0.69549560546875,-0.702850341796875,-0.0233612060546875
1782984539747305200,7.77130517578125,-0.6914520263671875,-0.7074737548828125,-0.01806640625
1782984539757379000,7.781379150390625,-0.6956329345703125,-0.7082977294921875,-0.02337646484375
1782984539767453200,7.791453125,-0.702362060546875,-0.707672119140625,-0.0226287841796875
1782984539777527000,7.801527099609375,-0.7102813720703125,-0.704193115234375,-0.0206146240234375
1782984539787601200,7.81160107421875,-0.716156005859375,-0.7042236328125,-0.0250244140625
1782984539797675000,7.821675048828125,-0.719329833984375,-0.700592041015625,-0.0285491943359375
1782984539807749400,7.831749267578125,-0.7169036865234375,-0.6951446533203125,-0.0238189697265625
1782984539817823200,7.8418232421875,-0.712677001953125,-0.694305419921875,-0.0099029541015625
1782984539827898400,7.8518984375,-0.708770751953125,-0.695770263671875,0.0013885498046875
1782984539837972200,7.86197216796875,-0.70123291015625,-0.6970062255859375,0.0091400146484375
1782984539848046000,7.872046142578125,-0.693145751953125,-0.695098876953125,0.0094451904296875
1782984539858120200,7.8821201171875,-0.684967041015625,-0.6942138671875,0.002227783203125
1782984539868194000,7.892194091796875,-0.685302734375,-0.696136474609375,-0.01153564453125
1782984539878268200,7.90226806640625,-0.6941986083984375,-0.6948394775390625,-0.0236663818359375
1782984539888342000,7.912342041015625,-0.70623779296875,-0.693572998046875,-0.031036376953125
1782984539898416400,7.92241650390625,-0.716217041015625,-0.68988037109375,-0.032501220703125
1782984539908489500,7.932489501953125,-0.7196502685546875,-0.6915130615234375,-0.0280303955078125
1782984539918564600,7.942564697265625,-0.72137451171875,-0.6949462890625,-0.02239990234375
1782984539928638500,7.952638427734375,-0.7185211181640625,-0.6974945068359375,-0.0189361572265625
1782984539938712600,7.962712646484375,-0.7143096923828125,-0.6966705322265625,-0.0116424560546875
1782984539948786400,7.972786376953125,-0.7038116455078125,-0.6950531005859375,-0.0092315673828125
1782984539958860500,7.982860595703125,-0.6993560791015625,-0.6946868896484375,-0.0072479248046875
1782984539968934700,7.9929345703125,-0.6982421875,-0.69720458984375,-0.006927490234375
1782984539979008500,8.003008544921874,-0.701507568359375,-0.6938629150390625,-0.004241943359375
1782984539989082600,8.01308251953125,-0.7030792236328125,-0.6929473876953125,-0.00048828125
1782984539999156500,8.023156494140625,-0.699066162109375,-0.69293212890625,-0.00164794921875
1782984540009230600,8.033230712890624,-0.7015533447265625,-0.6944580078125,-0.000762939453125
1782984540019304400,8.043304443359375,-0.7129974365234375,-0.697509765625,-0.004425048828125
1782984540029378600,8.053378662109376,-0.719085693359375,-0.6954803466796875,-0.0025787353515625
1782984540039452700,8.06345263671875,-0.724578857421875,-0.699798583984375,-0.00042724609375
1782984540049526500,8.073526611328125,-0.7216949462890625,-0.7048187255859375,-0.003692626953125
1782984540059601700,8.0836015625,-0.7183837890625,-0.704437255859375,-0.005950927734375
1782984540069675500,8.093675537109375,-0.7121429443359375,-0.699676513671875,-0.0108489990234375
1782984540079749600,8.10374951171875,-0.7060394287109375,-0.7000579833984375,-0.0144805908203125
1782984540089823500,8.113823486328124,-0.70416259765625,-0.699310302734375,-0.0170745849609375
1782984540099897600,8.123897705078125,-0.70916748046875,-0.699127197265625,-0.018157958984375
1782984540109971500,8.133971435546876,-0.7151641845703125,-0.701171875,-0.0178985595703125
1782984540120045300,8.14404541015625,-0.7168121337890625,-0.6999359130859375,-0.017669677734375
1782984540130119700,8.15411962890625,-0.710052490234375,-0.7015533447265625,-0.015869140625
1782984540140194600,8.164194580078124,-0.70587158203125,-0.70037841796875,-0.01165771484375
1782984540150268700,8.1742685546875,-0.7033843994140625,-0.6997222900390625,-0.0100250244140625
1782984540160342500,8.184342529296876,-0.6965179443359375,-0.699798583984375,-0.0088043212890625
1782984540170416600,8.194416748046875,-0.6944580078125,-0.702423095703125,-0.006439208984375
1782984540180490500,8.204490478515625,-0.698089599609375,-0.7025909423828125,-0.005615234375
1782984540190564600,8.214564697265626,-0.701751708984375,-0.701385498046875,-0.0084228515625
1782984540200638500,8.224638427734375,-0.7047576904296875,-0.7031402587890625,-0.0086212158203125
1782984540210712300,8.23471240234375,-0.7074127197265625,-0.70330810546875,-0.0078887939453125
1782984540220786700,8.24478662109375,-0.709503173828125,-0.7026824951171875,-0.0088348388671875
1782984540230861300,8.254861328125,-0.7086181640625,-0.7010498046875,-0.01226806640625
1782984540240935700,8.264935791015626,-0.7060699462890625,-0.6992645263671875,-0.01348876953125
1782984540251009500,8.275009521484375,-0.702728271484375,-0.7007293701171875,-0.0133819580078125
1782984540261083600,8.285083740234375,-0.6958770751953125,-0.7005157470703125,-0.0123443603515625
1782984540271157500,8.295157470703124,-0.69622802734375,-0.6984710693359375,-0.0127410888671875
1782984540281231600,8.305231689453125,-0.69464111328125,-0.6978302001953125,-0.0118255615234375
1782984540291305500,8.315305419921875,-0.6948089599609375,-0.6981964111328125,-0.009918212890625
1782984540301380600,8.325380615234375,-0.70147705078125,-0.6957244873046875,-0.0090179443359375
1782984540311454500,8.335454345703125,-0.7139739990234375,-0.6942596435546875,-0.0135650634765625
1782984540321528300,8.3455283203125,-0.7218475341796875,-0.696533203125,-0.012603759765625
1782984540331602700,8.355602783203125,-0.7225799560546875,-0.697174072265625,-0.011474609375
1782984540341676500,8.365676513671875,-0.71356201171875,-0.698272705078125,-0.009185791015625
1782984540351750700,8.375750732421874,-0.708648681640625,-0.700531005859375,-0.0049896240234375
1782984540361824500,8.385824462890625,-0.71490478515625,-0.6991424560546875,-0.0052490234375
1782984540371898600,8.395898681640626,-0.72088623046875,-0.6970977783203125,-0.011871337890625
1782984540381972500,8.405972412109374,-0.7217864990234375,-0.6966400146484375,-0.0108795166015625
1782984540392047600,8.416047607421875,-0.7207794189453125,-0.697174072265625,-0.0076751708984375
1782984540402121500,8.42612158203125,-0.7108001708984375,-0.6970672607421875,-0.0083160400390625
1782984540412195300,8.4361953125,-0.7071380615234375,-0.6964874267578125,-0.0012969970703125
1782984540422269700,8.446269775390626,-0.703704833984375,-0.6999664306640625,-0.0065460205078125
1782984540432343600,8.456343505859374,-0.701629638671875,-0.701324462890625,-0.01171875
1782984540442417700,8.466417724609375,-0.6986846923828125,-0.698699951171875,-0.0086517333984375
1782984540452491500,8.476491455078126,-0.698822021484375,-0.6959381103515625,-0.01068115234375
1782984540462565400,8.4865654296875,-0.701324462890625,-0.6966705322265625,-0.0170135498046875
1782984540472640500,8.496640625,-0.6980438232421875,-0.696868896484375,-0.016937255859375
1782984540482714600,8.506714599609374,-0.6999359130859375,-0.69927978515625,-0.01019287109375
1782984540492788500,8.51678857421875,-0.7006378173828125,-0.7037200927734375,-0.0157623291015625
1782984540502862300,8.5268623046875,-0.7024993896484375,-0.7043914794921875,-0.0204315185546875
1782984540512936700,8.536936767578124,-0.7060699462890625,-0.70074462890625,-0.016510009765625
1782984540523010600,8.547010498046875,-0.70989990234375,-0.7002410888671875,-0.017822265625
1782984540533084700,8.557084716796876,-0.718017578125,-0.69744873046875,-0.0169830322265625
1782984540543158500,8.567158447265625,-0.714508056640625,-0.6954803466796875,-0.004638671875
1782984540553233700,8.577233642578125,-0.7154541015625,-0.699066162109375,0.0076141357421875
1782984540563307500,8.5873076171875,-0.7061614990234375,-0.6999053955078125,0.0101318359375
1782984540573381400,8.59738134765625,-0.696014404296875,-0.6961212158203125,0.0106964111328125
1782984540583455500,8.60745556640625,-0.6894683837890625,-0.696990966796875,0.0050506591796875
1782984540593529300,8.617529296875,-0.6872406005859375,-0.6997528076171875,-0.0092620849609375
1782984540603603700,8.627603759765625,-0.693603515625,-0.6955108642578125,-0.0225830078125
1782984540613677600,8.637677490234376,-0.710296630859375,-0.6933135986328125,-0.02764892578125
1782984540623751700,8.647751708984375,-0.7252655029296875,-0.69561767578125,-0.0309906005859375
1782984540633826600,8.65782666015625,-0.7291107177734375,-0.6958160400390625,-0.0270233154296875
1782984540643900700,8.667900634765624,-0.7271728515625,-0.698944091796875,-0.0212554931640625
1782984540653974500,8.677974609375,-0.7131195068359375,-0.6995697021484375,-0.0206756591796875
1782984540664048400,8.68804833984375,-0.6992645263671875,-0.696929931640625,-0.0140533447265625
1782984540674122500,8.69812255859375,-0.693634033203125,-0.7005615234375,-0.01092529296875
1782984540684196400,8.7081962890625,-0.6928558349609375,-0.70013427734375,-0.0139007568359375
1782984540694270700,8.718270751953124,-0.697662353515625,-0.6958465576171875,-0.0123138427734375
1782984540704344600,8.728344482421875,-0.6990814208984375,-0.69561767578125,-0.00921630859375
1782984540714419700,8.738419677734376,-0.70831298828125,-0.6971435546875,-0.00811767578125
1782984540724493600,8.74849365234375,-0.7135467529296875,-0.69775390625,-0.0093231201171875
1782984540734567700,8.758567626953125,-0.7193756103515625,-0.6994781494140625,-0.011627197265625
1782984540744641500,8.7686416015625,-0.721343994140625,-0.7003631591796875,-0.0141754150390625
1782984540754715400,8.77871533203125,-0.718597412109375,-0.698333740234375,-0.0111541748046875
1782984540764789500,8.78878955078125,-0.7144012451171875,-0.7016143798828125,-0.005523681640625
1782984540774863400,8.79886328125,-0.7090911865234375,-0.697418212890625,-0.002593994140625
1782984540784937700,8.808937744140625,-0.7021942138671875,-0.69732666015625,-0.002777099609375
1782984540795012400,8.819012451171876,-0.698211669921875,-0.698455810546875,-0.006195068359375
1782984540805086700,8.829086669921875,-0.6936798095703125,-0.6965789794921875,-0.00921630859375
1782984540815160600,8.83916064453125,-0.69378662109375,-0.69732666015625,-0.0140533447265625
1782984540825234700,8.849234619140624,-0.7028350830078125,-0.6993408203125,-0.016845703125
1782984540835308500,8.85930859375,-0.7132415771484375,-0.7004547119140625,-0.0205230712890625
1782984540845382400,8.86938232421875,-0.71478271484375,-0.7009429931640625,-0.019195556640625
1782984540855456500,8.87945654296875,-0.7135772705078125,-0.7033538818359375,-0.0144500732421875
1782984540865530400,8.8895302734375,-0.712432861328125,-0.70635986328125,-0.0112457275390625
1782984540875605500,8.89960546875,-0.7063140869140625,-0.703155517578125,-0.0120391845703125
1782984540885679400,8.909679443359375,-0.703277587890625,-0.7047271728515625,-0.0118560791015625
1782984540895753700,8.919753662109375,-0.6998748779296875,-0.7088623046875,-0.011077880859375
1782984540905827600,8.92982763671875,-0.698211669921875,-0.7052001953125,-0.0112762451171875
1782984540915901700,8.939901611328125,-0.69940185546875,-0.7019500732421875,-0.01220703125
1782984540925975600,8.9499755859375,-0.7010345458984375,-0.7071075439453125,-0.0142059326171875
1782984540936049700,8.960049560546874,-0.70709228515625,-0.7061309814453125,-0.0155792236328125
1782984540946123500,8.97012353515625,-0.712432861328125,-0.7038421630859375,-0.01763916015625
1782984540956198700,8.98019873046875,-0.7117919921875,-0.7009124755859375,-0.0206298828125
1782984540966272500,8.9902724609375,-0.705535888671875,-0.701019287109375,-0.0221405029296875
1782984540976346400,9.000346435546875,-0.6996002197265625,-0.701080322265625,-0.0229339599609375
1782984540986420700,9.010420654296874,-0.6963043212890625,-0.69830322265625,-0.0240325927734375
1782984540996494600,9.02049462890625,-0.695465087890625,-0.694549560546875,-0.0210418701171875
1782984541006568700,9.030568603515626,-0.6984100341796875,-0.6941070556640625,-0.024993896484375
1782984541016642600,9.040642578125,-0.7084503173828125,-0.6946563720703125,-0.0258636474609375
1782984541026716400,9.05071630859375,-0.708251953125,-0.6929931640625,-0.0209197998046875
1782984541036791600,9.06079150390625,-0.7084197998046875,-0.69476318359375,-0.02130126953125
1782984541046865400,9.070865478515625,-0.7161102294921875,-0.6973114013671875,-0.0232086181640625
1782984541056939500,9.080939453125,-0.7185821533203125,-0.69805908203125,-0.0212249755859375
1782984541067013400,9.091013427734374,-0.7182159423828125,-0.6974639892578125,-0.019073486328125
1782984541077087700,9.101087646484375,-0.7162017822265625,-0.6996917724609375,-0.01519775390625
1782984541087161600,9.11116162109375,-0.7098236083984375,-0.69964599609375,-0.01123046875
1782984541097235700,9.121235595703125,-0.7046356201171875,-0.697906494140625,-0.009368896484375
1782984541107309600,9.1313095703125,-0.701202392578125,-0.69744873046875,-0.005645751953125
1782984541117384700,9.141384765625,-0.7003631591796875,-0.6992645263671875,-0.006011962890625
1782984541127458600,9.15145849609375,-0.7044830322265625,-0.7023468017578125,-0.0082855224609375
1782984541137532400,9.161532470703126,-0.7073516845703125,-0.7021942138671875,-0.0093841552734375
1782984541147606500,9.1716064453125,-0.7050018310546875,-0.701171875,-0.013214111328125
1782984541157680400,9.181680419921875,-0.701507568359375,-0.704864501953125,-0.0111541748046875
1782984541167754800,9.191754638671876,-0.69659423828125,-0.706512451171875,-0.0073089599609375
1782984541177828600,9.20182861328125,-0.6971282958984375,-0.7055206298828125,-0.008270263671875
1782984541187902700,9.21190283203125,-0.6968231201171875,-0.7048492431640625,-0.013671875
1782984541197977600,9.2219775390625,-0.701385498046875,-0.7056427001953125,-0.0135345458984375
1782984541208051700,9.2320517578125,-0.7106170654296875,-0.7076873779296875,-0.013946533203125
1782984541218125600,9.24212548828125,-0.7120513916015625,-0.7033233642578125,-0.0194091796875
1782984541228199400,9.252199462890625,-0.71240234375,-0.6986541748046875,-0.0210723876953125
1782984541238273500,9.2622734375,-0.7094573974609375,-0.6947784423828125,-0.0209503173828125
1782984541248347600,9.27234765625,-0.71044921875,-0.6949310302734375,-0.012542724609375
1782984541258421800,9.282421875,-0.7058868408203125,-0.6970977783203125,-0.00054931640625
1782984541268495600,9.29249560546875,-0.7029571533203125,-0.6953887939453125,0.0124053955078125
1782984541278570800,9.30257080078125,-0.6982269287109375,-0.69384765625,0.0106964111328125
1782984541288644600,9.31264453125,-0.6976470947265625,-0.6974945068359375,0.0020599365234375
1782984541298718700,9.32271875,-0.6956939697265625,-0.6945953369140625,-0.0019073486328125
1782984541308792600,9.33279248046875,-0.70513916015625,-0.695159912109375,-0.0181427001953125
1782984541318866400,9.342866455078125,-0.7183837890625,-0.6905364990234375,-0.0292510986328125
1782984541328940500,9.3529404296875,-0.7206268310546875,-0.690185546875,-0.03662109375
1782984541339014700,9.3630146484375,-0.717529296875,-0.6912078857421875,-0.0298004150390625
1782984541349088800,9.3730888671875,-0.7155609130859375,-0.694091796875,-0.02960205078125
1782984541359163600,9.38316357421875,-0.712738037109375,-0.695404052734375,-0.027587890625
1782984541369237800,9.39323779296875,-0.7054901123046875,-0.6955413818359375,-0.0252685546875
1782984541379311600,9.4033115234375,-0.704437255859375,-0.6967926025390625,-0.020751953125
1782984541389385700,9.4133857421875,-0.703338623046875,-0.694488525390625,-0.0194854736328125
1782984541399459600,9.42345947265625,-0.699462890625,-0.6966705322265625,-0.020050048828125
1782984541409533400,9.433533447265624,-0.698699951171875,-0.702362060546875,-0.01776123046875
1782984541419607600,9.443607666015625,-0.7008209228515625,-0.70458984375,-0.011962890625
1782984541429681700,9.453681640625,-0.712158203125,-0.7053985595703125,-0.007110595703125
1782984541439756500,9.463756591796875,-0.716644287109375,-0.7044677734375,-0.0108489990234375
1782984541449830700,9.47383056640625,-0.716461181640625,-0.7046661376953125,-0.0099639892578125
1782984541459904800,9.48390478515625,-0.7171478271484375,-0.7057647705078125,-0.0097808837890625
1782984541469978600,9.493978515625,-0.7118988037109375,-0.7025604248046875,-0.0096435546875
1782984541480052500,9.504052490234375,-0.706329345703125,-0.703460693359375,-0.0067596435546875
1782984541490126600,9.514126708984374,-0.6952972412109375,-0.703643798828125,-0.0029144287109375
1782984541500200400,9.524200439453125,-0.6905517578125,-0.70599365234375,-0.00469970703125
1782984541510274600,9.534274658203126,-0.691925048828125,-0.701812744140625,-0.0076904296875
1782984541520349400,9.544349365234375,-0.6980438232421875,-0.6972808837890625,-0.013580322265625
1782984541530423600,9.554423583984375,-0.70709228515625,-0.699371337890625,-0.017486572265625
1782984541540497700,9.56449755859375,-0.71099853515625,-0.7039031982421875,-0.0192413330078125
1782984541550571800,9.57457177734375,-0.7188720703125,-0.7020111083984375,-0.022308349609375
1782984541560645600,9.584645751953126,-0.716949462890625,-0.70166015625,-0.0240325927734375
1782984541570719500,9.594719482421874,-0.7072906494140625,-0.6987152099609375,-0.0224761962890625
1782984541580793600,9.604793701171875,-0.69866943359375,-0.698211669921875,-0.0221099853515625
1782984541590867500,9.614867431640626,-0.6982574462890625,-0.6994171142578125,-0.020263671875
1782984541600942600,9.624942626953125,-0.70245361328125,-0.695953369140625,-0.019683837890625
1782984541611016400,9.635016357421875,-0.7119903564453125,-0.69635009765625,-0.0195159912109375
1782984541621090600,9.645090576171874,-0.7115020751953125,-0.695037841796875,-0.0184783935546875
1782984541631164700,9.65516455078125,-0.7126312255859375,-0.6978759765625,-0.015350341796875
1782984541641238800,9.66523876953125,-0.7087554931640625,-0.697174072265625,-0.0131072998046875
1782984541651312600,9.675312744140625,-0.70562744140625,-0.6978607177734375,-0.0074005126953125
1782984541661386500,9.685386474609375,-0.7062225341796875,-0.6979217529296875,-0.00775146484375
1782984541671460600,9.695460693359376,-0.7089080810546875,-0.6985015869140625,-0.0067901611328125
1782984541681535500,9.705535400390625,-0.713775634765625,-0.698028564453125,-0.011260986328125
1782984541691609600,9.715609619140626,-0.7153167724609375,-0.69622802734375,-0.011810302734375
1782984541701683500,9.725683349609374,-0.714599609375,-0.6966552734375,-0.0115966796875
1782984541711757600,9.735757568359375,-0.71392822265625,-0.699554443359375,-0.01641845703125
1782984541721831700,9.745831787109376,-0.70867919921875,-0.70013427734375,-0.0168304443359375
1782984541731905800,9.75590576171875,-0.706268310546875,-0.6974334716796875,-0.0135345458984375
1782984541741979600,9.765979736328125,-0.7046356201171875,-0.6968841552734375,-0.0126190185546875
1782984541752053500,9.776053466796874,-0.709075927734375,-0.694976806640625,-0.0117950439453125
1782984541762128600,9.786128662109375,-0.711944580078125,-0.6973114013671875,-0.0143585205078125
1782984541772202500,9.796202392578126,-0.707550048828125,-0.6985321044921875,-0.0115966796875
1782984541782276600,9.806276611328125,-0.7086181640625,-0.7002410888671875,-0.01422119140625
1782984541792350500,9.8163505859375,-0.70880126953125,-0.699951171875,-0.0152587890625
1782984541802424600,9.826424560546876,-0.7110443115234375,-0.69854736328125,-0.011749267578125
1782984541812498700,9.836498779296875,-0.7076263427734375,-0.696807861328125,-0.0109100341796875
1782984541822572500,9.846572509765625,-0.705474853515625,-0.69757080078125,-0.0086822509765625
1782984541832646700,9.856646728515624,-0.7066650390625,-0.698974609375,-0.0094757080078125
1782984541842721500,9.866721435546875,-0.7074432373046875,-0.6958160400390625,-0.015289306640625
1782984541852795600,9.876795654296876,-0.70574951171875,-0.6940155029296875,-0.0188446044921875
1782984541862869500,9.886869384765625,-0.7022857666015625,-0.6927642822265625,-0.0184783935546875
1782984541872943600,9.896943603515625,-0.70172119140625,-0.6956024169921875,-0.01763916015625
1782984541883017500,9.907017578125,-0.707305908203125,-0.69854736328125,-0.0199127197265625
1782984541893091600,9.917091552734375,-0.7074432373046875,-0.6960601806640625,-0.0228271484375
1782984541903165700,9.927165771484376,-0.705596923828125,-0.694915771484375,-0.0241546630859375
1782984541913240300,9.937240234375,-0.7059173583984375,-0.69573974609375,-0.02557373046875
1782984541923315000,9.94731494140625,-0.711456298828125,-0.6979217529296875,-0.0267333984375
1782984541933389300,9.957389404296874,-0.7114410400390625,-0.6994171142578125,-0.024749755859375
1782984541943463200,9.967463134765625,-0.7119293212890625,-0.6981353759765625,-0.019866943359375
1782984541953537000,9.977537109375,-0.7124176025390625,-0.6995849609375,-0.0199127197265625
1782984541963611100,9.987611083984374,-0.71551513671875,-0.6965179443359375,-0.01763916015625
1782984541973685000,9.99768505859375,-0.7179412841796875,-0.6966552734375,-0.013763427734375
1782984541983759000,10.007759033203126,-0.712738037109375,-0.6969451904296875,-0.006439208984375
1782984541993833000,10.0178330078125,-0.7050323486328125,-0.695587158203125,0.00592041015625
1782984542003908000,10.027908203125,-0.6932830810546875,-0.694000244140625,0.0066680908203125
1782984542013982000,10.03798193359375,-0.6854095458984375,-0.69580078125,0.001739501953125
1782984542024056300,10.048056396484375,-0.6881103515625,-0.6926727294921875,-0.002044677734375
1782984542034130200,10.058130126953126,-0.6947784423828125,-0.6953125,-0.0184783935546875
1782984542044204000,10.0682041015625,-0.713592529296875,-0.6983795166015625,-0.0317230224609375
1782984542054278100,10.078278076171875,-0.7256927490234375,-0.7000579833984375,-0.0361175537109375
1782984542064352000,10.08835205078125,-0.73681640625,-0.699615478515625,-0.0344696044921875
1782984542074426000,10.098426025390625,-0.734222412109375,-0.700164794921875,-0.0322418212890625
1782984542084501000,10.1085009765625,-0.72369384765625,-0.6998443603515625,-0.023529052734375
1782984542094575000,10.1185751953125,-0.707916259765625,-0.7021026611328125,-0.0193939208984375
1782984542104649000,10.12864892578125,-0.696075439453125,-0.70123291015625,-0.0171966552734375
1782984542114723000,10.13872314453125,-0.6958465576171875,-0.6989288330078125,-0.0103759765625
1782984542124797200,10.148797119140625,-0.700714111328125,-0.69952392578125,-0.0119171142578125
1782984542134871000,10.15887109375,-0.710113525390625,-0.6980743408203125,-0.01177978515625
1782984542144945200,10.168945068359376,-0.714447021484375,-0.6978759765625,-0.01318359375
1782984542155019000,10.17901904296875,-0.7149200439453125,-0.7009124755859375,-0.0115814208984375
1782984542165094100,10.18909423828125,-0.7130279541015625,-0.6980133056640625,-0.0135498046875
1782984542175168000,10.19916796875,-0.7128143310546875,-0.6981964111328125,-0.01593017578125
1782984542185242000,10.2092421875,-0.71746826171875,-0.6973419189453125,-0.01025390625
1782984542195316000,10.21931591796875,-0.7157745361328125,-0.6947784423828125,-0.011016845703125
1782984542205390000,10.22939013671875,-0.7053680419921875,-0.694122314453125,-0.01434326171875
1782984542215464200,10.239464111328125,-0.6998138427734375,-0.693115234375,-0.0049591064453125
1782984542225538000,10.2495380859375,-0.6957855224609375,-0.6938629150390625,-0.0033111572265625
1782984542235612200,10.259612060546875,-0.6899566650390625,-0.6951446533203125,-0.0115203857421875
1782984542245687000,10.26968701171875,-0.6924591064453125,-0.6956024169921875,-0.0124053955078125
1782984542255761200,10.27976123046875,-0.7000274658203125,-0.6927337646484375,-0.01812744140625
1782984542265835000,10.2898349609375,-0.712738037109375,-0.6915130615234375,-0.023956298828125
1782984542275909000,10.2999091796875,-0.727569580078125,-0.696075439453125,-0.012542724609375
1782984542285983000,10.30998291015625,-0.7282562255859375,-0.698944091796875,-0.0080718994140625
1782984542296057000,10.32005712890625,-0.7216644287109375,-0.704498291015625,-0.017242431640625
1782984542306131200,10.330131103515624,-0.7098388671875,-0.698150634765625,-0.0208282470703125
1782984542316205000,10.340205078125,-0.705718994140625,-0.69903564453125,-0.016937255859375
1782984542326280200,10.3502802734375,-0.7113189697265625,-0.698577880859375,-0.010833740234375
1782984542336354000,10.36035400390625,-0.717437744140625,-0.6989288330078125,-0.0156402587890625
1782984542346428200,10.37042822265625,-0.7140045166015625,-0.6953277587890625,-0.0227203369140625
1782984542356502000,10.380501953125,-0.7106781005859375,-0.6953125,-0.02276611328125
1782984542366576000,10.390576171875,-0.7086181640625,-0.702056884765625,-0.0326995849609375
1782984542376650000,10.40064990234375,-0.71600341796875,-0.6988372802734375,-0.0299072265625
1782984542386724000,10.41072412109375,-0.730194091796875,-0.6921539306640625,-0.0219879150390625
