time,seconds_elapsed,z,y,x
1782984532044380400,0.06838037109375,0.136335639116168,0.031629648494720455,-0.3586698649700731
1782984532054454300,0.078454345703125,-0.07065642150342465,0.00931318726837635,-0.3719862599978223
1782984532064528400,0.0885283203125,-0.11972878770828246,-0.007629764226078987,-0.29760033310987055
1782984532074602200,0.098602294921875,-0.13500117564201355,0.0014466916769742964,-0.16001171652423216
1782984532084676600,0.108676513671875,-0.1780284164637327,0.03713116852045059,-0.07900687382002361
1782984532094750500,0.11875048828125,-0.08027998989522457,0.09862287131547927,-0.17837817974947393
1782984532104824300,0.12882421875,0.0994148984760046,0.11609949129521846,-0.22427571531049906
1782984532114898400,0.1388984375,0.24539222616255282,0.08513385966718197,-0.1917371170110069
1782984532124973300,0.148973388671875,0.3445107720404863,0.13418518308401106,-0.0838760964247398
1782984532135047400,0.15904736328125,0.4272288027375936,0.2432505379587412,-0.0263504111838527
1782984532145121300,0.169121337890625,0.408497798782587,0.2838233713656664,-0.011135982248745858
1782984532155195400,0.1791953125,0.29154899718165395,0.2559603819280863,0.06855928482739254
1782984532165269200,0.189269287109375,0.24514146627187727,0.28668343697190285,0.12080067298980429
1782984532175343600,0.199343505859375,0.2311725621521473,0.3417021443605423,0.10952869807016104
1782984532185417500,0.20941748046875,0.3111316495299339,0.3695557814478874,0.13119301553070545
1782984532195491300,0.2194912109375,0.3604764029353857,0.16788696167767048,0.1593624953678809
1782984532205566500,0.22956640625,0.2665244460403919,-0.15064765758514403,0.014579309369344264
1782984532215640300,0.239640380859375,0.31521687301695345,-0.2766413509070873,-0.15489167009675875
1782984532225714400,0.24971435546875,0.237777074983716,-0.35703999874591824,-0.3042294506597332
1782984532235788300,0.259788330078125,-0.2472533438593149,-0.39420565405786034,-0.49669342064056543
1782984532245862400,0.2698623046875,-0.6250292566418647,-0.2478770287156105,-0.7222016368880868
1782984532255936500,0.2799365234375,-0.7911661597818136,-0.08678162687420844,-0.8261699608847498
1782984532266010600,0.2900107421875,-0.7107809559464454,0.012507014873623847,-0.8364993394583463
1782984532276084500,0.30008447265625,-0.46736441377103327,0.07023731930851936,-0.730964058405906
1782984532286159600,0.31015966796875,-0.11341419773399829,0.14653963774442672,-0.5329707853432745
1782984532296233500,0.3202333984375,0.32302900807261464,0.11708557972311973,-0.16746659910744055
1782984532306307300,0.330307373046875,0.7307119833409785,0.20714403631091116,0.11147318320143967
1782984532316381400,0.34038134765625,0.9852209974169731,0.47037060984969137,0.25551048273611815
1782984532326455300,0.350455322265625,1.1007909118801356,0.6576093377292156,0.2806229313565418
1782984532336529400,0.360529296875,1.0048685316950081,0.6980541608422994,0.29368297700304535
1782984532346603500,0.370603515625,0.825102916175127,0.6565864244222641,0.29284641658104954
1782984532356677600,0.380677734375,0.5964817920714617,0.6190086811780929,0.2154045727211982
1782984532366751500,0.39075146484375,0.3282511266350746,0.5916127247303724,0.13637742329812608
1782984532376826600,0.40082666015625,0.22914193310737607,0.6166080497771501,0.08187845633411779
1782984532386900500,0.410900390625,0.3071978172123432,0.6625427024781704,0.13276992772491647
1782984532396974300,0.420974365234375,0.45797523865699763,0.7359814481765031,0.27547238019295034
1782984532407048400,0.43104833984375,0.7029588840186596,0.7636667429596186,0.37012558069247753
1782984532417122300,0.441122314453125,0.8899082735627889,0.6734674165964126,0.48412156036980447
1782984532427196400,0.451196533203125,1.139880813252926,0.6650660834759473,0.6061035338323563
1782984532437270500,0.4612705078125,0.19990999340415,0.6931856780230998,0.19467103330474345
1782984532447344400,0.471344482421875,-1.1161410412251949,0.3222112619489431,-0.3242551158014685
1782984532457419500,0.48141943359375,-1.0096838230222462,-0.23930852233469485,-0.4748917405359447
1782984532467493400,0.491493408203125,-1.2535364185273647,-0.4526531668514013,-0.6761191001489758
1782984532477567500,0.5015673828125,-1.0784773732632398,-0.3912625863432884,-0.4962671945851296
1782984532487641300,0.511641357421875,-0.5610837309539318,-0.4097925147682428,-0.12651670341589488
1782984532497715500,0.521715576171875,-0.013296119424700737,-0.35789456974864003,0.17596878052018583
1782984532507789300,0.531789306640625,0.01607785909771919,-0.32458442082107064,0.2971429812638089
1782984532517863400,0.541863525390625,-0.22688158695995805,-0.4494815510779619,0.2183149802751839
1782984532527937500,0.5519375,-0.5061187995791435,-0.6178226862639188,0.0285858831849182
1782984532538012400,0.562012451171875,-0.6350012000799179,-0.6054705696910619,-0.0708562229584204
1782984532548086500,0.57208642578125,-0.6025970600813627,-0.4212468057185411,0.04542583552920259
1782984532558160400,0.582160400390625,-0.3222352273464203,-0.17076748555004595,0.24281959919556975
1782984532568234500,0.592234375,0.08909984068870544,-0.08108429201543331,0.2782868348254822
1782984532578308400,0.602308349609375,0.374972545799613,-0.22418460296094417,0.23280962530206886
1782984532588382500,0.612382568359375,0.6282131473749876,-0.4030103072822094,0.039111967074126
1782984532598456300,0.622456298828125,0.6581722323089838,-0.47377135820388794,-0.09470590793429873
1782984532608530400,0.632530517578125,0.7217471711188554,-0.3998725937783718,0.03784791108821518
1782984532618604500,0.6426044921875,0.6235439865201712,-0.3692775490283966,0.07730501093873754
1782984532628679400,0.652679443359375,0.2867237689822912,-0.3762023798555135,0.08989121939525939
1782984532638753500,0.66275341796875,-0.0024970775127410886,-0.38522505974471566,0.01019016189915128
1782984532648827400,0.672827392578125,-0.19400456875264643,-0.32469898711144923,-0.07440257662865332
1782984532658901500,0.682901611328125,-0.31834874130189417,-0.3826315361201763,-0.05021716145896352
1782984532668975400,0.692975341796875,-0.2776496511667967,-0.38538404969871043,-0.024507039206335318
1782984532679049500,0.703049560546875,-0.17516133659482,-0.327187296795845,-0.04961528657567687
1782984532689123300,0.713123291015625,-0.1468763223528862,-0.38528701906502244,-0.18528236964736133
1782984532699197400,0.723197509765625,-0.15334814871549604,-0.28926351659297944,-0.19724238163009286
1782984532709272300,0.733272216796875,-0.18043956925868987,-0.20855624119639396,-0.05883322874207515
1782984532719346400,0.743346435546875,-0.1994739400744438,-0.1945329765409231,-0.07510422209198586
1782984532729420500,0.753420654296875,-0.10031447766423225,-0.10540332523584366,-0.16097385782096535
1782984532739494400,0.763494384765625,0.021098902130126954,-0.09379121337532996,-0.19268380501028148
1782984532749568500,0.773568603515625,0.24808453398644922,0.03596621639430523,-0.15950504564372822
1782984532759642400,0.783642333984375,0.22353929079473017,0.009060089290142058,-0.23246906823609023
1782984532769716500,0.793716552734375,0.23967501755952833,-0.1388672034204006,-0.34894897368364036
1782984532779790300,0.803790283203125,0.24567805736660955,-0.2549596804529428,-0.23202282230593263
1782984532789865500,0.813865478515625,0.011178981140255928,-0.0033960721790790554,0.044105039820796804
1782984532799939300,0.823939208984375,-0.18270576062500476,0.01889876173734665,-0.1259439724287018
1782984532810013400,0.834013427734375,0.011848843225836753,-0.06088555359542369,-0.1627614901564084
1782984532820087600,0.844087646484375,0.10532909095585345,-0.05477963793575764,0.015328118442650883
1782984532830161400,0.854161376953125,0.01526011297404766,0.03058919953107834,0.05861985998603049
1782984532840235500,0.864235595703125,-0.49297640941143034,0.019563363125920295,-0.0961829490837641
1782984532850309400,0.874309326171875,-0.3640221127182245,-0.08945055382251739,-0.37375034706089644
1782984532860383500,0.884383544921875,-0.3038157735586166,0.13108721706867218,-0.09175514097046107
1782984532870457300,0.894457275390625,-0.20792378851175308,0.07258300565183162,0.05395716083804145
1782984532880532500,0.904532470703125,0.023752631509304047,0.036057986330986024,0.015604122372437268
1782984532890606300,0.9146064453125,0.2342687746018171,-0.03470189554691314,-0.023129375911271198
1782984532900680200,0.92468017578125,0.46720776190459723,0.051477089259028434,0.014019446996878833
1782984532910754600,0.934754638671875,0.59689504904747,0.07939327018857002,0.04081684389640577
1782984532920828400,0.944828369140625,0.5213876803815365,0.054233694490790366,-0.038848146772477776
1782984532930902500,0.954902587890625,0.2542296126127243,0.029386838003993034,-0.1694405112626031
1782984532940976400,0.964976318359375,0.029097499668598172,-0.0006283610314130782,-0.19361597129385918
1782984532951050500,0.975050537109375,-0.09657178400456905,0.05167290409207344,-0.18281192441321908
1782984532961125400,0.98512548828125,-0.018618191230297086,0.11928572011590004,-0.25558208666760474
1782984532971199500,0.995199462890625,0.17004618553817272,0.1474164205789566,-0.2622002078994177
1782984532981273300,1.0052734375,0.3646393678337335,0.14946049362719058,-0.17352935147881507
1782984532991347200,1.01534716796875,0.6235007319003343,0.09519348138868808,-0.09568344772956333
1782984533001421600,1.025421630859375,0.7446423090159893,0.013274492114782332,-0.010197952479962259
1782984533011495400,1.035495361328125,0.6801432410985231,-0.0929185221940279,0.02604925454650074
1782984533021569500,1.045569580078125,0.400310400673747,-0.11891980941295623,0.009033813204569741
1782984533031643400,1.055643310546875,0.030530747342109678,-0.04730243392288685,-0.050554211393604054
1782984533041718500,1.065718505859375,-0.21520576221346854,0.00303425312936306,-0.08799307589004747
1782984533051792400,1.07579248046875,-0.31239363228976724,-0.02533668583035469,-0.11060353336059488
1782984533061866500,1.085866455078125,-0.24596155048310755,-0.07592939347028732,0.006140384184848517
1782984533071940400,1.0959404296875,-0.12260697349309921,-0.07178805588185787,0.1023620761101134
1782984533082014200,1.10601416015625,0.012110124510526656,-0.1133008004873991,0.051836273393663576
1782984533092088600,1.116088623046875,0.13382044142484664,-0.22772446752488612,0.0132753643310396
1782984533102162400,1.126162353515625,0.13737024286091326,-0.2917904047220945,-0.025258583659422584
1782984533112236500,1.136236572265625,0.18030162209272382,-0.21515198619961737,-0.09105156841152347
1782984533122310400,1.146310302734375,0.20436638829112053,-0.01888999390900135,-0.16334204825703053
1782984533132385500,1.156385498046875,0.20354104338288306,0.0589507861405611,-0.2278545967105776
1782984533142459400,1.16645947265625,0.21932138083875177,-0.009228431594371795,-0.08418487011296674
1782984533152533500,1.176533447265625,0.028022563913464544,-0.11280980210006236,0.028568087233323602
1782984533162607400,1.186607421875,-0.24201252059638498,-0.09610825814604759,0.028198116843192837
1782984533172681200,1.19668115234375,-0.43187633628249167,-0.01800853489935398,-0.03695175226635765
1782984533182755600,1.206755615234375,-0.4759691605091095,-0.032223522734642025,-0.05306565079183783
1782984533192829400,1.216829345703125,-0.36105391056239605,-0.06672609631717205,-0.02003421377437189
1782984533202903600,1.226903564453125,-0.18012568100392817,0.009366963282227516,-0.02078953022027854
1782984533212978400,1.236978515625,-0.1323801794886589,0.1357961254119873,0.001992904550000094
1782984533223052500,1.247052490234375,-0.18123042737543582,0.10165303279161453,-0.0990923793902155
1782984533233126400,1.25712646484375,-0.09845511353313922,0.06248071383237838,-0.13005523453927598
1782984533243200300,1.2672001953125,0.09669920977652072,0.06521218462288379,-0.031400159720936786
1782984533253274400,1.2772744140625,0.223455704164505,0.06588146218657494,-0.026198828218178823
1782984533263348200,1.28734814453125,0.20229718080163,0.07900690121948718,-0.02552625358570367
1782984533273422600,1.297422607421875,0.05707037922143936,0.10873919166028499,-0.07655216501113027
1782984533283496400,1.307496337890625,0.04574117595553398,0.09702011229395865,-0.13757603109870106
1782984533293571600,1.317571533203125,0.049289223825931545,0.04420271434187889,-0.09690936366217211
1782984533303645400,1.3276455078125,0.048692426976561544,0.024207974061369895,-0.01879821483916603
1782984533313719600,1.337719482421875,0.10424655641615391,0.028874796828627584,-0.060193187417089934
1782984533323793400,1.34779345703125,0.14759820688664912,0.01039630632996559,-0.09472349838991649
1782984533333867300,1.3578671875,0.1278705931097269,-0.00535305146574974,-0.08336663993210532
1782984533343941400,1.36794140625,0.1278138944864273,0.004289806148409844,-0.07031922543831169
1782984533354015200,1.37801513671875,0.19404490076303482,-0.017052257087826726,-0.06844501079795881
1782984533364089600,1.388089599609375,0.2696849558979273,-0.02984802577495575,-0.04544080476947129
1782984533374163500,1.39816357421875,0.30571313161253927,-0.0054535892307758325,-0.02733473234635312
1782984533384238600,1.408238525390625,0.22465981925725936,0.036945290559530254,-0.05236244355908129
1782984533394312400,1.4183125,0.09650924016237258,-0.015533084696531295,-0.06545289804358034
1782984533404386600,1.428386474609375,-0.0002326397120952606,-0.04372165282666683,-0.11173890319922938
1782984533414460400,1.43846044921875,-0.1360702661782503,-0.12944061890542508,-0.07906435789461247
1782984533424534300,1.4485341796875,-0.3373386884540319,-0.1180541324943304,-0.04510347170704044
1782984533434608400,1.4586083984375,-0.46980245457291603,-0.12095979080796242,-0.10431430615643039
1782984533444682200,1.46868212890625,-0.39496436347067354,-0.11629881325960159,-0.17568157934295012
1782984533454756600,1.478756591796875,-0.13879180009663103,-0.08224690605401992,-0.15696392805986106
1782984533464831200,1.488831298828125,0.19925240627825258,-0.09366904830038547,-0.1602985523752868
1782984533474905600,1.498905517578125,0.5079004222989082,-0.09910627091825008,-0.14933709557638503
1782984533484979500,1.5089794921875,0.5965045884251594,-0.11376140373647212,-0.09703893572543747
1782984533495053600,1.519053466796875,0.48903731639683246,-0.08413257367014884,-0.07520305652369279
1782984533505127400,1.52912744140625,0.3170388277471065,-0.012583002719283103,-0.1052679718857631
1782984533515201300,1.539201171875,0.20771219158768653,-0.02111819135248661,-0.08431726432098076
1782984533525275400,1.549275390625,0.14457213706374167,-0.04431260445713996,-0.043011897122114895
1782984533535349200,1.559349365234375,0.10133213027417659,-0.032110710009932514,0.01910801144069992
1782984533545424400,1.56942431640625,0.03664426178634166,-0.08880407261252403,0.03817649002203252
1782984533555498200,1.579498291015625,0.09544248771369457,-0.07740648028552531,0.047143590099364516
1782984533565572600,1.589572509765625,0.27016484836935994,-0.06429565429985523,0.053918810722185295
1782984533575646500,1.599646484375,0.2821165674477815,-0.10443711055219172,0.08457087375586853
1782984533585720300,1.60972021484375,0.279762113276124,-0.0982423475652933,0.03111089445077814
1782984533595794400,1.61979443359375,0.19163842414319515,-0.05657236657142639,0.05697068170662969
1782984533605868300,1.629868408203125,-0.026543723532557486,-0.0069803604066371915,0.04654092519821133
1782984533615942400,1.6399423828125,-0.11351765810847282,0.024251813203096387,-0.023617232493450865
1782984533626016300,1.650016357421875,-0.04643675700426102,0.044728199520707126,-0.05445793170072138
1782984533636091400,1.66009130859375,0.013628712379932403,0.07881810064911841,-0.037301077160681595
1782984533646165200,1.670165283203125,-0.06443009433448314,0.06832768629491329,-0.02694707331919344
1782984533656239600,1.680239501953125,-0.13642273287773132,0.09884265154600143,-0.04356130203264765
1782984533666313500,1.6903134765625,-0.07406126151084899,0.1336041683256626,-0.09136194953494704
1782984533676387300,1.70038720703125,0.03744739486277103,0.07948270203769206,-0.05224810103098861
1782984533686461400,1.71046142578125,0.11111702670753001,0.06567863309085369,-0.011372759279841556
1782984533696535300,1.720535400390625,0.10089549242258071,0.10215689066052436,-0.0070503922939009495
1782984533706609400,1.730609375,0.07800561522245407,0.1508499021589756,-0.05642830932508222
1782984533716684300,1.740684326171875,0.08799217170774937,0.168469730001688,-0.10723424872374161
1782984533726758400,1.75075830078125,0.1130652381658554,0.18369594070613382,-0.11309766086442395
1782984533736832300,1.760832275390625,0.07304010176956653,0.17830021914243696,-0.10955550387869588
1782984533746906600,1.77090673828125,0.03872457519173622,0.13018763788044452,-0.10298422659644857
1782984533756980500,1.78098046875,-0.02138356429040432,0.12967676574885845,-0.06977960670285392
1782984533767054300,1.791054443359375,-0.16037994704842568,0.11789981871545314,-0.07592085853738244
1782984533777128400,1.80112841796875,-0.12782909205555915,0.12755787389874457,-0.08195000546667724
1782984533787202300,1.811202392578125,-0.01362228263914585,0.14355974515080452,-0.026710522333672267
1782984533797277400,1.82127734375,0.050558805370330806,0.07594283747375011,0.04322072670035995
1782984533807351300,1.831351318359375,0.11830196977555751,0.023642741394042967,0.027534976759343407
1782984533817425400,1.84142529296875,0.2334948676198721,-0.010832359659671782,0.01373446060961578
1782984533827499300,1.851499267578125,0.31096447626948354,-0.007782324439287185,-0.021276067061629145
1782984533837573600,1.86157373046875,0.2781915029585361,-0.015665771165490148,-0.06731428060182369
1782984533847647500,1.8716474609375,0.1906681178063154,-0.005567570999264717,-0.10642970000836066
1782984533857721300,1.881721435546875,0.0927834976375103,-0.05110474881529808,-0.14521476408252493
1782984533867795500,1.89179541015625,0.07122516130208968,-0.08321019812822342,-0.18022090327301993
1782984533877869300,1.901869384765625,0.12706862907707692,-0.0944558147639036,-0.17187040529064834
1782984533887944400,1.9119443359375,0.15873510245084763,-0.10585340709090232,-0.12150171566493809
1782984533898018300,1.922018310546875,0.1933300304919481,-0.09633563716113566,-0.15641772888656705
1782984533908092400,1.932092529296875,0.18635376173853874,-0.0970925930082798,-0.18175629614675418
1782984533918166500,1.94216650390625,0.09607903205156326,-0.10945932262837886,-0.13816580455224028
1782984533928240600,1.95224072265625,-0.02167933236658573,-0.09244564398527144,-0.18245244345106185
1782984533938314800,1.962314697265625,-0.10942600488066673,-0.0572124180406332,-0.17475111182611436
1782984533948388600,1.972388671875,-0.1370896723538637,-0.0002636193722486496,-0.13692783285565674
1782984533958462500,1.98246240234375,-0.07716273465752602,-0.04944119951725006,-0.09789331493191421
1782984533968537600,1.99253759765625,-0.018876549905538557,-0.13450959273278712,-0.056584367536474015
1782984533978611500,2.002611572265625,0.12679565735459328,-0.14437281509935854,-0.06836890422129072
1782984533988685600,2.012685546875,0.33613457336127756,-0.1386754802405834,-0.042410853355890135
1782984533998759400,2.022759521484375,0.3539350184679031,-0.15575871698856353,0.0229736282271333
1782984534008833500,2.03283349609375,0.21033961748182772,-0.1398211431443691,0.007523152913292869
1782984534018907600,2.04290771484375,-0.0487859504789114,-0.072740826562047,-0.09587327121323905
1782984534028981800,2.052981689453125,-0.2899398084193468,-0.022524551019072532,-0.16997264537792653
1782984534039055600,2.0630556640625,-0.2324696162253618,-0.02594400407373905,-0.20157668450735508
1782984534049129500,2.07312939453125,-0.07960428259074688,-0.043047699087858195,-0.15496208671815692
1782984534059204600,2.08320458984375,0.059978375622630115,-0.054986558684706685,-0.08742713996982202
1782984534069278500,2.093278564453125,0.09756137956380843,-0.047587680605053896,-0.07828483402263373
1782984534079352600,2.1033525390625,0.09737316351532936,-0.02790332144796848,-0.06723168491886462
1782984534089426400,2.113426513671875,0.1204284604102373,0.012296586993336677,-0.06668393310930114
1782984534099500500,2.12350048828125,0.11260112778544425,0.013007365611195563,-0.09138981478940696
1782984534109574700,2.13357470703125,0.055554713961482045,0.0402677129805088,-0.059375400194223035
1782984534119648800,2.143648681640625,-0.028993454772233963,0.06893792714774608,-0.048750153079745354
1782984534129722600,2.15372265625,0.03513561078906059,0.0838081640213728,-0.08226488010212779
1782984534139797800,2.1637978515625,0.1659603775292635,0.09212357242405414,-0.04908708428337704
1782984534149871600,2.17387158203125,0.26912264584004875,0.07212357144653797,0.016271164596558082
1782984534159945500,2.183945556640625,0.3412082233637571,0.027688801914453505,-0.020330210179416462
1782984534170019600,2.19401953125,0.42143326820135113,0.0177811558842659,0.022841855073627085
1782984534180093400,2.204093505859375,0.38787586651444433,0.06643909606933593,0.03932260501696728
1782984534190167600,2.21416748046875,0.24314181688725947,0.09937339742183685,-0.0029217189658666026
1782984534200241700,2.22424169921875,0.17471008569598198,0.08095277459025382,0.020663791798625607
1782984534210315500,2.2343154296875,0.18003449558913706,0.03804652979969978,0.0173372594581102
1782984534220390700,2.244390625,0.075978493309021,-0.007221767947077751,0.03271597557683708
1782984534230464800,2.25446484375,-0.06305880598127842,-0.047803369182348246,0.016450737255922283
1782984534240538600,2.26453857421875,-0.19810908146202563,-0.03582417757511139,-0.09489295493899844
1782984534250612500,2.274612548828125,-0.2135042189925909,-0.02952595421373844,-0.08471711382614448
1782984534260686600,2.2846865234375,-0.07233399932682513,-0.0038116672426462173,-0.03663088399824919
1782984534270760400,2.294760498046875,-0.045697336813807485,0.000976151555776596,-0.029638301147567107
1782984534280834600,2.30483447265625,-0.07720131310224533,-0.09765899471938609,-0.040111992695834486
1782984534290908700,2.31490869140625,-0.11911153259277343,-0.12050970895290374,-0.08779411011869087
1782984534300982500,2.324982421875,-0.07429331670105457,-0.0911579422622919,-0.08477551121618598
1782984534311057700,2.3350576171875,0.05274374819397926,-0.06970774247646332,-0.09378631800450384
1782984534321131500,2.345131591796875,0.20541034438610076,-0.0142693483710289,-0.10590933852922171
1782984534331205600,2.35520556640625,0.24885376479327678,0.009963760131597518,-0.0699355187837733
1782984534341279500,2.365279541015625,0.18834347425103187,-0.014261165064573287,-0.09178974649296141
1782984534351353600,2.375353515625,0.09513502919971942,-0.03125847709476948,-0.15611211526980623
1782984534361427500,2.385427490234375,-0.008588380125164986,0.01116319904923439,-0.14348170234537683
1782984534371501600,2.39550146484375,-0.0994020389944315,0.019871406161785125,-0.11673272029799409
1782984534381575700,2.40557568359375,-0.09710428344607352,0.028626959547400473,-0.1690895424004644
1782984534391650600,2.415650634765625,-0.11750292835235596,0.06031506023108959,-0.13997921978291122
1782984534401724700,2.425724609375,-0.04254851739406586,0.07784019552767277,-0.08512417852338403
1782984534411798500,2.435798583984375,0.12333353420197964,0.07343465404510498,-0.004469605994992889
1782984534421872600,2.44587255859375,0.30310441041886804,0.05847556984424591,0.03288379500797018
1782984534431946500,2.455946533203125,0.42847091175317764,0.047775896653532976,-0.013668231539567931
1782984534442020600,2.4660205078125,0.5044242706209421,0.08610358148217201,-0.046306582152796906
1782984534452094500,2.476094482421875,0.46900692028105256,0.06252513749599456,-0.10285744927846827
1782984534462168600,2.48616845703125,0.33796061974465846,0.03906301336586475,-0.16078547737570478
1782984534472243500,2.496243408203125,0.18020985215604304,0.008508300626277924,-0.17419581603091208
1782984534482317600,2.506317626953125,0.057497664722800254,0.0010556465327739716,-0.17749440091857685
1782984534492391700,2.5163916015625,-0.029350597646832465,-0.007004325804114342,-0.17439524759314953
1782984534502465500,2.526465576171875,-0.09809621709287165,-0.02292319494783878,-0.17467472212165594
1782984534512539600,2.53653955078125,-0.14162380865216254,-0.04325754244625568,-0.14541406778059898
1782984534522613500,2.546613525390625,-0.120742348664999,-0.080566405621171,-0.05744594366871752
1782984534532687600,2.5566875,-0.08002689191699028,-0.09745558110177516,-0.07770895209712907
1782984534542761500,2.566761474609375,-0.01466273160278797,-0.07899053460657596,-0.10765656578904018
1782984534552835600,2.576835693359375,0.02024900730252266,-0.029456980630755424,-0.0742861197752878
1782984534562910500,2.586910400390625,0.03260463100671768,-0.03161561996936798,-0.09378880222253501
1782984534572984600,2.596984619140625,0.012110709032416343,-0.04445405875444412,-0.09279202800383791
1782984534583058700,2.60705859375,0.022374913415312767,-0.026093641677498815,-0.017805605338932946
1782984534593132500,2.617132568359375,0.020272388178110123,-0.041131051811575885,0.011925168998213484
1782984534603206700,2.62720654296875,0.09245558085739612,-0.06069616850316524,0.02861706834104843
1782984534613280500,2.637280517578125,0.11218436367809771,-0.042216508960723875,0.06449891265383921
1782984534623354600,2.647354736328125,0.09495967263281345,-0.0327256270378828,0.042182930918107736
1782984534633428500,2.657428466796875,0.12055296357274055,-0.018998130458593367,-0.004121765238279476
1782984534643503600,2.667503662109375,0.14299918865859507,-0.019818214669823645,-0.02588346495896112
1782984534653577500,2.677577392578125,0.1865595134437084,0.0007663081973791122,-0.06180202455294784
1782984534663651600,2.687651611328125,0.18037527185082436,0.022961773392558095,-0.0962281399323605
1782984534673725700,2.6977255859375,0.1564303326398134,0.015801380243897437,-0.0588798260964686
1782984534683799600,2.707799560546875,0.12840601516067982,-0.0007177928805351257,-0.012783402395900338
1782984534693873700,2.717873779296875,0.1257172144681215,0.020338439151644707,-0.004375831330893561
1782984534703947500,2.727947509765625,0.15787585527300835,0.029232524225115776,0.005671079322800506
1782984534714021600,2.738021728515625,0.23055413799285887,0.006409282520413399,0.019706061815528662
1782984534724095500,2.748095458984375,0.2661374925494194,-0.025182956573367117,0.0483616789185442
1782984534734170600,2.758170654296875,0.2569219204366207,-0.021700375154614447,0.05272636780091561
1782984534744244500,2.768244384765625,0.1538029067456722,-0.030500352203845976,0.021354904451500623
1782984534754318600,2.778318603515625,0.058070496174693106,-0.06262509073913097,0.029261521990736946
1782984534764392700,2.788392822265625,0.0027308862686157226,-0.04940788176953792,0.055916039820853615
1782984534774466600,2.798466552734375,-0.009439443996548651,-0.08056932823061942,0.06450292210867628
1782984534784540700,2.808540771484375,-0.019866729986667633,-0.05799509285092354,0.018443357536487747
1782984534794614500,2.818614501953125,-0.058929743352532385,-0.01594809523820877,-0.052639118775725365
1782984534804688600,2.828688720703125,-0.08672551277279854,-0.005161912807822227,-0.11762367778834887
1782984534814763500,2.838763427734375,-0.1043815809726715,0.027968203377723693,-0.12213739235312678
1782984534824837600,2.848837646484375,-0.0921171426832676,0.04223346009552478,-0.12352474592514336
1782984534834911500,2.858911376953125,-0.09237374779284,0.007992752319574355,-0.13190032354984432
1782984534844985600,2.868985595703125,-0.007643208229541778,0.04415302998125553,-0.12070164219527504
1782984534855059700,2.879059814453125,-0.10841361296772956,0.09371522552967071,-0.05053208632676396
1782984534865133600,2.889133544921875,0.01685994938611984,0.07221651042699813,-0.1544215318343602
1782984534875207700,2.899207763671875,0.13321370770335197,0.0681482380747795,-0.13377881250651552
1782984534885281500,2.909281494140625,0.21978899835050106,0.037837270963191984,-0.08632751729800366
1782984534895355400,2.91935546875,0.20318565407395361,0.06307984876930714,-0.10877278340263291
1782984534905430500,2.929430419921875,0.07513853535354137,0.04783376432061195,-0.1557863721804693
1782984534915504600,2.939504638671875,-0.05564180772304535,0.047400049078464505,-0.1416017520839814
1782984534925578500,2.94957861328125,-0.13300269530117512,0.06958557740151881,-0.17677724735885858
1782984534935652600,2.959652587890625,-0.04157996462285518,0.08958148672580718,-0.2601584912050515
1782984534945726700,2.969726806640625,-0.03220072638094425,0.08165244729220866,-0.2630414627628401
1782984534955800600,2.979800537109375,0.02143967839181423,0.06724982793033123,-0.2283261049461551
1782984534965874700,2.989874755859375,0.09962649540007114,0.06359247446656227,-0.1726389237114228
1782984534975948500,2.999948486328125,0.1433691910147667,0.017173837640881536,-0.1148947551479563
1782984534986023700,3.010023681640625,0.15654957510530948,0.0013537526965141295,-0.14371718246852977
1782984534996097500,3.02009765625,0.12517886980772017,0.02596270877420902,-0.11606871256446465
1782984535006171400,3.03017138671875,0.09813011936247348,0.04551145885288715,-0.060320937416027294
1782984535016245500,3.04024560546875,-0.0016267244189977644,0.04399871620237827,0.02071733720032498
1782984535026319600,3.050319580078125,-0.0418535208672285,0.055209261524677276,0.027097932482371107
1782984535036393700,3.060393798828125,0.04177051875889301,0.025900749453902243,0.04591954646343365
1782984535046467600,3.070467529296875,0.11021861656308174,-0.006807926449179649,0.10590089949443936
1782984535056541700,3.080541748046875,0.06925707609951495,-0.03145663001537323,0.09371155400155112
1782984535066616600,3.090616455078125,0.056654784157872194,-0.03380816157758236,-0.0014590945008210838
1782984535076690700,3.100690673828125,0.0870844092130661,-0.011287117689847945,-0.11407829679907298
1782984535086764500,3.1107646484375,0.1505401055574417,-0.017747838136553763,-0.1300594997224398
1782984535096838400,3.12083837890625,0.26081366717815396,-0.0255453601449728,-0.1093440348187927
1782984535106912500,3.13091259765625,0.3124643594384193,-0.02838262939751148,-0.08882206492694095
1782984535116986600,3.140986572265625,0.26999182989001275,-0.07114975797832011,-0.09498916358877904
1782984535127060700,3.151060791015625,0.22379180425107478,-0.05704758286774158,-0.07787922149696387
1782984535137134600,3.161134521484375,0.10887538526058196,-0.05249532639086246,-0.09304623109376989
1782984535147208700,3.171208740234375,-0.054742228534817694,-0.043428222838044164,-0.12401610963866114
1782984535157283600,3.18128369140625,-0.13796996231973171,-0.01934358289539814,-0.12337754687364212
1782984535167357700,3.191357666015625,-0.09386486313343048,-0.03374269512593746,-0.13869586544148624
1782984535177431600,3.201431640625,-0.009635258829593658,-0.02745557768046856,-0.12221508809868245
1782984535187505400,3.21150537109375,0.023009704187512397,-0.023811083698272704,-0.1465455194959417
1782984535197579500,3.22157958984375,0.11434008040726185,-0.035781507477164264,-0.16943804531088097
1782984535207653600,3.231653564453125,0.1965630210638046,-0.04906944359540939,-0.10035866386583074
1782984535217727700,3.241727783203125,0.20870529427826404,-0.06199789875149726,-0.004888904552720487
1782984535227801600,3.251801513671875,0.15861878259479997,-0.08436462886035442,0.006086530539183877
1782984535237876700,3.261876708984375,0.07447744109630584,-0.07125614096224307,-0.033031149323098356
1782984535247950600,3.27195068359375,-0.0022328736186027526,-0.06856149505078792,-0.006824384393636137
1782984535258024700,3.282024658203125,-0.01150865148603916,-0.06502338405251502,0.01329728846848011
1782984535268098600,3.2920986328125,-0.06875497179627418,-0.11217267324030399,0.008786482813418843
1782984535278172400,3.30217236328125,-0.09955576825141906,-0.12999416113495826,-0.054254212122433816
1782984535288246500,3.31224658203125,-0.08413549627959728,-0.09614859015643597,-0.07115173987285234
1782984535298320600,3.322320556640625,-0.04141220684051514,-0.06798398742377758,-0.035486748614558014
1782984535308394800,3.332394775390625,0.02786065135002136,-0.057529813426733016,-0.056133002473204394
1782984535318468600,3.342468505859375,0.043780689537525175,-0.052561961886286736,-0.04820120939351618
1782984535328543700,3.352543701171875,0.034710078853368756,-0.022390110984444617,-0.006090165534685365
1782984535338617600,3.36261767578125,0.016542554000020027,-0.00865092396736145,0.005514607836166396
1782984535348691500,3.37269140625,0.06556582036614418,0.053875382572412485,0.02765106828652788
1782984535358765600,3.382765625,0.08001929313242435,0.08730828109681606,0.0582160375586478
1782984535368839400,3.39283935546875,0.0968792425185442,0.07584580684006213,0.0240927410507109
1782984535378913500,3.40291357421875,0.026946459114551544,0.09634031333625316,0.04235500411596149
1782984535388987600,3.412987548828125,-0.02600362530648708,0.13049392735064028,0.051823765538539734
1782984535399061800,3.423061767578125,-0.04313829998075962,0.13269991296231745,0.010783152506372426
1782984535409136600,3.43313671875,-0.04943827690780162,0.08068915521800518,-0.028037115311913656
1782984535419210800,3.443210693359375,-0.012215922972559929,0.09113689947426319,-0.06598971746717579
1782984535429284600,3.45328466796875,0.08838672398328781,0.11332651945054531,-0.1753180249938741
1782984535439358500,3.4633583984375,0.17046002703607083,0.08299509407281876,-0.19533581735640762
1782984535449432600,3.4734326171875,0.11613339356482029,0.05904547868669033,-0.17570910667069256
1782984535459506400,3.48350634765625,0.03307750921547413,0.06910159327685833,-0.20302492882059886
1782984535469580500,3.49358056640625,0.028462708896398542,0.018806407278776166,-0.1997231290625408
1782984535479654700,3.503654541015625,0.15056874713003635,0.012524550530314444,-0.143183705779491
1782984535489728800,3.513728759765625,0.2345347320616245,-0.01528057124018669,-0.11895738321067764
1782984535499803600,3.5238037109375,0.215346631988883,-0.034088147562742234,-0.12236695419214665
1782984535509877800,3.533877685546875,0.16763444822132587,-0.033168694630265234,-0.1256800607955083
1782984535519951600,3.54395166015625,0.1966121209025383,-0.033197336202859876,-0.1183947443592362
1782984535530025500,3.554025390625,0.1784779137969017,-0.02641980489194393,-0.12521379499062896
1782984535540099600,3.564099609375,0.16774726094603537,-0.031157939329743384,-0.11331095655523239
1782984535550173400,3.57417333984375,0.09514262798428536,-0.04592354678511619,-0.07245917377618606
1782984535560247600,3.58424755859375,0.08659867152273655,-0.06320902810692787,-0.04039036211264319
1782984535570321700,3.59432177734375,0.11998773090541362,-0.050020460709929465,-0.054297640272206626
1782984535580396500,3.604396484375,0.10643442184925078,-0.06502630666196346,-0.018081323857640382
1782984535590470700,3.614470703125,0.057495911157131194,-0.07370178054869174,-0.06355848086541518
1782984535600544800,3.624544677734375,0.04722352346777916,-0.06853869869709014,-0.10776804507318884
1782984535610618600,3.63461865234375,0.08819266271591186,-0.0463981785595417,-0.12133171112658456
1782984535620692500,3.6446923828125,0.09248480695188045,-0.0640875645071268,-0.07644927089223638
1782984535630766600,3.6547666015625,0.07678045734167098,-0.06499298891425133,-0.06951843501601833
1782984535640840400,3.66484033203125,0.05727145475149154,-0.02112520561516285,-0.0521364299505949
1782984535650914600,3.67491455078125,0.02340951716005802,-0.022913842597603797,-0.10057873635729775
1782984535660989400,3.684989501953125,-0.05772329017221927,0.008300795355439186,-0.11415886948830448
1782984535671063600,3.6950634765625,-0.0832721574485302,0.03803308579623699,-0.1308386034693103
1782984535681137700,3.7051376953125,-0.08689911577403545,0.04492167626619339,-0.11176710638040677
1782984535691211800,3.715211669921875,0.01740297022163868,0.06531798308491707,-0.05397992065912112
1782984535701285600,3.72528564453125,0.03696224169433117,0.08172551252841949,0.10599252330064773
1782984535711359500,3.735359375,0.05814297688901424,0.050019876188039776,0.10915353548168204
1782984535721433600,3.74543359375,0.14630875159800052,0.03518237254023552,0.11799765306673943
1782984535731507500,3.755507568359375,0.18105974698364732,0.04496551540791988,0.09207895696419291
1782984535741581600,3.76558154296875,0.206014155498147,0.0033136545926332472,0.009160990098060574
1782984535751656400,3.775656494140625,0.23306115237772462,0.005667524242401123,-0.09152644678112119
1782984535761730600,3.78573046875,0.2390413958311081,0.00575870965719223,-0.1730556330198422
1782984535771804700,3.7958046875,0.1636158602297306,0.010412088420987129,-0.18167407948970793
1782984535781878500,3.80587841796875,0.10707155070900916,-0.018784195446968077,-0.1410776642777957
1782984535791952600,3.81595263671875,0.09614391398131847,-0.040968554726243014,-0.11941847051694057
1782984535802026500,3.826026611328125,0.11991934184432029,-0.0350567003339529,-0.12769593979571944
1782984535812100600,3.8361005859375,0.11180793158113955,-0.031823125240206716,-0.09139711217987351
1782984535822174500,3.846174560546875,0.1427238788485527,-0.01308686058819294,-0.09975573866977355
1782984535832249600,3.85624951171875,0.08815349974930285,-0.04730535653233528,-0.10471561696631833
1782984535842323500,3.866323486328125,0.05920972933769226,-0.037330490484833716,-0.06817747330241836
1782984535852397600,3.8763974609375,0.03773556415438652,-0.03567512449324131,-0.04675389666203409
1782984535862471700,3.8864716796875,0.04945639708638191,0.003513561078906059,-0.020034001428529152
1782984535872545500,3.896545654296875,0.073455112311244,0.04163724776804447,-0.026135795752215196
1782984535882619600,3.90661962890625,0.07128419801294804,0.043372693258523935,-0.013077492254937532
1782984535892693500,3.916693603515625,0.06350596522688866,0.03377718191742897,-0.024462035587406717
1782984535902767600,3.926767578125,0.018504209461808203,0.06447802512943744,-0.028792591588024514
1782984535912841000,3.936841064453125,-0.00004617722928524017,0.08927870438694953,-0.012877352873224298
1782984535922916000,3.946916015625,0.029314357289671897,0.07692600329220295,0.006270472271344624
1782984535932990000,3.956989990234375,0.08671791398823261,0.08773615112006664,-0.01096400038243737
1782984535943064300,3.967064208984375,0.10583820952177048,0.09034428779184818,-0.029419046073430218
1782984535953138200,3.97713818359375,0.058816346105933184,0.055415597751736635,-0.07198904464694206
1782984535963212300,3.98721240234375,0.0021808511704206465,0.03400982162952423,-0.09292951851207762
1782984535973286100,3.9972861328125,-0.003547463348507881,0.057197804993391034,-0.0470569575621048
1782984535983360000,4.007360107421875,0.025951602858304976,0.046126375880837435,-0.03840061763410922
1782984535993434000,4.01743408203125,0.03964636621177196,0.047149873709678644,-0.051220867741946126
1782984536003509200,4.02750927734375,0.04568564637601375,0.03574409807622433,-0.08165916929394006
1782984536013583000,4.0375830078125,0.009821136790513992,0.013532266268134117,-0.07952101562093011
1782984536023657000,4.047656982421875,-0.003804652979969978,0.026871640312671658,-0.07860643979297019
1782984536033731300,4.0577314453125,0.06878244432508945,0.03913315599262714,-0.01509815017825458
1782984536043805200,4.06780517578125,0.11647066269516944,0.0105658176779747,0.023102734499517826
1782984536053879300,4.07787939453125,0.12153612939119338,-0.03225742500424385,0.03590960910255089
1782984536063953200,4.087953125,0.049801265001296995,-0.06481997043490409,0.03503373045031912
1782984536074027000,4.098027099609375,0.04477554579377174,-0.07904840227365494,0.0036937901837518438
1782984536084101000,4.10810107421875,0.08382569967806339,-0.07173720247745513,-0.042713969054888
1782984536094176000,4.118176025390625,0.08120762613415718,-0.07260755557119845,-0.054915658006118605
1782984536104250000,4.12825,0.028992285728454588,-0.05608721340298652,-0.05622074925531633
1782984536114324000,4.138323974609375,0.036298809349536894,-0.05424304684102535,-0.11282644270760937
1782984536124398300,4.1483984375,0.08865326596498489,-0.040999534386396405,-0.10442722847899422
1782984536134472200,4.15847216796875,0.13633388555049897,-0.039249475848674775,-0.06228880798947066
1782984536144546300,4.16854638671875,0.13545534915030003,-0.043346389773488044,-0.03286607212161179
1782984536154620200,4.1786201171875,0.10893383744955062,-0.06214987444281578,-0.012321698601706885
1782984536164694000,4.188694091796875,0.0673334145605564,-0.08963409369587898,-0.0851116935011465
1782984536174769200,4.19876904296875,0.12520517329275607,-0.07695698295235634,-0.13208852133201435
1782984536184843000,4.208843017578125,0.17906360473036764,-0.05153729501366615,-0.12090054403454996
1782984536194917000,4.218917236328125,0.07634148140251636,-0.05939326921105385,-0.10104613467333838
1782984536204991000,4.228990966796875,-0.10304945558607578,-0.048238837990164755,-0.11349135462343692
1782984536215065300,4.2390654296875,-0.19052607898712157,-0.02386310614645481,-0.0621415130398469
1782984536225139200,4.24913916015625,-0.17379238632917404,0.02270283019542694,-0.04394208151116036
1782984536235213300,4.25921337890625,-0.2596247496545315,-0.0015384616136550901,-0.05641141298920847
1782984536245287200,4.269287109375,-0.3081388974547386,0.02444996612370014,-0.05975886025358922
1782984536255361000,4.279361083984375,-0.2083972512423992,0.06597557021081447,-0.07995718768164516
1782984536265436200,4.289436279296875,-0.04655658399164676,0.09473463170528411,-0.1046369348400738
1782984536275510000,4.299510009765625,0.14174422016143798,0.06461421872973441,-0.08723423861307092
1782984536285584100,4.309584228515625,0.3466512912005186,0.10070376924276352,-0.07836772653311491
1782984536295658000,4.319657958984375,0.488260486805439,0.1192477261930704,-0.0453687396136811
1782984536305732400,4.329732421875,0.5490291360229254,0.09220014479160309,-0.029444299245695582
1782984536315806200,4.33980615234375,0.4570300667613744,0.0664841042548418,-0.04480423303213901
1782984536325880000,4.349880126953125,0.26381343351602554,0.07669628618955612,-0.08312610917449928
1782984536335954200,4.3599541015625,0.09791384626328944,0.09097031073570251,-0.10593995286319405
1782984536346029300,4.370029296875,-0.09286649974584579,0.0629506694316864,-0.07981120333969592
1782984536356103200,4.380103271484375,-0.2116910320907831,0.06229775848090648,-0.024449742361414246
1782984536366177000,4.390177001953125,-0.2000140383005142,0.06083236210346222,0.03310940219108015
1782984536376251100,4.400251220703125,-0.07396364635527133,0.06242109259963035,0.04527439412742387
1782984536386325200,4.4103251953125,0.09605798926353454,0.04473112213015556,0.051743498809984884
1782984536396399400,4.4203994140625,0.23224223721027373,0.002147533422708511,-0.00019417999838478863
1782984536406473200,4.43047314453125,0.266966344588995,0.041887423136830325,-0.07314611029415391
1782984536416547000,4.440547119140625,0.19813947660028933,0.043914545050263404,-0.15360413277056068
1782984536426622200,4.450622314453125,0.12636661828756332,0.026975100687146186,-0.19770996260922402
1782984536436696000,4.460696044921875,0.07710194438099861,-0.03288637055754661,-0.25471350540583954
1782984536446770200,4.470770263671875,0.04540799847841263,-0.047022447937726974,-0.18787476076073945
1782984536456844000,4.480843994140625,0.016827216160297392,-0.021227496945858,-0.1806806845381856
1782984536466918100,4.490918212890625,0.02797521764039993,-0.031095980009436607,-0.1456905009686481
1782984536476992300,4.5009921875,0.03563713057041168,-0.06389233419597148,-0.13405730065433308
1782984536487066400,4.51106640625,0.039565117669105525,-0.074100424477458,-0.15733363815508783
1782984536497140200,4.52114013671875,0.0034323125362396237,-0.06574351502060889,-0.1406910943793133
1782984536507214000,4.531214111328125,-0.12740531368553637,-0.06925064635872841,-0.14254829395278357
1782984536517289200,4.541289306640625,-0.2534399235397577,-0.07243278352618217,-0.12397918429491109
1782984536527363000,4.551363037109375,-0.13723697187006473,-0.06758008279800415,-0.2704133980366401
1782984536537437200,4.561437255859375,-0.01949263597726822,-0.07130231819152831,-0.05288322059675119
1782984536547511000,4.571510986328125,0.025224457627534867,-0.016205284869670867,-0.00034326961287297307
1782984536557585200,4.581585205078125,0.12228957810699939,0.003289689195156097,-0.06237400205489248
1782984536567659300,4.5916591796875,0.1549234352082014,-0.003527589604258537,-0.04191294117057696
1782984536577733400,4.6017333984375,0.1250567047327757,-0.0014244798451662063,0.0002841963693965226
1782984536587807200,4.61180712890625,0.08155190952718258,0.0015279402196407318,-0.04026236095195636
1782984536597882400,4.62188232421875,0.08211480410695075,0.04276829762458801,-0.056716158956289286
1782984536607956200,4.631956298828125,0.08727320978343486,0.030714287215471266,-0.09741411658022552
1782984536618030000,4.642030029296875,0.10110650482475757,0.029314357289671897,-0.059420440345769744
1782984536628104200,4.652104248046875,0.12234686125218867,0.04816927988529205,-0.05231342135216109
1782984536638178000,4.662177978515625,0.14018822289109228,0.051474751171469685,-0.07592398664280772
1782984536648252200,4.672252197265625,0.23252397676110267,0.06197334883213043,-0.051157620646851136
1782984536658326300,4.682326171875,0.25029051959812637,0.04421849643290043,-0.005044049448659643
1782984536668400000,4.692400146484375,0.21937164972126483,0.015512626430392265,-0.03692378198062069
1782984536678475300,4.702475341796875,0.20569734463393688,0.0456225180119276,-0.05342722781295888
1782984536688549400,4.71254931640625,0.20882278317809103,0.03898761004209518,-0.040569855998549606
1782984536698623200,4.722623291015625,0.16835867084264755,0.0229921685308218,-0.01828637459320016
1782984536708697000,4.732697021484375,0.10607552540898323,0.017550854259729385,-0.03444297061609104
1782984536718771200,4.742771240234375,0.006951134312152862,-0.007104863569140434,-0.04901095487382263
1782984536728845000,4.752844970703125,-0.09015840983092785,-0.011029928058385848,-0.07282699787500314
1782984536738919200,4.762919189453125,-0.08321779691278934,-0.01950432641506195,-0.10589014977156185
1782984536748993300,4.7729931640625,-0.07941840462982654,-0.017092004576325415,-0.058623673078045245
1782984536759067100,4.783067138671875,-0.0843348182439804,-0.01658814670741558,-0.05831538344700821
1782984536769142300,4.793142333984375,0.029396190354228018,0.0029196868389844894,-0.08346552459616213
1782984536779216100,4.803216064453125,0.056470075240731235,0.018673136287927626,-0.022694669721857644
1782984536789290200,4.813290283203125,0.04395487706065178,0.017678280031681058,-0.072690489180875
1782984536799364000,4.823364013671875,0.08385901742577552,0.002129997766017914,-0.09513912998610176
1782984536809438200,4.833438232421875,0.06196691909134388,0.08404781799614429,-0.11758422256079502
1782984536819512000,4.843511962890625,0.04074351379871368,0.08764028953015804,-0.23104013141151516
1782984536829586200,4.853586181640625,0.06018880350291728,0.05360591798126697,-0.1270625555293169
1782984536839660300,4.863660400390625,0.10485387465953826,0.057117140972614285,-0.04280809534543659
1782984536849735200,4.873735107421875,0.2128033772468567,0.02569265966117382,-0.07512029644395224
1782984536859809300,4.883809326171875,0.25965923644602296,0.023458616998791693,-0.03542310879381839
1782984536869883100,4.893883056640625,0.25751287206709383,0.025996026521921158,-0.033198014339583456
1782984536879957200,4.903957275390625,0.12901099531650542,0.020494506496191025,-0.0516281653346261
1782984536890031000,4.914031005859375,0.10135141949653625,0.03551379645168781,-0.08734938029218464
1782984536900105200,4.924105224609375,0.08977905512452125,0.008842062625288962,-0.02023167257523164
1782984536910179600,4.9341796875,0.08827332673668861,-0.05259995580911636,-0.018216515094228086
1782984536920253700,4.944253662109375,0.05567220286130905,-0.04446107301712036,-0.03363415443425765
1782984536930328600,4.95432861328125,0.016236849051713943,-0.06212824713289737,-0.062953646840062
1782984536940402700,4.964402587890625,0.01021335097849369,-0.0577829114049673,-0.09188765390948392
1782984536950476500,4.9744765625,0.023294366347789763,-0.029697803649306295,-0.08270126222539692
1782984536960550700,4.984550537109375,-0.01011748938858509,-0.07843231620192527,-0.08625838845139369
1782984536970624800,4.994624755859375,-0.03369067267775536,-0.11443944912850856,-0.10991103018494322
1782984536980698600,5.00469873046875,0.009909984117746353,-0.05837970825433731,-0.09931914648395031
1782984536990772700,5.014772705078125,0.015022212564945221,-0.003810498198866844,-0.14155655210223048
1782984537000846600,5.0248466796875,0.03612812895774841,-0.01303542266190052,-0.14585110749099403
1782984537010920700,5.034920654296875,0.06565466769337654,-0.024947394251823424,0.030128075692197307
1782984537020995600,5.04499560546875,0.10043255108594894,-0.04352174634039402,0.13202700040312484
1782984537031069700,5.055069580078125,0.13201777591705322,-0.04901274497210979,0.13914558197036384
1782984537041143600,5.0651435546875,0.24015783264040946,-0.023712299498915672,0.13164241239917462
1782984537051217700,5.0752177734375,0.20155133087038993,0.04563187036216259,0.08132699646381661
1782984537061291800,5.085291748046875,0.05916062949895858,0.03780103060603142,-0.06557551064309664
1782984537071365600,5.09536572265625,-0.02973813565969467,-0.0034819968968629834,-0.13524554232452063
1782984537081439700,5.105439697265625,-0.03639291737377643,0.014357611176371573,-0.185149518781621
1782984537091513600,5.115513671875,-0.005288754057884216,-0.009744564422965049,-0.14268067902764306
1782984537101588700,5.125588623046875,0.055118660631775854,-0.05121873058378696,-0.11249858072642237
1782984537111662600,5.13566259765625,0.06549626226127148,-0.07236264089941978,-0.0729948789549293
1782984537121736700,5.14573681640625,0.0469733480989933,-0.054637014594674106,-0.04750059141006786
1782984537131810600,5.155810546875,0.04066460334360599,-0.028749709144234657,-0.05762688515961636
1782984537141884700,5.165884765625,-0.031603929531574246,-0.04290039957165718,-0.05319194405262824
1782984537151958800,5.175958740234375,-0.03992459863126278,-0.03151040602922439,-0.07595342279984615
1782984537162032600,5.18603271484375,0.037572482547163964,-0.02176174995303154,-0.08980384250590577
1782984537172106800,5.196106689453125,0.07971943340301513,-0.028767244800925254,-0.02613801054218784
1782984537182181600,5.206181640625,0.11756254958510398,0.0015939911931753157,-0.047962226705602365
1782984537192255700,5.216255859375,0.0829407335370779,-0.0018780688315629959,-0.08112184754684566
1782984537202329600,5.22632958984375,0.05877426052987575,0.014062427622079848,-0.07356962836927268
1782984537212403700,5.23640380859375,0.09462824872136115,0.04882102179229259,-0.03959366334357765
1782984537222477600,5.2464775390625,0.13079086447060106,0.059163552108407014,0.0031671998932259154
1782984537232551700,5.2565517578125,0.13271686409711836,0.04570902725160122,-0.020079564453172497
1782984537242625800,5.266625732421875,0.13196049277186392,0.03972469214498996,-0.03788187272332143
1782984537252699600,5.27669970703125,0.0884656344383955,0.05934007771909237,-0.07356624453552067
1782984537262774800,5.28677490234375,0.09889818112552165,0.05421615883409977,-0.13333970870319753
1782984537272848600,5.2968486328125,0.05582067142128944,0.02617372117638588,-0.15266296119662
1782984537282922800,5.3069228515625,0.045589784786105154,-0.0015974983245134354,-0.15579033596953376
1782984537292996600,5.31699658203125,0.07816402065455913,0.01697860732972622,-0.1389078550911974
1782984537303070700,5.32707080078125,0.09921499198973179,0.025008184528350828,-0.12398123925467952
1782984537313144600,5.33714453125,0.07046878997683524,0.004645779979228973,-0.1422641158496961
1782984537323218700,5.34721875,0.048211365461349485,0.019703648379445073,-0.11281798540651798
1782984537333292800,5.357292724609375,0.012061024671792984,0.009151859226822852,-0.08969914002241566
1782984537343366700,5.36736669921875,-0.0029588498055934903,-0.007916179952025412,-0.03884820613798219
1782984537353441800,5.37744189453125,-0.026332126608490942,-0.0017015432208776474,-0.03303276132487226
1782984537363515600,5.387515625,-0.0035661680489778515,0.003990530940890312,-0.055870949436957015
1782984537373589800,5.39758984375,0.07896481564342975,0.007510521760582923,-0.04911769405077211
1782984537383663600,5.40766357421875,0.13185469430983066,-0.016902034962177275,0.025746335210325193
1782984537393737500,5.417737548828125,0.05966916354298591,-0.05249883352220058,0.03360993102516513
1782984537403811600,5.4278115234375,0.018348142117261886,-0.01757598870098591,-0.0265292246497469
1782984537413885700,5.4378857421875,0.08516951550245284,0.0375011708766222,-0.07147389363246039
1782984537423959800,5.447959716796875,0.173801738679409,0.05376198532581329,-0.11491130442395805
1782984537434034700,5.45803466796875,0.2398246551632881,0.02404080080091953,-0.11728133062408305
1782984537444108800,5.46810888671875,0.2541618080735206,0.019839257457852363,-0.06947256831398699
1782984537454182700,5.4781826171875,0.09447510398626327,0.06524900950193405,-0.053640637668198904
1782984537464256800,5.4882568359375,-0.11317103662788867,0.07433364871144295,-0.11274504803447052
1782984537474330600,5.49833056640625,-0.19913959355354308,0.04993921216726303,-0.1001271749312058
1782984537484404500,5.508404541015625,-0.16227145988345146,0.03941723363101482,-0.06725236694728955
1782984537494478600,5.518478515625,-0.02173427742421627,0.07183189502358436,-0.0999928079618141
1782984537504552700,5.528552734375,0.11516717888116836,0.0903349354416132,-0.10035163133684545
1782984537514627600,5.538627685546875,0.3021083851188421,0.11217325776219367,-0.07248098831577227
1782984537524701700,5.54870166015625,0.357657838383317,0.07438041046261787,-0.07735295086684636
1782984537534775800,5.55877587890625,0.3649579322636127,0.06222995394170284,-0.10192814167225733
1782984537544849700,5.568849609375,0.3420931895047426,0.05014379482865333,-0.108416709107114
1782984537554923800,5.578923828125,0.25607436369657516,0.025290508601069447,-0.08495331546850501
1782984537564997600,5.58899755859375,0.07781447656452656,-0.030014029991626737,-0.06400909244343637
1782984537575071500,5.599071533203125,-0.07595452791154385,-0.011628478473424912,-0.0799531508273445
1782984537585145600,5.6091455078125,-0.06530220099389553,-0.012394202148914336,-0.10209534233217127
1782984537595219700,5.6192197265625,-0.02388707154393196,-0.022900983116030692,-0.07243631805698388
1782984537605294600,5.629294677734375,0.012547346884012222,-0.05480126524567604,-0.09280806582318618
1782984537615368700,5.63936865234375,0.04714519753456115,-0.050478141349554057,-0.12407115516099147
1782984537625442800,5.64944287109375,0.027585926061868667,-0.011814940956234931,-0.16761957944575695
1782984537635516700,5.6595166015625,0.0056219315350055695,0.009887187764048577,-0.13833653060980142
1782984537645590800,5.6695908203125,-0.03570376606583595,0.0009042553633451461,-0.01994687570092501
1782984537655664600,5.67966455078125,-0.08377250818610191,-0.042000235861539836,0.09075617479467764
1782984537665738500,5.689738525390625,-0.040210429835319514,-0.03588847498297691,0.17185511638997122
1782984537675812600,5.6998125,0.08680793035924435,0.007518120545148849,0.1819722952513024
1782984537685887500,5.709887451171875,0.0932101986169815,-0.04493687383532524,0.08458030830449424
1782984537695961600,5.719961669921875,0.14520575879216194,-0.052205403533577915,0.01240097894957289
1782984537706035700,5.73003564453125,0.15504150862991808,-0.03306874138712883,-0.043324675698601635
1782984537716109800,5.74010986328125,0.14808978979587553,-0.017747838136553763,-0.15006435040500946
1782984537726183700,5.75018359375,0.14009177677929402,-0.001633154159784317,-0.1950787190564908
1782984537736257500,5.760257568359375,-0.01836100159883499,0.0021679916888475417,-0.17034628272959962
1782984537746331600,5.77033154296875,-0.05415536855757236,-0.017549100694060325,-0.15986500152992084
1782984537756405500,5.780405517578125,0.04082943851649761,0.012589432460069655,-0.11054222249425948
1782984537766480600,5.790480712890625,0.15427227782309055,0.013906944799423218,-0.07790420067459344
1782984537776554500,5.800554443359375,0.22712650163173675,0.002421089667081833,-0.0968388009103015
1782984537786628600,5.810628662109375,0.19135960720181464,0.035658757880330086,-0.11489063609526493
1782984537796702700,5.82070263671875,0.1773094545394182,0.0335620778620243,-0.09386314610037952
1782984537806776800,5.83077685546875,0.11613105547726153,0.018165186765789983,-0.04805750834019854
1782984537816850700,5.8408505859375,0.062114218607544895,0.03137655051648617,-0.03585757980450289
1782984537826924500,5.850924560546875,0.025078911677002904,0.046049218991398806,-0.052676993967546146
1782984537836998700,5.86099853515625,0.011603344032168388,0.06101999363005161,-0.04949225385105237
1782984537847072500,5.871072509765625,0.04247720572352409,0.012023030748963355,-0.0448702840056736
1782984537857147600,5.881147705078125,-0.05773439608812332,-0.009897124636173248,0.0079608136781957
1782984537867221500,5.891221435546875,-0.16719196515083312,0.018860183292627335,0.021471098726673517
1782984537877295600,5.901295654296875,-0.17314707416296005,-0.012451485294103622,-0.006652537241356913
1782984537887369700,5.91136962890625,-0.0818079301148653,-0.01589315018057823,-0.030413315524498465
1782984537897443800,5.92144384765625,-0.00684884298145771,0.02908931636214256,-0.08384449571007863
1782984537907516400,5.931516357421875,-0.003645663025975227,0.06269523336589336,-0.11773085535671561
1782984537917590500,5.941590576171875,0.015377601873874663,0.08130933294296264,-0.14339392359722405
1782984537927664600,5.95166455078125,0.01533200916647911,0.030959201887249946,-0.08869323264919221
1782984537937739500,5.961739501953125,-0.020552958685159682,-0.006456044271588325,-0.04812729934051167
1782984537947813600,5.971813720703125,-0.08586158941984176,0.003981763112545013,-0.07936408062670379
1782984537957887700,5.9818876953125,-0.028577275186777114,0.02912906385064125,-0.13571481293723917
1782984537967961600,5.991961669921875,0.09780746327936649,0.03515782262086868,-0.07737646873975172
1782984537978035700,6.00203564453125,0.22578034771978853,0.03923778541088104,-0.036580181290896144
1782984537988109600,6.012109619140625,0.2572334706038236,0.0028881226569414135,-0.05233092047623358
1782984537998183400,6.022183349609375,0.2941664862036705,-0.015255436798930168,-0.0764768986846786
1782984538008257500,6.032257568359375,0.3546948969244957,0.0009410802423954009,-0.04289518454042263
1782984538018332400,6.04233251953125,0.3969803794682026,-0.011880991929769515,-0.03656813694336451
1782984538028406500,6.052406494140625,0.30054595810770984,-0.05453589230775833,-0.06116902844561264
1782984538038480600,6.062480712890625,0.17967209201753137,-0.06723989105820656,-0.0686034755955683
1782984538048554800,6.0725546875,0.1050350764453411,-0.050232057633996005,-0.03484758762791752
1782984538058628600,6.082628662109375,-0.022038228806853292,-0.07888999684154988,-0.05175022537829354
1782984538068702700,6.09270263671875,-0.04632511332333088,-0.10635784948170185,-0.09215215919772163
1782984538078776600,6.102776611328125,-0.05964928979873657,-0.049185178929567336,-0.07164623625837266
1782984538088850400,6.112850341796875,-0.08674947817027569,-0.05008242003023624,-0.10925137896612286
1782984538098925600,6.122925537109375,-0.0992494787812233,-0.0250835878521204,-0.1361016020314302
1782984538108999400,6.13299951171875,-0.05329027616083622,-0.02439677463173866,-0.11309620869285426
1782984538119073500,6.143073486328125,0.06660685385167599,0.0002034136176109314,-0.05998151742778718
1782984538129147600,6.153147705078125,0.1094488012343645,-0.02662497207522392,-0.028690329940081572
1782984538139221800,6.1632216796875,0.11301847641468048,-0.0185480486035347,-0.06749990740099455
1782984538149295600,6.173295654296875,0.1054185228049755,0.0067991586208343505,-0.06569174830075353
1782984538159369500,6.183369384765625,0.0650157852679491,0.04746668457388878,-0.06441883772152941
1782984538169443600,6.193443603515625,0.058925651699304575,0.04439034586846828,-0.06214063625701237
1782984538179517400,6.203517333984375,0.0008048866420984267,0.04944119951725006,-0.07136547852165531
1782984538189592600,6.213592529296875,-0.04432955559194088,0.08548866445422172,-0.11238544834130443
1782984538199666400,6.22366650390625,-0.04398819480836391,0.10968202546834944,-0.15246025083190762
1782984538209740500,6.233740478515625,0.009494389054179191,0.09634615855515002,-0.12892191966040992
1782984538219814700,6.243814697265625,0.09738719204068183,0.07280337040424346,-0.12134311843658797
1782984538229888800,6.253888671875,0.1657850209623575,0.057279053536057466,-0.058796979251760056
1782984538239962600,6.263962646484375,0.19261340665519236,0.07932780373692512,-0.05024120448825415
1782984538250036500,6.274036376953125,0.16603694989681242,0.08663491187989711,-0.0663301786350319
1782984538260110600,6.284110595703125,0.11346446661651134,0.07356266433894634,-0.06291657993241678
1782984538270185500,6.294185546875,0.0917465558052063,0.063330024138093,-0.05527702953126281
1782984538280259600,6.304259521484375,0.05054477684497833,0.004251227703690528,-0.0831633724449668
1782984538290333400,6.31433349609375,0.0870452462464571,-0.0080126260638237,-0.15386970663787797
1782984538300407600,6.324407470703125,0.12547346884012223,0.05335924974381923,-0.13038664931757374
1782984538310481700,6.334481689453125,0.07245031918287277,0.08066402077674865,-0.12905485272454098
1782984538320555800,6.3445556640625,-0.023148235875368118,0.057089668443799015,-0.08633894287431612
1782984538330629600,6.354629638671875,-0.04595861809849739,0.02728548181056976,0.03896474975631572
1782984538340703500,6.364703369140625,0.05426759676039219,0.056205286824703216,0.1157056605388876
1782984538350778600,6.374778564453125,0.10513386064469814,0.04489712634682655,0.12560745221702382
1782984538360852500,6.3848525390625,0.1683732838898897,-0.014272270980477331,0.08609520637947134
1782984538370926600,6.394926513671875,0.14018003958463668,-0.009749240598082541,0.03926997978058643
1782984538381000400,6.40500048828125,0.12218845582008361,0.0028881226569414135,-0.07584008948532864
1782984538391074600,6.415074462890625,0.11363690057396889,-0.007958850049972533,-0.18856495324829592
1782984538401148700,6.425148681640625,0.14611118319928645,-0.018988193586468697,-0.1848626281316392
1782984538411222800,6.435222900390625,0.16983166600465774,-0.013049451187252998,-0.14918538474654777
1782984538421296600,6.445296630859375,0.05974924304187298,-0.02078092222213745,-0.1666932401147671
1782984538431370500,6.45537060546875,-0.0627110154569149,-0.04322480922043323,-0.1571826671107672
1782984538441445600,6.465445556640625,-0.14556699331998824,-0.0013315408647060394,-0.14486664476459846
1782984538451519500,6.47551953125,-0.2004986069470644,0.0015565817922353743,-0.13172767039667815
1782984538461593600,6.485593505859375,-0.24189152456521987,-0.023768413600325583,-0.09887695567440241
1782984538471667500,6.49566748046875,-0.1899625998854637,-0.012443886509537696,-0.09735444054855033
1782984538481741600,6.505741455078125,-0.05405307722687721,-0.002501169165968895,-0.07418506598703097
1782984538491815700,6.515815673828125,0.05507715957760811,0.01576338632106781,-0.06276780084518249
1782984538501889500,6.5258896484375,0.12805237941741943,0.032839024284482,-0.07692746459692716
1782984538511963600,6.535963623046875,0.10936755269169807,0.037789340168237685,-0.05695749343149364
1782984538522038800,6.546038818359375,0.02415244448184967,0.028864275434613226,0.0121922772354912
1782984538532112600,6.556112548828125,0.0024269348859786988,0.02855389431118965,0.018082718946994283
1782984538542186500,6.5661865234375,0.09647650693655013,0.054905310142040246,0.04264970817964058
1782984538552260600,6.576260498046875,0.20113222867548464,0.05102876096963882,0.043945469911489635
1782984538562334500,6.58633447265625,0.2115378873556852,0.028535774132609364,0.01598291538984049
1782984538572408600,6.59640869140625,0.1354436587125063,0.0443371543765068,-0.03257974316063337
1782984538582482700,6.606482666015625,0.041891514790058135,0.07357493929862975,-0.053816249963431616
1782984538592556500,6.616556640625,-0.0060655836492776866,0.025121581774950025,-0.09106005311207846
1782984538602631700,6.626631591796875,0.02994505640864372,-0.016689853516221046,-0.07050175609809811
1782984538612705500,6.63670556640625,-0.04389876295924187,0.007607552394270896,-0.021081645034649408
1782984538622779600,6.646779541015625,-0.10608078610599041,0.008501286363601684,-0.0832778748032637
1782984538632853500,6.656853515625,0.014295651856064795,0.007929623955488204,-0.011539019224839284
1782984538642927600,6.666927734375,0.17424772888123988,-0.0052998599737882615,0.002541784304147586
1782984538653001500,6.67700146484375,0.3208540021210909,-0.04177870206534862,-0.016916036088066175
1782984538663075600,6.68707568359375,0.43155777185261246,-0.009877250891923903,0.009033169317175634
1782984538673149700,6.697149658203125,0.400769250357151,0.0004208557605743408,0.008182927429699338
1782984538683224600,6.707224609375,0.3258639392375946,-0.003601239362359047,-0.0329911872054683
1782984538693298700,6.717298583984375,0.14436346274912357,0.01740121665596962,-0.06740649349649902
1782984538703372500,6.72737255859375,-0.12685644763112067,0.0024900632500648497,-0.1005325225953944
1782984538713446700,6.73744677734375,-0.2597492528170347,-0.029438275930285453,-0.12606780887092464
1782984538723520500,6.7475205078125,-0.30490766044855117,-0.02672960149347782,-0.1032999962810427
1782984538733594600,6.7575947265625,-0.1874444795846939,-0.01300093587040901,-0.10307311958945356
1782984538743668500,6.76766845703125,-0.10810030923485756,-0.020104045873880386,-0.09281166428606957
1782984538753742600,6.77774267578125,-0.017867665123939513,-0.01883212624192238,-0.1189722702525556
1782984538763817500,6.7878173828125,0.09371464100778103,0.022523966497182846,-0.0996178554358892
1782984538773891600,6.7978916015625,0.09974398429989814,0.04563303940594196,-0.06619148711697198
1782984538783965700,6.807965576171875,0.07444763047993183,0.03434007649719715,-0.06450357056264765
1782984538794039600,6.81803955078125,0.05959200665354728,0.07557341963946819,-0.09181594951329752
1782984538804113700,6.82811376953125,0.04894786304235458,0.14222411263287066,-0.11916882487111724
1782984538814187500,6.8381875,0.027539748832583425,0.12777297795414924,-0.11264230004604905
1782984538824261600,6.84826171875,0.05509177262485027,0.1077846674144268,-0.08344167792969383
1782984538834335500,6.85833544921875,0.1101940666437149,0.11097206527888774,-0.043831337445951066
1782984538844409300,6.868409423828125,0.12508300821781157,0.11784428913593291,-0.04765484125686344
1782984538854484500,6.878484375,0.1395820736914873,0.09665478611290454,-0.039619962262036276
1782984538864558600,6.88855859375,0.11479776104688644,0.08570610659718512,-0.06759494700699578
1782984538874632700,6.8986328125,0.09687222825586796,0.08210252914726733,-0.07075596375460735
1782984538884706600,6.90870654296875,0.08344517592787742,0.0771241562128067,-0.02832404477780219
1782984538894780700,6.91878076171875,0.05338438418507575,0.04088263000845909,-0.03409378728566225
1782984538904854500,6.9288544921875,0.052660746085643764,0.04249474138021469,-0.05110064346233848
1782984538914929200,6.93892919921875,0.03207330060899258,0.04871463880836963,-0.040838868498546066
1782984538925004300,6.94900439453125,0.07530863122344017,0.03974339684545994,-0.0542698891821783
1782984538935078100,6.959078125,0.08843991547524929,0.03019698534309864,-0.031301549051515755
1782984538945152300,6.96915234375,0.08478080844581126,-0.0011707973450422286,-0.07175985726725775
1782984538955226000,6.97922607421875,0.0601011252194643,0.021100071173906325,-0.06373221173081546
1782984538965300000,6.989300048828125,0.042191374519467355,0.0044458734929561615,-0.0640537216030294
1782984538975374300,6.999374267578125,-0.003326514074206352,-0.034388591814041136,-0.08993415435468778
1782984538985448200,7.0094482421875,0.0060965633094310755,0.00968786579966545,-0.08592899210024625
1782984538995522300,7.019522216796875,0.027117724028229713,0.0010293430477380753,-0.08585486741811037
1782984539005596200,7.02959619140625,0.11892448558807373,-0.0128881231456995,-0.10283598636533132
1782984539015671300,7.03967138671875,0.12575462386906147,-0.018471476235985756,-0.10246484236484393
1782984539025745200,7.0497451171875,0.12216215233504771,-0.014564531925320624,-0.12060250180289149
1782984539035819000,7.059819091796875,0.1051484736919403,0.007840776628255844,-0.12201629585726186
1782984539045893000,7.06989306640625,0.0383376217007637,0.03324292891025543,-0.1419362264690455
1782984539055967000,7.079967041015625,-0.06163432613611221,0.02779927655160427,-0.05233213975236285
1782984539066041300,7.090041259765625,-0.07172843464910984,0.03590250350832939,0.04985463002319447
1782984539076115200,7.100115234375,-0.016982698982954025,0.03782265791594982,0.11017127942317165
1782984539086189300,7.110189208984375,0.0432826768875122,0.0611333908766508,0.1383465862129349
1782984539096264200,7.12026416015625,0.17132102777957917,0.02889291700720787,0.09392592740459367
1782984539106338300,7.13033837890625,0.2124970877766609,0.011470657563209533,-0.06299811160287354
1782984539116412200,7.140412109375,0.17539280726313589,0.02289747598469257,-0.1939435592804104
1782984539126486000,7.150486083984375,0.12416063267588615,0.07028466558158397,-0.252321641833242
1782984539136560000,7.16056005859375,0.014133154770731925,0.0518576130092144,-0.2847362118942663
1782984539146634000,7.170634033203125,-0.1448445242643356,0.03038695495724678,-0.2812484245774336
1782984539156708400,7.180708251953125,-0.12333645681142806,0.03649754679203033,-0.2206953360730782
1782984539166782200,7.1907822265625,-0.04060381306707859,0.04560732044279575,-0.12803416790729388
1782984539176857300,7.200857421875,0.07429448574483394,0.03183423115611076,-0.10142793706515803
1782984539186931200,7.21093115234375,0.13544132062494754,0.014489128601551056,-0.09983502358421682
1782984539197005300,7.22100537109375,0.17258593314886092,0.0040606735676527025,-0.09633211176348849
1782984539207079200,7.2310791015625,0.1391904440253973,0.005340191984176635,-0.052764667684421875
1782984539217153000,7.241153076171875,0.07919920892119407,-0.005250760135054588,-0.031435938853793775
1782984539227227100,7.25122705078125,0.024123802909255025,0.0004939209967851639,-0.02421164558948949
1782984539237301000,7.261301025390625,0.0617044687628746,0.024916999113559723,-0.006202937160199508
1782984539247375400,7.271375244140625,0.16194821927845476,0.02019230867922306,0.006439266666723415
1782984539257450000,7.281449951171875,0.15922960796952246,0.03835983353257179,0.019715051122871228
1782984539267524400,7.2915244140625,0.10680734681487083,0.03723170628547668,0.011270577547000721
1782984539277598200,7.30159814453125,0.0691331574589014,0.036303485524654386,0.02709050722774118
1782984539287672300,7.31167236328125,0.0640969168573618,0.04551847311556339,0.06284018109480384
1782984539297746200,7.32174609375,0.05896598370969295,0.049588499033451076,0.07231679246369749
1782984539307820000,7.331820068359375,0.05818272437751293,0.041537294524908064,0.03548116369056515
1782984539317894100,7.34189404296875,0.04862871409058571,0.04211772476136684,-0.038696719070430846
1782984539327968000,7.351968017578125,0.01744037962257862,0.037698154753446574,-0.04572864526752382
1782984539338042400,7.36204248046875,0.0421674091219902,0.013116671204566955,-0.07706175850108266
1782984539348117000,7.372116943359375,0.0756160897374153,0.006436755049228668,-0.048522605101298535
1782984539358191400,7.38219140625,0.08132686859965324,0.011172551399469375,-0.05759756773358676
1782984539368265200,7.39226513671875,0.07251812372207642,-0.0005465279668569565,-0.08095361484047026
1782984539378339000,7.402339111328125,0.03238368173241615,-0.0020335516542196275,-0.03754276782891247
1782984539388413200,7.4124130859375,0.007354454416036605,-0.026708558705449102,-0.03785592999788932
1782984539398487000,7.422487060546875,-0.00339022696018219,0.0025718963146209714,-0.0471164828967303
1782984539408561200,7.43256103515625,0.0745662884235382,0.0068967737764120095,-0.06179005555394105
1782984539418635000,7.442635009765625,0.12340776848196983,0.01025952820777893,-0.04139901856537908
1782984539428710100,7.452710205078125,0.09694996966719627,-0.03767302031219005,-0.06752136118097696
1782984539438784000,7.462783935546875,0.07842530193924903,-0.03353109820187092,-0.06259827123086434
1782984539448858400,7.4728583984375,0.017964695757627488,-0.003149403941631317,-0.06887473485157825
1782984539458932200,7.48293212890625,-0.0051291795819997784,-0.006969254490733146,-0.06845401152174453
1782984539469006000,7.493006103515625,0.07244973466098308,-0.023615853387117386,-0.07619756115349009
1782984539479080200,7.503080078125,0.12453998738229274,-0.033785949745774264,-0.0466593730792636
1782984539489154000,7.513154052734375,0.12332067472040653,-0.031361352947354315,-0.08050450109979138
1782984539499228200,7.523228271484375,0.10429799434244633,0.013696516919136047,-0.09467233445825986
1782984539509303000,7.533302978515625,0.1043728131443262,0.026033435922861097,-0.07422695976684335
1782984539519377200,7.543377197265625,0.07152151390016079,-0.013093290328979492,-0.01464197194254957
1782984539529451000,7.553450927734375,-0.012643792995810508,-0.042940147060155864,-0.03590712488451973
1782984539539525400,7.563525390625,-0.03074935852885246,-0.0263034850358963,-0.05048226496882271
1782984539549599200,7.57359912109375,0.01330547177493572,-0.0022387188374996185,-0.04112340736123733
1782984539559673000,7.583673095703125,-0.016788637715578078,0.00319850378036499,-0.048320798918884245
1782984539569747200,7.593747314453125,-0.026198271095752713,-0.015798457634449006,-0.07617550458530895
1782984539579821000,7.603821044921875,0.04044716120064258,0.0038958383947610854,-0.05849490929895546
1782984539589896200,7.613896240234375,0.11192074430584907,0.010065466940402983,-0.06698241829895414
1782984539599970000,7.623969970703125,0.07346621822714805,0.028456863677501675,-0.10626579641723073
1782984539610044200,7.634044189453125,0.0002437456279993057,0.043775428840517994,-0.11789105088710784
1782984539620118000,7.644117919921875,-0.02474631872177124,0.047831426233053205,-0.11028876832299865
1782984539630192400,7.6541923828125,0.01079202764928341,0.05332008677721023,-0.08843072752179577
1782984539640266200,7.664266357421875,0.08591536543369292,0.06261924552023411,-0.10068872693725861
1782984539650340000,7.674340087890625,0.1603396150380373,0.07334989837110042,-0.08730433557406067
1782984539660414200,7.684414306640625,0.15919336761236189,0.060414428952336306,-0.06544212092123926
1782984539670489000,7.694489013671875,0.16588263611793516,0.033789456877112385,-0.07647155122270341
1782984539680563200,7.704563232421875,0.10089666146636009,0.020930559825897217,-0.08032240426484495
1782984539690637000,7.714636962890625,0.019961422532796858,0.01685702677667141,-0.1250678654476069
1782984539700711200,7.724711181640625,-0.042221769657731056,0.012017185530066489,-0.11812308781100436
1782984539710785000,7.734784912109375,-0.03756137663125991,-0.03660860595107078,-0.08547854491900653
1782984539720859100,7.744859130859375,-0.027265608066320418,-0.0820347246080637,-0.06740691362160724
1782984539730933200,7.754933349609375,0.09136544753313064,-0.03857844471931457,-0.18222807837696745
1782984539741007000,7.765007080078125,0.1943283938795328,-0.03498948031663895,-0.13989815390333532
1782984539751082200,7.775082275390625,0.2044634189248085,-0.06877893719375133,-0.11704042540714144
1782984539761156000,7.785156005859375,0.15761106685698031,-0.07626783164441585,-0.17269892853666097
1782984539771230200,7.795230224609375,0.08508359078466891,-0.06376900007724762,-0.1403283072152175
1782984539781304000,7.805303955078125,0.016890344524383545,-0.027005495825409887,-0.141550834747497
1782984539791378200,7.815378173828125,-0.038972996994853015,-0.03590133446455002,-0.18592426601378245
1782984539801452000,7.8254521484375,-0.05728782136440277,0.01556114174723625,-0.21888664268329738
1782984539811526100,7.835526123046875,-0.023858429971337317,0.07336041976511477,-0.14093639264358207
1782984539821600300,7.845600341796875,0.01565758785903454,0.06805822170376777,-0.018212537605431862
1782984539831675100,7.855675048828125,0.05216448700129986,0.05466624068915844,0.07993730480424129
1782984539841749200,7.865749267578125,0.13131927225887774,0.05334814382791519,0.1482420212155208
1782984539851823000,7.875822998046875,0.21406009930968284,0.07622574606835841,0.13370225840527564
1782984539861897200,7.885897216796875,0.27647067051529883,0.06341828694343567,0.05296024505544919
1782984539871971000,7.89597119140625,0.2573568047225475,0.05982347732186317,-0.08068915521800518
1782984539882045200,7.906045166015625,0.15660744277238844,0.05511164636909961,-0.18821995746921746
1782984539892119300,7.916119384765625,0.0452829107940197,0.07311842770278454,-0.24524927402790633
1782984539902193200,7.926193115234375,-0.02581365569233894,0.09537643674015998,-0.23425629871273412
1782984539912266500,7.9362666015625,-0.062324646487832064,0.06469897440373897,-0.190332492643781
1782984539922341600,7.946341552734375,-0.063007368054986,0.0366951151907444,-0.1452999124821741
1782984539932415500,7.95641552734375,-0.042319384813308714,0.026992051821947097,-0.10619230192275718
1782984539942489600,7.966489501953125,0.016852935123443602,0.029225509962439535,-0.045985328008909705
1782984539952563500,7.9765634765625,0.11408113721013069,0.06102700789272785,-0.024960002571647055
1782984539962637300,7.98663720703125,0.13633330102860927,0.04748948092758655,-0.010713788481033406
1782984539972711700,7.996711669921875,0.15447802952826023,0.03071194912791252,-0.010080057154758832
1782984539982785500,8.00678564453125,0.1114092876523733,0.07124094339311123,0.02403538027370814
1782984539992859600,8.016859619140625,0.11573650320172309,0.07438859376907349,0.03800207417004276
1782984540002934500,8.0269345703125,0.1553203255712986,0.07504501185119151,0.0319582639611559
1782984540013008600,8.037008544921875,0.09338497066199779,0.03955401175320148,0.03876936874811072
1782984540023082500,8.04708251953125,-0.01111176112294197,0.0304600201934576,0.004355953020066954
1782984540033156600,8.057156494140624,-0.06768471221625805,0.04152501956522465,0.03457214538713451
1782984540043230500,8.06723046875,-0.0997720413506031,-0.01737842030227184,0.034278911761334165
1782984540053304300,8.07730419921875,-0.06675181528031826,-0.04935293671190739,0.009033151050866581
1782984540063378700,8.087378662109375,-0.026046879926323888,-0.03828501473069191,-0.012644683478376828
1782984540073452500,8.09745263671875,0.03439735964238643,0.006754734957218169,-0.06683310492218006
1782984540083527700,8.107527587890624,0.0868921015113592,-0.005501520025730133,-0.09897390410969964
1782984540093601500,8.1176015625,0.09960603713393211,0.013349895438551902,-0.12300815643882378
1782984540103675600,8.127675537109376,0.03571487198174,0.004518354207277297,-0.12804502722802572
1782984540113749500,8.13774951171875,-0.008426467561721801,-0.012521627920866012,-0.12519339152341707
1782984540123823600,8.14782373046875,-0.014855039304494857,0.00009118541479110717,-0.1326200161265209
1782984540133897500,8.1578974609375,0.06051613576114177,-0.013272154027223586,-0.10424997221594676
1782984540143971300,8.167971435546875,0.07758943563699722,0.006062661039829254,-0.06398812272064387
1782984540154045700,8.178045654296875,0.12088847913742065,0.012179098093509673,-0.06453651385102421
1782984540164120300,8.188120361328124,0.17935235854387283,0.0077472531259059904,-0.04606154418343212
1782984540174194700,8.198194580078125,0.1875309888243675,-0.018988193586468697,-0.03339898940493585
1782984540184268500,8.2082685546875,0.15118424867987632,-0.01587444548010826,-0.019664202285045757
1782984540194342700,8.2183427734375,0.11110708983540535,-0.01291910280585289,-0.057121524886786935
1782984540204416500,8.22841650390625,0.08054536283314227,-0.0329477453559637,-0.04462933312295936
1782984540214490600,8.23849072265625,0.054907648229598996,-0.028262802410125732,-0.044432933768024666
1782984540224564500,8.248564453125,0.03950549643635749,-0.018545125994086264,-0.05904718658658675
1782984540234638300,8.258638427734375,0.06601707126498221,0.002840191861987114,-0.09651813585488125
1782984540244713500,8.26871337890625,0.07936229052841663,0.008516483932733535,-0.09606947877192869
1782984540254787300,8.278787353515625,0.12095686819851398,-0.004635843107104301,-0.09358988211695105
1782984540264861700,8.28886181640625,0.17554712104201317,0.0013747954845428467,-0.08441186553556472
1782984540274935600,8.298935546875,0.17044190685749053,0.025171266135573387,-0.09333779791886918
1782984540285009700,8.309009765625,0.19232582188546657,0.020619009658694266,-0.07920404949309304
1782984540295083500,8.31908349609375,0.1850169601768255,0.00888531724512577,-0.07106353643301408
1782984540305157400,8.329157470703125,0.094604283323884,0.05735562590360641,-0.0678422636984149
1782984540315231500,8.3392314453125,-0.019973697492480277,0.04785129997730255,-0.10522671742676756
1782984540325306600,8.349306640625,-0.08009937263131141,0.021921324428915975,-0.0996515385097824
1782984540335380500,8.35938037109375,-0.06344809755980968,0.02697276259958744,-0.07883068613605573
1782984540345454300,8.369454345703126,0.03367430606484413,0.004082885399460792,-0.05040692101055756
1782984540355528700,8.37952880859375,0.05038111071586609,-0.009926935252547264,-0.008988062950258608
1782984540365602600,8.3896025390625,-0.026450784552097317,0.016775778234004973,-0.03558942810432054
1782984540375676700,8.3996767578125,-0.07236439446508884,0.024389760369062423,-0.08572187042189762
1782984540385750500,8.40975048828125,-0.07964403007924556,0.03932312560677528,-0.06627213287143968
1782984540395825700,8.41982568359375,-0.046104748570919035,0.02048106249272823,-0.039533745283307505
1782984540405899500,8.4298994140625,0.05588263074159622,0.03075578826963901,-0.03545858881586464
1782984540415973400,8.439973388671875,0.06727496237158775,0.036299978393316265,0.030433958737016653
1782984540426047500,8.450047607421874,0.10416647691726684,0.0018207856863737106,-0.05516876968408469
1782984540436121300,8.460121337890625,0.11580196965336799,-0.0036760581642389296,-0.07151249947664327
1782984540446195700,8.47019580078125,0.1549719505250454,0.025374095231294632,-0.03983704364539589
1782984540456269600,8.48026953125,0.13340543088316917,0.04857026190161705,-0.07036652147902642
1782984540466343700,8.49034375,0.12329846288859843,0.03666588909626007,-0.1279265245480463
1782984540476418600,8.50041845703125,0.15925708049833773,0.03869301100969314,-0.0976640910196118
1782984540486492700,8.51049267578125,0.12999942183196544,-0.0007592939347028732,-0.046091478097392245
1782984540496566500,8.52056640625,0.1236135201871395,-0.03763911804258823,-0.1211782284647692
1782984540506640400,8.530640380859374,0.09474690666496753,-0.03003916443288326,-0.13887432728093116
1782984540516714500,8.540714599609375,0.05572948600649833,0.0011854103922843931,-0.10976247029341757
1782984540526788400,8.550788330078126,0.022903321203589438,0.00783960758447647,-0.1350305843995884
1782984540536862700,8.56086279296875,-0.04242401423156261,0.03639700902700424,-0.10115251765726134
1782984540546937300,8.570937255859375,-0.0046223991036415096,0.046236850517988204,0.03956093925090972
1782984540557011700,8.58101171875,-0.009420154774188994,0.014283376896381378,0.1315634106125217
1782984540567085600,8.59108544921875,0.09774842656850814,0.018027824121713637,0.14221099742297083
1782984540577159700,8.60115966796875,0.18177929342985152,0.05488309831023216,0.15078681946066208
1782984540587233500,8.611233642578124,0.23395663991272447,0.032255086916685105,0.07416372180490288
1782984540597307400,8.621307373046875,0.24586042819619178,0.02247545118033886,-0.05908280588923953
1782984540607381500,8.631381591796876,0.17020985166728494,0.059548752033710475,-0.17016725463457405
1782984540617455400,8.641455322265625,-0.020149638581275938,0.05949672958552837,-0.2153141910240054
1782984540627529700,8.65152978515625,-0.12379881362617015,0.0438712904304266,-0.22524386622291057
1782984540637604400,8.661604248046874,-0.15303835211396216,0.03394084804654121,-0.17646978884488343
1782984540647678700,8.6716787109375,-0.10968027190268038,0.010396890851855278,-0.1374804252371192
1782984540657752600,8.681752685546876,0.039162966609001156,0.018729834911227226,-0.1306786910667084
1782984540667826700,8.69182666015625,0.16167817016541958,0.030317396852374074,-0.053165010379930024
1782984540677900500,8.701900634765625,0.19903613317906854,0.00029050737917423245,-0.043161470793792976
1782984540687974400,8.711974365234376,0.19356091663837433,0.022500585621595383,-0.062220706622744905
1782984540698048500,8.722048583984375,0.15824235049784183,0.05478314506709575,-0.046519640381587665
1782984540708123400,8.732123291015625,0.12467968811392784,0.04609598074257373,-0.009236304373573511
1782984540718197500,8.742197509765624,0.04032265803813934,0.026253216153383253,-0.01087223501233384
1782984540728271400,8.752271240234375,-0.011227496457099913,0.022113047608733175,-0.018874892237992026
1782984540738345700,8.762345703125,-0.0659440060287714,-0.005765139397978783,-0.04750159605706576
1782984540748419600,8.772419677734375,-0.06871639335155487,0.003028407910466194,-0.07044316691181156
1782984540758493400,8.782493408203125,-0.04104395805001258,0.0032341596156358716,-0.016059327927185223
1782984540768567600,8.792567626953126,0.0018283844709396362,-0.007875263419747352,0.026776048150821588
1782984540778641400,8.802641357421875,0.057815060108900064,0.04135667726099491,0.05386374236696865
1782984540788715500,8.812715576171875,0.12331073784828185,0.026886837881803512,0.039970510999066754
1782984540798790400,8.822790283203124,0.1559820043504238,0.02861000841259956,0.001610197975882329
1782984540808864500,8.832864501953125,0.2044026286482811,0.043597734186053276,-0.03195404444376472
1782984540818938400,8.8429384765625,0.18689210639894008,0.024559856238961217,-0.0764769854496466
1782984540829012700,8.8530126953125,0.08286708377897739,0.00915244374871254,-0.09913824609224683
1782984540839086600,8.863086669921875,0.005195230555534363,-0.001757072800397873,-0.12915926294708624
1782984540849160400,8.873160400390624,-0.019058920735120773,-0.01054185228049755,-0.10345589922880753
1782984540859234600,8.883234619140625,0.004724105912446976,-0.03502338258624076,-0.06190891899352427
1782984540869308400,8.893308349609375,0.02478840429782867,-0.05384264934659004,-0.03877933758627623
1782984540879383600,8.903383544921875,0.07451952667236328,-0.02571779410243034,-0.058291564180003475
1782984540889457400,8.91345751953125,0.09904489611983298,-0.05619008925557136,-0.04387029491658322
1782984540899531500,8.923531494140626,0.14525252054333687,-0.0739385119140148,-0.04828158115334809
1782984540909605400,8.93360546875,0.14422551558315752,-0.019778467181324956,-0.038577983495010994
1782984540919679700,8.9436796875,0.13627367979586125,-0.017210077998042105,-0.0621879185979953
1782984540929753600,8.953753662109374,0.11163082144856452,-0.06693944680690765,-0.07581133374830241
1782984540939827700,8.96382763671875,0.04068973778486252,-0.04088438357412815,-0.0915238529652357
1782984540949901600,8.973901611328126,0.002034136176109314,-0.02152151145637035,-0.11710830301158129
1782984540959976700,8.983976806640625,0.015856909823417663,0.0064209729582071304,-0.13854538758751003
1782984540970050600,8.994050537109375,0.07750526448488235,0.004193360036611557,-0.15437118988661094
1782984540980124400,9.00412451171875,0.13967150554060936,0.006228665256500244,-0.15465225358400492
1782984540990198500,9.014198486328125,0.16158932283818722,0.04147007450759411,-0.15701783193787558
1782984541000272600,9.024272705078126,0.15906594184041023,0.07614975822269916,-0.14465258188880978
1782984541010346800,9.0343466796875,0.11219722315967082,0.07601824079751968,-0.17535287711154668
1782984541020420600,9.044420654296875,0.02950549594759941,0.06801438256204127,-0.1683070502532646
1782984541030494700,9.05449462890625,0.05056231250166893,0.08374854278862476,-0.126174164455384
1782984541040569600,9.064569580078125,0.030031565648317337,0.05638064339160919,-0.13622630612333306
1782984541050643700,9.074643798828125,-0.053259881022572515,0.03866378491520881,-0.15776346267340705
1782984541060717600,9.084717529296874,-0.05828676927387714,0.03427461004555225,-0.13171839111167938
1782984541070791400,9.09479150390625,-0.05988543664216995,0.04008826476037502,-0.10199528862433507
1782984541080865500,9.104865478515626,-0.022701661151647567,0.020592121651768682,-0.061601382847735656
1782984541090939600,9.114939697265624,0.03374678677916527,0.026866964137554166,-0.03269511773518752
1782984541101013800,9.125013671875,0.08264379641711711,0.034846272453665735,-0.01425156611916609
1782984541111087600,9.135087646484376,0.10862579441368579,0.0476227519184351,0.015898803603230042
1782984541121162800,9.145162841796875,0.111400519824028,0.01715805554986,0.010231142363511025
1782984541131236600,9.155236572265625,0.05839549034535885,-0.005261866050958633,-0.00048073728822637345
1782984541141310700,9.165310791015624,0.046076691520214076,0.004058335480093956,-0.038039246108965016
1782984541151384600,9.175384521484375,0.06763152072429657,0.008391396248340606,-0.050470172672229814
1782984541161458400,9.18545849609375,0.11834463987350463,-0.03798398595750332,-0.022676211616559885
1782984541171532500,9.195532470703125,0.1446843652665615,-0.03425882795453072,0.017409304064302702
1782984541181606700,9.205606689453125,0.1537561449944973,-0.03750935418307781,-0.018023431074386462
1782984541191681500,9.215681640625,0.1456254455089569,-0.022673604100942612,-0.05336706772409379
1782984541201755600,9.225755615234375,0.08344868305921554,-0.038036008405685426,-0.04531165283131413
1782984541211829800,9.235829833984376,0.009024433454871177,-0.04728197565674781,-0.0702741715870332
1782984541221903600,9.245903564453124,0.005547112733125686,0.0016828385204076767,-0.11127522207708097
1782984541231977500,9.2559775390625,0.0036941783428192138,0.050260114684700964,-0.13668267158870584
1782984541242051600,9.266051513671876,0.02588029118776321,0.07244096683263779,-0.11653790097879245
1782984541252125400,9.27612548828125,0.01234042613506317,0.06855155817866325,-0.02234644080607686
1782984541262199600,9.286199462890625,0.06303717867136001,0.05486439360976219,0.09118981697158887
1782984541272273700,9.296273681640624,0.0893757350206375,0.08404664895236491,0.20148279567882418
1782984541282348500,9.3063486328125,0.13831249214708805,0.0681359631150961,0.15396403385782614
1782984541292422700,9.316422607421876,0.14533201552033423,0.06432546491622924,0.0921704529062379
1782984541302496800,9.326496826171875,0.14592998141348362,0.07588555432856083,0.030577025036094708
1782984541312570600,9.336570556640625,0.03598842822611332,0.07617898431718349,-0.1299956041733734
1782984541322644500,9.34664453125,-0.07497896087765693,0.11494622960686683,-0.22324295646296813
1782984541332718600,9.356718505859375,-0.07620587232410907,0.10551146178543568,-0.2573880583773367
1782984541342792400,9.36679248046875,-0.040594460716843604,0.09533025951087475,-0.19312342027025295
1782984541352866600,9.376866455078124,-0.022402385944128037,0.057551440736651416,-0.19485018926393238
1782984541362941400,9.38694140625,0.02314414422214031,0.05467851564884185,-0.17570225680479779
1782984541373015600,9.397015625,0.08433131111264228,0.0524672693401575,-0.14645275404541752
1782984541383089700,9.407089599609375,0.08632453075647353,0.04614858771264553,-0.10890168874561786
1782984541393163800,9.417163818359375,0.09656184713244438,0.07184066285192967,-0.10192876272676513
1782984541403237600,9.427237548828124,0.13890344377756117,0.03790273741483688,-0.10901423660884611
1782984541413311500,9.4373115234375,0.13587503586709498,-0.019660978281497953,-0.07453339080093428
1782984541423385600,9.447385498046875,0.09636310968995093,-0.031790976536273954,-0.01958453377811238
1782984541433459500,9.45745947265625,-0.019229601126909256,-0.04161035976111889,0.006320261663245037
1782984541443534600,9.46753466796875,-0.030640637457370758,-0.0261596926510334,-0.04030741480323486
1782984541453608400,9.4776083984375,-0.040625440376996995,-0.03920271409749985,-0.007629389766743406
1782984541463682600,9.4876826171875,-0.037834932875633234,-0.040026305440068244,-0.021176698340382424
1782984541473756700,9.497756591796875,0.023849077621102333,-0.008608253869414328,-0.010942395905405283
1782984541483830800,9.507830810546874,0.09254209009706973,-0.025064298629760742,0.026108976243948562
1782984541493904600,9.517904541015625,0.18600421764850616,-0.02516249830722809,0.046592824348807335
1782984541503978500,9.527978515625,0.22683014903366563,-0.038786534512042996,0.02952996366857551
1782984541514052600,9.538052490234374,0.20346622458100316,0.0030780922710895537,-0.004950690343091264
1782984541524127500,9.54812744140625,0.12190905435681343,0.037733226066827774,-0.057100737827084955
1782984541534201600,9.55820166015625,0.04865209496617317,0.00005319149196147918,-0.08736524458159692
1782984541544275500,9.568275390625,0.004655716851353645,-0.029755671316385266,-0.10672714858497492
1782984541554349600,9.578349609375,-0.05117138431072235,-0.014192776003479957,-0.14905566655281
1782984541564423700,9.588423583984374,-0.010637129348516464,-0.001606266152858734,-0.14658972396384923
1782984541574497800,9.598497802734375,0.08733516910374164,0.027599370065331457,-0.13230193575383165
1782984541584571600,9.608571533203126,0.14755670583248137,0.021374211940169332,-0.120277598963771
1782984541594645500,9.6186455078125,0.14983634120225905,0.019364625683426857,-0.10408927436205558
1782984541604720600,9.628720703125,0.0830845259219408,0.04912964935004711,-0.10129388062302022
1782984541614794500,9.63879443359375,0.0037649054914712906,0.0400064316958189,-0.10188190964404494
1782984541624868600,9.64886865234375,0.02078442935347557,0.04050444434583187,-0.08932394090131857
1782984541634942500,9.6589423828125,0.016882745739817618,0.02631166834235191,-0.05244563289708458
1782984541645016600,9.6690166015625,0.06445756686329841,0.03216273245811462,-0.027700949009973556
1782984541655090700,9.679090576171875,0.07973287740647793,0.022421675166487694,0.0214446924936492
1782984541665164500,9.68916455078125,0.06827624836862087,0.02682254047393799,0.019555216352082787
1782984541675238700,9.69923876953125,0.02916004351079464,0.013234160104393959,0.026981457362696526
1782984541685313500,9.7093134765625,0.0002437456279993057,0.015638883158564567,-0.02263799393144436
1782984541695387600,9.7193876953125,-0.008704699981212616,0.03548457035720348,-0.01790025221928954
1782984541705461500,9.72946142578125,-0.008255202648043632,0.027693478089570997,-0.03345757630793378
1782984541715535600,9.73953564453125,0.004416647398471832,0.004848609074950218,-0.06821240761848166
1782984541725609500,9.749609375,0.05715630393922329,-0.003451601758599281,-0.05460026278086006
1782984541735683600,9.75968359375,0.07979892838001251,0.037350948750972744,-0.03801518481336534
1782984541745757700,9.7697578125,0.09563596445918082,0.035280572217702866,-0.019434494315553455
1782984541755831600,9.77983154296875,0.03505377772450447,0.04214519729018211,-0.03134387208959088
1782984541765906700,9.78990673828125,0.023590718945860862,0.025032149925827977,-0.042141662759380416
1782984541775980500,9.79998046875,0.07147007597386837,0.012031214055418968,-0.011041682428261264
1782984541786054700,9.8100546875,0.04821370354890823,-0.005250760135054588,-0.053037497843010345
1782984541796128500,9.82012841796875,0.05710077435970306,-0.001554243704676628,-0.03815891326614655
1782984541806202600,9.83020263671875,0.02722761414349079,0.022046412113308905,-0.015662318833079187
1782984541816276500,9.8402763671875,0.06504384231865405,0.02762625807225704,-0.01582073339833878
1782984541826350600,9.8503505859375,0.07385550980567931,0.018957798448204992,0.008673619856359437
1782984541836424700,9.8604248046875,0.07266308515071869,0.019534137031435965,-0.011414662192808463
1782984541846499600,9.87049951171875,0.0628588994950056,0.051173137876391404,-0.06284410378467291
1782984541856573700,9.88057373046875,0.0862479583889246,0.07042378179132938,-0.09036264543244614
1782984541866647600,9.8906474609375,0.12240005274415015,0.06957564052939415,-0.06816599292717873
1782984541876721700,9.9007216796875,0.10141980855762958,0.03696457978188991,-0.08095134068499318
1782984541886795500,9.91079541015625,0.05821604212522506,0.019839257457852363,-0.10085925206542014
1782984541896869600,9.92086962890625,0.06468143874704838,0.050316813308000564,-0.13242532467148266
1782984541906943500,9.930943603515624,0.0847358002603054,0.03953472253084182,-0.1354391560673248
1782984541917018000,9.94101806640625,0.0634340690344572,0.03825111246109009,-0.15646607980662955
1782984541927093000,9.951093017578126,0.014551087921857834,0.018774258574843404,-0.16516557388976216
1782984541937167000,9.9611669921875,0.029973113459348676,0.011152093133330345,-0.12643309851936063
1782984541947241000,9.971240966796875,0.013888240098953246,0.012896890974044799,-0.09564030270758084
1782984541957315000,9.981315185546874,0.014574468797445296,0.015248422536253928,-0.10655461416281758
1782984541967389200,9.99138916015625,-0.027602877196669578,0.04117956712841987,-0.0669266786568798
1782984541977463000,10.001463134765626,-0.04142155919075012,0.03817337104976177,-0.03518789809872396
1782984541987537200,10.011537109375,0.029790158107876778,0.033621699094772334,0.04920889773187227
1782984541997611000,10.021611083984375,0.1132744970023632,0.06493745933473109,0.15383640715647487
1782984542007686100,10.03168603515625,0.2282125433027744,0.05875146417617798,0.13409787925989367
1782984542017760000,10.041760009765625,0.2819587465375662,0.04665478366911411,0.10823267604340799
1782984542027834000,10.051834228515625,0.25116496434509755,0.06832417916357517,0.040336513033555815
1782984542037908000,10.061907958984374,0.15264204627275466,0.03006839052736759,-0.13069707610676995
1782984542047982000,10.071982177734375,-0.02017009684741497,-0.001191255611181259,-0.22848655620487404
1782984542058056200,10.08205615234375,-0.13555764048099517,-0.012894552886486053,-0.2491347736917436
1782984542068130000,10.092130126953125,-0.2279045002669096,-0.004901800566911697,-0.2407994915448129
1782984542078204200,10.1022041015625,-0.1693494354456663,-0.014423662149906157,-0.20646884046308694
1782984542088279000,10.112279052734374,-0.05983750584721565,-0.007254501172900199,-0.12746892610681243
1782984542098353200,10.122353271484375,0.10951602125167846,-0.015066051706671715,-0.10132876927331089
1782984542108427000,10.132427001953126,0.18912322645187377,0.005184709161520004,-0.05317209314126521
1782984542118501000,10.142501220703124,0.1647778897464275,0.004110942450165749,-0.010055292606260627
1782984542128575000,10.152574951171875,0.10787293021976947,0.008194996893405913,-0.028931815112335606
1782984542138649000,10.162649169921876,0.020831191104650496,0.021769348737597463,-0.02832383014867082
1782984542148723200,10.17272314453125,-0.012101941204071045,0.01625146209895611,-0.04049011442638002
1782984542158797000,10.182797119140625,-0.012286650121212005,0.003868365865945816,-0.027835973566491156
1782984542168872200,10.1928720703125,0.010598550903797148,0.022590601992607116,-0.05233515825993381
1782984542178946000,10.202946044921875,-0.0019534721553325653,0.013016133439540863,-0.06732953296988271
1782984542189020200,10.213020263671876,-0.035759880167245864,0.03563011630773544,-0.0037520368767436593
1782984542199094000,10.223093994140624,0.000040332010388374324,0.06287234349846839,-0.037855318076536054
1782984542209168100,10.233168212890625,0.10267126992344856,0.06755962453186512,-0.044386930068675425
1782984542219242000,10.243241943359376,0.13907353964745997,0.0684060122281313,0.05685355813298374
1782984542229316000,10.253316162109375,0.19392507377564905,0.0527115994900465,0.03455811229520477
1782984542239390200,10.26339013671875,0.24739070650339126,0.043294367325305935,-0.03926049956618808
1782984542249465000,10.273465087890624,0.2001192522406578,0.036726094850897784,-0.04001801253575831
1782984542259539200,10.283539306640625,0.12155015791654586,0.06661036098301411,-0.11829041633508168
1782984542269613000,10.293613037109376,-0.012128829210996627,0.058735682085156435,-0.1361877916106954
1782984542279687200,10.303687255859375,-0.13743980096578598,0.031125790625810622,-0.0011987995968200265
1782984542289761000,10.313760986328125,-0.12307225291728972,-0.011986790391802787,-0.0058097913904581215
1782984542299835000,10.3238349609375,-0.03625789281725883,-0.03760813838243484,-0.09035501011526212
1782984542309909000,10.333908935546875,0.06882511442303657,0.017116554495692254,-0.10981819166918284
1782984542319983000,10.343983154296875,0.08510346452891826,0.00965220996439457,-0.05509575468022376
1782984542330058000,10.35405810546875,0.017477204501628874,0.003950198930501938,-0.011819123941008002
1782984542340132000,10.364132080078125,-0.025970892080664634,0.011190087056159972,-0.07962174518220126
1782984542350206200,10.374206298828126,0.013741525104641914,0.04687047224640846,-0.11404337161616422
1782984542360280000,10.384280029296875,0.044485622936487196,0.023251111727952956,-0.1493241904290393
1782984542370354200,10.394354248046875,0.053959553724527355,-0.02682254047393799,-0.23076789034139364
1782984542380428000,10.404427978515624,-0.04258241966366768,0.006587561696767806,-0.17881388601930812
