time,seconds_elapsed,z,y,x
1782984532044380400,0.06838037109375,-0.038836732506752014,0.07861009985208511,-0.06858158111572266
1782984532054454300,0.078454345703125,-0.06671097129583359,0.0937965139746666,-0.04639958217740059
1782984532064528400,0.0885283203125,-0.08279594779014587,0.06090268865227699,-0.0022029869724065065
1782984532074602200,0.098602294921875,-0.0817386731505394,0.006159018725156784,0.04296209663152695
1782984532084676600,0.108676513671875,-0.07709169387817383,-0.04465165734291077,0.085907481610775
1782984532094750500,0.11875048828125,-0.08091998845338821,-0.0837564468383789,0.12048489600419998
1782984532104824300,0.12882421875,-0.10658346116542816,-0.09158360213041306,0.1352144181728363
1782984532114898400,0.1388984375,-0.116428904235363,-0.08281327784061432,0.13184605538845062
1782984532124973300,0.148973388671875,-0.10055127739906311,-0.07875864207744598,0.12207496166229248
1782984532135047400,0.15904736328125,-0.07846967875957489,-0.0893590897321701,0.10731226205825806
1782984532145121300,0.169121337890625,-0.05661778897047043,-0.09402070939540863,0.1072678416967392
1782984532155195400,0.1791953125,-0.03569706156849861,-0.08476942032575607,0.11736814677715302
1782984532165269200,0.189269287109375,-0.015477115288376808,-0.10230092704296112,0.14621348679065704
1782984532175343600,0.199343505859375,0.015897052362561226,-0.1303109973669052,0.2037833034992218
1782984532185417500,0.20941748046875,0.042238734662532806,-0.1658695787191391,0.2746675908565521
1782984532195491300,0.2194912109375,0.04666197672486305,-0.2094852328300476,0.3606424331665039
1782984532205566500,0.22956640625,0.04737313091754913,-0.29084253311157227,0.4130840599536896
1782984532215640300,0.239640380859375,0.02967029996216297,-0.33282461762428284,0.44521453976631165
1782984532225714400,0.24971435546875,-0.012029903009533882,-0.29883602261543274,0.4880000054836273
1782984532235788300,0.259788330078125,-0.055852483958005905,-0.20092011988162994,0.5685683488845825
1782984532245862400,0.2698623046875,-0.10936465859413147,-0.061229780316352844,0.680770754814148
1782984532255936500,0.2799365234375,-0.17138701677322388,0.1064782589673996,0.8062666058540344
1782984532266010600,0.2900107421875,-0.23833829164505005,0.23623187839984894,0.9259451627731323
1782984532276084500,0.30008447265625,-0.30739590525627136,0.2641359567642212,1.0430291891098022
1782984532286159600,0.31015966796875,-0.3396155834197998,0.18535567820072174,1.1181201934814453
1782984532296233500,0.3202333984375,-0.3485347628593445,0.061555709689855576,1.1168203353881836
1782984532306307300,0.330307373046875,-0.345083087682724,-0.052359458059072495,1.0813874006271362
1782984532316381400,0.34038134765625,-0.3287118375301361,-0.1003754511475563,1.0295857191085815
1782984532326455300,0.350455322265625,-0.3019386827945709,-0.1219925582408905,0.9680494666099548
1782984532336529400,0.360529296875,-0.2654011845588684,-0.11820421367883682,0.9024009704589844
1782984532346603500,0.370603515625,-0.23018403351306915,-0.0972011536359787,0.8371308445930481
1782984532356677600,0.380677734375,-0.22704842686653137,-0.0655345693230629,0.7977885007858276
1782984532366751500,0.39075146484375,-0.23015514016151428,-0.04206197336316109,0.7814281582832336
1782984532376826600,0.40082666015625,-0.2283114343881607,-0.08194627612829208,0.7768374085426331
1782984532386900500,0.410900390625,-0.20422686636447906,-0.14995594322681427,0.7574360370635986
1782984532396974300,0.420974365234375,-0.16354095935821533,-0.23390011489391327,0.7236769795417786
1782984532407048400,0.43104833984375,-0.11778983473777771,-0.32487574219703674,0.6670776009559631
1782984532417122300,0.441122314453125,-0.06355562806129456,-0.391323983669281,0.5525137186050415
1782984532427196400,0.451196533203125,0.00509335333481431,-0.3257412910461426,0.41732919216156006
1782984532437270500,0.4612705078125,0.048131369054317474,-0.07836293429136276,0.3474268317222595
1782984532447344400,0.471344482421875,0.03443346917629242,-0.06592556089162827,0.26571738719940186
1782984532457419500,0.48141943359375,-0.027825642377138138,0.1500387042760849,0.20152191817760468
1782984532467493400,0.491493408203125,-0.057804085314273834,0.296004056930542,0.1350083351135254
1782984532477567500,0.5015673828125,-0.07984120398759842,0.3430706262588501,0.09169948101043701
1782984532487641300,0.511641357421875,-0.10345464199781418,0.3300832211971283,-0.03120497241616249
1782984532497715500,0.521715576171875,-0.12056438624858856,0.26801908016204834,-0.13404454290866852
1782984532507789300,0.531789306640625,-0.13613258302211761,0.27485084533691406,-0.19667287170886993
1782984532517863400,0.541863525390625,-0.1583462804555893,0.3017570376396179,-0.22551463544368744
1782984532527937500,0.5519375,-0.18372778594493866,0.2750372588634491,-0.21773697435855865
1782984532538012400,0.562012451171875,-0.19067756831645966,0.25078678131103516,-0.19620905816555023
1782984532548086500,0.57208642578125,-0.16323180496692657,0.23920747637748718,-0.16007229685783386
1782984532558160400,0.582160400390625,-0.09842323511838913,0.2129891812801361,-0.14407016336917877
1782984532568234500,0.592234375,-0.037262771278619766,0.19666947424411774,-0.16630302369594574
1782984532578308400,0.602308349609375,0.003626338904723525,0.13881735503673553,-0.22735600173473358
1782984532588382500,0.612382568359375,0.025239475071430206,0.09281139820814133,-0.295181006193161
1782984532598456300,0.622456298828125,0.05108172073960304,0.06508469581604004,-0.3480900228023529
1782984532608530400,0.632530517578125,0.06652645766735077,0.022939104586839676,-0.39248865842819214
1782984532618604500,0.6426044921875,0.08609243482351303,0.005943075753748417,-0.4236127436161041
1782984532628679400,0.652679443359375,0.11090700328350067,0.0007889007683843374,-0.44623491168022156
1782984532638753500,0.66275341796875,0.123136505484581,0.009620475582778454,-0.42273545265197754
1782984532648827400,0.672827392578125,0.11913328617811203,-0.011161994189023972,-0.34746330976486206
1782984532658901500,0.682901611328125,0.10810140520334244,-0.03604896739125252,-0.2731989324092865
1782984532668975400,0.692975341796875,0.09624145925045013,-0.05546141415834427,-0.227555513381958
1782984532679049500,0.703049560546875,0.07822437584400177,-0.058926720172166824,-0.23080457746982574
1782984532689123300,0.713123291015625,0.06399954110383987,-0.029895268380641937,-0.22780878841876984
1782984532699197400,0.723197509765625,0.059266842901706696,-0.024272270500659943,-0.2199476808309555
1782984532709272300,0.733272216796875,0.06783336400985718,-0.03866953030228615,-0.19797511398792267
1782984532719346400,0.743346435546875,0.06483517587184906,-0.05607222020626068,-0.1522291898727417
1782984532729420500,0.753420654296875,0.05934787541627884,-0.06591523438692093,-0.1168571412563324
1782984532739494400,0.763494384765625,0.06019529327750206,-0.0405302569270134,-0.10042410343885422
1782984532749568500,0.773568603515625,0.05661698058247566,0.009379380382597446,-0.15305589139461517
1782984532759642400,0.783642333984375,0.04804613068699837,0.03704296424984932,-0.2300713062286377
1782984532769716500,0.793716552734375,0.02132231928408146,0.04900871962308884,-0.24965853989124298
1782984532779790300,0.803790283203125,0.02861778251826763,0.04814905300736427,-0.23458318412303925
1782984532789865500,0.813865478515625,0.043339453637599945,0.04908962920308113,-0.23688723146915436
1782984532799939300,0.823939208984375,0.02410264126956463,0.018798567354679108,-0.20632825791835785
1782984532810013400,0.834013427734375,0.014765511266887188,-0.014867449179291725,-0.18553698062896729
1782984532820087600,0.844087646484375,0.019762933254241943,-0.015236563049256802,-0.17638128995895386
1782984532830161400,0.854161376953125,0.020384937524795532,0.07328172773122787,-0.18817497789859772
1782984532840235500,0.864235595703125,-0.009142328053712845,0.07451184093952179,-0.14127936959266663
1782984532850309400,0.874309326171875,-0.02801833301782608,0.08049926906824112,-0.08495587110519409
1782984532860383500,0.884383544921875,-0.014768838882446289,0.07552208751440048,-0.04366648942232132
1782984532870457300,0.894457275390625,-0.009980691596865654,0.06248154491186142,-0.005015547387301922
1782984532880532500,0.904532470703125,-0.025377489626407623,0.011627688072621822,0.008129815571010113
1782984532890606300,0.9146064453125,-0.04117640480399132,-0.036328136920928955,-0.010003759525716305
1782984532900680200,0.92468017578125,-0.0473855659365654,-0.06751774251461029,-0.05163216218352318
1782984532910754600,0.934754638671875,-0.04974246397614479,-0.036559831351041794,-0.11116233468055725
1782984532920828400,0.944828369140625,-0.04900450259447098,-0.01153277326375246,-0.15693674981594086
1782984532930902500,0.954902587890625,-0.04911855608224869,-0.046911418437957764,-0.15047229826450348
1782984532940976400,0.964976318359375,-0.04454883933067322,-0.02835024893283844,-0.10312395542860031
1782984532951050500,0.975050537109375,-0.049870193004608154,-0.006796420551836491,-0.06265882402658463
1782984532961125400,0.98512548828125,-0.05928100273013115,-0.013851401396095753,-0.0541931688785553
1782984532971199500,0.995199462890625,-0.06052892282605171,-0.005088961683213711,-0.07451782375574112
1782984532981273300,1.0052734375,-0.05432242527604103,-0.02329006977379322,-0.1436747908592224
1782984532991347200,1.01534716796875,-0.034000199288129807,-0.044270120561122894,-0.2510584890842438
1782984533001421600,1.025421630859375,-0.008230388164520264,-0.05644076317548752,-0.3534668982028961
1782984533011495400,1.035495361328125,0.015579532831907272,-0.04266970604658127,-0.41269969940185547
1782984533021569500,1.045569580078125,0.027262553572654724,-0.00030946650076657534,-0.4176342785358429
1782984533031643400,1.055643310546875,0.03284558653831482,0.012011328712105751,-0.3709985017776489
1782984533041718500,1.065718505859375,0.035038433969020844,0.02145463228225708,-0.296573281288147
1782984533051792400,1.07579248046875,0.028204424306750298,0.008521709591150284,-0.23204363882541656
1782984533061866500,1.085866455078125,0.03288945555686951,-0.028731387108564377,-0.18658854067325592
1782984533071940400,1.0959404296875,0.031586676836013794,-0.05674407258629799,-0.16161923110485077
1782984533082014200,1.10601416015625,0.024438217282295227,-0.08220655471086502,-0.161005899310112
1782984533092088600,1.116088623046875,0.025229567661881447,-0.079221710562706,-0.17103105783462524
1782984533102162400,1.126162353515625,0.01912027597427368,-0.0474880188703537,-0.19316858053207397
1782984533112236500,1.136236572265625,0.01169216725975275,-0.060737498104572296,-0.21022307872772217
1782984533122310400,1.146310302734375,-0.01584385335445404,-0.04763234779238701,-0.2203097939491272
1782984533132385500,1.156385498046875,-0.04377737268805504,-0.018006358295679092,-0.23947854340076447
1782984533142459400,1.16645947265625,-0.058810919523239136,0.007996479980647564,-0.2529163360595703
1782984533152533500,1.176533447265625,-0.057178471237421036,0.04249325767159462,-0.23590630292892456
1782984533162607400,1.186607421875,-0.062919981777668,0.040784575045108795,-0.17911119759082794
1782984533172681200,1.19668115234375,-0.07180089503526688,0.014049488119781017,-0.09464648365974426
1782984533182755600,1.206755615234375,-0.08509433269500732,-0.0016847341321408749,-0.029441645368933678
1782984533192829400,1.216829345703125,-0.08731967210769653,-0.01327021885663271,-0.0015612720744684339
1782984533202903600,1.226903564453125,-0.07635969668626785,-0.018985629081726074,0.010924958623945713
1782984533212978400,1.236978515625,-0.06913261860609055,-0.007185602094978094,0.028348900377750397
1782984533223052500,1.247052490234375,-0.07504137605428696,-0.004313382785767317,0.04648636281490326
1782984533233126400,1.25712646484375,-0.0639798492193222,-0.008320175111293793,0.04984620586037636
1782984533243200300,1.2672001953125,-0.049889594316482544,-0.010186784900724888,0.05016019195318222
1782984533253274400,1.2772744140625,-0.040955331176519394,-0.0026193989906460047,0.04313088208436966
1782984533263348200,1.28734814453125,-0.026735646650195122,0.001609967090189457,0.04660977050662041
1782984533273422600,1.297422607421875,-0.03023289330303669,0.0008696613367646933,0.06116011366248131
1782984533283496400,1.307496337890625,-0.03624870628118515,0.0038878219202160835,0.06671866029500961
1782984533293571600,1.317571533203125,-0.032248303294181824,-0.0023347060196101665,0.057506099343299866
1782984533303645400,1.3276455078125,-0.02056102082133293,-0.023117482662200928,0.054979827255010605
1782984533313719600,1.337719482421875,-0.013425524346530437,-0.02882636897265911,0.05663364380598068
1782984533323793400,1.34779345703125,-0.013668137602508068,-0.0313478522002697,0.05506344512104988
1782984533333867300,1.3578671875,-0.013527236878871918,-0.0406513512134552,0.06435909867286682
1782984533343941400,1.36794140625,-0.013613790273666382,-0.04098957031965256,0.06723025441169739
1782984533354015200,1.37801513671875,-0.016851114109158516,-0.043018512427806854,0.05857647955417633
1782984533364089600,1.388089599609375,-0.010110387578606606,-0.051871128380298615,0.03576676920056343
1782984533374163500,1.39816357421875,-0.00922960601747036,-0.053295306861400604,0.019782843068242073
1782984533384238600,1.408238525390625,-0.005258566699922085,-0.056490302085876465,0.02433711476624012
1782984533394312400,1.4183125,-0.0026877829805016518,-0.06213769316673279,0.035340286791324615
1782984533404386600,1.428386474609375,-0.005758141167461872,-0.06874952465295792,0.049059294164180756
1782984533414460400,1.43846044921875,-0.006606126204133034,-0.08032159507274628,0.06636819243431091
1782984533424534300,1.4485341796875,0.00278817443177104,-0.07663897424936295,0.11909478157758713
1782984533434608400,1.4586083984375,0.0027916538529098034,-0.06949552893638611,0.17705892026424408
1782984533444682200,1.46868212890625,0.0030079022981226444,-0.05417436361312866,0.21756666898727417
1782984533454756600,1.478756591796875,0.006545823998749256,-0.02787105366587639,0.22306235134601593
1782984533464831200,1.488831298828125,0.005972977727651596,0.008588154800236225,0.189957395195961
1782984533474905600,1.498905517578125,0.010987461544573307,0.05071435496211052,0.12336788326501846
1782984533484979500,1.5089794921875,0.012363516725599766,0.06827390938997269,0.06572429090738297
1782984533495053600,1.519053466796875,0.007508290000259876,0.05755836144089699,0.04231174662709236
1782984533505127400,1.52912744140625,0.0032315196003764868,0.04763196036219597,0.04951053857803345
1782984533515201300,1.539201171875,0.00664691673591733,0.04301358386874199,0.061744410544633865
1782984533525275400,1.549275390625,0.01986924558877945,0.04213713854551315,0.07305166125297546
1782984533535349200,1.559349365234375,0.03938606381416321,0.05649442598223686,0.08209777623414993
1782984533545424400,1.56942431640625,0.06488662213087082,0.06334008276462555,0.08536973595619202
1782984533555498200,1.579498291015625,0.08472760021686554,0.08058120310306549,0.061319638043642044
1782984533565572600,1.589572509765625,0.09676482528448105,0.06383950263261795,0.02327371947467327
1782984533575646500,1.599646484375,0.10094696283340454,0.0671064704656601,-0.0046079824678599834
1782984533585720300,1.60972021484375,0.09958183020353317,0.05473501980304718,-0.03150857239961624
1782984533595794400,1.61979443359375,0.09604232013225555,0.0032782109919935465,-0.03080134093761444
1782984533605868300,1.629868408203125,0.08457981050014496,-0.04222775623202324,-0.009449179284274578
1782984533615942400,1.6399423828125,0.0697399228811264,-0.05454430356621742,0.010048139840364456
1782984533626016300,1.650016357421875,0.06646183878183365,-0.05235012620687485,0.01003775279968977
1782984533636091400,1.66009130859375,0.06806446611881256,-0.038775019347667694,0.00158120587002486
1782984533646165200,1.670165283203125,0.06138579919934273,-0.03760402649641037,-0.012435544282197952
1782984533656239600,1.680239501953125,0.054266612976789474,-0.03665805980563164,-0.019047264009714127
1782984533666313500,1.6903134765625,0.0520189069211483,-0.039274878799915314,-0.023806065320968628
1782984533676387300,1.70038720703125,0.056239377707242966,-0.03085162118077278,-0.04585081711411476
1782984533686461400,1.71046142578125,0.06132015585899353,-0.024669893085956573,-0.05541316419839859
1782984533696535300,1.720535400390625,0.06314626336097717,-0.0295318104326725,-0.054950468242168427
1782984533706609400,1.730609375,0.05404677987098694,-0.030057784169912338,-0.047170042991638184
1782984533716684300,1.740684326171875,0.04509611055254936,-0.035657644271850586,-0.05282280594110489
1782984533726758400,1.75075830078125,0.03573856130242348,-0.04862803965806961,-0.06316225975751877
1782984533736832300,1.760832275390625,0.027610326185822487,-0.04554735869169235,-0.05923357233405113
1782984533746906600,1.77090673828125,0.02433091029524803,-0.03958773612976074,-0.05464974045753479
1782984533756980500,1.78098046875,0.02338019758462906,-0.020318062976002693,-0.039497364312410355
1782984533767054300,1.791054443359375,0.024342130869627,-0.008051276206970215,-0.019330309703946114
1782984533777128400,1.80112841796875,0.03279836103320122,-0.0027682832442224026,-0.0036953152157366276
1782984533787202300,1.811202392578125,0.04353808984160423,-0.0010880950139835477,0.005997259635478258
1782984533797277400,1.82127734375,0.05357501283288002,-0.0070579019375145435,0.00840847846120596
1782984533807351300,1.831351318359375,0.06612462550401688,-0.019013099372386932,-0.003949920646846294
1782984533817425400,1.84142529296875,0.07158250361680984,-0.03248143568634987,-0.015574079006910324
1782984533827499300,1.851499267578125,0.06826766580343246,-0.047386083751916885,-0.0166862141340971
1782984533837573600,1.86157373046875,0.06039314717054367,-0.05285801738500595,-0.007661829236894846
1782984533847647500,1.8716474609375,0.053034570068120956,-0.055042609572410583,0.009976552799344063
1782984533857721300,1.881721435546875,0.03700393810868263,-0.04676789790391922,0.031645629554986954
1782984533867795500,1.89179541015625,0.02686900831758976,-0.04954744130373001,0.04197070375084877
1782984533877869300,1.901869384765625,0.021520085632801056,-0.053039535880088806,0.04001626372337341
1782984533887944400,1.9119443359375,0.011243212036788464,-0.04904026910662651,0.03458607941865921
1782984533898018300,1.922018310546875,-0.0014670779928565025,-0.03601441532373428,0.0157583300024271
1782984533908092400,1.932092529296875,-0.01216393057256937,-0.026880569756031036,-0.00585055910050869
1782984533918166500,1.94216650390625,-0.022371117025613785,-0.008564080111682415,-0.01656792126595974
1782984533928240600,1.95224072265625,-0.036442194133996964,-0.010248796083033085,-0.01413166057318449
1782984533938314800,1.962314697265625,-0.04341253638267517,-0.0312790721654892,-0.00005466937000164762
1782984533948388600,1.972388671875,-0.050596948713064194,-0.040004655718803406,0.00929462444037199
1782984533958462500,1.98246240234375,-0.05549251288175583,-0.025251036509871483,0.009235288016498089
1782984533968537600,1.99253759765625,-0.05259179696440697,-0.011264379136264324,-0.014483356848359108
1782984533978611500,2.002611572265625,-0.05057484284043312,0.0023308179806917906,-0.06295454502105713
1782984533988685600,2.012685546875,-0.04442853480577469,0.009109627455472946,-0.1233782023191452
1782984533998759400,2.022759521484375,-0.03751850128173828,0.0009964278433471918,-0.1665356457233429
1782984534008833500,2.03283349609375,-0.06542470306158066,0.007983230985701084,-0.18349997699260712
1782984534018907600,2.04290771484375,-0.08904678374528885,0.002423630328848958,-0.15421894192695618
1782984534028981800,2.052981689453125,-0.11769307404756546,-0.005154394544661045,-0.10678831487894058
1782984534039055600,2.0630556640625,-0.13799694180488586,-0.012954114004969597,-0.06266388297080994
1782984534049129500,2.07312939453125,-0.13174490630626678,0.0028458875603973866,-0.031863097101449966
1782984534059204600,2.08320458984375,-0.1103924959897995,0.03625844791531563,-0.015518900007009506
1782984534069278500,2.093278564453125,-0.0944734513759613,0.06771518290042877,-0.011554251424968243
1782984534079352600,2.1033525390625,-0.07361479103565216,0.08796840161085129,-0.017367567867040634
1782984534089426400,2.113426513671875,-0.06074453145265579,0.09421937167644501,-0.02985513024032116
1782984534099500500,2.12350048828125,-0.04861443489789963,0.08850999921560287,-0.027074091136455536
1782984534109574700,2.13357470703125,-0.03478517383337021,0.08210909366607666,-0.009747032076120377
1782984534119648800,2.143648681640625,-0.015646368265151978,0.08738242089748383,0.01766355149447918
1782984534129722600,2.15372265625,0.008940466679632664,0.09587310999631882,0.03709876909852028
1782984534139797800,2.1637978515625,0.04605964198708534,0.1086355522274971,0.02849601022899151
1782984534149871600,2.17387158203125,0.0651630312204361,0.11180684715509415,0.0025043576024472713
1782984534159945500,2.183945556640625,0.0844031423330307,0.1178937554359436,-0.05731992796063423
1782984534170019600,2.19401953125,0.09916504472494125,0.11506734043359756,-0.12516821920871735
1782984534180093400,2.204093505859375,0.09709089994430542,0.10366833209991455,-0.16537460684776306
1782984534190167600,2.21416748046875,0.09560618549585342,0.07654669880867004,-0.1906815618276596
1782984534200241700,2.22424169921875,0.092148557305336,0.055812299251556396,-0.20979127287864685
1782984534210315500,2.2343154296875,0.10303928703069687,0.04246187210083008,-0.20736034214496613
1782984534220390700,2.244390625,0.1131531298160553,0.02890474535524845,-0.18163692951202393
1782984534230464800,2.25446484375,0.1037263423204422,0.02878064103424549,-0.14969870448112488
1782984534240538600,2.26453857421875,0.085246741771698,-0.002292975317686796,-0.11337653547525406
1782984534250612500,2.274612548828125,0.06724510341882706,-0.044364795088768005,-0.09690435230731964
1782984534260686600,2.2846865234375,0.04788850620388985,-0.07978054881095886,-0.08020399510860443
1782984534270760400,2.294760498046875,0.03616287186741829,-0.0960703045129776,-0.045630838721990585
1782984534280834600,2.30483447265625,0.017792727798223495,-0.08896671235561371,-0.0070876022800803185
1782984534290908700,2.31490869140625,-0.00004699092824012041,-0.09313429147005081,0.021377328783273697
1782984534300982500,2.324982421875,-0.006044465582817793,-0.10125670582056046,0.03131673112511635
1782984534311057700,2.3350576171875,-0.015696294605731964,-0.10055390000343323,0.028103357180953026
1782984534321131500,2.345131591796875,-0.017666678875684738,-0.09445532411336899,0.019274715334177017
1782984534331205600,2.35520556640625,-0.021203357726335526,-0.08032672107219696,0.012663950212299824
1782984534341279500,2.365279541015625,-0.028469063341617584,-0.06274920701980591,0.008741273544728756
1782984534351353600,2.375353515625,-0.04084397479891777,-0.06969819962978363,0.02449467033147812
1782984534361427500,2.385427490234375,-0.046476274728775024,-0.06860757619142532,0.06053831800818443
1782984534371501600,2.39550146484375,-0.055565912276506424,-0.0639752745628357,0.09317535907030106
1782984534381575700,2.40557568359375,-0.07397745549678802,-0.04062803462147713,0.12284408509731293
1782984534391650600,2.415650634765625,-0.08239278197288513,-0.035680148750543594,0.13569436967372894
1782984534401724700,2.425724609375,-0.07810162752866745,-0.049582116305828094,0.12986816465854645
1782984534411798500,2.435798583984375,-0.061967138200998306,-0.059746336191892624,0.10419449955224991
1782984534421872600,2.44587255859375,-0.048431139439344406,-0.07005952298641205,0.07526916265487671
1782984534431946500,2.455946533203125,-0.03275071457028389,-0.07460234314203262,0.025743158534169197
1782984534442020600,2.4660205078125,-0.021826501935720444,-0.08217911422252655,-0.026576872915029526
1782984534452094500,2.476094482421875,-0.018032295629382133,-0.06736421585083008,-0.06524969637393951
1782984534462168600,2.48616845703125,-0.013715079985558987,-0.0409088097512722,-0.09161558747291565
1782984534472243500,2.496243408203125,-0.010946989990770817,-0.024972185492515564,-0.10069963335990906
1782984534482317600,2.506317626953125,-0.012165563181042671,-0.013732383958995342,-0.10471860319375992
1782984534492391700,2.5163916015625,-0.01805727370083332,0.018168557435274124,-0.08877266198396683
1782984534502465500,2.526465576171875,-0.018037550151348114,0.04559703916311264,-0.06733112782239914
1782984534512539600,2.53653955078125,-0.008595045655965805,0.04590090364217758,-0.05047917738556862
1782984534522613500,2.546613525390625,-0.00001540884841233492,0.0450357124209404,-0.03975621610879898
1782984534532687600,2.5566875,-0.00562535785138607,0.0418899841606617,-0.02964099682867527
1782984534542761500,2.566761474609375,-0.00646599056199193,0.04410377889871597,-0.018005069345235825
1782984534552835600,2.576835693359375,-0.009711052291095257,0.04789159446954727,-0.006642160005867481
1782984534562910500,2.586910400390625,-0.018271196633577347,0.05781063064932823,0.008622491732239723
1782984534572984600,2.596984619140625,-0.008984223008155823,0.05417142063379288,0.014658812433481216
1782984534583058700,2.60705859375,-0.0005660769529640675,0.045375607907772064,0.02126515842974186
1782984534593132500,2.617132568359375,0.0012691072188317776,0.019641485065221786,0.017741264775395393
1782984534603206700,2.62720654296875,0.008421150967478752,-0.008430389687418938,0.010856512933969498
1782984534613280500,2.637280517578125,0.013302458450198174,-0.024528132751584053,0.005752831231802702
1782984534623354600,2.647354736328125,0.014123991131782532,-0.03575984016060829,0.00038981219404377043
1782984534633428500,2.657428466796875,0.019811436533927917,-0.03156270086765289,-0.013201097026467323
1782984534643503600,2.667503662109375,0.025111056864261627,-0.0024955091066658497,-0.020391207188367844
1782984534653577500,2.677577392578125,0.02934974431991577,0.03940879553556442,-0.014178584329783916
1782984534663651600,2.687651611328125,0.0282040536403656,0.07343460619449615,0.002582011977210641
1782984534673725700,2.6977255859375,0.03131728991866112,0.07591800391674042,0.03347867354750633
1782984534683799600,2.707799560546875,0.030493464320898056,0.09029949456453323,0.07013987004756927
1782984534693873700,2.717873779296875,0.03178802877664566,0.10191673040390015,0.09538184106349945
1782984534703947500,2.727947509765625,0.04373558983206749,0.10692813247442245,0.11071844398975372
1782984534714021600,2.738021728515625,0.056768033653497696,0.1152675524353981,0.10704860836267471
1782984534724095500,2.748095458984375,0.06024230644106865,0.1101761907339096,0.08387964218854904
1782984534734170600,2.758170654296875,0.051120977848768234,0.07410447299480438,0.051580291241407394
1782984534744244500,2.768244384765625,0.029752768576145172,0.036739978939294815,0.009219417348504066
1782984534754318600,2.778318603515625,0.023462116718292236,0.01588902436196804,-0.02602139301598072
1782984534764392700,2.788392822265625,0.028036484494805336,0.00697513110935688,-0.0407709926366806
1782984534774466600,2.798466552734375,0.03690241649746895,-0.004480722360312939,-0.049457959830760956
1782984534784540700,2.808540771484375,0.038156960159540176,-0.0042054979130625725,-0.052113503217697144
1782984534794614500,2.818614501953125,0.02807343192398548,-0.003041430376470089,-0.06265189498662949
1782984534804688600,2.828688720703125,0.021218758076429367,0.001707292627543211,-0.06314746290445328
1782984534814763500,2.838763427734375,0.021077344194054604,0.014851856976747513,-0.05815216898918152
1782984534824837600,2.848837646484375,0.018554549664258957,0.05728698521852493,-0.03927472606301308
1782984534834911500,2.858911376953125,0.014518795534968376,0.056323450058698654,-0.031568869948387146
1782984534844985600,2.868985595703125,0.02512218803167343,0.0019500122871249914,-0.042051706463098526
1782984534855059700,2.879059814453125,0.020918654277920723,-0.01679517887532711,-0.0544162318110466
1782984534865133600,2.889133544921875,0.016924552619457245,-0.02571205608546734,-0.05912134796380997
1782984534875207700,2.899207763671875,0.02260853722691536,-0.02890332043170929,-0.07400788366794586
1782984534885281500,2.909281494140625,0.03664664551615715,-0.023684963583946228,-0.09306897968053818
1782984534895355400,2.91935546875,0.03175415098667145,-0.015854470431804657,-0.09135949611663818
1782984534905430500,2.929430419921875,0.020407114177942276,-0.04781851917505264,-0.06924716383218765
1782984534915504600,2.939504638671875,0.019362889230251312,-0.06180863082408905,-0.0391816720366478
1782984534925578500,2.94957861328125,0.013205023482441902,-0.06226987764239311,-0.0028208992443978786
1782984534935652600,2.959652587890625,0.00239578471519053,-0.053506214171648026,0.02152891457080841
1782984534945726700,2.969726806640625,-0.012676677666604519,-0.02986697107553482,0.042844004929065704
1782984534955800600,2.979800537109375,-0.02035483717918396,-0.028509026393294334,0.060728464275598526
1782984534965874700,2.989874755859375,-0.015368068590760231,-0.030252598226070404,0.06678369641304016
1782984534975948500,2.999948486328125,-0.014803478494286537,-0.019023379310965538,0.060116738080978394
1782984534986023700,3.010023681640625,-0.020465660840272903,0.001219534082338214,0.05788629129528999
1782984534996097500,3.02009765625,-0.01930425688624382,0.0039010706823319197,0.052351441234350204
1782984535006171400,3.03017138671875,-0.02056620456278324,0.002127378946170211,0.04912214353680611
1782984535016245500,3.04024560546875,-0.019088417291641235,-0.006223228760063648,0.057832278311252594
1782984535026319600,3.050319580078125,-0.02170342579483986,-0.01509990356862545,0.07038381695747375
1782984535036393700,3.060393798828125,-0.015349391847848892,-0.02900027297437191,0.07741189748048782
1782984535046467600,3.070467529296875,-0.006558028981089592,-0.06275457888841629,0.08275498449802399
1782984535056541700,3.080541748046875,-0.007851259782910347,-0.07989095151424408,0.08803097158670425
1782984535066616600,3.090616455078125,-0.01803606003522873,-0.07783027738332748,0.08950653672218323
1782984535076690700,3.100690673828125,-0.03152017667889595,-0.07117530703544617,0.07851167023181915
1782984535086764500,3.1107646484375,-0.040597882121801376,-0.05751238390803337,0.05022095888853073
1782984535096838400,3.12083837890625,-0.0428389310836792,-0.02952415682375431,0.006850318051874638
1782984535106912500,3.13091259765625,-0.045051805675029755,-0.011891194619238377,-0.030196061357855797
1782984535116986600,3.140986572265625,-0.04070658981800079,-0.007826943881809711,-0.049204371869564056
1782984535127060700,3.151060791015625,-0.03817445784807205,-0.0037580998614430428,-0.052507754415273666
1782984535137134600,3.161134521484375,-0.045888569205999374,-0.016779892146587372,-0.03915173560380936
1782984535147208700,3.171208740234375,-0.05144788324832916,-0.03437082841992378,-0.007233431562781334
1782984535157283600,3.18128369140625,-0.05378080904483795,-0.04512414336204529,0.03762565553188324
1782984535167357700,3.191357666015625,-0.05340773984789848,-0.04656282067298889,0.07437510043382645
1782984535177431600,3.201431640625,-0.050878800451755524,-0.015452573075890541,0.09936380386352539
1782984535187505400,3.21150537109375,-0.05371222645044327,0.01807369664311409,0.11602825671434402
1782984535197579500,3.22157958984375,-0.05313565209507942,0.034040145576000214,0.11366096884012222
1782984535207653600,3.231653564453125,-0.04327266663312912,0.0356566458940506,0.10909227281808853
1782984535217727700,3.241727783203125,-0.033071696758270264,0.03458711877465248,0.10617291182279587
1782984535227801600,3.251801513671875,-0.03347655013203621,0.03771144524216652,0.1203143522143364
1782984535237876700,3.261876708984375,-0.03584197163581848,0.034134820103645325,0.15016892552375793
1782984535247950600,3.27195068359375,-0.035466767847537994,0.008607049472630024,0.17589260637760162
1782984535258024700,3.282024658203125,-0.03694668784737587,-0.012516344897449017,0.20914004743099213
1782984535268098600,3.2920986328125,-0.051588356494903564,-0.025650549679994583,0.23916137218475342
1782984535278172400,3.30217236328125,-0.07047362625598907,-0.04427590221166611,0.24412444233894348
1782984535288246500,3.31224658203125,-0.08147308230400085,-0.05321580916643143,0.22588513791561127
1782984535298320600,3.322320556640625,-0.08341426402330399,-0.044000204652547836,0.21068115532398224
1782984535308394800,3.332394775390625,-0.0819959044456482,-0.02379804104566574,0.18962402641773224
1782984535318468600,3.342468505859375,-0.07308976352214813,-0.001827761298045516,0.1712130606174469
1782984535328543700,3.352543701171875,-0.0633956715464592,0.010879579000175,0.15805943310260773
1782984535338617600,3.36261767578125,-0.04946281388401985,0.011826865375041962,0.13511070609092712
1782984535348691500,3.37269140625,-0.03176559507846832,0.011012749746441841,0.10997138172388077
1782984535358765600,3.382765625,-0.019806938245892525,0.01515130139887333,0.08731108158826828
1782984535368839400,3.39283935546875,-0.011699475347995758,0.017094876617193222,0.08246785402297974
1782984535378913500,3.40291357421875,-0.0036133197136223316,0.0028200673405081034,0.08215466886758804
1782984535388987600,3.412987548828125,0.007337475661188364,-0.010895250365138054,0.09794928133487701
1782984535399061800,3.423061767578125,0.012548482045531273,-0.03289535641670227,0.10844693332910538
1782984535409136600,3.43313671875,0.01613774709403515,-0.03929729387164116,0.11431899666786194
1782984535419210800,3.443210693359375,0.02156447060406208,-0.022601669654250145,0.11210750788450241
1782984535429284600,3.45328466796875,0.018241113051772118,0.004728157538920641,0.102531298995018
1782984535439358500,3.4633583984375,0.012728370726108551,0.02319398522377014,0.08540317416191101
1782984535449432600,3.4734326171875,0.004072172567248344,0.025106757879257202,0.07700672000646591
1782984535459506400,3.48350634765625,-0.007797270081937313,0.02803942933678627,0.07035361230373383
1782984535469580500,3.49358056640625,-0.013118390925228596,0.02449265867471695,0.0622442327439785
1782984535479654700,3.503654541015625,-0.015461972914636135,0.01489222887903452,0.04285295680165291
1782984535489728800,3.513728759765625,-0.01947775110602379,0.003061337396502495,0.023332515731453896
1782984535499803600,3.5238037109375,-0.02195475623011589,-0.005559581331908703,0.00827873032540083
1782984535509877800,3.533877685546875,-0.018986202776432037,-0.014312205836176872,-0.002522625494748354
1782984535519951600,3.54395166015625,-0.019223490729928017,-0.005389018915593624,-0.004799361806362867
1782984535530025500,3.554025390625,-0.018961595371365547,0.013300498016178608,-0.008102849125862122
1782984535540099600,3.564099609375,-0.01752934791147709,0.016811076551675797,-0.01417565532028675
1782984535550173400,3.57417333984375,-0.015160022303462029,0.012138628400862217,-0.013011589646339417
1782984535560247600,3.58424755859375,-0.013465186581015587,-0.010293976403772831,-0.0011405495461076498
1782984535570321700,3.59432177734375,-0.013409508392214775,-0.0316498763859272,0.005862652789801359
1782984535580396500,3.604396484375,-0.013933352194726467,-0.036063533276319504,0.008468556217849255
1782984535590470700,3.614470703125,-0.01187030877918005,-0.027648333460092545,0.003367920406162739
1782984535600544800,3.624544677734375,-0.013484717346727848,-0.01727718487381935,-0.011238452978432178
1782984535610618600,3.63461865234375,-0.011705884709954262,0.0009387570898979902,-0.023792702704668045
1782984535620692500,3.6446923828125,-0.009180675260722637,-0.0003603328950703144,-0.03231269121170044
1782984535630766600,3.6547666015625,-0.004750844091176987,-0.0036380942910909653,-0.03083900921046734
1782984535640840400,3.66484033203125,-0.003829390276223421,-0.008463475853204727,-0.018060896545648575
1782984535650914600,3.67491455078125,-0.0013734230305999517,-0.0050724102184176445,-0.0016092112055048347
1782984535660989400,3.684989501953125,-0.0020868838764727116,0.012049319222569466,0.01827474683523178
1782984535671063600,3.6950634765625,-0.0026208669878542423,0.045345500111579895,0.03840436413884163
1782984535681137700,3.7051376953125,-0.004245395306497812,0.07591912895441055,0.04582259804010391
1782984535691211800,3.715211669921875,0.0098253283649683,0.07283897697925568,0.04930494725704193
1782984535701285600,3.72528564453125,0.023036736994981766,0.050026874989271164,0.061903297901153564
1782984535711359500,3.735359375,0.025339821353554726,0.001056881621479988,0.06848061084747314
1782984535721433600,3.74543359375,0.026255415752530098,-0.04204025864601135,0.06929127871990204
1782984535731507500,3.755507568359375,0.020733758807182312,-0.06998471170663834,0.06201254203915596
1782984535741581600,3.76558154296875,0.018480723723769188,-0.06956393271684647,0.0411892868578434
1782984535751656400,3.775656494140625,0.011999214999377728,-0.046225786209106445,0.013385874219238758
1782984535761730600,3.78573046875,0.006121884565800428,-0.01315385103225708,-0.0020311654079705477
1782984535771804700,3.7958046875,0.0036369420122355223,0.002880070125684142,-0.01179996132850647
1782984535781878500,3.80587841796875,-0.00027817097725346684,0.011399788782000542,-0.004675206728279591
1782984535791952600,3.81595263671875,-0.0014939759857952595,0.013059122487902641,-0.0016145352274179459
1782984535802026500,3.826026611328125,0.0018605418736115098,0.012082275003194809,0.005441243760287762
1782984535812100600,3.8361005859375,0.0049719298258423805,0.005082475952804089,-0.000614889373537153
1782984535822174500,3.846174560546875,0.0025561766233295202,0.013527891598641872,-0.00731487013399601
1782984535832249600,3.85624951171875,-0.0006655014003627002,0.01621885783970356,-0.01634613424539566
1782984535842323500,3.866323486328125,-0.0014982718275859952,0.012617730535566807,-0.015488595701754093
1782984535852397600,3.8763974609375,0.004151214845478535,-0.0037300437688827515,-0.011851724237203598
1782984535862471700,3.8864716796875,0.007916923612356186,-0.012948310002684593,-0.005377313122153282
1782984535872545500,3.896545654296875,0.00905885361135006,-0.01400462631136179,0.0017250142991542816
1782984535882619600,3.90661962890625,0.0036837956868112087,-0.010530265979468822,0.011839433573186398
1782984535892693500,3.916693603515625,0.0017521337140351534,-0.013168273493647575,0.01498345471918583
1782984535902767600,3.926767578125,0.005266174674034119,-0.02510855719447136,0.019123338162899017
1782984535912841000,3.936841064453125,0.008745914325118065,-0.04096252843737602,0.024768654257059097
1782984535922916000,3.946916015625,0.013598727062344551,-0.04104668274521828,0.020671380683779716
1782984535932990000,3.956989990234375,0.0204184427857399,-0.03739920258522034,0.010813790373504162
1782984535943064300,3.967064208984375,0.01747511699795723,-0.030765000730752945,-0.003132384968921542
1782984535953138200,3.97713818359375,0.008903857320547104,-0.02558831125497818,-0.018714215606451035
1782984535963212300,3.98721240234375,0.004908849485218525,-0.03225180506706238,-0.02302294410765171
1782984535973286100,3.9972861328125,0.00591087294742465,-0.03730625659227371,-0.013844151981174946
1782984535983360000,4.007360107421875,0.003111091908067465,-0.037211716175079346,-0.008835012093186378
1782984535993434000,4.01743408203125,0.0004216009983792901,-0.023518968373537064,-0.0007911427528597414
1782984536003509200,4.02750927734375,0.0002112112706527114,-0.0037244907580316067,0.004393765237182379
1782984536013583000,4.0375830078125,0.002404146594926715,0.01881270855665207,0.007837501354515553
1782984536023657000,4.047656982421875,0.0016145193949341774,0.023171504959464073,0.008080648258328438
1782984536033731300,4.0577314453125,0.011221323162317276,0.025046318769454956,0.006774738430976868
1782984536043805200,4.06780517578125,0.019036369398236275,0.016252027824521065,0.005063391290605068
1782984536053879300,4.07787939453125,0.019860830157995224,0.006731931120157242,0.00689303781837225
1782984536063953200,4.087953125,0.022154344245791435,-0.006706645712256432,0.010398556478321552
1782984536074027000,4.098027099609375,0.02079886384308338,-0.010069737210869789,0.015167592093348503
1782984536084101000,4.10810107421875,0.014653352089226246,0.0017645512707531452,0.015309805050492287
1782984536094176000,4.118176025390625,0.010365418158471584,0.009041559882462025,0.02822122350335121
1782984536104250000,4.12825,0.004069971852004528,0.013118326663970947,0.0433780737221241
1782984536114324000,4.138323974609375,0.004975464195013046,0.020980563014745712,0.0534479133784771
1782984536124398300,4.1483984375,0.0052423132583498955,0.023712966591119766,0.06259986758232117
1782984536134472200,4.15847216796875,0.011109912768006325,0.016407689079642296,0.06395334750413895
1782984536144546300,4.16854638671875,0.01812015101313591,0.0030047972686588764,0.05907256901264191
1782984536154620200,4.1786201171875,0.02100316621363163,-0.012435917742550373,0.05185295268893242
1782984536164694000,4.188694091796875,0.014659781940281391,-0.014791750349104404,0.05045852065086365
1782984536174769200,4.19876904296875,0.006881737150251865,-0.020486239343881607,0.04005790874361992
1782984536184843000,4.208843017578125,0.004873181693255901,-0.0072247618809342384,0.038898903876543045
1782984536194917000,4.218917236328125,0.0038472425658255816,0.015558180399239063,0.042934924364089966
1782984536204991000,4.228990966796875,0.008688868954777718,0.01906502991914749,0.06534063071012497
1782984536215065300,4.2390654296875,0.017401738092303276,0.028725527226924896,0.08865565061569214
1782984536225139200,4.24913916015625,0.018396694213151932,0.028782252222299576,0.12492471188306808
1782984536235213300,4.25921337890625,0.01686706393957138,0.011097198352217674,0.16870814561843872
1782984536245287200,4.269287109375,0.016958143562078476,0.00062405108474195,0.21217305958271027
1782984536255361000,4.279361083984375,0.015711339190602303,-0.0059596155770123005,0.23770292103290558
1782984536265436200,4.289436279296875,0.01256587915122509,-0.0008295683655887842,0.24406041204929352
1782984536275510000,4.299510009765625,0.010988171212375164,0.0018478140700608492,0.21938921511173248
1782984536285584100,4.309584228515625,0.006803813390433788,-0.011126840487122536,0.1694650650024414
1782984536295658000,4.319657958984375,0.010484479367733002,-0.01591380499303341,0.1002497747540474
1782984536305732400,4.329732421875,0.014221959747374058,-0.008356553502380848,0.024806680157780647
1782984536315806200,4.33980615234375,0.016685526818037033,-0.002850973978638649,-0.031589534133672714
1782984536325880000,4.349880126953125,0.023331444710493088,0.011029954068362713,-0.056205663830041885
1782984536335954200,4.3599541015625,0.027521412819623947,0.042969297617673874,-0.04091230407357216
1782984536346029300,4.370029296875,0.03188420459628105,0.06050248444080353,-0.001166486763395369
1782984536356103200,4.380103271484375,0.038160741329193115,0.04423083737492561,0.042391907423734665
1782984536366177000,4.390177001953125,0.04727035015821457,0.012785829603672028,0.07224354892969131
1782984536376251100,4.400251220703125,0.05634395405650139,-0.013462912291288376,0.07725194096565247
1782984536386325200,4.4103251953125,0.05899619683623314,-0.0329442024230957,0.05609073117375374
1782984536396399400,4.4203994140625,0.057042643427848816,-0.0444088838994503,0.019199499860405922
1782984536406473200,4.43047314453125,0.05242525413632393,-0.040631722658872604,-0.015815209597349167
1782984536416547000,4.440547119140625,0.05743160471320152,-0.018288571387529373,-0.040413547307252884
1782984536426622200,4.450622314453125,0.04837632551789284,0.00474217813462019,-0.04256591200828552
1782984536436696000,4.460696044921875,0.04356473684310913,0.01855090819299221,-0.03609596937894821
1782984536446770200,4.470770263671875,0.04158148169517517,0.02258186787366867,-0.024009747430682182
1782984536456844000,4.480843994140625,0.03332342579960823,0.02620239555835724,-0.00958079844713211
1782984536466918100,4.490918212890625,0.02802666835486889,0.007769059389829636,-0.0007066134130582213
1782984536476992300,4.5009921875,0.01946648582816124,-0.010847714729607105,0.001485596178099513
1782984536487066400,4.51106640625,0.009079625830054283,0.00026539014652371407,0.0015138256130740047
1782984536497140200,4.52114013671875,0.008217115886509418,0.006823357194662094,0.010013571940362453
1782984536507214000,4.531214111328125,0.01011781394481659,0.019844884052872658,0.032247770577669144
1782984536517289200,4.541289306640625,-0.007160293869674206,0.056556932628154755,0.06281451880931854
1782984536527363000,4.551363037109375,-0.015535403043031693,0.027034727856516838,0.0805053636431694
1782984536537437200,4.561437255859375,-0.006050430238246918,0.01825612224638462,0.08477499336004257
1782984536547511000,4.571510986328125,-0.008734630420804024,0.004667876288294792,0.08410680294036865
1782984536557585200,4.581585205078125,-0.013484573923051357,-0.0020801613572984934,0.06944487988948822
1782984536567659300,4.5916591796875,-0.0061619458720088005,0.006191616877913475,0.05639353021979332
1782984536577733400,4.6017333984375,-0.004123296122997999,0.01278107613325119,0.0497305653989315
1782984536587807200,4.61180712890625,-0.0053494153544306755,0.012701181694865227,0.04918728023767471
1782984536597882400,4.62188232421875,-0.008769642561674118,0.01981889270246029,0.05515526607632637
1782984536607956200,4.631956298828125,-0.00803034845739603,0.0143508892506361,0.059932708740234375
1782984536618030000,4.642030029296875,-0.005673629231750965,0.01603873446583748,0.06049250811338425
1782984536628104200,4.652104248046875,-0.009010303765535355,0.018381517380475998,0.056702565401792526
1782984536638178000,4.662177978515625,-0.01049045380204916,-0.004788677208125591,0.04856692999601364
1782984536648252200,4.672252197265625,-0.009504285641014576,-0.019103700295090675,0.03645141050219536
1782984536658326300,4.682326171875,-0.007768046110868454,-0.013817884959280491,0.02503422647714615
1782984536668400000,4.692400146484375,-0.007286014035344124,-0.006600984372198582,0.0073279342614114285
1782984536678475300,4.702475341796875,-0.0009330468601547182,-0.00940096378326416,-0.011151202023029327
1782984536688549400,4.71254931640625,-0.00172107620164752,-0.005940718576312065,-0.020763617008924484
1782984536698623200,4.722623291015625,0.00046871998347342014,-0.007242780178785324,-0.026914244517683983
1782984536708697000,4.732697021484375,0.004555340390652418,0.004930262919515371,-0.0243176631629467
1782984536718771200,4.742771240234375,-0.000044771935790777206,0.026436779648065567,-0.020772254094481468
1782984536728845000,4.752844970703125,-0.00925265159457922,0.04028122499585152,-0.010849048383533955
1782984536738919200,4.762919189453125,-0.013403329998254776,0.03900394216179848,-0.005566882435232401
1782984536748993300,4.7729931640625,-0.012099978514015675,0.05612087994813919,0.005943299736827612
1782984536759067100,4.783067138671875,-0.015774555504322052,0.041026175022125244,0.014344186522066593
1782984536769142300,4.793142333984375,-0.017427578568458557,0.02366822585463524,0.010710302740335464
1782984536779216100,4.803216064453125,-0.017221752554178238,0.03969162702560425,0.005675015039741993
1782984536789290200,4.813290283203125,-0.019602086395025253,0.06360388547182083,-0.0030582891777157784
1782984536799364000,4.823364013671875,-0.017284780740737915,0.10264842212200165,-0.01118891779333353
1782984536809438200,4.833438232421875,-0.024157602339982986,0.152008518576622,-0.013664326630532742
1782984536819512000,4.843511962890625,-0.030915478244423866,0.13777020573616028,-0.007932835258543491
1782984536829586200,4.853586181640625,-0.027897849678993225,0.11081128567457199,-0.00198786030523479
1782984536839660300,4.863660400390625,-0.03185276687145233,0.09603982418775558,-0.003790606278926134
1782984536849735200,4.873735107421875,-0.033737484365701675,0.08102864772081375,-0.010541985742747784
1782984536859809300,4.883809326171875,-0.02503090538084507,0.06228465586900711,-0.026877012103796005
1782984536869883100,4.893883056640625,-0.019339196383953094,0.04707135260105133,-0.0401611290872097
1782984536879957200,4.903957275390625,-0.023565277457237244,0.03542867675423622,-0.04553113132715225
1782984536890031000,4.914031005859375,-0.019962020218372345,-0.0037719884421676397,-0.04045381397008896
1782984536900105200,4.924105224609375,-0.01976420171558857,-0.015996789559721947,-0.028551291674375534
1782984536910179600,4.9341796875,-0.017617162317037582,-0.01925596594810486,-0.02443830482661724
1782984536920253700,4.944253662109375,-0.013615654781460762,-0.0012850353959947824,-0.025408605113625526
1782984536930328600,4.95432861328125,-0.02033640816807747,0.006128406152129173,-0.02332574687898159
1782984536940402700,4.964402587890625,-0.024340204894542694,0.0026652980595827103,-0.015511758625507355
1782984536950476500,4.9744765625,-0.022316202521324158,-0.0019611455500125885,-0.001390879973769188
1782984536960550700,4.984550537109375,-0.022219620645046234,-0.016518449410796165,0.02032586559653282
1782984536970624800,4.994624755859375,-0.02056632936000824,-0.0141367856413126,0.03783854469656944
1782984536980698600,5.00469873046875,-0.026199214160442352,0.02740948647260666,0.044146452099084854
1782984536990772700,5.014772705078125,-0.027546241879463196,0.07576397061347961,0.05508778244256973
1782984537000846600,5.0248466796875,-0.022679511457681656,0.09937649965286255,0.06093192845582962
1782984537010920700,5.034920654296875,-0.008120807819068432,0.08400686085224152,0.06446248292922974
1782984537020995600,5.04499560546875,0.00180543283931911,0.03580969572067261,0.06788666546344757
1782984537031069700,5.055069580078125,0.006310702301561832,-0.02760656177997589,0.05944444611668587
1782984537041143600,5.0651435546875,0.0060942405834794044,-0.0555369034409523,0.050798702985048294
1782984537051217700,5.0752177734375,-0.0000281002139672637,-0.04365840554237366,0.06039007753133774
1782984537061291800,5.085291748046875,-0.00815099198371172,-0.018088476732373238,0.06413012742996216
1782984537071365600,5.09536572265625,-0.01338969636708498,0.010227583348751068,0.06269867718219757
1782984537081439700,5.105439697265625,-0.020694514736533165,0.015198266133666039,0.06249622255563736
1782984537091513600,5.115513671875,-0.025749728083610535,0.021616218611598015,0.06363365799188614
1782984537101588700,5.125588623046875,-0.024509280920028687,0.033597152680158615,0.0590759739279747
1782984537111662600,5.13566259765625,-0.016017524525523186,0.036657124757766724,0.05336935445666313
1782984537121736700,5.14573681640625,-0.012725981883704662,0.012207938358187675,0.05183078721165657
1782984537131810600,5.155810546875,-0.008814862929284573,0.0063292765989899635,0.054681699723005295
1782984537141884700,5.165884765625,-0.014165366999804974,-0.006087554153054953,0.06548503041267395
1782984537151958800,5.175958740234375,-0.020110609009861946,-0.01788615621626377,0.0754532441496849
1782984537162032600,5.18603271484375,-0.015281692147254944,-0.02711978554725647,0.07885712385177612
1782984537172106800,5.196106689453125,-0.0073454724624753,-0.016633324325084686,0.07016803324222565
1782984537182181600,5.206181640625,-0.009757142513990402,0.009368914179503918,0.05864134430885315
1782984537192255700,5.216255859375,-0.0077903978526592255,0.016791410744190216,0.045379601418972015
1782984537202329600,5.22632958984375,-0.0017678027506917715,0.00878492183983326,0.04394528269767761
1782984537212403700,5.23640380859375,0.004008859861642122,-0.01353929191827774,0.04291783273220062
1782984537222477600,5.2464775390625,0.011612043716013432,-0.027284756302833557,0.040882956236600876
1782984537232551700,5.2565517578125,0.011550791561603546,-0.036125119775533676,0.023019270971417427
1782984537242625800,5.266625732421875,0.014788911677896976,-0.039913251996040344,0.015259457752108574
1782984537252699600,5.27669970703125,0.01868724450469017,-0.030699513852596283,0.012359008193016052
1782984537262774800,5.28677490234375,0.015153658576309681,-0.014987051486968994,0.017060397192835808
1782984537272848600,5.2968486328125,0.010626018047332764,-0.010471661575138569,0.020185349509119987
1782984537282922800,5.3069228515625,0.009912325069308281,-0.021452568471431732,0.023579873144626617
1782984537292996600,5.31699658203125,0.007266741245985031,-0.014573090709745884,0.016776561737060547
1782984537303070700,5.32707080078125,0.000832349294796586,-0.0037842760793864727,0.011172570288181305
1782984537313144600,5.33714453125,-0.005128870718181133,0.01131398230791092,0.005928007885813713
1782984537323218700,5.34721875,-0.006343236193060875,0.016645202413201332,0.01519693061709404
1782984537333292800,5.357292724609375,-0.010528660379350185,-0.004229452461004257,0.029787058010697365
1782984537343366700,5.36736669921875,-0.009672684594988823,-0.017379770055413246,0.05018400028347969
1782984537353441800,5.37744189453125,-0.010214105248451233,-0.010176451876759529,0.06974118947982788
1782984537363515600,5.387515625,-0.013531019911170006,-0.002223422983661294,0.07251293957233429
1782984537373589800,5.39758984375,-0.005969773046672344,-0.015278504230082035,0.067518450319767
1782984537383663600,5.40766357421875,-0.003806682303547859,-0.023344479501247406,0.05746619775891304
1782984537393737500,5.417737548828125,0.0002650246024131775,-0.037783339619636536,0.05717910826206207
1782984537403811600,5.4278115234375,0.004319332540035248,-0.04185577481985092,0.06702907383441925
1782984537413885700,5.4378857421875,0.0013621585676446557,-0.033229000866413116,0.06762828677892685
1782984537423959800,5.447959716796875,-0.0048225196078419685,-0.017835915088653564,0.05670730769634247
1782984537434034700,5.45803466796875,-0.007836151868104935,-0.011033137328922749,0.030873581767082214
1782984537444108800,5.46810888671875,0.0012308290461078286,0.007328975014388561,0.013877916149795055
1782984537454182700,5.4781826171875,-0.0015982469776645303,0.02227649837732315,0.022981401532888412
1782984537464256800,5.4882568359375,-0.0030459766276180744,0.017669187858700752,0.05238611251115799
1782984537474330600,5.49833056640625,0.001396708656102419,0.004347523674368858,0.085344597697258
1782984537484404500,5.508404541015625,-0.0005068304017186165,-0.00690972525626421,0.1156681478023529
1782984537494478600,5.518478515625,-0.002424039877951145,-0.011373715475201607,0.13231930136680603
1782984537504552700,5.528552734375,0.0006986408261582255,-0.019387459382414818,0.11457124352455139
1782984537514627600,5.538627685546875,0.004260086454451084,-0.011562027968466282,0.0718567967414856
1782984537524701700,5.54870166015625,0.007237517740577459,-0.001745829125866294,0.025501182302832603
1782984537534775800,5.55877587890625,0.009796548634767532,-0.0006267689168453217,-0.007646116893738508
1782984537544849700,5.568849609375,0.013852064497768879,-0.004365549422800541,-0.03395874425768852
1782984537554923800,5.578923828125,0.012305832467973232,-0.012571548111736774,-0.04357728362083435
1782984537564997600,5.58899755859375,0.012825539335608482,-0.0175473615527153,-0.03413045406341553
1782984537575071500,5.599071533203125,0.004318338353186846,-0.03798845410346985,-0.012794275768101215
1782984537585145600,5.6091455078125,0.0011625809129327536,-0.045713283121585846,0.009227671660482883
1782984537595219700,5.6192197265625,-0.0007844561478123069,-0.05512037128210068,0.027578182518482208
1782984537605294600,5.629294677734375,-0.004515278618782759,-0.04845155030488968,0.03095214068889618
1782984537615368700,5.63936865234375,-0.009328942745923996,-0.01409277692437172,0.024233784526586533
1782984537625442800,5.64944287109375,-0.01418253593146801,0.032821789383888245,0.01817738637328148
1782984537635516700,5.6595166015625,-0.009018400683999062,0.06287502497434616,0.019954247400164604
1782984537645590800,5.6695908203125,0.0055442089214921,0.06350146979093552,0.03503172844648361
1782984537655664600,5.67966455078125,0.018712474033236504,0.034779276698827744,0.04964342713356018
1782984537665738500,5.689738525390625,0.032579679042100906,-0.018041351810097694,0.0533873550593853
1782984537675812600,5.6998125,0.037255123257637024,-0.037356194108724594,0.047472208738327026
1782984537685887500,5.709887451171875,0.03691958636045456,-0.059226080775260925,0.03396986797451973
1782984537695961600,5.719961669921875,0.037787508219480515,-0.06580888479948044,0.014963953755795956
1782984537706035700,5.73003564453125,0.029748491942882538,-0.04265083372592926,-0.0018307387363165617
1782984537716109800,5.74010986328125,0.020753931254148483,-0.017583299428224564,-0.002479751128703356
1782984537726183700,5.75018359375,0.01593140698969364,0.02789968065917492,0.008468138054013252
1782984537736257500,5.760257568359375,0.010461274534463882,0.03848680853843689,0.031058933585882187
1782984537746331600,5.77033154296875,0.007298894226551056,0.02724291943013668,0.052002616226673126
1782984537756405500,5.780405517578125,0.010946892201900482,0.01153160072863102,0.060665082186460495
1782984537766480600,5.790480712890625,0.01048174500465393,0.014628778211772442,0.04923681542277336
1782984537776554500,5.800554443359375,0.009443645365536213,0.028293989598751068,0.036866966634988785
1782984537786628600,5.810628662109375,0.013224072754383087,0.03204253315925598,0.021828467026352882
1782984537796702700,5.82070263671875,0.014080812223255634,0.04564835503697395,0.008503341116011143
1782984537806776800,5.83077685546875,0.01645631529390812,0.05184043198823929,-0.002470795763656497
1782984537816850700,5.8408505859375,0.015407295897603035,0.0539131686091423,-0.015785537660121918
1782984537826924500,5.850924560546875,0.022650474682450294,0.07242514193058014,-0.02952372096478939
1782984537836998700,5.86099853515625,0.029231412336230278,0.08025670051574707,-0.05359310284256935
1782984537847072500,5.871072509765625,0.033464789390563965,0.09891032427549362,-0.05495621636509895
1782984537857147600,5.881147705078125,0.03907713666558266,0.08116568624973297,-0.026730170473456383
1782984537867221500,5.891221435546875,0.04100634902715683,0.034042902290821075,0.018183130770921707
1782984537877295600,5.901295654296875,0.035678159445524216,0.013411394320428371,0.06229546666145325
1782984537887369700,5.91136962890625,0.030856594443321228,-0.0013449168764054775,0.0883031040430069
1782984537897443800,5.92144384765625,0.0280940979719162,0.00019412394613027573,0.09680711477994919
1782984537907516400,5.931516357421875,0.02336551435291767,0.00980458129197359,0.10470662266016006
1782984537917590500,5.941590576171875,0.020551618188619614,0.018172234296798706,0.11669750511646271
1782984537927664600,5.95166455078125,0.024530595168471336,0.024257197976112366,0.13000378012657166
1782984537937739500,5.961739501953125,0.027186565101146698,0.046156104654073715,0.1497894823551178
1782984537947813600,5.971813720703125,0.017491985112428665,0.04702666401863098,0.17129455506801605
1782984537957887700,5.9818876953125,0.007902474142611027,0.02446756139397621,0.17720437049865723
1782984537967961600,5.991961669921875,0.008409557864069939,0.019877122715115547,0.17901600897312164
1782984537978035700,6.00203564453125,0.0039000269025564194,0.01808588020503521,0.17230138182640076
1782984537988109600,6.012109619140625,0.002035689540207386,0.006884384900331497,0.14979442954063416
1782984537998183400,6.022183349609375,-0.0011614353861659765,-0.006482820026576519,0.11926688253879547
1782984538008257500,6.032257568359375,-0.001166602480225265,-0.020504282787442207,0.08687549084424973
1782984538018332400,6.04233251953125,-0.006421818397939205,-0.010773359797894955,0.0579514317214489
1782984538028406500,6.052406494140625,-0.010444948449730873,-0.006089533679187298,0.0348539836704731
1782984538038480600,6.062480712890625,-0.006068309769034386,-0.02466428466141224,0.013379317708313465
1782984538048554800,6.0725546875,0.0002695169532671571,-0.02127024717628956,0.01676931232213974
1782984538058628600,6.082628662109375,-0.00877351313829422,-0.029741495847702026,0.03181111440062523
1782984538068702700,6.09270263671875,-0.01068362221121788,-0.04482550919055939,0.04722629487514496
1782984538078776600,6.102776611328125,-0.011991232633590698,-0.034039970487356186,0.06498957425355911
1782984538088850400,6.112850341796875,-0.022268708795309067,-0.02162100002169609,0.08291840553283691
1782984538098925600,6.122925537109375,-0.029077081009745598,-0.017264068126678467,0.09496255218982697
1782984538108999400,6.13299951171875,-0.029257304966449738,-0.031966499984264374,0.09374984353780746
1782984538119073500,6.143073486328125,-0.0233746487647295,-0.0360906682908535,0.09210348129272461
1782984538129147600,6.153147705078125,-0.016455987468361855,-0.029486991465091705,0.07311306893825531
1782984538139221800,6.1632216796875,-0.012503855861723423,-0.029362887144088745,0.044917915016412735
1782984538149295600,6.173295654296875,-0.009445730596780777,-0.024284720420837402,0.023163778707385063
1782984538159369500,6.183369384765625,-0.0030794439371675253,-0.027066657319664955,0.013089840300381184
1782984538169443600,6.193443603515625,0.0025436612777411938,-0.023514345288276672,0.02012021094560623
1782984538179517400,6.203517333984375,0.004274449776858091,-0.026525314897298813,0.03717509284615517
1782984538189592600,6.213592529296875,-0.005220004357397556,-0.020367810502648354,0.05610654875636101
1782984538199666400,6.22366650390625,-0.011250732466578484,-0.016567213460803032,0.07381364703178406
1782984538209740500,6.233740478515625,-0.015862369909882545,-0.004895829129964113,0.0743330642580986
1782984538219814700,6.243814697265625,-0.011346181854605675,-0.004777052439749241,0.062152303755283356
1782984538229888800,6.253888671875,-0.005229379516094923,-0.009469715878367424,0.04599085450172424
1782984538239962600,6.263962646484375,-0.0011795104946941137,-0.012559514492750168,0.031124822795391083
1782984538250036500,6.274036376953125,-0.0009930352680385113,-0.024244040250778198,0.02923738770186901
1782984538260110600,6.284110595703125,-0.0005426947609521449,-0.05067165568470955,0.03156125918030739
1782984538270185500,6.294185546875,-0.005399767775088549,-0.06596884876489639,0.03921598196029663
1782984538280259600,6.304259521484375,-0.010820898227393627,-0.07261662930250168,0.04691677913069725
1782984538290333400,6.31433349609375,-0.010762326419353485,-0.059919267892837524,0.048353128135204315
1782984538300407600,6.324407470703125,-0.00627889484167099,-0.01740429736673832,0.04821490868926048
1782984538310481700,6.334481689453125,-0.007196921855211258,0.03286409378051758,0.055615779012441635
1782984538320555800,6.3445556640625,0.0014977669343352318,0.06027521193027496,0.07271460443735123
1782984538330629600,6.354629638671875,0.01786491461098194,0.037313517183065414,0.09567595273256302
1782984538340703500,6.364703369140625,0.029968449845910072,-0.007000419311225414,0.11295507848262787
1782984538350778600,6.374778564453125,0.030909042805433273,-0.062243808060884476,0.11778013408184052
1782984538360852500,6.3848525390625,0.03159027919173241,-0.10065297782421112,0.11365090310573578
1782984538370926600,6.394926513671875,0.02360047772526741,-0.11533507704734802,0.10708680003881454
1782984538381000400,6.40500048828125,0.012777656316757202,-0.10873550176620483,0.09220931679010391
1782984538391074600,6.415074462890625,-0.00043006043415516615,-0.09206974506378174,0.06193471699953079
1782984538401148700,6.425148681640625,-0.011851026676595211,-0.0737200379371643,0.026142366230487823
1782984538411222800,6.435222900390625,-0.014687239192426205,-0.03183533996343613,-0.005193773657083511
1782984538421296600,6.445296630859375,-0.016398321837186813,-0.005771516356617212,-0.013368879444897175
1782984538431370500,6.45537060546875,-0.015692973509430885,0.003602241864427924,-0.006127537693828344
1782984538441445600,6.465445556640625,-0.017850667238235474,0.002250687452033162,0.016973253339529037
1782984538451519500,6.47551953125,-0.0162244513630867,-0.0010112206218764186,0.05075838416814804
1782984538461593600,6.485593505859375,-0.005226395092904568,0.0030008316971361637,0.07860199362039566
1782984538471667500,6.49566748046875,-0.000680308323353529,-0.0053600165992975235,0.09085956960916519
1782984538481741600,6.505741455078125,0.002300301566720009,-0.02032138966023922,0.08987127244472504
1782984538491815700,6.515815673828125,-0.0005065281875431538,-0.013444282114505768,0.07110818475484848
1782984538501889500,6.5258896484375,-0.005971601232886314,-0.006881188601255417,0.05094726011157036
1782984538511963600,6.535963623046875,-0.0048586660996079445,0.010444805026054382,0.03210273012518883
1782984538522038800,6.546038818359375,-0.0022471703123301268,0.0033847650047391653,0.026681065559387207
1782984538532112600,6.556112548828125,0.0008483991259709001,-0.02027708664536476,0.025640301406383514
1782984538542186500,6.5661865234375,0.0023171324282884598,-0.026452690362930298,0.024004055187106133
1782984538552260600,6.576260498046875,0.008284530602395535,-0.022619711235165596,0.017627332359552383
1782984538562334500,6.58633447265625,0.009898672811686993,-0.01675782911479473,0.007952868938446045
1782984538572408600,6.59640869140625,0.01572350040078163,-0.006820282898843288,0.006465443409979343
1782984538582482700,6.606482666015625,0.010154832154512405,0.007903269492089748,0.017138861119747162
1782984538592556500,6.616556640625,0.0053186905570328236,0.01963217742741108,0.031138140708208084
1782984538602631700,6.626631591796875,0.006316843442618847,0.042829107493162155,0.052927859127521515
1782984538612705500,6.63670556640625,0.010643381625413895,0.04935022071003914,0.07984888553619385
1782984538622779600,6.646779541015625,0.011135799810290337,0.027844663709402084,0.10149772465229034
1782984538632853500,6.656853515625,0.011490407399833202,0.007790351286530495,0.11255726218223572
1782984538642927600,6.666927734375,0.008869591169059277,0.0018435127567499876,0.10103163123130798
1782984538653001500,6.67700146484375,0.01031726785004139,-0.011095775291323662,0.0701768770813942
1782984538663075600,6.68707568359375,0.012836884707212448,-0.03081808052957058,0.029464341700077057
1782984538673149700,6.697149658203125,0.014582124538719654,-0.03581216186285019,-0.0056783598847687244
1782984538683224600,6.707224609375,0.011681943200528622,-0.025509456172585487,-0.022815002128481865
1782984538693298700,6.717298583984375,0.009991084225475788,-0.0032745099160820246,-0.019421765580773354
1782984538703372500,6.72737255859375,0.011986058205366135,-0.000988186220638454,0.009625334292650223
1782984538713446700,6.73744677734375,0.00833484623581171,-0.000368521548807621,0.04364039748907089
1782984538723520500,6.7475205078125,0.008476526476442814,-0.002111027715727687,0.07825722545385361
1782984538733594600,6.7575947265625,0.0059167854487895966,0.0005856219213455915,0.09049179404973984
1782984538743668500,6.76766845703125,0.004385201260447502,0.014649509452283382,0.08778762072324753
1782984538753742600,6.77774267578125,0.002523775678128004,0.013767709955573082,0.06650874763727188
1782984538763817500,6.7878173828125,0.0033442960120737553,0.011994843371212482,0.04424925148487091
1782984538773891600,6.7978916015625,0.009151514619588852,0.014610986225306988,0.032823119312524796
1782984538783965700,6.807965576171875,0.010287884622812271,0.007872124202549458,0.019149916246533394
1782984538794039600,6.81803955078125,0.007404142525047064,0.01116630807518959,0.013554506935179234
1782984538804113700,6.82811376953125,0.0057188947685062885,0.023660793900489807,0.013603509403765202
1782984538814187500,6.8381875,0.003567732870578766,0.015744641423225403,0.02716587856411934
1782984538824261600,6.84826171875,0.004120605066418648,0.011142965406179428,0.032436538487672806
1782984538834335500,6.85833544921875,0.003133497666567564,0.001007147366181016,0.02801360748708248
1782984538844409300,6.868409423828125,0.004716746974736452,0.0026002503000199795,0.020747438073158264
1782984538854484500,6.878484375,0.0012325692223384976,0.007269079796969891,0.014975086785852909
1782984538864558600,6.88855859375,-0.004303343594074249,0.013947754167020321,0.0069331396371126175
1782984538874632700,6.8986328125,-0.006631125696003437,0.013017777353525162,-0.0006488708313554525
1782984538884706600,6.90870654296875,-0.010176326148211956,-0.000480721122585237,-0.0035764838103204966
1782984538894780700,6.91878076171875,-0.00713613023981452,0.00019657518714666367,-0.005825903732329607
1782984538904854500,6.9288544921875,-0.0037025166675448418,0.0039316583424806595,-0.00309030432254076
1782984538914929200,6.93892919921875,-0.0019039782928302884,0.008360747247934341,-0.0013732004445046186
1782984538925004300,6.94900439453125,0.00042016233783215284,0.002403255784884095,-0.0038179822731763124
1782984538935078100,6.959078125,0.0035560517571866512,0.011502531357109547,-0.005875645205378532
1782984538945152300,6.96915234375,-0.0005854300106875598,-0.0016026177909225225,-0.00806130189448595
1782984538955226000,6.97922607421875,-0.0005779187777079642,-0.004505700431764126,-0.0026362380012869835
1782984538965300000,6.989300048828125,0.0029414487071335316,0.0011804148089140654,0.00696632219478488
1782984538975374300,6.999374267578125,0.0026918924413621426,0.003812960581853986,0.02476753480732441
1782984538985448200,7.0094482421875,-0.005229147616773844,-0.002300059422850609,0.03963995724916458
1782984538995522300,7.019522216796875,-0.011452830396592617,-0.017495816573500633,0.04006531834602356
1782984539005596200,7.02959619140625,-0.015117606148123741,-0.01964179053902626,0.028424374759197235
1782984539015671300,7.03967138671875,-0.015110238455235958,-0.01538359560072422,0.015028671361505985
1782984539025745200,7.0497451171875,-0.009501088410615921,0.0011362582445144653,-0.0023332745768129826
1782984539035819000,7.059819091796875,-0.004075306002050638,0.034338124096393585,-0.00036967394407838583
1782984539045893000,7.06989306640625,-0.00014421402011066675,0.06253035366535187,0.015912359580397606
1782984539055967000,7.079967041015625,0.00387655571103096,0.05621398612856865,0.03420737013220787
1782984539066041300,7.090041259765625,0.009692367166280746,0.020367305725812912,0.05100579187273979
1782984539076115200,7.100115234375,0.010938921943306923,-0.05277762562036514,0.05602148547768593
1782984539086189300,7.110189208984375,0.00869813747704029,-0.08001190423965454,0.05158279463648796
1782984539096264200,7.12026416015625,0.008604944683611393,-0.09087835252285004,0.023224815726280212
1782984539106338300,7.13033837890625,0.002009360119700432,-0.08062171936035156,-0.009305963292717934
1782984539116412200,7.140412109375,-0.008048797026276588,-0.0562080442905426,-0.03856386989355087
1782984539126486000,7.150486083984375,-0.01281825266778469,-0.02684030309319496,-0.04385796934366226
1782984539136560000,7.16056005859375,-0.010610916651785374,0.015963207930326462,-0.02120763249695301
1782984539146634000,7.170634033203125,-0.015128436498343945,0.03797450289130211,0.009128967300057411
1782984539156708400,7.180708251953125,-0.016239862889051437,0.02399250492453575,0.041002750396728516
1782984539166782200,7.1907822265625,-0.013179358094930649,-0.003495312761515379,0.059224363416433334
1782984539176857300,7.200857421875,-0.01231558807194233,-0.004127891734242439,0.060216814279556274
1782984539186931200,7.21093115234375,-0.01268044114112854,0.009540515951812267,0.04799050837755203
1782984539197005300,7.22100537109375,-0.014403950423002243,0.012881649658083916,0.030382223427295685
1782984539207079200,7.2310791015625,-0.015992792323231697,0.009670143947005272,0.020135443657636642
1782984539217153000,7.241153076171875,-0.01840202882885933,-0.004871007986366749,0.02422185055911541
1782984539227227100,7.25122705078125,-0.019054770469665527,-0.020349299535155296,0.03331015259027481
1782984539237301000,7.261301025390625,-0.02180219441652298,-0.022544465959072113,0.03158533200621605
1782984539247375400,7.271375244140625,-0.023645900189876556,-0.008269121870398521,0.022618737071752548
1782984539257450000,7.281449951171875,-0.02146526798605919,0.006696552038192749,0.01108383759856224
1782984539267524400,7.2915244140625,-0.018453232944011688,0.018993165343999863,-0.0032610129565000534
1782984539277598200,7.30159814453125,-0.013940950855612755,0.011039567179977894,-0.010660337284207344
1782984539287672300,7.31167236328125,-0.007403955794870853,-0.015412812121212482,-0.008477876894176006
1782984539297746200,7.32174609375,0.0021371557377278805,-0.026926308870315552,0.0013045533560216427
1782984539307820000,7.331820068359375,0.003376058302819729,-0.033375952392816544,0.009577130898833275
1782984539317894100,7.34189404296875,0.006428733468055725,-0.01869153417646885,0.011602566577494144
1782984539327968000,7.351968017578125,0.005065461620688438,-0.013053622096776962,0.00895831361413002
1782984539338042400,7.36204248046875,0.002720281947404146,-0.012972129508852959,-0.003392628161236644
1782984539348117000,7.372116943359375,0.008816789835691452,0.0010574024636298418,-0.012838328257203102
1782984539358191400,7.38219140625,0.006149882450699806,0.005985327064990997,-0.01874963566660881
1782984539368265200,7.39226513671875,0.01001838967204094,0.015275498852133751,-0.019843662157654762
1782984539378339000,7.402339111328125,0.014138123020529747,0.017082322388887405,-0.016798073425889015
1782984539388413200,7.4124130859375,0.014126138761639595,0.010231340304017067,-0.013229971751570702
1782984539398487000,7.422487060546875,0.011252996511757374,-0.0022524679079651833,-0.006388097070157528
1782984539408561200,7.43256103515625,0.009493978694081306,-0.009459780529141426,-0.006264260038733482
1782984539418635000,7.442635009765625,0.009365632198750973,0.002587081165984273,-0.008694765157997608
1782984539428710100,7.452710205078125,0.01070040836930275,0.010883892886340618,-0.013447175733745098
1782984539438784000,7.462783935546875,0.014940427616238594,0.01868082955479622,-0.006351982243359089
1782984539448858400,7.4728583984375,0.01593325473368168,0.016330324113368988,0.004501997027546167
1782984539458932200,7.48293212890625,0.01616242714226246,0.008477956987917423,0.018536262214183807
1782984539469006000,7.493006103515625,0.01478424109518528,0.005317317321896553,0.025217602029442787
1782984539479080200,7.503080078125,0.009313700720667839,0.004968417342752218,0.009380900301039219
1782984539489154000,7.513154052734375,0.00710673863068223,0.014219173230230808,-0.0046694050543010235
1782984539499228200,7.523228271484375,0.004219002090394497,0.022208839654922485,-0.0133905578404665
1782984539509303000,7.533302978515625,0.006580160930752754,0.03071524202823639,-0.014246231876313686
1782984539519377200,7.543377197265625,0.012222831137478352,0.024934276938438416,-0.0015102461911737919
1782984539529451000,7.553450927734375,0.012674769386649132,0.015779927372932434,0.012840463779866695
1782984539539525400,7.563525390625,0.015292284078896046,0.004590404219925404,0.022209566086530685
1782984539549599200,7.57359912109375,0.018369566649198532,0.011393981985747814,0.02447378635406494
1782984539559673000,7.583673095703125,0.01537423674017191,0.012051169760525227,0.020529545843601227
1782984539569747200,7.593747314453125,0.015341746620833874,0.00518154539167881,0.012882277369499207
1782984539579821000,7.603821044921875,0.016754820942878723,-0.007096224930137396,0.001392594538629055
1782984539589896200,7.613896240234375,0.017195042222738266,-0.002200536197051406,-0.00710715027526021
1782984539599970000,7.623969970703125,0.008660675957798958,0.012037255801260471,-0.001553128007799387
1782984539610044200,7.634044189453125,0.005351165775209665,0.011960556730628014,0.006377765443176031
1782984539620118000,7.644117919921875,0.0028022718615829945,0.0008381830994039774,0.014978339895606041
1782984539630192400,7.6541923828125,0.0025324933230876923,0.008408484980463982,0.02111639454960823
1782984539640266200,7.664266357421875,0.0024014306254684925,0.006694369949400425,0.012406201101839542
1782984539650340000,7.674340087890625,0.009375183843076229,0.007202766835689545,0.0013066789833828807
1782984539660414200,7.684414306640625,0.012054305523633957,-0.0009582125348970294,-0.013900390826165676
1782984539670489000,7.694489013671875,0.008856115862727165,0.0046480074524879456,-0.022298136726021767
1782984539680563200,7.704563232421875,0.008510242216289043,0.002641399158164859,-0.017607146874070168
1782984539690637000,7.714636962890625,0.005803938489407301,-0.0025158124044537544,0.0052528963424265385
1782984539700711200,7.724711181640625,0.004485744051635265,-0.01836727000772953,0.02736710198223591
1782984539710785000,7.734784912109375,0.0028660092502832413,-0.041076574474573135,0.04476020485162735
1782984539720859100,7.744859130859375,-0.007087359670549631,-0.03565133363008499,0.04073047265410423
1782984539730933200,7.754933349609375,-0.005619957577437162,-0.02179969847202301,0.025410369038581848
1782984539741007000,7.765007080078125,-0.006414821837097406,-0.012666252441704273,0.0014613564126193523
1782984539751082200,7.775082275390625,-0.006345579866319895,-0.009080305695533752,-0.014175926335155964
1782984539761156000,7.785156005859375,-0.010612248443067074,-0.01604612171649933,-0.0182051844894886
1782984539771230200,7.795230224609375,-0.013213357888162136,-0.01894337683916092,-0.007865461520850658
1782984539781304000,7.805303955078125,-0.016471628099679947,-0.0051346346735954285,0.003698946675285697
1782984539791378200,7.815378173828125,-0.017829308286309242,0.02801133506000042,0.016858957707881927
1782984539801452000,7.8254521484375,-0.021107267588377,0.05968987196683884,0.03289416804909706
1782984539811526100,7.835526123046875,-0.014863220974802971,0.07337159663438797,0.040202416479587555
1782984539821600300,7.845600341796875,-0.010011633858084679,0.053299274295568466,0.04761947691440582
1782984539831675100,7.855675048828125,-0.0034959441982209682,0.010459400713443756,0.03767203912138939
1782984539841749200,7.865749267578125,-0.0004308944335207343,-0.04384985938668251,0.022617613896727562
1782984539851823000,7.875822998046875,0.0010085441172122955,-0.0810699313879013,-0.0052361199632287025
1782984539861897200,7.885897216796875,0.00029840238858014345,-0.09214704483747482,-0.040088050067424774
1782984539871971000,7.89597119140625,0.00031225080601871014,-0.07606741040945053,-0.06264635920524597
1782984539882045200,7.906045166015625,-0.010879771783947945,-0.04033944010734558,-0.07113385200500488
1782984539892119300,7.916119384765625,-0.020930808037519455,-0.013481460511684418,-0.06372707337141037
1782984539902193200,7.926193115234375,-0.025804730132222176,0.004453450441360474,-0.03745988756418228
1782984539912266500,7.9362666015625,-0.02204274944961071,0.021060656756162643,-0.002346906578168273
1782984539922341600,7.946341552734375,-0.02007552608847618,0.021881351247429848,0.019464170560240746
1782984539932415500,7.95641552734375,-0.017870428040623665,0.02080090530216694,0.027510380372405052
1782984539942489600,7.966489501953125,-0.014399831183254719,0.01100862305611372,0.021420471370220184
1782984539952563500,7.9765634765625,-0.017829449847340584,0.022568073123693466,0.010934807360172272
1782984539962637300,7.98663720703125,-0.01982678472995758,0.024006489664316177,0.0010289635974913836
1782984539972711700,7.996711669921875,-0.021524017676711082,0.026888828724622726,-0.008926731534302235
1782984539982785500,8.00678564453125,-0.01250193826854229,0.0027988695073872805,-0.007430830970406532
1782984539992859600,8.016859619140625,-0.006272272206842899,-0.00557304359972477,-0.005029724910855293
1782984540002934500,8.0269345703125,-0.0018510161899030209,-0.0008451074827462435,-0.010294314473867416
1782984540013008600,8.037008544921875,-0.0003737607621587813,0.01055482029914856,-0.01383312325924635
1782984540023082500,8.04708251953125,-0.0001699579879641533,0.002303694374859333,-0.01768074929714203
1782984540033156600,8.057156494140624,0.0004681353457272053,-0.006802718620747328,-0.009068886749446392
1782984540043230500,8.06723046875,0.0005683236522600055,-0.01322110928595066,-0.0003673291648738086
1782984540053304300,8.07730419921875,-0.002509491518139839,-0.018854759633541107,0.005388294812291861
1782984540063378700,8.087378662109375,-0.0024431790225207806,-0.017207328230142593,-0.0004163313133176416
1782984540073452500,8.09745263671875,0.0019190788734704256,0.003000471042469144,-0.009453768841922283
1782984540083527700,8.107527587890624,0.00024407485034316778,0.012999016791582108,-0.01507884543389082
1782984540093601500,8.1176015625,0.000030489405617117882,0.029674934223294258,-0.012487056665122509
1782984540103675600,8.127675537109376,-0.0010645315051078796,0.023754604160785675,-0.004504390526562929
1782984540113749500,8.13774951171875,-0.00627181027084589,0.02860715240240097,0.0153958136215806
1782984540123823600,8.14782373046875,-0.00932373944669962,0.025873510167002678,0.03122691996395588
1782984540133897500,8.1578974609375,-0.009760764427483082,0.017666446045041084,0.030436227098107338
1782984540143971300,8.167971435546875,-0.006018667947500944,0.017306584864854813,0.026289155706763268
1782984540154045700,8.178045654296875,-0.0056418306194245815,0.009143996983766556,0.012818886898458004
1782984540164120300,8.188120361328124,-0.006043453700840473,0.006979126483201981,-0.0021951044909656048
1782984540174194700,8.198194580078125,-0.005366212222725153,0.008471827954053879,-0.011145723052322865
1782984540184268500,8.2082685546875,-0.0024915423709899187,0.007570973597466946,-0.013708270154893398
1782984540194342700,8.2183427734375,-0.0011919197859242558,0.005863887257874012,-0.010423260740935802
1782984540204416500,8.22841650390625,-0.0013904672814533114,0.00993823166936636,-0.010045573115348816
1782984540214490600,8.23849072265625,-0.0005568978376686573,-0.0005636783316731453,-0.0027652892749756575
1782984540224564500,8.248564453125,-0.0010076819453388453,0.0010474028531461954,0.0031099054031074047
1782984540234638300,8.258638427734375,-0.005183252040296793,0.006434977985918522,0.010805374942719936
1782984540244713500,8.26871337890625,-0.0032289004884660244,0.005804581567645073,0.007896456867456436
1782984540254787300,8.278787353515625,-0.0038241171278059483,0.00599579606205225,-0.0023351414129137993
1782984540264861700,8.28886181640625,-0.006825233343988657,0.004348098766058683,-0.007715791929513216
1782984540274935600,8.298935546875,-0.011764331720769405,-0.001520709483884275,-0.017309829592704773
1782984540285009700,8.309009765625,-0.007229891140013933,0.0019515459425747395,-0.02625890076160431
1782984540295083500,8.31908349609375,-0.0026415311731398106,0.004339602775871754,-0.032611340284347534
1782984540305157400,8.329157470703125,-0.0022431579418480396,0.0061308033764362335,-0.030461952090263367
1782984540315231500,8.3392314453125,-0.003589119529351592,0.011012909933924675,-0.018111543729901314
1782984540325306600,8.349306640625,0.00028904667124152184,0.005077136680483818,-0.0032837544567883015
1782984540335380500,8.35938037109375,0.0012192887952551246,0.000031245406717061996,0.009510337375104427
1782984540345454300,8.369454345703126,0.0058572907000780106,-0.012493680231273174,0.007442283909767866
1782984540355528700,8.37952880859375,0.009450693614780903,-0.011167692020535469,0.002224618336185813
1782984540365602600,8.3896025390625,0.0021454826928675175,-0.003925037104636431,0.0015523267211392522
1782984540375676700,8.3996767578125,-0.001050576800480485,-0.004574049264192581,0.008757242932915688
1782984540385750500,8.40975048828125,0.0017765454249456525,-0.002029063878580928,0.023037908598780632
1782984540395825700,8.41982568359375,0.001635664259083569,-0.009473664686083794,0.02867741882801056
1782984540405899500,8.4298994140625,0.005575971677899361,-0.022536393254995346,0.03168264031410217
1782984540415973400,8.439973388671875,0.01056833378970623,-0.0152201559394598,0.023709401488304138
1782984540426047500,8.450047607421874,0.01574511080980301,-0.010101256892085075,0.019375964999198914
1782984540436121300,8.460121337890625,0.014708342030644417,-0.020751504227519035,0.006663632579147816
1782984540446195700,8.47019580078125,0.015162942931056023,-0.019891303032636642,-0.0011996169341728091
1782984540456269600,8.48026953125,0.007615278474986553,-0.006183480843901634,-0.005486507434397936
1782984540466343700,8.49034375,0.006991815287619829,-0.012518661096692085,-0.003026440739631653
1782984540476418600,8.50041845703125,0.009412894025444984,-0.023946553468704224,-0.0072989496402442455
1782984540486492700,8.51049267578125,0.005252042319625616,-0.022724546492099762,-0.008051718585193157
1782984540496566500,8.52056640625,-0.003359555033966899,-0.01862274669110775,-0.009623782709240913
1782984540506640400,8.530640380859374,-0.003992678597569466,-0.011466700583696365,-0.010638176463544369
1782984540516714500,8.540714599609375,-0.008881709538400173,0.007410317659378052,-0.008142794482409954
1782984540526788400,8.550788330078126,-0.0124729098752141,0.03631182387471199,0.004413045011460781
1782984540536862700,8.56086279296875,-0.007032870315015316,0.04281739145517349,0.020530762150883675
1782984540546937300,8.570937255859375,0.0060021840035915375,0.036945827305316925,0.03917427361011505
1782984540557011700,8.58101171875,0.011300808750092983,0.0016083428636193275,0.04493069648742676
1782984540567085600,8.59108544921875,0.017793897539377213,-0.04446643218398094,0.029436742886900902
1782984540577159700,8.60115966796875,0.025735978037118912,-0.06779039651155472,-0.001109447912313044
1782984540587233500,8.611233642578124,0.026135558262467384,-0.0689939558506012,-0.041462041437625885
1782984540597307400,8.621307373046875,0.018788961693644524,-0.06268679350614548,-0.06259661912918091
1782984540607381500,8.631381591796876,0.012630898505449295,-0.03256142511963844,-0.053430601954460144
1782984540617455400,8.641455322265625,0.004371104761958122,-0.010313642211258411,-0.023116903379559517
1782984540627529700,8.65152978515625,-0.00008557154797017574,-0.0032307251822203398,0.007690860889852047
1782984540637604400,8.661604248046874,-0.001558832242153585,0.008728465996682644,0.03373444452881813
1782984540647678700,8.6716787109375,0.000096944160759449,0.014967918395996094,0.041605956852436066
1782984540657752600,8.681752685546876,0.005351094529032707,0.004226590506732464,0.03187263384461403
1782984540667826700,8.69182666015625,0.003980969078838825,-0.0032367720268666744,0.011692902073264122
1782984540677900500,8.701900634765625,0.0015694769099354744,-0.0034492923878133297,-0.010366327129304409
1782984540687974400,8.711974365234376,-0.001138371997512877,-0.003872108645737171,-0.027039900422096252
1782984540698048500,8.722048583984375,-0.0009639349882490933,-0.010446653701364994,-0.031008809804916382
1782984540708123400,8.732123291015625,0.0019233750645071268,-0.01364284846931696,-0.031747832894325256
1782984540718197500,8.742197509765624,0.00005783070810139179,-0.015065242536365986,-0.019230175763368607
1782984540728271400,8.752271240234375,0.00092401506844908,0.0020322243217378855,-0.008024606853723526
1782984540738345700,8.762345703125,-0.0012147696688771248,0.01760372705757618,0.007264867424964905
1782984540748419600,8.772419677734375,0.0009309571469202638,0.02317078784108162,0.018794910982251167
1782984540758493400,8.782493408203125,-0.000006475602276623249,0.01902398094534874,0.023400049656629562
1782984540768567600,8.792567626953126,0.003078068606555462,0.007582654245197773,0.02454638108611107
1782984540778641400,8.802641357421875,0.005014186725020409,-0.007467667572200298,0.015173917636275291
1782984540788715500,8.812715576171875,0.008574016392230988,-0.012482122518122196,0.003914451226592064
1782984540798790400,8.822790283203124,0.0111463638022542,-0.01626035012304783,-0.01145704835653305
1782984540808864500,8.832864501953125,0.013127826154232025,-0.013970949687063694,-0.017529746517539024
1782984540818938400,8.8429384765625,0.012323551811277866,0.009305077604949474,-0.022300267592072487
1782984540829012700,8.8530126953125,0.010897749103605747,0.02284068800508976,-0.014349721372127533
1782984540839086600,8.863086669921875,0.00295673543587327,0.03121393360197544,-0.002821163507178426
1782984540849160400,8.873160400390624,-0.0006237795460037887,0.03682093694806099,0.011842898093163967
1782984540859234600,8.883234619140625,0.0015682682860642672,0.03362168371677399,0.025027675554156303
1782984540869308400,8.893308349609375,0.005439954809844494,0.02276146039366722,0.023698590695858
1782984540879383600,8.903383544921875,0.00960354134440422,0.02522914484143257,0.02826884016394615
1782984540889457400,8.91345751953125,0.008485652506351471,0.022151846438646317,0.0200603436678648
1782984540899531500,8.923531494140626,0.010999675840139389,0.018666569143533707,0.012548098340630531
1782984540909605400,8.93360546875,0.01688840426504612,0.011811702512204647,0.008540886454284191
1782984540919679700,8.9436796875,0.017886556684970856,0.0068800607696175575,0.006915027275681496
1782984540929753600,8.953753662109374,0.022509895265102386,0.009906408376991749,0.006903844885528088
1782984540939827700,8.96382763671875,0.017978260293602943,0.010743440128862858,0.01362433098256588
1782984540949901600,8.973901611328126,0.014458307065069675,0.0004014919977635145,0.01875975914299488
1782984540959976700,8.983976806640625,0.00825873389840126,-0.0022251836489886045,0.024795014411211014
1782984540970050600,8.994050537109375,0.007391998544335365,-0.006044982001185417,0.0180378295481205
1782984540980124400,9.00412451171875,0.0033613049890846014,0.00015166145749390125,0.008784675970673561
1782984540990198500,9.014198486328125,0.003929143771529198,-0.008703786879777908,-0.0034906871151179075
1782984541000272600,9.024272705078126,-0.0017388619016855955,-0.009212184697389603,-0.012188571505248547
1782984541010346800,9.0343466796875,-0.00555002223700285,-0.003777007572352886,-0.012646898627281189
1782984541020420600,9.044420654296875,-0.0031566398683935404,-0.014321527443826199,-0.011413589119911194
1782984541030494700,9.05449462890625,-0.004523498006165028,-0.02156716398894787,-0.005445497110486031
1782984541040569600,9.064569580078125,-0.0042883409187197685,-0.010615446604788303,-0.0025618262588977814
1782984541050643700,9.074643798828125,-0.00904732197523117,-0.0033900910057127476,0.0020659512374550104
1782984541060717600,9.084717529296874,-0.015110273845493793,0.004910449497401714,0.0061784046702086926
1782984541070791400,9.09479150390625,-0.018008150160312653,0.005821789149194956,0.013700492680072784
1782984541080865500,9.104865478515626,-0.01605844870209694,0.0001812137197703123,0.015530883334577084
1782984541090939600,9.114939697265624,-0.015319528058171272,-0.00856340117752552,0.01763010397553444
1782984541101013800,9.125013671875,-0.010998815298080444,-0.012057201936841011,0.011779671534895897
1782984541111087600,9.135087646484376,-0.004192041698843241,-0.01835750602185726,0.006508735474199057
1782984541121162800,9.145162841796875,-0.002559524029493332,-0.013965154066681862,0.0021544673945754766
1782984541131236600,9.155236572265625,-0.003484439803287387,-0.010553315281867981,-0.0032698512077331543
1782984541141310700,9.165310791015624,-0.003526251530274749,-0.005289045162498951,0.0013890826376155019
1782984541151384600,9.175384521484375,0.0011529760668054223,-0.001590619795024395,0.0037491212133318186
1782984541161458400,9.18545849609375,0.008169872686266899,-0.005324371624737978,0.004407188389450312
1782984541171532500,9.195532470703125,0.007424312178045511,-0.0039611258544027805,-0.0029151206836104393
1782984541181606700,9.205606689453125,0.007559334393590689,-0.013306157663464546,-0.006804400589317083
1782984541191681500,9.215681640625,0.008905615657567978,-0.015528738498687744,-0.01271640695631504
1782984541201755600,9.225755615234375,0.003342005657032132,-0.016055777668952942,-0.011968592181801796
1782984541211829800,9.235829833984376,0.0005122901638969779,-0.02154160663485527,-0.00022900948533788323
1782984541221903600,9.245903564453124,-0.001397462678141892,0.0043387264013290405,0.012122198939323425
1782984541231977500,9.2559775390625,-0.005252724979072809,0.037549857050180435,0.02328580617904663
1782984541242051600,9.266051513671876,-0.0027562780305743217,0.07250091433525085,0.029072854667901993
1782984541252125400,9.27612548828125,0.0023491433821618557,0.05821115896105766,0.027119364589452744
1782984541262199600,9.286199462890625,0.0138795655220747,0.034158021211624146,0.020265718922019005
1782984541272273700,9.296273681640624,0.026215558871626854,-0.0009573986753821373,-0.0014992797514423728
1782984541282348500,9.3063486328125,0.021771008148789406,-0.0419280007481575,-0.02338114194571972
1782984541292422700,9.316422607421876,0.02436695247888565,-0.06099408492445946,-0.038748811930418015
1782984541302496800,9.326496826171875,0.02598375640809536,-0.056521572172641754,-0.05173411965370178
1782984541312570600,9.336570556640625,0.013802103698253632,-0.04324691742658615,-0.04449004679918289
1782984541322644500,9.34664453125,0.00937220174819231,-0.011019740253686905,-0.027972592040896416
1782984541332718600,9.356718505859375,0.0036904513835906982,-0.004687679000198841,-0.015451059676706791
1782984541342792400,9.36679248046875,-0.0002733978908509016,0.004884786903858185,-0.0010556088527664542
1782984541352866600,9.376866455078124,-0.007617097347974777,0.013687084428966045,0.003505280241370201
1782984541362941400,9.38694140625,-0.0064357188530266285,0.012100372463464737,0.00462567200884223
1782984541373015600,9.397015625,-0.0074390023946762085,0.011631243862211704,-0.004953558556735516
1782984541383089700,9.407089599609375,-0.0040341513231396675,0.013158566318452358,-0.0007460306514985859
1782984541393163800,9.417163818359375,-0.003955978900194168,0.02223491109907627,-0.002637992613017559
1782984541403237600,9.427237548828124,-0.008874038234353065,0.03243135288357735,-0.005515804514288902
1782984541413311500,9.4373115234375,-0.0024132984690368176,0.016345400363206863,-0.018403641879558563
1782984541423385600,9.447385498046875,0.001634706393815577,0.008860318921506405,-0.02253580279648304
1782984541433459500,9.45745947265625,-0.003076425287872553,0.005596614442765713,-0.012630708515644073
1782984541443534600,9.46753466796875,-0.011001460254192352,0.006317266263067722,0.00048003383562900126
1782984541453608400,9.4776083984375,-0.009560974314808846,-0.0003191168652847409,0.00955326110124588
1782984541463682600,9.4876826171875,-0.004626935813575983,0.00028142589144408703,0.02015051245689392
1782984541473756700,9.497756591796875,-0.0020118539687246084,-0.000993188819848001,0.020857900381088257
1782984541483830800,9.507830810546874,0.0009069707011803985,-0.010003195144236088,0.011983447708189487
1782984541493904600,9.517904541015625,0.012007558718323708,-0.006731173023581505,-0.008033394813537598
1782984541503978500,9.527978515625,0.014253934845328331,-0.00435829721391201,-0.02568216435611248
1782984541514052600,9.538052490234374,0.021020565181970596,-0.006946476176381111,-0.03250081464648247
1782984541524127500,9.54812744140625,0.01954730413854122,-0.012287711724638939,-0.02999691106379032
1782984541534201600,9.55820166015625,0.01294524036347866,-0.011330771259963512,-0.016968196257948875
1782984541544275500,9.568275390625,0.008571264334022999,-0.011610935442149639,-0.0036984633188694715
1782984541554349600,9.578349609375,-0.0013421400217339396,-0.01002065185457468,0.007179797161370516
1782984541564423700,9.588423583984374,-0.00039698416367173195,-0.011421740986406803,0.00015011745563242584
1782984541574497800,9.598497802734375,0.0017926673172041774,-0.019179733470082283,-0.0035261022858321667
1782984541584571600,9.608571533203126,0.003532777074724436,-0.012011568993330002,-0.01059706136584282
1782984541594645500,9.6186455078125,0.0018605246441438794,-0.0044496795162558556,-0.02078333869576454
1782984541604720600,9.628720703125,0.0017028654692694545,0.007347857113927603,-0.018348410725593567
1782984541614794500,9.63879443359375,-0.0003300148528069258,0.013222593814134598,-0.008342118002474308
1782984541624868600,9.64886865234375,-0.001999816857278347,0.01569480635225773,0.0029598043765872717
1782984541634942500,9.6589423828125,0.0035220528952777386,0.010137262754142284,0.0017790740821510553
1782984541645016600,9.6690166015625,0.0022874115966260433,0.008895697072148323,-0.002197291934862733
1782984541655090700,9.679090576171875,0.004275194369256496,0.005500371102243662,-0.008098332211375237
1782984541665164500,9.68916455078125,0.006931165233254433,-0.008699070662260056,-0.013550355099141598
1782984541675238700,9.69923876953125,0.011012868024408817,-0.011863617226481438,-0.00844085868448019
1782984541685313500,9.7093134765625,0.010480502620339394,-0.0136181078851223,-0.0015493968967348337
1782984541695387600,9.7193876953125,0.010707048699259758,-0.017076954245567322,0.004282922949641943
1782984541705461500,9.72946142578125,0.005435854196548462,-0.0020476707722991705,0.007168458309024572
1782984541715535600,9.73953564453125,0.004444039426743984,0.004080701619386673,0.0016065011732280254
1782984541725609500,9.749609375,0.004785190336406231,0.0060873934999108315,-0.004968577064573765
1782984541735683600,9.75968359375,0.003441732609644532,0.015287471935153008,-0.008712292648851871
1782984541745757700,9.7697578125,0.005407411605119705,0.008209588006138802,-0.004410754889249802
1782984541755831600,9.77983154296875,0.004991371650248766,0.007018733769655228,0.002031745156273246
1782984541765906700,9.78990673828125,0.011082020588219166,0.006654946133494377,0.00925610214471817
1782984541775980500,9.79998046875,0.007763243280351162,0.01687098667025566,0.005216306075453758
1782984541786054700,9.8100546875,0.005240164697170258,0.0180763341486454,0.0027504856698215008
1782984541796128500,9.82012841796875,0.006469016894698143,0.02280432917177677,0.0018403156427666545
1782984541806202600,9.83020263671875,0.008782505057752132,0.01506891194730997,0.0022150224540382624
1782984541816276500,9.8402763671875,0.014289389364421368,0.008375589735805988,0.0004147255385760218
1782984541826350600,9.8503505859375,0.015202055685222149,-0.0015217827167361975,0.002018481260165572
1782984541836424700,9.8604248046875,0.0127034243196249,-0.0040292441844940186,-0.0010038852924481034
1782984541846499600,9.87049951171875,0.01227864995598793,-0.0003096068976446986,0.004228427540510893
1782984541856573700,9.88057373046875,0.011554732918739319,-0.00612656818702817,0.0026927499566227198
1782984541866647600,9.8906474609375,0.009048432111740112,-0.0064328317530453205,-0.0011595127871260047
1782984541876721700,9.9007216796875,0.010729098692536354,-0.007359439507126808,-0.007483933120965958
1782984541886795500,9.91079541015625,0.005002504214644432,-0.00043655221816152334,-0.011027801781892776
1782984541896869600,9.92086962890625,0.003186335088685155,-0.0003753781784325838,-0.00695913378149271
1782984541906943500,9.930943603515624,-0.0009088075021281838,0.003098715329542756,-0.0021265612449496984
1782984541917018000,9.94101806640625,-0.006997521501034498,0.013368276879191399,-0.0015339008532464504
1782984541927093000,9.951093017578126,-0.008563194423913956,0.014162697829306126,0.0013782657915726304
1782984541937167000,9.9611669921875,-0.011142164468765259,0.010128647089004517,-0.0011615337571129203
1782984541947241000,9.971240966796875,-0.008627607487142086,0.020331216976046562,0.004612199496477842
1782984541957315000,9.981315185546874,-0.012048493139445782,0.03447531536221504,0.006150213535875082
1782984541967389200,9.99138916015625,-0.009547252207994461,0.05041060596704483,0.017634829506278038
1782984541977463000,10.001463134765626,-0.007454948965460062,0.04974106326699257,0.0265524759888649
1782984541987537200,10.011537109375,0.0016578554641455412,0.033402569591999054,0.020865030586719513
1782984541997611000,10.021611083984375,0.010329998098313808,0.008763791993260384,0.002170715481042862
1782984542007686100,10.03168603515625,0.010205095633864403,-0.032085370272397995,-0.024906441569328308
1782984542017760000,10.041760009765625,0.017325730994343758,-0.05725221708416939,-0.04700540378689766
1782984542027834000,10.051834228515625,0.018621625378727913,-0.07052674144506454,-0.060458093881607056
1782984542037908000,10.061907958984374,0.012437978759407997,-0.04404229670763016,-0.05870062857866287
1782984542047982000,10.071982177734375,0.004759019706398249,-0.01787274144589901,-0.04155226796865463
1782984542058056200,10.08205615234375,-0.004004217684268951,0.008189828135073185,-0.01163021381944418
1782984542068130000,10.092130126953125,-0.011682110838592052,0.034104783087968826,0.021697117015719414
1782984542078204200,10.1022041015625,-0.011306925676763058,0.033005133271217346,0.04645019397139549
1782984542088279000,10.112279052734374,-0.007930570282042027,0.02834060788154602,0.0440450944006443
1782984542098353200,10.122353271484375,-0.006831127218902111,0.011602241545915604,0.033509623259305954
1782984542108427000,10.132427001953126,-0.004150389693677425,0.011691989377140999,0.012641627341508865
1782984542118501000,10.142501220703124,-0.005526249296963215,-0.001335008768364787,0.0013582396786659956
1782984542128575000,10.152574951171875,-0.010251229628920555,0.0002921826671808958,-0.004706044681370258
1782984542138649000,10.162649169921876,-0.0124491723254323,0.005150217097252607,-0.0032594725489616394
1782984542148723200,10.17272314453125,-0.006228561047464609,0.0005397526547312737,0.00032753898994997144
1782984542158797000,10.182797119140625,-0.0012402291176840663,0.00320313754491508,0.0021269875578582287
1782984542168872200,10.1928720703125,-0.0020082846749573946,0.009456505998969078,0.004189073108136654
1782984542178946000,10.202946044921875,-0.004440232180058956,0.011458173394203186,0.006957365199923515
1782984542189020200,10.213020263671876,-0.0005203252658247948,0.014416145160794258,0.016950078308582306
1782984542199094000,10.223093994140624,-0.0022988533601164818,0.015404358506202698,0.021699462085962296
1782984542209168100,10.233168212890625,0.000597866834141314,0.00022833491675555706,0.008344507776200771
1782984542219242000,10.243241943359376,0.01120791770517826,-0.010170785710215569,-0.010831429623067379
1782984542229316000,10.253316162109375,0.012300878763198853,-0.007000824436545372,-0.03931153938174248
1782984542239390200,10.26339013671875,0.018743544816970825,-0.002638927660882473,-0.0661231279373169
1782984542249465000,10.273465087890624,0.031142156571149826,0.02683986909687519,-0.07048298418521881
1782984542259539200,10.283539306640625,0.018637605011463165,0.050530705600976944,-0.019306665286421776
1782984542269613000,10.293613037109376,0.009384452365338802,0.011098078452050686,0.003162690903991461
1782984542279687200,10.303687255859375,0.03024543635547161,-0.013064916245639324,0.02448076754808426
1782984542289761000,10.313760986328125,0.03029949776828289,-0.012790344655513763,0.010931935161352158
1782984542299835000,10.3238349609375,0.012546760030090809,0.014412795193493366,0.00034650490852072835
1782984542309909000,10.333908935546875,0.01596013456583023,0.01608632504940033,-0.008642729371786118
1782984542319983000,10.343983154296875,0.017133468762040138,0.005666019394993782,-0.0024979705922305584
1782984542330058000,10.35405810546875,0.00617749011144042,-0.024105990305542946,0.022889943793416023
1782984542340132000,10.364132080078125,0.0005392951425164938,-0.043634142726659775,0.023713238537311554
1782984542350206200,10.374206298828126,-0.0008854960324242711,-0.03693203255534172,-0.0019465836230665445
1782984542360280000,10.384280029296875,-0.01929873414337635,-0.024556880816817284,-0.03917858749628067
1782984542370354200,10.394354248046875,-0.0440371036529541,0.00024300790391862392,-0.04387720301747322
1782984542380428000,10.404427978515624,-0.048791591078042984,0.0010321966838091612,0.007383798714727163
