time,seconds_elapsed,z,y,x
1782987515956790300,0.067790283203125,0.00031148851849138737,-0.0005299086915329099,0.00042664381908252835
1782987515966865200,0.077865234375,-0.00133207265753299,-0.0012983831111341715,-0.0009665458928793669
1782987515976939300,0.087939208984375,0.0005638316506519914,0.0005312087014317513,-0.003338357200846076
1782987515987013000,0.09801318359375,0.0021239640191197395,0.0014672728721052408,0.0015316338976845145
1782987515997088300,0.108088134765625,0.0024624518118798733,-0.000162048963829875,0.0007622466655448079
1782987516007162000,0.118162109375,0.00043136009480804205,-0.0013896888121962547,-0.0007020180346444249
1782987516017237200,0.1282373046875,-0.0027750858571380377,-0.00009113154374063015,-0.00042797878268174827
1782987516027311000,0.13831103515625,0.001193501055240631,-0.001195014687255025,0.0008454915368929505
1782987516037385200,0.14838525390625,-0.000028889975510537624,-0.0005401433445513248,0.00014321599155664444
1782987516047460000,0.158460205078125,-0.0005762274959124625,-0.0023697344586253166,-0.0001362040638923645
1782987516057534200,0.1685341796875,-0.00028647558065131307,-0.0004927385598421097,-0.00024086629855446517
1782987516067609000,0.178609130859375,0.00044816627632826567,-0.0010814496781677008,0.002418476389721036
1782987516077683200,0.18868310546875,0.0009991743136197329,0.0006195113528519869,-0.00031632365426048636
1782987516087757000,0.198757080078125,0.0002799913054332137,0.0010435639414936304,-0.00010567749268375337
1782987516097832200,0.208832275390625,-0.00019884505309164524,-0.0006544674979522824,0.0013537347549572587
1782987516107906000,0.218906005859375,-0.0003062674659304321,-0.0004957816563546658,0.002010980388149619
1782987516117981200,0.228981201171875,0.001086565782316029,-0.0009325400460511446,0.000924943364225328
1782987516128055000,0.239054931640625,-0.0014956750674173236,0.001113527687266469,0.0012552076950669289
1782987516138129200,0.249129150390625,0.0008218076545745134,-0.0006119344616308808,0.0013841047184541821
1782987516148204000,0.2592041015625,-0.0008435248164460063,0.0013982655946165323,0.0006662443047389388
1782987516158278100,0.269278076171875,-0.000023803790099918842,-0.00131602818146348,-0.0013553611934185028
1782987516168353000,0.27935302734375,0.0009190130513161421,0.0012730509042739868,-0.0010361761087551713
1782987516178427100,0.28942724609375,0.0003661408554762602,0.0001768937800079584,-0.0013317869743332267
1782987516188501000,0.2995009765625,-0.0008723411592654884,-0.0011788812698796391,0.00014128352631814778
1782987516198576000,0.309576171875,-0.00044197431998327374,0.001517569413408637,-0.0012853718362748623
1782987516208650200,0.319650146484375,0.001330625731498003,0.0009891982190310955,0.0009985551005229354
1782987516218725000,0.32972509765625,-0.002183681819587946,0.0025154557079076767,0.0010978910140693188
1782987516228799200,0.33979931640625,-0.001186734763905406,-0.00011559785343706608,0.0025265016593039036
1782987516238873300,0.349873291015625,-0.00039044959703460336,0.0013744407333433628,-0.000243718532146886
1782987516248948200,0.3599482421875,0.0005497439997270703,0.001274077920243144,-0.0008122810395434499
1782987516259022300,0.370022216796875,-0.00017650006338953972,-0.0000998468603938818,-0.0011947108432650566
1782987516269097200,0.38009716796875,-0.0014817023184150457,0.0010090179275721312,-0.0030536968261003494
1782987516279171300,0.39017138671875,-0.0002340113278478384,-0.0015412250068038702,-0.0024944329634308815
1782987516289245200,0.4002451171875,0.00039719464257359505,-0.0022328076884150505,-0.0011341228382661939
1782987516299320300,0.4103203125,0.0004837473388761282,-0.0005667341174557805,-0.0002653997507877648
1782987516309394200,0.420394287109375,0.0010497395414859056,-0.0016491585411131382,0.0011362633667886257
1782987516319469300,0.43046923828125,-0.00024748611031100154,-0.0022891161497682333,0.0018699641805142164
1782987516329543200,0.440543212890625,0.0022237536031752825,0.00030016060918569565,-0.00040023590554483235
1782987516339617300,0.4506171875,0.0006825822638347745,0.0006069566588848829,-0.0013288800837472081
1782987516349692200,0.460692138671875,-0.0028267977759242058,0.0018499672878533602,-0.0014672968536615372
1782987516359766300,0.470766357421875,-0.0005210330709815025,0.0006094668060541153,0.0026877671480178833
1782987516369841200,0.480841064453125,0.0007915089372545481,0.003465557936578989,0.0015804371796548367
1782987516379915300,0.490915283203125,-0.001579503295943141,-0.00009721890091896057,0.0009255658951587975
1782987516389990100,0.500990234375,-0.000029872986488044262,-0.000839634332805872,0.001719874795526266
1782987516400064300,0.511064208984375,-0.0007140390225686133,-0.0009514871053397655,0.0011760573834180832
1782987516410138000,0.52113818359375,-0.00032747251680120826,0.00043012271635234356,-0.0017845469992607832
1782987516420213200,0.531213134765625,0.0014571117935702205,0.00035315752029418945,-0.0003698758373502642
1782987516430287000,0.541287109375,0.002078056801110506,0.0016223462298512459,0.0012070393422618508
1782987516440362200,0.5513623046875,-0.0003456860431469977,4.810281097888947e-7,-0.0010659686522558331
1782987516450436000,0.56143603515625,0.0007735185790807009,-0.00039888115134090185,-0.0021438393741846085
1782987516460510200,0.57151025390625,0.0007138637593016028,0.0012461533769965172,-0.002936662407591939
1782987516470585000,0.581585205078125,0.0005875580245628953,-0.0015668664127588272,-0.00031446933280676603
1782987516480659200,0.5916591796875,-0.0013538864441215992,-0.00006937095895409584,0.0001153648627223447
1782987516490734000,0.601734130859375,0.0007874512812122703,-0.0003726686118170619,-0.00035726893111132085
1782987516500808200,0.61180810546875,-0.00007727707270532846,0.00042974180541932583,-0.004008729010820389
1782987516510882000,0.621882080078125,0.0003371763741597533,0.0003149320837110281,-0.0008467405568808317
1782987516520957200,0.631957275390625,0.0008988368790596724,-0.0016134628094732761,-0.0006456718547269702
1782987516531031000,0.642031005859375,-0.0006021753652021289,0.0013795027043670416,0.00220876163803041
1782987516541106200,0.652106201171875,-0.002006726572290063,0.0004308847710490227,0.00018688986892811954
1782987516551180000,0.662179931640625,-0.00246642017737031,-0.001538525684736669,0.0011035792995244265
1782987516561254100,0.672254150390625,-0.002058423822745681,-0.0020245525520294905,-0.00019204853742849082
1782987516571329000,0.6823291015625,0.00039219646714627743,0.0004250723868608475,-0.00001105479896068573
1782987516581403100,0.692403076171875,0.0009461340960115194,-0.0017094510840252042,-0.001999370753765106
1782987516591478000,0.70247802734375,-0.0008524233708158135,0.0008733971044421196,0.0004605009453371167
1782987516601552100,0.71255224609375,-0.0014034314081072807,-0.00013807136565446854,-0.004254359286278486
1782987516611626200,0.722626220703125,-0.0005754546145908535,0.0014686137437820435,-0.0008849280420690775
1782987516621700600,0.73270068359375,-0.0006063472828827798,0.0015168169047683477,0.001285548321902752
1782987516631774500,0.7427744140625,0.0009450686629861593,-0.0008764143567532301,0.000012913646060042083
1782987516641849600,0.752849609375,0.0015245724935084581,0.0010357352439314127,-0.0006763124256394804
1782987516651923500,0.76292333984375,-0.0006768680177628994,-0.000009211711585521698,0.0033919771667569876
1782987516661997600,0.77299755859375,0.000157500384375453,0.0007010535337030888,0.00009338572272099555
1782987516672072400,0.783072509765625,0.000043673207983374596,-0.0009636519243940711,-0.00033690358395688236
1782987516682146600,0.793146484375,-0.0017390467692166567,0.0008566186297684908,-0.000390965782571584
1782987516692221400,0.803221435546875,-0.0017906019929796457,0.000912774819880724,-0.0008850596495904028
1782987516702295600,0.813295654296875,0.001011309796012938,0.00010690209455788136,0.0008989919442683458
1782987516712369400,0.823369384765625,-0.0028141657821834087,0.0012237085029482841,0.0011525055160745978
1782987516722444500,0.833444580078125,0.0004332928219810128,0.00011130631901323795,0.00039723305962979794
1782987516732518400,0.843518310546875,-0.0002628795919008553,-0.0016115452162921429,0.0010888128308579326
1782987516742593500,0.853593505859375,-0.0006663484964519739,0.0010279137641191483,0.00014152639778330922
1782987516752667400,0.86366748046875,0.00004614365752786398,0.001156437210738659,-0.0014065558789297938
1782987516762742500,0.873742431640625,-0.001715004676952958,0.000585455447435379,0.00002995323302457109
1782987516772816400,0.88381640625,-0.0027272473089396954,-0.0006128010572865605,0.0010021434864029288
1782987516782890500,0.893890380859375,-0.0016907451208680868,0.0015267825219780207,-0.0003544708015397191
1782987516792965400,0.90396533203125,-0.002178188180550933,-0.0005822883686050773,-0.0019735281821340322
1782987516803039500,0.91403955078125,-0.002000022679567337,0.0002816410269588232,-0.00023661463637836277
1782987516813114400,0.9241142578125,-0.003272857517004013,-0.0015756110660731792,0.0012114234268665314
1782987516823188500,0.9341884765625,-0.00039850769098848104,-0.0006067530484870076,-0.002429916989058256
1782987516833262300,0.944262451171875,-0.00202108733355999,0.0007819333113729954,-0.0003597195609472692
1782987516843337500,0.95433740234375,0.0006295570638030767,-0.0037795291282236576,-0.001325914403423667
1782987516853411300,0.964411376953125,-0.0012266638223081827,-0.0024142733309417963,0.0008227466023527086
1782987516863486500,0.974486572265625,0.00034060643520206213,0.000573260709643364,-0.0009019164717756212
1782987516873560300,0.984560302734375,-0.000494914420414716,0.0002132405061274767,0.0011794534511864185
1782987516883634700,0.994634765625,-0.0024483432061970234,0.004088406451046467,-0.0003721042303368449
1782987516893709300,1.004709228515625,0.0022884844802320004,0.0007402284536510706,0.001611244399100542
1782987516903783700,1.01478369140625,-0.0005605653859674931,-0.00011118408292531967,0.002739093266427517
1782987516913858300,1.0248583984375,-0.0013962513767182827,0.0012947923969477415,-0.000695697613991797
1782987516923932700,1.0349326171875,-0.0007560274098068476,-0.0004804708296433091,-0.0012341886758804321
1782987516934006500,1.045006591796875,-0.0012398986145853996,0.0024680159986019135,-0.00046889157965779305
1782987516944081700,1.05508154296875,0.0009180607739835978,0.0013694621156901121,-0.0007522518862970173
1782987516954155500,1.065155517578125,0.0012203871738165617,-0.00031511043198406696,-0.0019747470505535603
1782987516964230700,1.075230712890625,-0.00007790385279804468,-0.001204606262035668,-0.0012985703069716692
1782987516974304500,1.085304443359375,-0.0026191584765911102,0.0012135880533605814,-0.0008140105055645108
1782987516984378600,1.095378662109375,-0.0001637238310649991,0.00019865739159286022,0.0006627123220823705
1782987516994453500,1.10545361328125,0.0013589449226856232,-0.001310813706368208,-0.0013926563551649451
1782987517004527600,1.115527587890625,0.0019488350953906775,0.002951575443148613,-0.0011798697523772717
1782987517014602500,1.1256025390625,-0.001217191107571125,0.00016549485735595226,0.0005378145724534988
1782987517024676600,1.135676513671875,-0.0003521963953971863,-0.0000845759641379118,0.0032566357403993607
1782987517034750500,1.14575048828125,-0.0001456534955650568,0.002536977641284466,0.0018253250746056437
1782987517044825600,1.15582568359375,0.0003211986040696502,0.001023236894980073,0.0007992090540938079
1782987517054899500,1.1658994140625,-0.0007171249599196017,0.0012678143102675676,0.0017917799996212125
1782987517064974600,1.175974609375,-0.0005855647614225745,-0.00034180027432739735,-0.00033155831624753773
1782987517075048400,1.18604833984375,0.0019604936242103577,-0.000387036707252264,-0.0012233925517648458
1782987517085122600,1.19612255859375,0.0005112013313919306,0.00007635331712663174,0.00025386293418705463
1782987517095197400,1.206197509765625,0.000031230971217155457,-0.0012472604867070913,-0.0020341367926448584
1782987517105271600,1.216271484375,0.0016954403836280107,-0.0013641733676195145,0.00024313232279382646
1782987517115346400,1.226346435546875,0.0023827063851058483,-0.001976399216800928,0.0018250176217406988
1782987517125420500,1.236420654296875,0.0012825545854866505,0.0002710423432290554,0.000971208093687892
1782987517135494400,1.246494384765625,-0.0009054330294020474,-0.0005896907532587647,0.0021499658469110727
1782987517145569500,1.256569580078125,-0.00031607545679435134,-0.002578006824478507,0.0028458498418331146
1782987517155643400,1.266643310546875,0.00011139386333525181,0.004263618495315313,-0.001419919659383595
1782987517165718500,1.276718505859375,0.00030047830659896135,0.0011258821468800306,0.00035134877543896437
1782987517175792400,1.28679248046875,0.001054196385666728,-0.0007957330672070384,0.00015418768452946097
1782987517185867500,1.296867431640625,0.00029199966229498386,-0.0010370154632255435,0.001677782041952014
1782987517195941400,1.30694140625,0.0021890955977141857,-0.0016474315198138356,0.0006614240701310337
1782987517206015500,1.317015380859375,-0.00040881807217374444,0.0013004215434193611,0.0009940528543666005
1782987517216090400,1.32709033203125,-0.00009580457117408514,-0.0017986305756494403,0.001973743550479412
1782987517226164500,1.33716455078125,-0.00006331398617476225,0.0021156833972781897,0.0009673350141383708
1782987517236239400,1.3472392578125,-0.0027200807817280293,0.0011526509188115597,0.0006714944611303508
1782987517246313500,1.3573134765625,0.0007273810915648937,0.0013574478216469288,-0.0011626245686784387
1782987517256387600,1.3673876953125,-0.0012602159986272454,0.0011507314629852772,0.0010254285298287868
1782987517266462500,1.37746240234375,0.0013422250049188733,0.00031236838549375534,0.00022967600671108812
1782987517276536600,1.38753662109375,-0.0016698220279067755,-0.0006013369420543313,0.001187623362056911
1782987517286611500,1.397611572265625,0.0022716564126312733,-0.001433042110875249,0.000286143331322819
1782987517296685600,1.407685546875,-0.0008321510977111757,-0.00018060579895973206,-0.001493086339905858
1782987517306759700,1.417759765625,0.0005979663692414761,-0.0002461196854710579,-0.0007255632081069052
1782987517316834600,1.42783447265625,0.0009186064125970006,-0.00003810971975326538,0.0011179315624758601
1782987517326908700,1.43790869140625,0.001180927618406713,-0.0006277334177866578,0.0012590790865942836
1782987517336983600,1.447983642578125,-0.0004438668838702142,-0.000643179751932621,-0.0030222185887396336
1782987517347057700,1.4580576171875,-0.0016018092865124345,0.00282265804708004,-0.001438436796888709
1782987517357131500,1.468131591796875,-0.0012530914973467588,0.0010444289073348045,-0.00015353882918134332
1782987517367206700,1.47820654296875,-0.0005111348000355065,0.00045746820978820324,0.002420939039438963
1782987517377280500,1.488280517578125,0.0007944897515699267,0.0001292126253247261,0.0006871317746117711
1782987517387355600,1.498355712890625,-0.000012714299373328686,-0.0020420625805854797,0.0007265465683303773
1782987517397429500,1.508429443359375,0.0008411658927798271,-0.001891402993351221,-0.0007179974345490336
1782987517407503600,1.518503662109375,-0.0014406305272132158,0.0002867963630706072,0.0009249066933989525
1782987517417578500,1.52857861328125,0.0001839828910306096,0.0001604817807674408,0.0020328315440565348
1782987517427652600,1.538652587890625,-0.000591529649682343,-0.0006235529435798526,-0.0017025182023644447
1782987517437727500,1.5487275390625,0.0012344748247414827,0.00029293843545019627,0.0009146317606791854
1782987517447801600,1.558801513671875,0.000547645497135818,-0.000633042654953897,0.003579124342650175
1782987517457875500,1.56887548828125,-0.0009627516265027225,0.0010232231579720974,0.0014881970128044486
1782987517467950600,1.57895068359375,0.0006577819585800171,0.0010615726932883263,0.0027731722220778465
1782987517478024400,1.5890244140625,-0.0002536963438615203,-0.0011600047582760453,-0.0012207385152578354
1782987517488099600,1.599099609375,-0.001409774529747665,-0.0012108711525797844,-0.0009336498333141208
1782987517498173400,1.60917333984375,0.0009157556341961026,-0.0004279506392776966,0.001163251232355833
1782987517508247600,1.61924755859375,-0.00022487621754407883,0.00016806484200060368,0.0009299582452513278
1782987517518322400,1.629322509765625,-0.000919983081985265,0.00023611495271325111,0.0006480244919657707
1782987517528396500,1.639396484375,-0.0011559391859918833,-0.000591062824241817,-0.0013259105617180467
1782987517538471400,1.649471435546875,0.0005009259330108762,-0.00017220573499798775,0.0009842357831075788
1782987517548545500,1.659545654296875,0.00004419381730258465,0.001776962075382471,-0.0023572323843836784
1782987517558619400,1.669619384765625,-0.001461193198338151,-0.00019551790319383144,-0.0017623471794649959
1782987517568694500,1.679694580078125,0.00034682685509324074,-0.0012661087093874812,-0.000935435644350946
1782987517578768400,1.689768310546875,-0.0006719418452121317,0.00027485238388180733,0.001531806425191462
1782987517588843500,1.699843505859375,-0.00007006747182458639,0.002968905959278345,0.0014732168056070805
1782987517598917400,1.70991748046875,0.001005639205686748,0.001157577382400632,-0.002693288028240204
1782987517608991700,1.71999169921875,0.0022019310854375362,-0.0008525766897946596,-0.0013353419490158558
1782987517619066400,1.73006640625,0.002178594470024109,0.002429673448204994,0.0017276215367019176
1782987517629140500,1.740140380859375,0.0007647222373634577,0.0024917246773838997,-0.001576296053826809
1782987517639215400,1.75021533203125,-0.0008326344541274011,-0.0009596830932423472,-0.0002995813556481153
1782987517649289500,1.76028955078125,-0.0003514012787491083,0.0002661698963493109,0.00019976134353782982
1782987517659363600,1.770363525390625,-0.0005266995285637677,0.0013638460077345371,0.00482600973919034
1782987517669438500,1.7804384765625,0.0008895695209503174,0.004274148494005203,-0.001366905402392149
1782987517679512600,1.7905126953125,0.0007686207536607981,-0.0015776653308421373,0.00027445857995189726
1782987517689587500,1.80058740234375,0.0013800826855003834,-0.0005992199294269085,0.002354387193918228
1782987517699661600,1.81066162109375,-0.0018149500247091055,0.0003884031902998686,0.00030075531685724854
1782987517709735400,1.8207353515625,-0.001266072504222393,0.0004978592041879892,0.00043631019070744514
1782987517719810600,1.830810546875,-0.0013356065610423684,-0.0006453209789469838,0.001157271210104227
1782987517729884400,1.840884521484375,-0.0012826096499338746,0.0014532499480992556,-0.0016137479105964303
1782987517739959600,1.85095947265625,0.002347297966480255,-0.0014639552682638168,0.0014860291266813874
1782987517750033400,1.861033447265625,-0.0001837702002376318,0.0020655321422964334,0.0014886923599988222
1782987517760107300,1.871107177734375,-0.0002310787094756961,-0.00017545116133987904,0.0005719108157791197
1782987517770182400,1.881182373046875,-0.0025349794887006283,0.0003388053737580776,0.0013948276173323393
1782987517780256500,1.891256591796875,0.0002458655508235097,-0.0004731279332190752,-0.00042740177013911307
1782987517790331400,1.901331298828125,-0.0002894297940656543,-0.0000169284176081419,0.0018067241180688143
1782987517800405500,1.911405517578125,-0.001541691250167787,0.0014410570729523897,-0.00011919195821974427
1782987517810480400,1.92148046875,-0.0006495323032140732,-0.001290014712139964,-0.0013780681183561683
1782987517820554500,1.931554443359375,0.0007441567722707987,-0.0018056011758744717,0.0006065733032301068
1782987517830628400,1.94162841796875,-0.0012620023917406797,0.0011342624202370644,0.0007474545855075121
1782987517840703500,1.951703369140625,-0.0005772763397544622,-0.0005141217261552811,-0.0011848668800666928
1782987517850777300,1.96177734375,-0.0003863276797346771,-0.0017450348241254687,0.0027155987918376923
1782987517860852500,1.9718525390625,0.0005773588782176375,0.0011306852102279663,0.0007281581638380885
1782987517870926300,1.98192626953125,0.0009254340548068285,0.0000981776975095272,-0.0002260524343000725
1782987517881000200,1.992000244140625,0.0007944596000015736,-0.0009298394434154034,0.0006457348354160786
1782987517891075300,2.002075439453125,0.0033343161921948195,-0.00042943155858665705,0.0016127286944538355
1782987517901149200,2.012149169921875,-0.00023042201064527035,0.0004909178242087364,0.0032289791852235794
1782987517911224300,2.022224365234375,-0.0005782308871857822,-0.0013748927740380168,0.0009370625484734774
1782987517921298400,2.03229833984375,0.0008969297632575035,-0.00022917590104043484,0.0023946180008351803
1782987517931372300,2.042372314453125,0.0010977319907397032,-0.0014766005333513021,0.00032507546711713076
1782987517941447400,2.052447509765625,0.00038797338493168354,0.00026749935932457447,0.0005368462298065424
1782987517951521300,2.062521240234375,0.00013896788004785776,0.0007444713264703751,-0.0003427957999520004
1782987517961596400,2.072596435546875,0.0002716232556849718,0.0003938002046197653,0.0020412602461874485
1782987517971670300,2.082670166015625,0.00037708436138927937,0.00011976086534559727,-0.000676495605148375
1782987517981744400,2.092744384765625,0.0022099234629422426,-0.00019083847291767597,-0.001504565472714603
1782987517991819300,2.1028193359375,-0.0015805537113919854,0.0011695041321218014,0.0032395897433161736
1782987518001893400,2.112893310546875,0.0014227615902200341,0.003959048073738813,-0.002115457784384489
1782987518011968300,2.12296826171875,0.00033352873288095,0.0012064049951732159,0.0014971201308071613
1782987518022042400,2.13304248046875,-0.00032686395570635796,-0.0005401732632890344,0.0009655083995312452
1782987518032116500,2.143116455078125,0.0011687673395499587,-0.0007526935078203678,-0.001219348981976509
1782987518042191600,2.153191650390625,0.0009069073712453246,-0.00011958298273384571,-0.0008818816859275103
1782987518052265500,2.163265380859375,-0.00037220894591882825,0.0011185207404196262,0.001975157530978322
1782987518062340600,2.173340576171875,-0.0024128472432494164,-0.0003471693489700556,-0.0003408171469345689
1782987518072414500,2.18341455078125,0.000794930150732398,-0.00008404906839132309,0.00038675841642543674
1782987518082488300,2.19348828125,-0.0012583034113049507,0.001016142312437296,0.0009024803293868899
1782987518092563500,2.2035634765625,0.0006088388618081808,0.00038603832945227623,-0.00044507914572022855
1782987518102637300,2.21363720703125,0.00010077573824673891,0.0011769444681704044,0.0010627354495227337
1782987518112712400,2.22371240234375,0.0015165121294558048,0.0011684221681207418,-0.002312821103259921
1782987518122786300,2.233786376953125,0.0015036400873214006,0.0007991436868906021,0.0008488912135362625
1782987518132860400,2.2438603515625,0.0016533099114894867,-0.0012022218434140086,-0.000014239281881600618
1782987518142935300,2.253935302734375,-0.0016575134359300137,-0.0001821692567318678,0.0004197927191853523
1782987518153009400,2.264009521484375,-0.0010492473375052214,0.0008482076227664948,-0.0014300389448180795
1782987518163084500,2.27408447265625,-0.0017152201617136598,-0.0005208483198657632,-0.002672956557944417
1782987518173158400,2.284158447265625,-0.0026398696936666965,0.00019128108397126198,-0.00015120924217626452
1782987518183232300,2.294232177734375,-0.0016238336684182286,0.0009130358230322599,0.00016088142001535743
1782987518193307400,2.304307373046875,-0.0007367347134277225,-0.0006001722067594528,-0.0006303437403403223
1782987518203381200,2.31438134765625,-0.0014189786743372679,0.00009571108967065811,0.00028237601509317756
1782987518213456400,2.324456298828125,0.00009769154712557793,-0.00032133981585502625,-0.002170395338907838
1782987518223530200,2.3345302734375,-0.001778199803084135,-0.0012187857646495104,-0.00036294024903327227
1782987518233604400,2.344604248046875,0.0011877627111971378,0.00027950876392424107,-0.0014420530060306191
1782987518243679200,2.35467919921875,-0.0007908803527243435,0.0018730349838733673,-0.0009218982886523008
1782987518253753300,2.36475341796875,-0.0016561413649469614,0.0020410805009305477,0.0021921356674283743
1782987518263828200,2.374828125,-0.00233059236779809,0.001541618024930358,0.0009184381924569607
1782987518273902300,2.38490234375,-0.001004071906208992,0.0002007163129746914,0.00006382979336194694
1782987518283976200,2.39497607421875,-0.0002484216820448637,-0.0010065335081890225,0.0018233037553727627
1782987518294051300,2.40505126953125,-0.0013600251404568553,0.00029841531068086624,-0.002355195814743638
1782987518304125200,2.415125244140625,-0.001110051991418004,0.00005443207919597626,-0.0005637102294713259
1782987518314200300,2.425200439453125,0.00005135254468768835,-0.0027221795171499252,0.0002586738846730441
1782987518324274200,2.435274169921875,0.0011111219646409154,-0.002766616642475128,0.0022014726419001818
1782987518334348500,2.4453486328125,0.0016173889162018895,0.0008640708401799202,0.0007242172141559422
1782987518344423200,2.455423095703125,0.00004818325396627188,-0.000979824922978878,-0.0005660396418534219
1782987518354497500,2.46549755859375,-0.000021058949641883373,-0.00043654011096805334,0.001983138034120202
1782987518364572200,2.475572265625,0.00028429483063519,-0.0009398399852216244,-0.0035793292336165905
1782987518374646500,2.485646484375,-0.0000073213595896959305,-0.0002586033660918474,0.0028370246291160583
1782987518384720400,2.495720458984375,-0.0005072945496067405,0.001246843719854951,0.0012204633094370365
1782987518394795500,2.50579541015625,0.0013702339492738247,-0.0004173656925559044,-0.00006824030424468219
1782987518404869400,2.515869384765625,0.0016990767326205969,-0.0007127098506316543,-0.0006845503230579197
1782987518414944500,2.525944580078125,0.0006628407863900065,0.0002833122853189707,0.0013839269522577524
1782987518425018400,2.536018310546875,0.0007952249143272638,0.000603540102019906,0.0016865290235728025
1782987518435092500,2.546092529296875,0.00007936730980873108,-0.0004670505877584219,0.000052146999223623425
1782987518445167400,2.55616748046875,-0.00005241308826953173,-0.0006438109558075666,0.00038226734613999724
1782987518455241500,2.566241455078125,0.0006671730661764741,-0.0016989554278552532,-0.003182640066370368
1782987518465316400,2.57631640625,-0.0009888287167996168,-0.0004935999168083072,0.00123642070684582
1782987518475390500,2.586390380859375,-0.00020106567535549402,0.000720268813893199,-0.0006427057669498026
1782987518485464300,2.59646435546875,-0.00015029811765998602,-0.001587646547704935,0.0009411136852577329
1782987518495539500,2.60653955078125,-0.001599324052222073,-0.0000818953849375248,0.0004436352464836091
1782987518505613300,2.61661328125,0.0033544262405484915,-0.000942321727052331,0.0014830870786681771
1782987518515688400,2.6266884765625,0.0009722288232296705,-0.0007484436500817537,0.0009315464412793517
1782987518525762300,2.63676220703125,0.0006421827711164951,0.0007705481257289648,-0.0004998393123969436
1782987518535836400,2.64683642578125,0.002724774880334735,-0.0019219077657908201,0.0013390734093263745
1782987518545911300,2.656911376953125,-0.0014263238990679383,-0.001171050826087594,-0.0006646747933700681
1782987518555985400,2.6669853515625,-0.001050285529345274,-0.0014749175170436502,-0.000012999269529245794
1782987518566060300,2.677060302734375,-0.00022905541118234396,0.0005223057232797146,0.0009578955941833556
1782987518576134400,2.687134521484375,-0.0015896643744781613,-0.0015261978842318058,0.002631159732118249
1782987518586208300,2.697208251953125,-0.0015208430122584105,0.0003062179312109947,0.00048342201625928283
1782987518596283400,2.707283447265625,-0.0010452023707330227,0.0013656234368681908,-0.002488665748387575
1782987518606357200,2.717357177734375,0.0010036290623247623,-0.0006458449643105268,0.0003326346050016582
1782987518616431900,2.727431884765625,0.0012955116108059883,0.002911339281126857,0.002837337553501129
1782987518626506000,2.737506103515625,0.001439674524590373,-0.00017614243552088737,0.0013530029682442546
1782987518636580000,2.747580078125,-0.0012266823323443532,0.0005743363872170448,-0.002805523108690977
1782987518646655000,2.757655029296875,0.0012663350207731128,0.000640493119135499,0.0009422588045708835
1782987518656729000,2.76772900390625,0.0011259863385930657,-0.0038416069000959396,0.002508463803678751
1782987518666804000,2.777803955078125,-0.0005203480250202119,-0.0002028557937592268,0.0011278598103672266
1782987518676878000,2.787878173828125,-0.0009392632637172937,0.0007162010297179222,0.0023356033489108086
1782987518686952200,2.7979521484375,0.00040754955261945724,-0.002112078946083784,-0.0003498336300253868
1782987518697027000,2.808027099609375,0.0009934449335560203,0.0009936995338648558,-0.000582593958824873
1782987518707101200,2.81810107421875,0.00021445611491799355,-0.0015905541367828846,0.002225808333605528
1782987518717176000,2.828176025390625,-0.00044600781984627247,0.001811101334169507,0.00016824995691422373
1782987518727250200,2.838250244140625,0.0010817984584718943,-0.0011579920537769794,0.0021200019400566816
1782987518737324000,2.848323974609375,0.001122544752433896,0.0007229985203593969,0.00044700418948195875
1782987518747399200,2.858399169921875,-0.0004164546262472868,0.0012944440823048353,-0.001349212252534926
1782987518757473000,2.86847314453125,0.0003960758913308382,0.0003165311645716429,-0.0013505438109859824
1782987518767548200,2.878548095703125,0.0011571379145607352,-0.0012143364874646068,0.0017082724953070283
1782987518777622000,2.8886220703125,0.0014189266366884112,-0.000888099311850965,0.0017620682483538985
1782987518787696000,2.898696044921875,-0.0006314675556495786,0.001103927381336689,-0.00006701199163217098
1782987518797771000,2.90877099609375,0.0017374142771586776,-0.0003826492466032505,0.003925332799553871
1782987518807845000,2.91884521484375,-0.0005066554876975715,-0.00014382461085915565,0.0027208777610212564
1782987518817920000,2.928919921875,-0.0008065274450927973,0.0017036101780831814,0.002698240801692009
1782987518827994000,2.938994140625,-0.0006035114638507366,-0.00013563712127506733,-0.00018162645574193448
1782987518838068000,2.94906787109375,-0.0016887495294213295,-0.0018142275512218475,0.00008309176337206736
1782987518848143000,2.95914306640625,-0.0003126935916952789,-0.0005133792292326689,0.0019331653602421284
1782987518858217000,2.969217041015625,-0.0009678312344476581,0.0006448295898735523,-0.0005118828848935664
1782987518868292000,2.9792919921875,0.0014014686457812786,0.0018574756104499102,0.0005197167629376054
1782987518878366000,2.989365966796875,-0.0011655521811917424,-0.00008210446685552597,-0.000012649179552681744
1782987518888440000,2.999440185546875,0.002391084097325802,0.000026571331545710564,0.0024765043053776026
1782987518898515000,3.009514892578125,-0.001101651811040938,0.0006103361956775188,0.000582730455789715
1782987518908589000,3.019589111328125,0.0015062710735946894,-0.0004954768810421228,-0.0014147768961265683
1782987518918664000,3.029663818359375,0.0010388863738626242,0.0004938873462378979,-0.0005519127007573843
1782987518928738000,3.039738037109375,0.00024534109979867935,0.0008435528725385666,0.0022486166562885046
1782987518938812000,3.04981201171875,0.001499423524364829,-0.000010256655514240265,0.0016861568437889218
1782987518948887000,3.059886962890625,0.0004343390464782715,-0.0005572257796302438,-0.0022394678089767694
1782987518958961000,3.0699609375,0.0010205009020864964,0.0013211017940193415,-0.0012351898476481438
1782987518969036000,3.0800361328125,0.0004795280983671546,0.001102667534723878,0.0033307624980807304
1782987518979110000,3.09010986328125,-0.00023473170585930347,0.0022504902444779873,-0.0002288186806254089
1782987518989184000,3.10018408203125,0.002364478539675474,-0.0023252072278410196,0.00026757584419101477
1782987518999259000,3.1102587890625,0.0013639290118589997,0.0013342425227165222,0.00001750500814523548
1782987519009333200,3.120333251953125,0.0014602005248889327,0.0009104094933718443,0.0006966154323890805
1782987519019408000,3.130407958984375,0.0017177282134070992,-0.0008914853679016232,-0.00045919648255221546
1782987519029482200,3.140482177734375,0.0011365045793354511,-0.00038639362901449203,0.001304640551097691
1782987519039556000,3.15055615234375,-0.0016558198258280754,0.0008791403379291296,-0.0011720991460606456
1782987519049631200,3.16063134765625,-0.0031980734784156084,0.0016857250593602657,-0.0006732448819093406
1782987519059705000,3.170705078125,-0.001580735668540001,0.000018319813534617424,0.0015076176496222615
1782987519069780200,3.1807802734375,-0.0005196311394684017,-0.0002152235247194767,-0.003198834601789713
1782987519079854000,3.19085400390625,-0.0022480227053165436,0.002251130063086748,-0.0008440677775070071
1782987519089928000,3.200927978515625,-0.00032850762363523245,0.0011927406303584576,0.0004537967615760863
1782987519100003000,3.211003173828125,0.0003681753296405077,0.0007509221322834492,0.0006721760146319866
1782987519110077000,3.221076904296875,0.00009408628102391958,-0.0015138195594772696,0.0017751135164871812
1782987519120152000,3.231152099609375,-0.0008750380948185921,-0.0007106101838871837,0.00048028468154370785
1782987519130226200,3.24122607421875,-0.0011106864549219608,0.00048513058573007584,0.0007180348038673401
1782987519140300000,3.251300048828125,0.0008784284582361579,-0.0012123682536184788,-0.00009902298916131258
1782987519150375200,3.261375244140625,0.000428534927777946,-0.00028939126059412956,0.00014995843230281025
1782987519160449000,3.271448974609375,0.0002045630244538188,0.0003010313957929611,0.0001361099857604131
1782987519170524200,3.281524169921875,0.000680251105222851,-0.0007131233578547835,-0.001322168274782598
1782987519180598000,3.291597900390625,-0.0010795657290145755,-0.00007449742406606674,-0.0030433693900704384
1782987519190672000,3.301671875,0.002688141306862235,-0.000041954685002565384,-0.0016551915323361754
1782987519200747000,3.3117470703125,0.0014393848832696676,-0.0011170727666467428,0.0022298279218375683
1782987519210820900,3.32182080078125,-0.0010071798460558057,0.0003204795066267252,-0.0001690983190201223
1782987519220896000,3.33189599609375,0.0002224016934633255,-0.0001977717038244009,0.0013739372370764613
1782987519230969900,3.341969970703125,0.0016009409446269274,0.0007162545807659626,0.00122264982201159
1782987519241044000,3.3520439453125,0.00011729373363777995,-0.00038256566040217876,-0.00041173212230205536
1782987519251118800,3.362118896484375,0.00003938900772482157,0.0005208700895309448,0.001521378057077527
1782987519261193000,3.37219287109375,-8.247443474829197e-7,-0.00002667587250471115,0.0012513335095718503
1782987519271268000,3.38226806640625,0.00016350951045751572,0.000852515920996666,-0.0024498896673321724
1782987519281342000,3.392342041015625,-0.001706562121398747,0.0018083243630826473,-0.001211519818753004
1782987519291415800,3.402415771484375,0.0010811402462422848,0.0001319346483796835,0.0010099174687638879
1782987519301491000,3.412490966796875,0.001155175967141986,0.0013226340524852276,-0.0021262208465486765
1782987519311564800,3.422564697265625,0.0012070774100720882,-0.0011673872359097004,0.0022111639846116304
1782987519321640000,3.432639892578125,-0.00019507692195475101,-0.0007143835537135601,-0.00028368522180244327
1782987519331713800,3.4427138671875,0.00041320209857076406,-0.0009718791116029024,-0.001897038659080863
1782987519341788200,3.4527880859375,0.0010763292666524649,-0.00016707181930541992,0.0007187180453911424
1782987519351862800,3.46286279296875,0.0022143700625747442,-0.0014857732458040118,-0.0005045413272455335
1782987519361937200,3.472937255859375,0.0011914498172700405,-0.0015944303013384342,0.0009737794171087444
1782987519372011800,3.48301171875,0.00046117586316540837,0.0005889809690415859,0.0003219050995539874
1782987519382086100,3.493086181640625,0.00016689655603840947,-0.0007900036871433258,0.0014231221284717321
1782987519392160000,3.503159912109375,0.00008094013901427388,0.0007109690923243761,0.00178922014310956
1782987519402235100,3.513235107421875,-0.0004466320970095694,0.0022979467175900936,-0.00048751619760878384
1782987519412309000,3.52330908203125,0.00036085827741771936,0.00016594934277236462,0.001919685397297144
1782987519422384000,3.533384033203125,0.000606668065302074,-0.00003112456761300564,0.002726356964558363
1782987519432458000,3.5434580078125,-0.0020248147193342447,0.0008113097865134478,-0.00022991887817624956
1782987519442532000,3.553531982421875,0.001243416452780366,-0.002035875804722309,0.00034798705019056797
1782987519452607000,3.56360693359375,0.00006014161044731736,-0.0005284730577841401,-0.0006757521769031882
1782987519462681000,3.57368115234375,0.0016234172508120537,-0.0005159561987966299,0.0004675428499467671
1782987519472756000,3.583755859375,-0.0009741855319589376,-0.0007194214267656207,0.0026950568426400423
1782987519482830000,3.593830078125,-0.00006365077570080757,-0.00038199895061552525,0.0003538720484357327
1782987519492904000,3.603904052734375,-0.0008449110900983214,0.0003375739324837923,-0.0008042186964303255
1782987519502979000,3.61397900390625,0.0016600580420345068,0.002374625764787197,0.000997143448330462
1782987519513053000,3.624052978515625,-0.0003687100834213197,-0.00009522144682705402,-0.0007204558351077139
1782987519523128000,3.634128173828125,0.0015362490667030215,0.00016097468324005604,0.0005618561990559101
1782987519533202000,3.644201904296875,0.0001760621089488268,0.0034033567644655704,0.0016986005939543247
1782987519543276000,3.654276123046875,0.0004578245570883155,-0.001316563575528562,0.0022522718645632267
1782987519553351000,3.664350830078125,0.0003506875364109874,0.0012574398424476385,-0.0013011080445721745
1782987519563425000,3.674425048828125,0.00014988519251346588,0.001204975415021181,-0.0002683341153897345
1782987519573500000,3.6845,-0.0008117716060951352,-0.0002996581606566906,0.0009661474032327533
1782987519583574000,3.694573974609375,0.0009688179125078022,-0.0006099165184423327,0.00003537263546604663
1782987519593647900,3.70464794921875,0.001508887391537428,-0.0007783304899930954,0.0001523659157101065
1782987519603723000,3.714722900390625,-0.00014333758736029267,-0.001194049953483045,0.0014812833396717906
1782987519613796900,3.724796875,0.0012797127710655332,0.0016263937577605247,-0.00009841726568993181
1782987519623871700,3.734871826171875,-0.0004153891932219267,0.0013536857441067696,-0.0030148448422551155
1782987519633945600,3.744945556640625,-0.0010901660425588489,-0.0016604064730927348,-0.0014194154646247625
1782987519644020000,3.75502001953125,0.002200169488787651,0.0022714845836162567,-0.001363755320198834
1782987519654094600,3.765094482421875,-0.00040935579454526305,-0.0027166688814759254,-0.00005447285366244614
1782987519664169000,3.7751689453125,0.00011768372496590018,-0.0021230503916740417,0.0026952410116791725
1782987519674243600,3.78524365234375,0.000854470010381192,0.0010074034798890352,-0.0002552462392486632
1782987519684318000,3.79531787109375,-0.0014254621928557754,-0.0010871726553887129,-0.0016811026725918055
1782987519694391800,3.805391845703125,0.0007736230036243796,0.0006664434913545847,0.0002328171394765377
1782987519704467000,3.815467041015625,-0.0001768592046573758,0.0011215778067708015,-0.001872678054496646
1782987519714540800,3.825540771484375,0.0012805750593543053,-0.0003517193254083395,0.0011391689768061042
1782987519724616000,3.835615966796875,0.0005844246479682624,0.0002711939159780741,0.00031864907941780984
1782987519734689800,3.845689697265625,0.002193321706727147,0.00033335061743855476,0.0014916060026735067
1782987519744764000,3.855763916015625,0.0024356693029403687,-0.0012024942552670836,0.0008271472179330885
1782987519754838800,3.8658388671875,-0.0010042141657322645,0.0002679666504263878,0.000030150295060593635
1782987519764913000,3.875912841796875,0.0005060644471086562,-0.0011437750654295087,-0.00021219735208433121
1782987519774987800,3.88598779296875,-0.00011785503011196852,0.001970388228073716,-0.0004663997096940875
1782987519785062000,3.896061767578125,-0.0011735321022570133,-0.0009612193098291755,0.0011192464735358953
1782987519795135700,3.9061357421875,-0.000911724113393575,-0.00022920523770153522,-0.0010215999791398644
1782987519805211000,3.9162109375,0.0014925777213647962,-0.0006651646690443158,0.0014506124425679445
1782987519815284700,3.92628466796875,-0.0014822303783148527,0.0006385752931237221,-0.0002643291372805834
1782987519825358800,3.93635888671875,0.00018517463468015194,-0.0010240363189950585,0.0007149152224883437
1782987519835433700,3.946433837890625,-0.001351213431917131,0.0008544623851776123,0.0006772906053811312
1782987519845507800,3.9565078125,-0.0006012672674842179,0.0016606010030955076,-0.00043670966988429427
1782987519855582700,3.966582763671875,0.0006939277518540621,0.0013116770423948765,-0.0005531631177291274
1782987519865656800,3.97665673828125,-0.001061627990566194,0.0001332282554358244,0.0016093236627057195
1782987519875731700,3.986731689453125,0.00025845214258879423,-0.001166274189017713,-0.006478774361312389
1782987519885805800,3.996805908203125,0.0021785912103950977,-0.0003612006548792124,0.0006169520784169436
1782987519895879700,4.006879638671875,0.0007357310969382524,-0.0007590602617710829,-0.001207064837217331
1782987519905954800,4.016954833984375,0.0012414653319865465,-0.0016112717567011714,-0.0005364809185266495
1782987519916028700,4.027028564453125,-0.0007453273283317685,0.0005738502368330956,-0.0014794138260185719
1782987519926102800,4.037102783203125,0.0013207531301304698,0.000033228425309062004,0.000281201908364892
1782987519936177700,4.047177734375,-0.0013490496203303337,-0.00009075202979147434,0.002467131707817316
1782987519946251800,4.057251708984375,0.0004837377928197384,-0.001389575656503439,-0.00008364405948668718
1782987519956326700,4.06732666015625,0.0009333252673968673,-0.0013403160264715552,-0.0012943539768457413
1782987519966400800,4.07740087890625,0.0001676664687693119,-0.00026652938686311245,-0.0026003681123256683
1782987519976475600,4.0874755859375,0.00034981220960617065,-0.0006083945045247674,0.00013904421939514577
1782987519986549800,4.0975498046875,0.001726400339975953,-0.0003045278135687113,0.0001435715821571648
1782987519996624000,4.107623779296875,0.00016212265472859144,0.000592848751693964,-0.002204740419983864
1782987520006698800,4.11769873046875,0.0010215246584266424,0.000708163483068347,0.001184664899483323
1782987520016772900,4.12777294921875,-0.0022952151484787464,-0.0001099791843444109,-0.001958382548764348
1782987520026847000,4.137846923828125,0.0033767856657505035,-0.0022365134209394455,0.0009268861031159759
1782987520036921900,4.147921875,0.004367172252386808,-0.0007411107653751969,0.0023991644848138094
1782987520046996000,4.157995849609375,0.0008057270897552371,-0.002928365021944046,0.004253257066011429
1782987520057070800,4.16807080078125,-0.0021155409049242735,-0.00117004313506186,0.0016606950666755438
1782987520067145000,4.17814501953125,-0.00012802379205822945,-0.0004832139238715172,-0.0008024626295082271
1782987520077218800,4.18821875,0.0003640417708083987,0.0005066886078566313,-0.0022269601467996836
1782987520087294000,4.1982939453125,0.00045352394226938486,0.0001684669405221939,-0.00030362518737092614
1782987520097367800,4.208367919921875,0.0004865700611844659,-0.0018187158275395632,0.0007073496817611158
1782987520107443000,4.21844287109375,0.0022578383795917034,0.001302508870139718,-0.00011130599887110293
1782987520117516800,4.228516845703125,0.00026905094273388386,-0.0011150379432365298,0.0005521879065781832
1782987520127590700,4.238590576171875,0.0013385764323174953,-0.00029025692492723465,0.0005998585256747901
1782987520137665800,4.248665771484375,-0.0025309533812105656,-0.000616298639215529,0.0007943329983390868
1782987520147739600,4.25873974609375,-0.0005050869076512754,-0.0014179100980982184,-0.0005100832786411047
1782987520157814800,4.268814697265625,0.001130069955252111,0.0011559848207980394,0.0005856679053977132
1782987520167889000,4.278888916015625,0.0018315467750653625,-0.0014773488510400057,-0.0015139682218432426
1782987520177962800,4.288962646484375,0.000534689286723733,-0.0010323184542357922,0.00041197886457666755
1782987520188038000,4.299037841796875,0.001557609299197793,-0.0007412348641082644,0.00027482607401907444
1782987520198111700,4.30911181640625,-0.0005242364713922143,-0.0015831554774194956,-0.00015798298409208655
1782987520208187000,4.319186767578125,0.000940502155572176,-0.0003269424196332693,0.0016130191506817937
1782987520218260700,4.3292607421875,-0.0002721322816796601,-0.0007674280786886811,-0.00003648528945632279
1782987520228334600,4.33933447265625,-0.000516077852807939,-0.00012667151167988777,-0.00016484965453855693
1782987520238409700,4.34940966796875,-0.0005384288378991187,0.0004224199801683426,0.0019368487410247326
1782987520248483600,4.359483642578125,-0.002535267034545541,0.0005435936618596315,-0.0010016830638051033
1782987520258558700,4.369558837890625,0.001523819169960916,-0.0005607049679383636,0.0015063178725540638
1782987520268632600,4.379632568359375,0.003128373995423317,-0.0016403505578637123,-0.0002910495677497238
1782987520278706700,4.389706787109375,-0.0011135886888951063,0.0007936127949506044,0.002646301407366991
1782987520288781800,4.39978173828125,0.001192708732560277,-0.00005487026646733284,0.0009125836659222841
1782987520298855700,4.409855712890625,0.002581637818366289,-0.0006921048043295741,0.002382902428507805
1782987520308930800,4.419930908203125,0.00026362237986177206,0.001188086811453104,0.001198328216560185
1782987520319004700,4.430004638671875,0.002369961701333523,0.0010305531322956085,0.0013708245242014527
1782987520329078800,4.440078857421875,0.00205331202596426,0.0005945935845375061,0.0001747988280840218
1782987520339153700,4.450153564453125,0.00015627045650035143,0.0006538939196616411,0.0021830610930919647
1782987520349227800,4.460227783203125,0.0001216493546962738,0.0008371192961931229,0.0005763758672401309
1782987520359302700,4.470302734375,-0.00040564750088378787,0.00017435988411307335,0.001402420224621892
1782987520369376800,4.480376708984375,-0.001049067243002355,-0.0005132682854309678,0.0012165314983576536
1782987520379451000,4.490450927734375,0.001659215660765767,-0.0015527536161243916,-0.0009037765557877719
1782987520389525800,4.50052587890625,-0.0008737167809158564,-0.0006520724855363369,-0.000035585995647124946
1782987520399599900,4.510599853515625,0.0003599079791456461,-0.0002707329113036394,0.00012406750465743244
1782987520409675000,4.520675048828125,0.00010530976578593254,-0.0008012346224859357,0.001096920226700604
1782987520419748900,4.530748779296875,-0.001557381940074265,-0.0007550200680270791,-0.0009774331701919436
1782987520429822700,4.54082275390625,0.0012242898810654879,0.0020314452704042196,0.0008076836238615215
1782987520439897900,4.55089794921875,0.0011981282150372863,0.0001074676401913166,-0.0008211793610826135
1782987520449971700,4.5609716796875,0.0001283364836126566,-0.0012611307902261615,-0.00020705438510049134
1782987520460046800,4.571046875,0.0006005134200677276,0.0001899369526654482,-0.00008611650264356285
1782987520470120700,4.58112060546875,-0.0012658298946917057,0.0007087208796292543,-0.0005487075541168451
1782987520480194800,4.59119482421875,0.0005968350451439619,-0.0007791538955643773,0.002295280806720257
1782987520490269700,4.601269775390625,-0.001419976819306612,-0.001694748643785715,0.0007573051261715591
1782987520500343800,4.61134375,0.0016330358339473605,0.0012047919444739819,-0.0002531750360503793
1782987520510418700,4.621418701171875,0.0005501945270225406,-0.0029380214400589466,0.0020824172534048557
1782987520520492800,4.631492919921875,0.002016973216086626,-0.0028050870168954134,-0.0010218860115855932
1782987520530566700,4.641566650390625,-0.0008682953775860369,-0.0006005222676321864,-0.00028019564342685044
1782987520540641800,4.651641845703125,-0.00005005486309528351,-0.0035307512152940035,0.0017894525080919266
1782987520550715600,4.661715576171875,0.0014485057909041643,0.0008173917885869741,0.001692247111350298
1782987520560790800,4.671790771484375,0.0010966871632263064,0.0017703864723443985,0.0006819073460064828
1782987520570864600,4.68186474609375,-0.0002572638331912458,-0.001337522524408996,-0.00017403264064341784
1782987520580938800,4.691938720703125,0.002308442024514079,-0.000359963858500123,0.000769249745644629
1782987520591013600,4.702013671875,0.0004290492506697774,0.00029384205117821693,0.0007460801862180233
1782987520601087700,4.712087646484375,-0.0007914605084806681,0.0012704760301858187,0.0001752819080138579
1782987520611161600,4.72216162109375,0.00044797465670853853,0.0033820962999016047,-0.0013419210445135832
1782987520621237500,4.732237548828125,0.0014661436434835196,0.0005032364279031754,0.0012545244535431266
1782987520631311400,4.742311279296875,-0.00010485498933121562,-0.00017134216614067554,-0.0015055756084620953
1782987520641386500,4.752386474609375,0.00113888387568295,0.00039872946217656136,0.0006929639494046569
1782987520651460400,4.76246044921875,0.00037029548548161983,0.00016330601647496223,0.0021973836701363325
1782987520661534500,4.772534423828125,0.0006447244086302817,-0.001697218744084239,0.00007341423770412803
1782987520671609300,4.782609375,0.001443406566977501,0.00010840455070137978,0.003970417659729719
1782987520681683500,4.792683349609375,0.0009498473955318332,0.00004779268056154251,0.0013040254125371575
1782987520691758300,4.80275830078125,-0.0013977291528135538,0.0023562207352370024,-0.0000667035928927362
1782987520701832400,4.81283251953125,0.0024215129669755697,0.0010515381582081318,0.0025681948754936457
1782987520711906600,4.822906494140625,-0.0003250048612244427,0.0009604580700397491,-0.00033012329367920756
1782987520721981400,4.8329814453125,0.00008980435086414218,0.00014241598546504974,-0.0032323331106454134
1782987520732055600,4.8430556640625,0.0005635807174257934,-0.0018565526697784662,0.0013778649736195803
1782987520742130400,4.85313037109375,0.00014401343651115894,-0.00048088666517287493,-0.0013585090637207031
1782987520752204500,4.86320458984375,0.000465723336674273,-0.0023602794390171766,0.0011914677452296019
1782987520762278400,4.8732783203125,0.0005042874836362898,-0.00006285891868174076,0.0006196566973812878
1782987520772353500,4.883353515625,0.0015535729471594095,-0.0016732723452150822,0.0004912923322990537
1782987520782427600,4.893427734375,-0.0012876137625426054,-0.002654783194884658,0.0002894224599003792
1782987520792502500,4.90350244140625,0.00022879010066390038,0.00041610770858824253,-0.0014682637993246317
1782987520802576600,4.91357666015625,-0.00005893595516681671,0.0002963114529848099,0.0016791909001767635
1782987520812650500,4.923650390625,0.0009743705159053206,-0.0015188991092145443,0.0018459048587828875
1782987520822725600,4.9337255859375,-0.0014126215828582644,-0.0005008385051041842,0.0023484996054321527
1782987520832799500,4.943799560546875,0.0014729134272783995,-0.0002971068024635315,0.0013466184027493
1782987520842874600,4.95387451171875,0.001707635005004704,0.0020160512067377567,-0.0007366598583757877
1782987520852948500,4.963948486328125,0.0005318494513630867,-0.0017139723058789968,0.002778979018330574
1782987520863022300,4.974022216796875,0.0015838153194636106,-0.0021371282637119293,-0.000046163826482370496
1782987520873097500,4.984097412109375,0.0005739444750361145,0.0008970110211521387,0.0017613236559554935
1782987520883171300,4.99417138671875,-0.0020877672359347343,-0.0011826199479401112,-0.0021185295190662146
1782987520893246500,5.00424658203125,0.000001216190867125988,-0.0012348179006949067,-0.0004782885662280023
1782987520903320600,5.014320556640625,-0.0003404883318580687,-0.0035679286811500788,-0.0002464772551320493
1782987520913394400,5.02439453125,0.00044194841757416725,-0.00007679080590605736,0.0002664475468918681
1782987520923469600,5.034469482421875,0.0005175094120204449,-0.0005031509790569544,0.001333710621111095
1782987520933543400,5.04454345703125,-0.0033363508991897106,-0.00006612623110413551,-0.00048602730385027826
1782987520943618600,5.05461865234375,0.0013232501223683357,0.0012970909010618925,0.0015293657779693604
1782987520953692400,5.0646923828125,0.0006856892723590136,-0.0025887275114655495,-0.0008997034747153521
1782987520963766300,5.074766357421875,0.0004517239285632968,0.0005582338199019432,0.0020811271388083696
1782987520973841400,5.08484130859375,0.002738047856837511,-0.0006926528876647353,-0.00023182830773293972
1782987520983915300,5.094915283203125,0.0008812617743387818,0.00034638261422514915,-0.002664322732016444
1782987520993990400,5.104990478515625,0.0019284166628494859,0.0001855276059359312,0.0017445404082536697
1782987521004064300,5.115064208984375,-0.0012549660168588161,-0.002421533688902855,-0.0002934589865617454
1782987521014138400,5.125138427734375,0.0007416057633236051,0.0019665569998323917,0.002819509943947196
1782987521024213500,5.135213623046875,0.0010447535896673799,-0.00015754741616547108,0.001075439271517098
1782987521034287400,5.145287353515625,-0.0003962828777730465,0.0007564492989331484,-0.00043483939953148365
1782987521044362500,5.155362548828125,0.000024707347620278597,-0.0024746370036154985,-0.00008711394912097603
1782987521054436400,5.165436279296875,-0.00039340893272310495,0.0022633930202573538,0.0009531167452223599
1782987521064510500,5.175510498046875,0.0004919585189782083,-0.000795058673247695,-0.0028081517666578293
1782987521074585300,5.18558544921875,0.0003609309787862003,0.00015728757716715336,0.0015967166982591152
1782987521084659500,5.195659423828125,0.0007570180459879339,0.00006479909643530846,0.0017692323308438063
1782987521094734300,5.205734375,0.0014904525596648455,-0.00030724448151886463,0.00028691685292869806
1782987521104808400,5.215808349609375,0.002665956038981676,-0.0017386802937835455,-0.0022253827191889286
1782987521114882600,5.225882568359375,0.00160655053332448,0.0013729571364820004,0.00016107590636238456
1782987521124957400,5.23595751953125,-0.00044106756104156375,0.0005476570222526789,-0.0015551256947219372
1782987521135031600,5.246031494140625,-0.00016809353837743402,0.0017162519507110119,-0.002390825655311346
1782987521145106400,5.2561064453125,0.0014994279481470585,0.0006977992597967386,-0.0006585370283573866
1782987521155180500,5.2661806640625,0.002066148677840829,0.0007734328974038363,-0.0011517545208334923
1782987521165254400,5.27625439453125,-0.00034487643279135227,0.0020874408073723316,0.0018204631051048636
1782987521175329500,5.28632958984375,-0.0002271647099405527,0.002210745122283697,-0.0007774505065754056
1782987521185403400,5.2964033203125,0.0004993457114323974,-0.0008026526775211096,0.0020136279053986073
1782987521195477500,5.3064775390625,-0.00044341327156871557,-0.0015342230908572674,-0.0002037199301412329
1782987521205552400,5.316552490234375,0.0013088275445625186,-0.0022197288926690817,-0.0006039550644345582
1782987521215626500,5.32662646484375,0.00030508218333125114,0.000059670768678188324,-0.0019485850352793932
1782987521225700400,5.336700439453125,0.000009382783900946379,-0.0007551743183284998,-0.0005488459137268364
1782987521235775500,5.346775390625,-0.0007283128798007965,-0.0005221477476879954,-0.00027294247411191463
1782987521245849300,5.356849365234375,-0.001419498585164547,0.001319981412962079,-0.0018127205548807979
1782987521255924500,5.366924560546875,-0.000654904986731708,-0.000014262273907661438,0.0006720087258145213
1782987521265998300,5.376998291015625,0.0005446415743790567,-0.0038645241875201464,-0.0006525013595819473
1782987521276072400,5.387072509765625,0.0016333418898284435,-0.001278328476473689,0.0005528453039005399
1782987521286147300,5.397147216796875,-0.00047069709398783743,0.0001533934846520424,-0.00010182506230194122
1782987521296221400,5.407221435546875,0.001379134482704103,-0.0006543431663885713,-0.0008123564184643328
1782987521306296300,5.41729638671875,-0.0009576317970640957,0.0011019078083336353,-0.0022930705454200506
1782987521316370400,5.427370361328125,-0.001130737247876823,0.002502996940165758,0.00036902527790516615
1782987521326444300,5.4374443359375,0.0005003486876375973,-0.0017731654224917293,0.0025423516053706408
1782987521336519400,5.44751953125,0.0008526848978362978,-0.0003427816554903984,-0.0003173508448526263
1782987521346593300,5.45759326171875,0.00010794383706524968,-0.0016508008120581508,0.00270092417486012
1782987521356668400,5.46766845703125,-0.0021056756377220154,-0.0006896660197526217,0.0014897185610607266
1782987521366742300,5.4777421875,0.0005770105053670704,-0.00007432792335748672,0.0014065612340345979
1782987521376816400,5.48781640625,0.001393801998347044,-0.001325214747339487,-0.000144730118336156
1782987521386891300,5.497891357421875,-0.0015795247163623571,0.0010225423611700535,0.001028419123031199
1782987521396965400,5.50796533203125,0.0007640569237992167,-0.001168440212495625,-0.00025016447762027383
1782987521407040300,5.518040283203125,0.0006310307653620839,0.0012888123746961355,0.00043042373727075756
1782987521417114600,5.528114501953125,0.0008550025522708893,-0.0007066942052915692,-0.0016271345084533095
1782987521427188500,5.5381884765625,0.0002709144027903676,-0.00005512824282050133,0.001051227911375463
1782987521437263600,5.548263671875,0.0016749330097809434,0.001055676257237792,-0.000034276527003385127
1782987521447337500,5.55833740234375,0.000977795454673469,0.0015651420690119267,-0.002004951937124133
1782987521457412600,5.56841259765625,0.0010989692527800798,0.0013949661515653133,-0.0024619505275040865
1782987521467486500,5.578486572265625,-0.0010029170662164688,0.00268577691167593,-0.0011648023501038551
1782987521477560600,5.588560546875,-0.0018737707287073135,-0.0012335971696302295,-0.00042444354039616883
1782987521487635500,5.598635498046875,-0.00004188355524092913,-0.0032628944609314203,-0.0006854429375380278
1782987521497709600,5.60870947265625,-0.0007111359154805541,0.00183146633207798,0.000031746305467095226
1782987521507784400,5.618784423828125,-0.0011465870775282383,0.0011694049462676048,0.0004570103483274579
1782987521517858600,5.628858642578125,-0.0007005076040513813,0.0009920382872223854,-0.0003555201110430062
1782987521527932400,5.638932373046875,0.000053748313803225756,0.0008304594084620476,0.000705333543010056
1782987521538007600,5.649007568359375,0.0011264695785939693,0.0008048929739743471,-0.0007439586916007102
1782987521548081400,5.659081298828125,-0.000784750678576529,0.0009992974810302258,0.00005228644295129925
1782987521558155500,5.669155517578125,-0.00031816487899050117,0.0002341712825000286,-0.00106597482226789
1782987521568230400,5.67923046875,0.0009127358207479119,-0.0010005125077441335,0.00034706442966125906
1782987521578305500,5.689305419921875,-0.0020036918576806784,-0.0005483076674863696,-0.001100896275602281
1782987521588379400,5.69937939453125,-0.0017947547603398561,0.0008197743445634842,0.0027345195412635803
1782987521598454500,5.70945458984375,-0.0007246966706588864,-0.0012713398318737745,0.0003475280827842653
1782987521608528400,5.7195283203125,-0.0005498596001416445,-0.0034463072661310434,0.002512273844331503
1782987521618602000,5.72960205078125,-0.00334990699775517,0.0020810835994780064,0.0009857499971985817
1782987521628677000,5.739677001953125,0.00180996663402766,0.0005732376594096422,-0.00019105580577161163
1782987521638751000,5.7497509765625,0.0003614734159782529,-0.0010318494169041514,-0.0026385008823126554
1782987521648826000,5.759826171875,-0.003022635355591774,-0.0007619460811838508,-0.00007131716120056808
1782987521658900000,5.76989990234375,-0.0007901075296103954,-0.0008700704202055931,0.001701016561128199
1782987521668974000,5.77997412109375,0.000474347616545856,-0.0004370625829324126,-0.001433175290003419
1782987521679049000,5.790049072265625,0.00031322636641561985,0.00028012669645249844,0.00008456020441371948
1782987521689123000,5.800123046875,0.0005272680427879095,-0.0016134274192154408,-0.001440953346900642
1782987521699198000,5.810197998046875,0.0015501881716772914,-0.0004256576066836715,0.001379600609652698
1782987521709272000,5.82027197265625,-0.00023124890867620707,-0.001654905267059803,0.002545624505728483
1782987521719346000,5.830345947265625,-0.0014520419063046575,-0.0013425163924694061,-0.001505043706856668
1782987521729421000,5.840421142578125,0.0012419800041243434,0.000006724614650011063,-0.0007303287857212126
1782987521739495000,5.850494873046875,0.0010768641950562596,0.0013886389788240194,0.0015642507933080196
1782987521749570000,5.860570068359375,0.0008900179527699947,0.0009572072885930538,0.0023991120979189873
1782987521759644000,5.870643798828125,-0.001111613935790956,0.001073853811249137,-0.0003625858516898006
1782987521769718300,5.88071826171875,-0.0012149123940616846,0.0012927232310175896,-0.0014828778803348541
1782987521779793200,5.890793212890625,-0.00011822272790595889,-0.00006255949847400188,0.0028415629640221596
1782987521789867300,5.9008671875,0.0016263168072327971,-0.00031651812605559826,-0.0015195532469078898
1782987521799942100,5.910942138671875,0.00045266165398061275,0.00008615176193416119,0.0005960619309917092
1782987521810016300,5.921016357421875,-0.0011763976654037833,-0.0016560119111090899,0.001588048180565238
1782987521820090000,5.931090087890625,0.0004934043390676379,0.0006385676097124815,-0.0012202553916722536
1782987521830165200,5.941165283203125,0.001098786829970777,0.001489492366090417,-0.0003778400714509189
1782987521840239000,5.951239013671875,-0.00027593696722760797,0.0018636665772646666,-0.0006335035432130098
1782987521850314200,5.961314208984375,-0.00007171242032200098,0.001265395199880004,-0.00026496429927647114
1782987521860388000,5.97138818359375,0.0012468185741454363,0.0014904323033988476,-0.0019688548054546118
1782987521870462000,5.9814619140625,-0.0004238454275764525,0.0008349597919732332,-0.0026133498176932335
1782987521880537000,5.991537109375,-0.00006192183354869485,0.0002165737096220255,0.00104370282497257
1782987521890611200,6.001611083984375,0.00005270703695714474,-0.0006242659874260426,0.00045397141366265714
1782987521900686000,6.01168603515625,-0.0005049588507972658,0.0004585753194987774,0.00040763241122476757
1782987521910760200,6.02176025390625,-0.0000942648621276021,0.0008151023648679256,-0.0015224574599415064
1782987521920834000,6.031833984375,-0.0003619125345721841,-0.0010765409097075462,-0.000590084760915488
1782987521930909200,6.0419091796875,-0.0007672305218875408,-0.000020175473764538765,0.0007443486247211695
1782987521940983000,6.051983154296875,0.0014820753131061792,-0.0003112591803073883,-0.00038030429277569056
1782987521951058200,6.06205810546875,-0.00016012904234230518,-0.0009554651333019137,0.0035374187864363194
1782987521961132000,6.072132080078125,0.002020999789237976,0.0008557506371289492,-0.0002397426578681916
1782987521971206000,6.082205810546875,0.0004336932906880975,-0.0004907374968752265,0.0001872685388661921
1782987521981281000,6.092281005859375,0.0009333023335784674,-0.00044040370266884565,0.0012895509134978056
1782987521991355000,6.10235498046875,0.00009595754090696573,-0.0011122249998152256,0.0014123809523880482
1782987522001430000,6.112429931640625,-0.0005820832448080182,-0.000872806878760457,-0.0014457234647125006
1782987522011504000,6.122504150390625,-0.0011780197964981198,-0.000819281442090869,-0.0009033213136717677
1782987522021578000,6.132577880859375,-0.0002041018451564014,-0.0017660352168604732,-0.0009272898314520717
1782987522031653000,6.142653076171875,0.0014470253372564912,-0.0017267030198127031,0.0026228565257042646
1782987522041727000,6.15272705078125,-0.0014571517240256071,0.0013500470668077469,-0.0012549724197015166
1782987522051802000,6.162802001953125,0.0009351280750706792,-0.00028438493609428406,0.0019099463243037462
1782987522061876000,6.1728759765625,0.001740734209306538,-0.0003110163379460573,-0.00151168298907578
1782987522071950000,6.1829501953125,-0.00014502473641186953,-0.0016763405874371529,-0.0023936782963573933
1782987522082025000,6.19302490234375,0.0018198555335402489,0.002893643919378519,0.0007951908046379685
1782987522092099000,6.20309912109375,0.0008329820120707154,-0.0012469908688217402,0.0019075138261541724
1782987522102174000,6.213174072265625,0.0005743890069425106,-0.002777775749564171,-0.000771359889768064
1782987522112248000,6.223248046875,-0.0012664954410865903,0.00022512814030051231,0.0001306453050347045
1782987522122322200,6.233322265625,-0.001547458814457059,-0.0014007317367941141,0.0004520888614933938
1782987522132397000,6.24339697265625,0.0010371878743171692,0.0022749826312065125,0.0009303699480369687
1782987522142471200,6.25347119140625,-0.00031969265546649694,-0.001170881325379014,-0.0004355653072707355
1782987522152546000,6.263546142578125,-0.0012644765665754676,-0.0013401145115494728,0.0011561327846720815
1782987522162620200,6.2736201171875,0.00034780113492161036,0.0008442101534456015,0.001377707812935114
1782987522172694000,6.283694091796875,0.001777706784196198,-0.0006886291084811091,-0.00169193500187248
1782987522182769200,6.29376904296875,0.0006791529012843966,0.0011902309488505125,0.0012780221877619624
1782987522192843000,6.303843017578125,0.0010151488240808249,0.0027807261794805527,0.00031005911296233535
1782987522202917000,6.313917236328125,0.00028357841074466705,0.00029892660677433014,0.0025835996493697166
1782987522212992000,6.323991943359375,-0.0003808214096352458,-0.0005724728107452393,0.002879470121115446
1782987522223066000,6.334066162109375,0.0020261434838175774,0.00041369558311998844,-0.000655609939713031
1782987522233141000,6.34414111328125,-0.0008635286940261722,-0.0011838764185085893,-0.00040880925371311605
1782987522243215000,6.354215087890625,-0.00002836144994944334,-0.001337807159870863,-0.0007563517428934574
1782987522253289000,6.3642890625,0.001632958767004311,-0.0008101969724521041,-0.0011979577830061316
1782987522263364000,6.374364013671875,-0.000011543277651071548,-0.0009129949612542987,0.002029793569818139
1782987522273438000,6.38443798828125,0.0004617167869582772,0.0006999829784035683,0.00007124336116248742
1782987522283513000,6.39451318359375,0.0007434792350977659,-0.0014843418030068278,0.0014190691290423274
1782987522293587000,6.4045869140625,-0.0005998470587655902,0.000254802405834198,-0.0023277485743165016
1782987522303661000,6.4146611328125,0.00036288565024733543,0.0014974332880228758,0.0043160393834114075
1782987522313736000,6.42473583984375,-0.001088469522073865,-0.0009426272008568048,0.00244775484316051
1782987522323810000,6.43481005859375,0.001868970924988389,-0.0016835186397656798,-0.0012308694422245026
1782987522333885000,6.444885009765625,-0.0003145586815662682,-0.0014560229610651731,-0.0015915328403934836
1782987522343959000,6.454958984375,-0.0012466650223359466,-0.0021473795641213655,-0.0016858087619766593
1782987522354033000,6.465032958984375,-0.0009245077380910516,0.00029722205363214016,0.0007415520958602428
1782987522364108000,6.47510791015625,0.0012638116022571921,-0.0023550200276076794,0.0010507451370358467
1782987522374182000,6.485181884765625,-0.0009631146676838398,0.0010955547913908958,-0.0009763354901224375
1782987522384257000,6.495257080078125,0.0015932536916807294,0.00017276941798627377,0.0007445992669090629
1782987522394331000,6.505330810546875,0.0010937991319224238,0.001269342377781868,0.002244099508970976
1782987522404405000,6.515405029296875,-0.002518246416002512,-0.00008301087655127048,-0.0007391733815893531
1782987522414480000,6.52547998046875,0.002196637447923422,0.0001336077693849802,0.0004942914238199592
1782987522424554000,6.535553955078125,-0.00022044760407879949,0.0008950054179877043,-0.00040505806100554764
1782987522434628900,6.54562890625,-0.0018002105643972754,0.0004925171378999949,0.0006602408830076456
1782987522444703000,6.555702880859375,-0.0001085706171579659,-0.0006569031393155456,0.0005968576297163963
1782987522454777000,6.565777099609375,-0.00036781287053599954,-0.00005310331471264362,-0.001141343847848475
1782987522464852000,6.57585205078125,0.0004977144999429584,-0.0008142346050590277,-0.0003208239213563502
1782987522474926000,6.585926025390625,0.001288322382606566,0.0011563531588762999,-0.0005521272541955113
1782987522485001000,6.5960009765625,0.0015330667374655604,-0.0007307628402486444,0.001183188520371914
1782987522495075000,6.606074951171875,-0.0008745678933337331,0.0013181462418287992,0.0004972045426256955
1782987522505149200,6.616149169921875,-0.0005355474422685802,-0.0014518075622618198,-0.001860491931438446
1782987522515224000,6.62622412109375,0.0004602597327902913,-0.00280067534185946,-0.0013589500449597836
1782987522525298200,6.636298095703125,-0.00036745070246979594,-0.001691202400252223,0.001230974099598825
1782987522535373000,6.646373046875,-0.00038126774597913027,0.0013000646140426397,0.0009942847536876798
1782987522545447200,6.656447265625,0.000625140848569572,0.0011088496539741755,0.0023916452191770077
1782987522555521000,6.66652099609375,-0.0003615561290644109,-0.0008296219166368246,-0.0016691797645762563
1782987522565596200,6.67659619140625,0.0002741403877735138,-0.0007254923693835735,-0.002378645585849881
1782987522575670000,6.686669921875,0.0014436347410082817,-0.0005884127458557487,-0.0006785464938730001
1782987522585745200,6.6967451171875,0.001330450177192688,-0.0002123743761330843,-0.00006415527604985982
1782987522595819000,6.706819091796875,-0.0003269034787081182,0.0023163496516644955,-0.0016792742535471916
1782987522605893000,6.71689306640625,-0.0013077456969767809,0.0004761053714901209,0.0018672572914510965
1782987522615968000,6.726968017578125,0.00047397485468536615,-0.0010655428050085902,0.00032841955544427037
1782987522626042600,6.737042724609375,0.0008042068220674992,-0.002871165983378887,0.000042662370105972514
1782987522636117500,6.747117431640625,0.0003278010990470648,0.0027897898107767105,0.000048419253289466724
1782987522646191600,6.757191650390625,0.002011451404541731,-0.0007423606002703309,-0.0005502593703567982
1782987522656265500,6.767265380859375,0.0027680040802806616,-0.002038699109107256,0.0024725052062422037
1782987522666340600,6.777340576171875,0.0016556016635149717,-0.001750545110553503,-0.00245354394428432
1782987522676414500,6.78741455078125,0.0011866748100146651,-0.001102049252949655,0.004189959727227688
1782987522686489600,6.797489501953125,0.0011997242690995336,0.0011456585489213467,0.0007201269036158919
1782987522696563500,6.8075634765625,0.0006177725736051798,-0.00043466174975037575,0.001368874916806817
1782987522706637600,6.817637451171875,-0.0005031518521718681,0.0006258089561015368,0.000018119630112778395
1782987522716712400,6.82771240234375,0.0009779359679669142,-0.00031291902996599674,-0.00159419362898916
1782987522726786600,6.83778662109375,0.001733208540827036,0.0007384968921542168,-0.0017531843623146415
1782987522736860400,6.8478603515625,-0.0013284421293064952,0.0002885174471884966,0.0015890887007117271
1782987522746935600,6.857935546875,0.0017813310259953141,0.0007676202803850174,0.0005272863199934363
1782987522757009400,6.868009521484375,-0.0015276988269761205,0.0006508294027298689,0.0014530557673424482
1782987522767084500,6.87808447265625,-0.0005111702485010028,0.0017690907698124647,0.00016754788521211594
1782987522777158400,6.888158447265625,-0.00028705864679068327,-0.00042277388274669647,-0.0011222598841413856
1782987522787232500,6.898232421875,0.002000596607103944,-0.0016249248292297125,0.000357658660504967
1782987522797307400,6.908307373046875,-0.0005068128812126815,-0.0026956824585795403,0.000989578547887504
1782987522807381500,6.918381591796875,0.0015518105356022716,0.00036242534406483173,0.0023110390175133944
1782987522817456400,6.928456298828125,0.0010278599802404642,-0.0014696181751787663,-0.001596266170963645
1782987522827530500,6.938530517578125,-0.0006605840753763914,0.002222055569291115,-0.0027789759915322065
1782987522837604600,6.9486044921875,0.0001958772772923112,-0.0006458037532866001,0.0012439349666237831
1782987522847679500,6.958679443359375,0.00037271121982485056,0.0016855276189744473,-0.0004271985962986946
1782987522857753600,6.968753662109375,-0.00014285329962149262,-0.0005476853111758828,0.0004640966362785548
1782987522867828500,6.978828369140625,0.00009257008787244558,0.0008568658959120512,0.0010888741817325354
1782987522877902600,6.988902587890625,-0.0012753370683640242,-0.0003198273479938507,0.001632943283766508
1782987522887976400,6.9989765625,0.0006128441309556365,0.0019276142120361328,-0.0007961259689182043
1782987522898051600,7.009051513671875,0.0013829738600179553,0.0005283784121274948,-0.0006641271174885333
1782987522908125400,7.01912548828125,0.0036392039619386196,0.0005459552630782127,0.00005332843284122646
1782987522918200600,7.02920068359375,-0.0005476155201904476,0.0032348388340324163,-0.0012132879346609116
1782987522928274700,7.039274658203125,-0.0001540003577247262,0.002523774513974786,0.0006591806304641068
1782987522938348500,7.0493486328125,0.001966807059943676,-0.000760700786486268,0.0017741883639246225
1782987522948423700,7.059423583984375,-0.0005512119387276471,-0.0003337960224598646,-0.0033374829217791557
1782987522958497500,7.06949755859375,-0.00015761476242914796,0.001179687213152647,-0.000534803606569767
1782987522968572700,7.07957275390625,0.00036676169838756323,-0.0006256697233766317,0.002146200742572546
1782987522978646500,7.089646484375,-0.0010484809754416347,0.0009586033411324024,-0.002494432730600238
1782987522988720400,7.099720458984375,0.00048070610500872135,-0.0014211974339559674,0.0004038852930534631
1782987522998795500,7.10979541015625,-0.000578580831643194,0.0005273132119327784,0.00026872576563619077
1782987523008869400,7.119869384765625,0.001905349432490766,-0.0004218374378979206,-0.0015004121232777834
1782987523018944500,7.129944580078125,-0.0012712444877251983,-0.0006076690042391419,-0.0005178728024475276
1782987523029018400,7.140018310546875,-0.0011079927207902074,-0.001074787462130189,-0.0002813840692397207
1782987523039092500,7.150092529296875,0.0025179097428917885,-0.0011089736362919211,-0.0008623636676929891
1782987523049167600,7.160167724609375,0.0007197433151304722,0.00014138035476207733,0.0023576645180583
1782987523059241500,7.170241455078125,0.00042853038758039474,0.0014775528106838465,-0.0007088127313181758
1782987523069316600,7.180316650390625,-0.00045084540033712983,-0.0021342262625694275,0.0004547223506961018
1782987523079390500,7.190390380859375,-0.00001665228046476841,0.0006816620007157326,0.00209443480707705
1782987523089464300,7.20046435546875,0.0007697792025282979,0.0023131147027015686,-0.0004174587957095355
1782987523099539500,7.21053955078125,0.0006154166767373681,-0.001355570275336504,-0.0011673815315589309
1782987523109613300,7.22061328125,-0.0012509265216067433,0.00019172625616192818,0.0014289341634139419
1782987523119688400,7.2306884765625,-0.0006768921157345176,-0.0008991766953840852,0.0004985418636351824
1782987523129762300,7.24076220703125,0.0011910489993169904,0.001742146210744977,0.0009984172647818923
1782987523139836700,7.250836669921875,-0.001160903018899262,0.0018543584737926722,-0.0027974173426628113
1782987523149911300,7.260911376953125,0.000023138360120356083,-0.0017912429757416248,0.0018218355253338814
1782987523159985700,7.270985595703125,-0.0000751593615859747,0.0010811153333634138,-0.003751973854377866
1782987523170060500,7.281060546875,0.0014106183080002666,0.000912004616111517,0.0027607865631580353
1782987523180134700,7.291134765625,-0.001518146600574255,-0.002789638936519623,-0.0025719443801790476
1782987523190208500,7.30120849609375,-0.0005402337992563844,0.000986989587545395,0.0006078699952922761
1782987523200283600,7.31128369140625,-0.0014895173953846097,-0.0019891008269041777,-0.0007588248699903488
1782987523210357500,7.321357421875,0.00018268136773258448,0.004017658997327089,-0.0033005457371473312
1782987523220431600,7.331431640625,-0.00023369467817246914,-0.0010814029956236482,0.0014096220256760716
1782987523230506500,7.341506591796875,-0.0037386808544397354,0.00009784474968910217,-0.0016700574196875095
1782987523240580600,7.35158056640625,0.0014092510100454092,0.0009872030932456255,0.00007175750215537846
1782987523250655500,7.361655517578125,0.00022680754773318768,0.001000252552330494,-0.0016616940265521407
1782987523260729600,7.3717294921875,0.0002713626017794013,0.000610831193625927,-0.0013944250531494617
1782987523270803500,7.381803466796875,0.0035265441983938217,-0.0016214303905144334,-0.0002913437783718109
1782987523280878600,7.391878662109375,-0.0016022366471588612,0.0016275085508823395,0.0015660275239497423
1782987523290952400,7.401952392578125,0.0014497459633275867,0.0011380198411643505,0.0005316557944752276
1782987523301027600,7.412027587890625,-0.0014671743847429752,0.0004710585344582796,0.0006129469256848097
1782987523311101400,7.422101318359375,-0.0026991525664925575,-0.00033028656616806984,0.002215104643255472
1782987523321175600,7.432175537109375,0.0004356058780103922,-0.0008730889530852437,-0.0001699651184026152
1782987523331250400,7.44225048828125,-0.0012701487867161632,0.0015834108926355839,0.001587721286341548
1782987523341324500,7.452324462890625,0.00003124249633401632,0.00008962373249232769,0.0011552281212061644
1782987523351399400,7.4623994140625,-0.0004377402365207672,-0.00032449793070554733,0.0005703979986719787
1782987523361473500,7.4724736328125,0.001596692600287497,0.00024224678054451942,-0.002545492723584175
1782987523371547400,7.48254736328125,-0.0008486219448968768,0.0014776871539652348,-0.0005973903462290764
1782987523381622500,7.49262255859375,-0.0015351007459685206,0.0018084868788719177,0.0004111056332476437
1782987523391696400,7.5026962890625,0.0004960922524333,0.001195959746837616,0.00147370679769665
1782987523401771500,7.512771484375,-0.0023655183613300323,0.0009888799395412207,-0.0007574692135676742
1782987523411845400,7.522845458984375,0.0011764861410483718,-0.00018770480528473854,0.0025717485696077347
1782987523421919500,7.53291943359375,0.000940981786698103,-0.0013307268964126706,-0.0015950282104313374
1782987523431994400,7.542994384765625,0.001458700280636549,-0.0020148931071162224,0.0009152674465440214
1782987523442068500,7.553068359375,-0.0001882548094727099,0.00045839673839509487,-0.0015191432321444154
1782987523452143400,7.563143310546875,0.002336688106879592,0.0012157999444752932,0.0021411054767668247
1782987523462217500,7.573217529296875,-0.0004108432913199067,-0.0013766224728897214,-0.00193733477499336
1782987523472291600,7.58329150390625,-0.00034905795473605394,0.001114231999963522,-0.0025051208212971687
1782987523482366500,7.593366455078125,0.0013393014669418335,0.00033549778163433075,0.002215237822383642
1782987523492440600,7.603440673828125,-0.0010128023568540812,0.00145189487375319,0.0010525016114115715
1782987523502515500,7.613515380859375,0.0013374930713325739,-0.00004364713095128536,-0.0011232920223847032
1782987523512589600,7.623589599609375,0.0009569274261593819,-0.0004473823355510831,0.004436057060956955
1782987523522663700,7.63366357421875,0.000438283896073699,0.0005340443458408117,-0.0008071158081293106
1782987523532738600,7.643738525390625,0.0005229724338278174,-0.00010697846300899982,0.002866448601707816
1782987523542812700,7.653812744140625,-0.0014475843636319041,0.00019757216796278954,-0.0003417167463339865
1782987523552887600,7.663887451171875,0.0012653777375817299,-0.0006881951121613383,0.0003781357081606984
1782987523562961700,7.673961669921875,0.0014094015350565314,-0.00003061257302761078,0.0006696844357065856
1782987523573035500,7.684035400390625,0.0021122097969055176,0.001354497391730547,0.001206045038998127
1782987523583110700,7.694110595703125,0.0015242865774780512,0.003028256818652153,-0.0024232794530689716
1782987523593184500,7.7041845703125,0.00042280321940779686,-0.004764152690768242,0.0009980836184695363
1782987523603259600,7.714259765625,-0.002071705413982272,0.0013621773105114698,0.0011293295538052917
1782987523613333500,7.72433349609375,-0.0010277462424710393,-0.0017393401358276606,-0.001797218108549714
1782987523623407600,7.73440771484375,0.0022873985581099987,0.00029441178776323795,-0.0016618042718619108
1782987523633482500,7.744482421875,-0.00022742419969290495,-0.0012369058094918728,-0.00029400477069430053
1782987523643556600,7.754556640625,-0.0014614018145948648,-0.0004981019301339984,-0.0022050212137401104
1782987523653631500,7.764631591796875,0.001748506329022348,-0.0013396608410403132,0.0002693216083571315
1782987523663705600,7.77470556640625,0.0018351355101913214,-0.000459113041870296,0.0023943507112562656
1782987523673779500,7.784779541015625,0.0006681382656097412,0.00010920548811554909,-0.0022890842519700527
1782987523683854600,7.7948544921875,-0.00040228705620393157,0.0006357731763273478,-0.0012337258085608482
1782987523693928400,7.804928466796875,0.0007647101301699877,-0.001127772149629891,0.0018707209965214133
1782987523704003600,7.815003662109375,-0.0014790412969887257,0.0007312397938221693,-0.0004773762193508446
1782987523714077400,7.825077392578125,0.0015050306683406234,0.0007328377105295658,0.0011434236075729132
1782987523724151600,7.835151611328125,0.0011055089998990297,-0.00028558983467519283,-0.0015382827259600163
1782987523734226400,7.845226318359375,0.0005318641196936369,-0.0024475438985973597,-0.0011374769965186715
1782987523744300500,7.855300537109375,-0.0011897938093170524,0.00017448910512030125,-0.0009486522758379579
1782987523754374400,7.86537451171875,-0.0007956459885463119,-0.00020820717327296734,0.0003869230276905
1782987523764449500,7.875449462890625,0.00022732210345566273,0.001874721609055996,-0.0009706829441711307
1782987523774523400,7.8855234375,-0.0002461879630573094,0.0013170556630939245,-0.0011959864059463143
1782987523784598500,7.8955986328125,0.0025766491889953613,-0.000012064585462212563,-0.0006949526723474264
1782987523794672400,7.90567236328125,0.0018192462157458067,0.00007395539432764053,-0.00010053510777652264
1782987523804746800,7.915746826171875,-0.0017976085655391216,0.0012138690799474716,0.0009440354770049453
1782987523814821400,7.9258212890625,-0.0003371309721842408,0.0023350596893578768,0.00018609980179462582
1782987523824895700,7.935895751953125,0.0012169904075562954,-0.00046652136370539665,0.00047890847781673074
1782987523834970400,7.945970458984375,-0.0002970165805891156,-0.0026114312931895256,0.00010047329124063253
1782987523845044700,7.956044677734375,-0.002623628592118621,-0.0018559966702014208,-0.0005929396138526499
1782987523855118600,7.96611865234375,0.00008507247548550367,0.0010484468657523394,-0.0003987952077295631
1782987523865193700,7.97619384765625,0.00044017669279128313,0.00002311868593096733,0.0004703463055193424
1782987523875267600,7.986267578125,-0.001184351509436965,-0.00044852704741060734,-0.0010593733750283718
1782987523885342700,7.9963427734375,-0.0003959440509788692,-0.0013041632482782006,-0.0027003104332834482
1782987523895416600,8.00641650390625,0.001288505271077156,-0.0013576927594840527,-0.001495230128057301
1782987523905490700,8.01649072265625,0.001308790990151465,-0.001150640076957643,-0.0027090185321867466
1782987523915565600,8.026565673828125,-0.0002012212062254548,-0.0009820619598031044,-0.0012629219563677907
1782987523925639700,8.0366396484375,-0.0008131478098221123,0.00024328404106199741,-0.00015660343342460692
1782987523935714600,8.046714599609375,0.0021695925388485193,-0.00040386407636106014,-0.001545175677165389
1782987523945788700,8.05678857421875,0.002541367430239916,-0.0009141818154603243,0.002411749679595232
1782987523955862500,8.066862548828125,0.000546393683180213,-0.0014931530458852649,0.0022146757692098618
1782987523965937700,8.076937744140626,0.00036902399733662605,-0.00013205409049987793,-0.0019954040180891752
1782987523976011500,8.087011474609374,-0.001350579084828496,-0.0004966408014297485,-0.0029605336021631956
1782987523986086700,8.097086669921875,0.0003852933878079057,-0.0005864087725058198,0.0005181482410989702
1782987523996160500,8.107160400390624,0.000508331460878253,0.000746237114071846,0.003372790524736047
1782987524006234600,8.117234619140625,0.0017099782126024365,-0.0008930631447583437,0.0010021488415077329
1782987524016309500,8.1273095703125,0.0007784045301377773,0.0022268302273005247,-0.00022556845215149224
1782987524026383600,8.137383544921875,-0.00012072955723851919,0.0000628612469881773,0.004676313605159521
1782987524036458500,8.14745849609375,-0.0004637446836568415,0.0004719228018075228,-0.0011770478449761868
1782987524046532600,8.15753271484375,0.00030296784825623035,-0.0002413403708487749,0.0014260782627388835
1782987524056606500,8.1676064453125,-0.00013166002463549376,0.0011799884960055351,-0.0016155180055648088
1782987524066681600,8.177681640625,-0.0028879609890282154,0.0022860972676426172,-0.00009822803258430213
1782987524076755500,8.18775537109375,0.0003855964168906212,-0.0007389875827357173,0.001381690613925457
1782987524086830600,8.19783056640625,0.0010452615097165108,-0.0008553677471354604,-0.0015507161151617765
1782987524096904400,8.207904541015624,0.0004687058972194791,0.0009373954962939024,0.0004528852878138423
1782987524106978600,8.217978515625,0.00005809694994240999,-0.00008588307537138462,-0.0007737909909337759
1782987524117053400,8.228053466796876,-0.001605047145858407,0.00006325403228402138,-0.0021972504910081625
1782987524127127600,8.23812744140625,0.0015750431921333075,-0.0016599385999143124,0.0015558893792331219
1782987524137202400,8.248202392578126,-0.0012292653555050492,0.0007712612859904766,0.001821673009544611
1782987524147276500,8.258276611328125,-0.0019328473135828972,-0.00010394537821412086,0.004766147583723068
1782987524157350700,8.2683505859375,-0.0015642658108845353,0.0010185770224779844,-0.0006461945013143122
1782987524167425500,8.278425537109374,-0.0012482579331845045,-0.000006356276571750641,0.0007096543558873236
1782987524177499600,8.288499755859375,0.0011967902537435293,-0.0004873231519013643,-0.002448055660352111
1782987524187574500,8.298574462890626,0.00040836993139237165,-0.0006683700485154986,0.0007510764990001917
1782987524197648600,8.308648681640625,0.0006230206927284598,0.0000847717747092247,-0.0008289769757539034
1782987524207722800,8.31872265625,0.00022151507437229156,0.0032425960525870323,-0.0021751043386757374
1782987524217797600,8.328797607421874,0.0006601376226171851,-0.0012978272279724479,-0.00045177285210229456
1782987524227871700,8.338871826171875,-0.0023861550725996494,-0.0005401126109063625,0.0005295370356179774
1782987524237946600,8.348946533203126,-0.0006348603055812418,0.001071099890395999,0.0012565799988806248
1782987524248020700,8.359020751953125,-0.00043365824967622757,0.000001560896635055542,0.002121008699759841
1782987524258094600,8.369094482421875,-0.0012720213271677494,0.001190396025776863,-0.0010244506411254406
1782987524268169700,8.379169677734374,-0.0023277276195585728,0.0013657675590366125,-0.0026905552949756384
1782987524278243600,8.38924365234375,-0.0006533983396366239,-0.0007141612004488707,0.0013547864509746432
1782987524288318700,8.399318603515624,0.0008821878582239151,0.0003142617642879486,0.0008827479905448854
1782987524298392600,8.409392578125,0.0011847229907289147,-0.002931066323071718,-0.0005108841578476131
1782987524308466700,8.419466796875,-0.0013470363337546587,-0.00020890356972813606,-0.0012546023353934288
1782987524318541600,8.42954150390625,-0.0015675460454076529,0.0004494297318160534,-0.003144647693261504
1782987524328615700,8.43961572265625,-0.0006481240270659328,0.0009967721998691559,-0.0013218357926234603
1782987524338689500,8.449689453125,0.0022584497928619385,-0.0007862141355872154,0.0019091111607849598
1782987524348764700,8.4597646484375,0.000159823102876544,-0.0020882433746010065,-0.0005307677784003317
1782987524358838500,8.469838623046876,-0.00045163865434005857,-0.0011657243594527245,-0.0006064015324227512
1782987524368913700,8.47991357421875,-0.003466548165306449,-0.000004352303221821785,0.0020873260218650103
1782987524378987500,8.489987548828125,0.0013092986773699522,0.0011959343682974577,0.0007035474409349263
1782987524389061400,8.500061279296874,0.00013192999176681042,-0.0013655598741024733,0.0015374693321064115
1782987524399136500,8.510136474609375,0.0027207888197153807,0.0009449985809624195,0.002396072493866086
1782987524409210400,8.52021044921875,-0.0013962183147668839,-0.0016757791163399816,-0.001189138274639845
1782987524419285500,8.530285400390625,0.0019495110027492046,0.0011365190148353577,0.0007608282612636685
1782987524429359600,8.540359619140625,-0.001722146407701075,0.00034266430884599686,-0.0016564534744247794
1782987524439433500,8.55043359375,-0.001424671383574605,-0.00016173836775124073,0.0021033971570432186
1782987524449508600,8.560508544921875,0.0003909307415597141,0.0022893166169524193,0.0011867141583934426
1782987524459582500,8.57058251953125,0.002217859262600541,0.0003332248888909817,-0.001192554016597569
1782987524469657600,8.58065771484375,-0.0007931602303870022,0.0010074581950902939,-0.0011742241913452744
1782987524479731500,8.5907314453125,0.0008966155000962317,0.0010415466967970133,-0.0021113904658704996
1782987524489805600,8.6008056640625,0.00019556639017537236,-0.0037538367323577404,0.0008521684794686735
1782987524499880400,8.61088037109375,-0.0002957867691293359,-0.0028606124687939882,0.001077205641195178
1782987524509954600,8.62095458984375,-0.0008340124040842056,0.0002724630758166313,-0.00046377471880987287
1782987524520029400,8.631029541015625,0.0011939846444875002,-0.000329944072291255,0.0006241265800781548
1782987524530103600,8.641103515625,0.002805003896355629,0.0008818558417260647,0.0004390038666315377
1782987524540177700,8.651177734375,-0.0021783029660582542,0.0012890531215816736,-0.0007090848521329463
1782987524550252800,8.661252685546875,0.0013856247533112764,0.000632991548627615,0.00036721047945320606
1782987524560326700,8.67132666015625,0.0008205018239095807,0.0005927779711782932,0.002223433693870902
1782987524570401800,8.68140185546875,-0.0016999200452119112,-0.0015009659109637141,-0.0017523556016385555
1782987524580475600,8.6914755859375,0.0001280737342312932,-0.0023079037200659513,-0.0016729934141039848
1782987524590549500,8.701549560546875,-0.0011734131257981062,0.0017378199845552444,0.0012021259171888232
1782987524600624600,8.711624755859376,0.0028215947095304728,0.000933811767026782,0.00005057505768490955
1782987524610698500,8.721698486328124,0.0012245241086930037,0.0007209719624370337,0.00004263022856321186
1782987524620773600,8.731773681640625,0.0014676707796752453,-0.0024833434727042913,-0.001981372246518731
1782987524630847700,8.74184765625,0.0015414294321089983,-0.0007098634960129857,-0.0007642018026672304
1782987524640921600,8.751921630859375,-0.00035633909283205867,-0.00008961325511336327,-0.0010510243009775877
1782987524650996700,8.761996826171876,-0.0010224016150459647,0.0002777290064841509,0.0005093576037324965
1782987524661070600,8.772070556640625,-0.00027112383395433426,0.0023416788317263126,-0.00021768533042632043
1782987524671144700,8.782144775390625,-0.0006739490199834108,0.002595167374238372,-0.000389060121960938
1782987524681219600,8.792219482421874,-0.00044358556624501944,0.001512326067313552,-0.0013898761244490743
1782987524691293700,8.802293701171875,0.0004704720340669155,0.0010673543438315392,0.0013202168047428131
1782987524701368600,8.81236865234375,0.0017756873276084661,0.0009610941633582115,-0.00019006193906534463
1782987524711442700,8.822442626953125,0.00012629636330530047,0.0016690792981535196,0.0008953518117778003
1782987524721516500,8.8325166015625,0.0011353681329637766,-0.0009567973902449012,-0.0011901695979759097
1782987524731591700,8.842591796875,0.001020095543935895,-0.0003205651883035898,0.0002995668910443783
1782987524741665500,8.85266552734375,-0.0021733008325099945,-0.00037995364982634783,0.0020897439680993557
1782987524751740700,8.86274072265625,0.0011259575840085745,0.0010339745786041021,-0.000781790935434401
1782987524761814500,8.872814453125,0.0019776364788413048,-0.0007495443569496274,-0.002464110031723976
1782987524771889700,8.8828896484375,0.0016143459361046553,0.0016496656462550163,-0.002771427622064948
1782987524781963500,8.892963623046874,0.002845791634172201,0.0006704216357320547,-0.002589800162240863
1782987524792037600,8.90303759765625,-0.000007597147487103939,0.001319860341027379,-0.0003730771131813526
1782987524802112500,8.913112548828124,0.002654232317581773,-0.00021731620654463768,-0.004777146503329277
1782987524812186600,8.9231865234375,0.00164459936786443,-0.0009738880908116698,-0.0007781495805829763
1782987524822260700,8.9332607421875,-0.00006621540524065495,0.0024088590871542692,0.0008943155407905579
1782987524832335600,8.943335693359375,-0.0010495559545233846,-0.001182281645014882,0.0017344633815810084
1782987524842409700,8.95340966796875,0.0001115822815336287,-0.001744208624586463,-0.001229368499480188
1782987524852484600,8.963484619140624,-0.00007323262980207801,-0.0017488431185483932,-0.0017339454498142004
1782987524862558700,8.973558837890625,0.0012327814474701881,-0.0005994228413328528,-0.0014199587749317288
1782987524872632800,8.9836328125,-0.00023034680634737015,0.0010068339761346579,-0.0013122798409312963
1782987524882707700,8.993707763671875,-0.0014833640307188034,-0.00009624729864299297,0.001196950557641685
1782987524892781800,9.00378173828125,-0.0010271257488057017,0.0001702592708170414,-0.0001299763098359108
1782987524902856700,9.013856689453124,-0.001411952544003725,0.00174951390363276,-0.0013824609341099858
1782987524912930800,9.023930908203125,0.002430895110592246,-0.000010269694030284882,0.0008127905894070864
1782987524923004700,9.034004638671876,0.0008316668681800365,-0.0017471832688897848,0.0013872345443814993
1782987524933079800,9.044079833984375,0.00022241193801164627,-0.0005740339402109385,0.0001643533178139478
1782987524943153700,9.054153564453125,0.0015393451321870089,0.0008837804198265076,-0.0014793496811762452
1782987524953228800,9.064228759765625,-0.0008654986158944666,0.00021764705888926983,-0.0001096167106879875
1782987524963302700,9.074302734375,-0.0009115713182836771,-0.0005496097728610039,-0.000003090266545768827
1782987524973376800,9.084376708984376,0.0007929296116344631,-0.0009335597278550267,0.0012977173319086432
1782987524983451600,9.09445166015625,-0.0026159165427088737,-0.002678196644410491,0.0004194067441858351
1782987524993525800,9.10452587890625,0.0010731101501733065,-0.0007124573457986116,0.0013166265562176704
1782987525003600600,9.1146005859375,-0.0007263878942467272,-0.0001350841484963894,-0.0015768979210406542
1782987525013674800,9.1246748046875,0.00030800438253208995,-0.000052818795666098595,-0.002231949009001255
1782987525023748600,9.13474853515625,-0.0011396899353712797,-0.0011979780392721295,0.00039738972554914653
1782987525033823700,9.14482373046875,-0.00014828192070126534,-0.002827645977959037,-0.0005878885858692229
1782987525043897600,9.154897705078126,0.0022320514544844627,-0.001239869394339621,-0.0014693948905915022
1782987525053972700,9.16497265625,-0.0002975260140374303,-0.00036011298652738333,0.0005783983506262302
1782987525064046600,9.175046630859375,0.00034802418667823076,-0.00013933703303337097,-0.0023785093799233437
1782987525074120700,9.18512060546875,0.0016580600058659911,-0.0024281630758196115,0.0035900031216442585
1782987525084195600,9.195195556640625,-0.00018218427430838346,0.0005846710409969091,0.0016482925275340676
1782987525094269700,9.205269775390626,0.00002508860779926181,0.0007631012704223394,0.002727337647229433
1782987525104344600,9.215344482421875,-0.00022977590560913086,-0.0012097683502361178,-0.0033872800413519144
1782987525114418700,9.225418701171876,-0.001317470334470272,-0.00018760934472084045,-0.0012851925566792488
1782987525124492500,9.235492431640624,0.0004564613336697221,0.000020649749785661697,-0.0013874579453840852
1782987525134567700,9.245567626953125,0.0004107020213268697,-0.0007173832273110747,-0.001539882505312562
1782987525144641500,9.2556416015625,-0.00038505051634274423,-0.0011139278067275882,-0.00195720000192523
1782987525154716700,9.265716552734375,0.0027618533931672573,0.00028651440516114235,-0.0009574693394824862
1782987525164790500,9.27579052734375,-0.0015058619901537895,-0.0006535814609378576,0.0002524047449696809
1782987525174864600,9.28586474609375,0.003776725847274065,-0.0008924473077058792,-0.003281263168901205
1782987525184939500,9.295939453125,0.002693884540349245,-0.0016479861224070191,-0.0012820283882319927
1782987525195012600,9.3060126953125,0.0008464159909635782,0.0003121686168015003,-0.0004569019947666675
1782987525205087700,9.316087646484375,-0.0011046158615499735,-0.0006076871650293469,0.0006866593612357974
1782987525215161600,9.32616162109375,-0.000728984538000077,0.000483284005895257,0.0018793086055666208
1782987525225236700,9.33623681640625,-0.0009707995341159403,-0.0008855807827785611,0.00013147603021934628
1782987525235310600,9.346310546875,-0.0005217011785134673,-0.0006233686581254005,-0.000902727129869163
1782987525245384700,9.356384765625,0.0011779282940551639,-0.0003437367267906666,0.000546032446436584
1782987525255459600,9.36645947265625,0.0008222428732551634,-0.0003802758874371648,-0.0016590235754847527
1782987525265533700,9.37653369140625,-0.0015921789454296231,-0.0008138384437188506,-0.0037285659927874804
1782987525275608600,9.386608642578125,0.0003612729487940669,0.0006033703684806824,0.002330214949324727
1782987525285682700,9.3966826171875,0.001052096951752901,-0.0010563116520643234,-0.00101045414339751
1782987525295756500,9.406756591796874,-0.0009748286101967096,0.0014536732342094183,-0.002295198617503047
1782987525305831700,9.416831787109375,-0.00019558763597160578,-0.00045927532482892275,0.0010822223266586661
1782987525315905500,9.426905517578126,0.00018292560707777739,0.00214317231439054,0.0010863415664061904
1782987525325980700,9.436980712890625,0.0015427356120198965,0.0019572835881263018,0.000235727900872007
1782987525336054500,9.447054443359375,-0.0007263594307005405,0.002323298715054989,-0.0006252045277506113
1782987525346128600,9.457128662109374,-0.0010909461416304111,-0.0006634366000071168,-0.0025000697933137417
1782987525356203500,9.46720361328125,-0.0006208221893757582,0.000968732638284564,-0.0013481334317475557
1782987525366277600,9.477277587890624,0.0009166206582449377,-0.0001199676189571619,0.0006207415135577321
1782987525376352500,9.4873525390625,0.0004623502027243376,-0.00024271849542856216,-0.0006623438675887883
1782987525386426600,9.497426513671876,0.0010370603995397687,-0.0013103797100484371,-0.0018495810218155384
1782987525396500500,9.50750048828125,0.0012289482401683927,-0.0012019776040688157,0.0011903945123776793
1782987525406575600,9.51757568359375,-0.00020356621826067567,0.0011658389121294022,-0.0010051155695691705
1782987525416649500,9.5276494140625,-0.001389860874041915,-0.002517844084650278,0.0008924289140850306
1782987525426724600,9.537724609375,0.0018959473818540573,-0.00030848546884953976,0.0001978765067178756
1782987525436798500,9.547798583984376,0.00030507217161357403,0.00031985389068722725,-0.0007471408462151885
1782987525446872800,9.557872802734375,0.0022374617401510477,-0.00161173683591187,-0.0014259805902838707
1782987525456947500,9.567947509765625,-0.0002319103805348277,-0.0006417602999135852,-0.00020527391461655498
1782987525467021800,9.578021728515624,0.0005028557498008013,-0.0016351193189620972,-0.00042205522186122835
1782987525477096400,9.588096435546875,0.0029965084977447987,0.0010529363062232733,-0.0004922415246255696
1782987525487170800,9.5981708984375,0.0004079159698449075,-0.00023843045346438885,0.00024199197650887072
1782987525497244700,9.60824462890625,-0.0011688427766785026,0.0001531804446130991,0.0011785745155066252
1782987525507319800,9.61831982421875,0.0003331801271997392,0.0018301729578524828,-0.000847824732773006
1782987525517393700,9.6283935546875,-0.0011496953666210175,0.0015618486795574427,0.0003280371311120689
1782987525527468800,9.63846875,0.001249812776222825,0.0012665039394050837,-0.00003388647019164637
1782987525537542700,9.648542724609374,-0.0012788160238415003,-0.0010393172269687057,0.0012660912470892072
1782987525547616800,9.65861669921875,0.0004005734226666391,-0.003387958975508809,0.0005824578111059964
1782987525557691600,9.668691650390626,0.000761627743486315,-0.0008731757989153266,-0.0027110246010124683
1782987525567765800,9.678765869140625,0.0016495257150381804,0.00021126330830156803,-0.0013770472723990679
1782987525577840600,9.688840576171875,0.0005564650055021048,-0.0016118786297738552,-0.0008985561435110867
1782987525587914800,9.698914794921874,0.0010073381708934903,-0.0028377315029501915,-0.0008783161174505949
1782987525597989600,9.70898974609375,0.0010998215293511748,-0.0016314141685143113,0.002577076433226466
1782987525608063700,9.719063720703126,-0.002437921706587076,0.00043919356539845467,-0.0013625379651784897
1782987525618137600,9.7291376953125,-0.0011096172966063023,0.0011138916015625,-0.0014772728318348527
1782987525628212200,9.739212158203125,-0.00024116045096889138,0.0015916626434773207,0.0006814855150878429
1782987525638286300,9.749286376953124,0.0011944759171456099,-0.000020247185602784157,0.0016842528712004423
1782987525648361200,9.759361328125,0.000013097713235765696,0.002382190665230155,0.00012364053691271693
1782987525658435300,9.769435302734376,0.000603965949267149,0.00025673815980553627,0.003925954923033714
1782987525668509200,9.77950927734375,0.0011581698199734092,-0.0000013220123946666718,-0.0004126009007450193
1782987525678584300,9.789584228515626,-0.001310237217694521,-0.0004046099493280053,-0.0000263899564743042
1782987525688658200,9.799658203125,0.0012730290181934834,-0.002521822927519679,0.0007890699780546129
1782987525698733300,9.8097333984375,0.0006291783647611737,0.0010573901236057281,-0.0006121789338067174
1782987525708807200,9.81980712890625,0.0022049706894904375,0.0017157234251499176,0.0003454938414506614
1782987525718881300,9.82988134765625,0.00019306165631860495,-0.002435514470562339,0.0003439247375354171
1782987525728956200,9.8399560546875,0.0014050662284716964,0.00184471788816154,-0.0017858050996437669
1782987525739030300,9.8500302734375,-0.0002037106896750629,0.00030466727912425995,-0.0013720599235966802
1782987525749104400,9.8601044921875,-0.0010937390616163611,0.00010040285997092724,-0.0026985802687704563
1782987525759179300,9.87017919921875,-0.001841534860432148,0.0011428389698266983,-0.0011366379912942648
1782987525769253400,9.88025341796875,0.001523102866485715,0.0005452258046716452,0.00047856918536126614
1782987525779328300,9.890328369140626,-0.00146451813634485,0.001341923139989376,-0.0009635747992433608
1782987525789402400,9.90040234375,0.0001618743408471346,-0.0007372066611424088,-0.001746810507029295
1782987525799477200,9.910477294921876,0.0016379568260163069,0.0001505275722593069,-0.001572245266288519
1782987525809551400,9.92055126953125,0.0021423595026135445,0.0003071215469390154,0.0017513798084110022
1782987525819625500,9.93062548828125,0.002041388303041458,0.0005607816856354475,0.0003595683956518769
1782987525829700400,9.940700439453124,0.0015399151016026735,0.0003194992896169424,0.002305540256202221
1782987525839774500,9.9507744140625,0.0010020580375567079,0.0011549652554094791,0.0008802391239441931
1782987525849848300,9.960848388671875,-0.0008024998824112117,-0.0006826157914474607,-0.00022657062800135463
1782987525859923500,9.97092333984375,0.003316540503874421,-0.0008486488368362188,0.00040616258047521114
1782987525869997300,9.980997314453125,0.00005842943210154772,0.00004750490188598633,0.00015342856931965798
1782987525880072400,9.991072509765624,0.000803161587100476,-0.00048071693163365126,0.0010414053685963154
1782987525890146300,10.001146240234375,-0.002350287511944771,0.0008314226288348436,0.0002094338124152273
1782987525900220400,10.011220458984376,0.0009718754445202649,-0.0016276556998491287,-0.0027461687568575144
1782987525910295300,10.02129541015625,-0.001315779983997345,0.0009489527437835932,-0.0009072558605112135
1782987525920369400,10.031369384765625,-0.0009993435814976692,0.0005078746471554041,-0.000050332502723904327
1782987525930444300,10.0414443359375,0.0011716652661561966,-0.00028894306160509586,0.002090049907565117
1782987525940518400,10.051518310546875,0.00011457479558885098,0.0016168311703950167,0.0011682597687467933
1782987525950592300,10.06159228515625,0.002497837645933032,-0.0007517844205722213,0.00017463433323428035
1782987525960667400,10.07166748046875,0.0005556714022532105,-0.0001996345818042755,0.0009105069912038743
1782987525970741200,10.0817412109375,-0.0003844244056381285,0.001256848219782114,-0.0021087187342345715
1782987525980816400,10.09181640625,0.00002328469417989254,-0.0016669642645865679,0.002240303670987487
1782987525990890200,10.10189013671875,-0.0011330598499625921,-0.0011175541440024972,-0.002716904506087303
1782987526000964400,10.11196435546875,0.0026605098973959684,-0.000691272085532546,0.001476624165661633
1782987526011039200,10.122039306640625,0.00024076167028397322,-0.0021536138374358416,-0.002117311814799905
1782987526021113300,10.13211328125,-0.0012982403859496117,0.0028254108037799597,-0.0022823638282716274
1782987526031188200,10.142188232421875,-0.00016799475997686386,0.001692502060905099,-0.0005020408425480127
1782987526041262300,10.152262451171875,-0.0003590186242945492,0.001187642803415656,0.0022172066383063793
1782987526051336200,10.162336181640624,0.0024583395570516586,-0.00042916228994727135,0.0017136030364781618
1782987526061411300,10.172411376953125,-0.0008803901146166027,-0.001275331131182611,0.000971329805906862
1782987526071485200,10.182485107421876,0.00016543327365070581,0.0006607871036976576,0.0031902757473289967
1782987526081560300,10.192560302734375,-0.001868547173216939,0.0006030178628861904,0.00024081503215711564
1782987526091634200,10.20263427734375,0.0005860883393324912,0.00018197228200733662,0.0009540096507407725
1782987526101708300,10.212708251953124,0.0016299199778586626,0.001251583220437169,0.0010182365076616406
1782987526111783200,10.222783203125,0.0015212628059089184,0.022263923659920692,0.037741098552942276
1782987526121857300,10.232857177734376,0.0006525038043037057,-0.018637165427207947,-0.019011877477169037
1782987526131932200,10.24293212890625,0.0050222184509038925,0.00015436578541994095,-0.01331963762640953
1782987526142006300,10.25300634765625,0.0025803784374147654,0.0013400001917034388,-0.011310068890452385
1782987526152080400,10.263080322265624,-0.00037812720984220505,-0.005019095726311207,-0.0032129937317222357
1782987526162155300,10.2731552734375,-0.0010493231238797307,0.0032330877147614956,0.0009807540336623788
