time,seconds_elapsed,z,y,x
1782984707958128600,0.079128662109375,-0.5375391892373561,0.20120704747736454,-0.25267958842543886
1782984707968202500,0.089202392578125,-2.6807453963965178,-0.6752996004596352,0.8522101188093424
1782984707978276600,0.099276611328125,-4.520577728545666,-1.3488652167335151,1.8635029844634234
1782984707988350700,0.109350830078125,-5.799637879908085,-1.0294435855031012,2.1914063205741345
1782984707998424600,0.119424560546875,-8.163307039156555,-1.1002554898291825,1.6198269145689903
1782984708008499700,0.129499755859375,-11.433480801981688,-1.8357184670895337,0.5026793266497552
1782984708018573600,0.139573486328125,-12.873697145462035,-2.21103032784611,-0.6427851319544017
1782984708028647700,0.149647705078125,-12.371440866529941,-3.663521338748932,0.21391714717503635
1782984708038721500,0.159721435546875,-10.031254874199629,-5.632285755759478,2.5314354171559215
1782984708048796700,0.169796630859375,-6.888135127404332,-6.544963495013118,3.6506665333509445
1782984708058869000,0.179868896484375,-5.448924746096134,-7.786571575337648,3.6431557193294166
1782984708068943000,0.189943115234375,-5.935533374041318,-9.722677000805735,-0.5832009432811289
1782984708079017000,0.200016845703125,-7.717873302164674,-6.597847528460622,-5.064433845844865
1782984708089092000,0.210092041015625,-8.261106319129466,-1.7970137656420468,-5.6825838643670075
1782984708099166000,0.220166015625,-6.506725242033601,1.1853610001847148,-2.8639579374998805
1782984708109240000,0.230239990234375,-3.638102235332131,2.8926734521135686,-1.2219719442233443
1782984708119314000,0.24031396484375,-1.447623404866457,3.283945683068037,-1.8135320619836448
1782984708129387800,0.2503876953125,-0.4193208060920238,2.7364807276219127,-2.5365315712511536
1782984708139463000,0.260462890625,-0.9832979203999042,2.541677117446065,-2.1288858592532574
1782984708149536800,0.270536865234375,-2.9492203919827937,3.1374890474319455,-1.4359702303431927
1782984708159611000,0.28061083984375,-4.497785466501116,3.7561505226075647,-0.7578190398447215
1782984708169685000,0.29068505859375,-5.220236401975154,3.658565469907224,-0.4065925496831536
1782984708179759900,0.300759765625,-5.088302797210217,3.2707977399423718,-0.4613144660823047
1782984708189834000,0.310833984375,-3.2943829059302803,2.672552153068781,-0.4343675685763359
1782984708199908000,0.320908203125,-0.7425275088191032,1.7331342909276484,-0.22635142560601232
1782984708209982000,0.33098193359375,2.3876743042141197,1.0006026909440755,-0.15988953318297863
1782984708220057000,0.34105712890625,5.0840153291493655,0.04679857605397701,-0.20442600952386855
1782984708230131000,0.351130859375,6.590251666504145,-0.2084606718674302,0.27031857762634753
1782984708240205000,0.361205078125,6.967956267616152,-0.17238339631408453,0.9917878085866569
1782984708250279000,0.37127880859375,6.430275039559603,-0.2320744794279337,2.1203242210045454
1782984708260354000,0.38135400390625,5.528950468969345,-0.12420739442706108,2.876120961241424
1782984708270428000,0.391427978515625,4.160228751382231,-0.09376900154352187,3.2832208759248256
1782984708280501800,0.401501708984375,2.9465690006911753,-0.13052870640307665,3.1855428842440245
1782984708290576000,0.411575927734375,2.4095523740231988,-0.06467471674531698,2.8645047577276825
1782984708300650000,0.42164990234375,2.1999895861327645,-0.020824030711501837,2.8625144606932995
1782984708310724900,0.431724853515625,1.9419290170550345,-0.28197072923630473,3.1696009264856575
1782984708320799000,0.441799072265625,2.0687731897264716,-0.3141584500052035,3.594878010633588
1782984708330873000,0.451873046875,2.120868703144789,-0.11056012347713112,3.7490234472066164
1782984708340947000,0.461947021484375,2.1540292144685984,0.033205957900732753,3.5910286417290567
1782984708351022000,0.47202197265625,2.370554827108979,0.20346461714580655,3.281489229826629
1782984708361096000,0.482095947265625,2.8938597392886876,0.23009251183047888,2.894278549222648
1782984708371170000,0.492170166015625,3.416197267740965,-0.030834844855219125,2.7415821424141527
1782984708381244000,0.502243896484375,3.6636487645208833,-0.10178367343395948,2.9251132479473947
1782984708391319000,0.512319091796875,3.7481723833352327,0.47447453803718087,3.3913670701280236
1782984708401393000,0.522392822265625,4.052804149451852,1.2993832468144595,3.9132255828917026
1782984708411466800,0.532466796875,4.545768283903598,1.7994687575787305,4.290850104504823
1782984708421540900,0.542540771484375,4.929493460479378,1.7801716441735624,4.034799121683836
1782984708431615000,0.552614990234375,4.921498370072245,1.2769891903072594,2.955543749785423
1782984708441689900,0.56268994140625,4.763755785790085,1.3267290805101395,2.323537932129204
1782984708451764000,0.572763916015625,4.8317906266182655,1.1002815010532736,1.8840679258473216
1782984708461838000,0.582838134765625,4.904354343047737,0.825203453940153,1.459537860674411
1782984708471912000,0.592911865234375,5.514573568570613,1.9572966820567845,1.3746068301029502
1782984708481987000,0.602987060546875,6.324566009375452,2.677583425234258,1.4348194528728722
1782984708492061000,0.61306103515625,7.128693357539176,2.746359732079506,1.359833769993484
1782984708502135000,0.623135009765625,7.365666130402683,2.4085180625393985,0.33193595262765885
1782984708512209000,0.633208984375,6.606259382975101,2.2589412490561602,-0.3112254652932286
1782984708522284000,0.643283935546875,5.1525715635031455,1.5700544372707606,-0.0017440671883523463
1782984708532358000,0.65335791015625,2.4874673883527514,0.557185554471612,1.0993304839387534
1782984708542431700,0.663431640625,-0.8330413079589605,-0.1350549516558647,1.6673095273643732
1782984708552505900,0.673505859375,-4.795293079826235,-2.410655074568093,1.5018193976953624
1782984708562580700,0.683580810546875,-10.597388874280453,-6.3212827499210835,1.6430856250815093
1782984708572654800,0.69365478515625,-16.802951487612724,-8.42811357536316,-0.3716121659884229
1782984708582729000,0.70372900390625,-21.370999407863614,-7.843575319063663,-4.1837089956909415
1782984708592803000,0.713802978515625,-23.49286062917709,-7.546517203071713,-5.443761664244533
1782984708602878000,0.7238779296875,-23.960732992470263,-7.4116463758111,-3.440705978314578
1782984708612952000,0.7339521484375,-23.847866491746903,-6.818026402911544,-1.299928897998482
1782984708623026000,0.74402587890625,-23.355016339063642,-6.768270730617642,-1.4048596372865139
1782984708633100000,0.75410009765625,-20.655434724771975,-5.4887073059082025,-2.4904601404279467
1782984708643174000,0.764173828125,-17.066676073801517,-4.465464328610897,-2.0363759178601204
1782984708653249000,0.7742490234375,-14.098957902097702,-4.231068420498072,-1.578602777646482
1782984708663323000,0.784322998046875,-11.779839247715472,-4.307321639095247,-2.3530939892202616
1782984708673396700,0.794396728515625,-10.22786114988327,-4.7369019733950495,-3.216827957084775
1782984708683470800,0.804470947265625,-9.24291370871067,-3.9019735365152357,-2.786574545828998
1782984708693546000,0.8145458984375,-7.299756611165404,-2.6758240143463015,-0.995129081838578
1782984708703619800,0.824619873046875,-4.9724581574589015,-2.2024776035562157,1.087027759465575
1782984708713694000,0.83469384765625,-2.8809909053653477,-1.9511726462185381,2.029510562135279
1782984708723768000,0.84476806640625,-4.109187715452909,-2.1620050156533717,-0.18671280430927872
1782984708733843000,0.854843017578125,-3.62036784119904,-2.6593676773250103,-3.5272011894628403
1782984708743917000,0.8649169921875,3.5438089176535605,-2.7189950475528835,-3.278645823094249
1782984708753991000,0.874990966796875,5.687514891028404,-2.1901778016924855,-1.7345510258577763
1782984708764065000,0.88506494140625,9.189939658892154,-0.3780971075609326,-0.5013452285017818
1782984708774140000,0.895139892578125,11.943867780399321,1.6337749220311641,1.1375776508770883
1782984708784214000,0.905214111328125,13.826099576860665,3.772437348280847,2.69076556289047
1782984708794287900,0.915287841796875,15.21680691628456,5.510647919559479,4.386806971481442
1782984708804362000,0.925362060546875,16.029806722211838,5.708637174034118,4.080876397725939
1782984708814435800,0.935435791015625,15.406089132690429,6.415405971729755,2.1868312677435577
1782984708824511000,0.945510986328125,13.667093256253004,5.697254779276252,2.111548501613736
1782984708834584800,0.955584716796875,12.2849783886075,6.23723259383738,2.247752038782835
1782984708844659000,0.965658935546875,11.503813982880114,6.37990503475964,0.03492255256026983
1782984708854733000,0.975733154296875,9.844114345997571,3.8134047339633104,-2.4632158674106
1782984708864808000,0.985807861328125,8.610406079012154,3.3291347780987617,-2.5707421761497855
1782984708874882000,0.995882080078125,8.284409453305601,2.4774562819480894,-3.5637013666033743
1782984708884956000,1.005955810546875,7.826409080207347,1.2567238163918255,-4.985451494544744
1782984708895030000,1.016030029296875,8.785870782467722,1.1158645623713732,-4.127544040876627
1782984708905105000,1.02610498046875,10.057311690998077,2.982892067699134,0.06671254271585494
1782984708915179000,1.036178955078125,10.389355195653438,3.9757629953473805,3.0057801913335918
1782984708925252900,1.0462529296875,9.838644390153885,4.392161776512861,3.603478373457491
1782984708935327000,1.056326904296875,8.65616537514627,4.292683165150881,3.28323987288624
1782984708945401900,1.06640185546875,7.693626749658584,3.7462493063181634,2.157579015904665
1782984708955476000,1.07647607421875,7.541791343593597,2.981603196932375,0.7928533822163939
1782984708965549800,1.0865498046875,8.327333818274736,2.447507133886218,0.01382880152929574
1782984708975624000,1.0966240234375,9.4106159614712,2.1767253226622936,0.001775375642068684
1782984708985698800,1.10669873046875,10.120279896086453,2.051324334536493,0.3134668144792318
1782984708995773000,1.11677294921875,10.678214223098754,2.1266417335882783,1.006816597022861
1782984709005847000,1.126846923828125,10.822273149943351,2.3272341562986374,1.3663297078840433
1782984709015921000,1.1369208984375,10.320254186898469,2.3398805796429514,0.9201701408356427
1782984709025995000,1.1469951171875,9.259921542134881,2.4142694656729695,0.40798882634714245
1782984709036070000,1.15706982421875,8.184156350439787,2.270476788549125,0.1776593091567047
1782984709046144000,1.16714404296875,7.02523532115221,2.5987933816358444,0.13681970543921923
1782984709056218400,1.17721826171875,5.465748455125093,2.945517738072574,0.37996746801007536
1782984709066292500,1.18729248046875,3.395220530685782,3.181051125782728,1.3227702598817646
1782984709076367400,1.197367431640625,1.3947376178532838,2.986607288829982,1.9265778647966683
1782984709086441500,1.20744140625,-0.07728782234191894,2.1080936849847434,1.1311623039420693
1782984709096515300,1.217515380859375,-2.0876199290156365,0.3687348204538226,-0.18696750972270965
1782984709106589400,1.22758935546875,-4.664481757089495,-2.123587022192776,-0.7283038262207061
1782984709116664300,1.237664306640625,-7.760480271747708,-7.291074707537889,-2.538550509858131
1782984709126738400,1.247738525390625,-10.865165366208553,-12.694476888865232,-3.4898315360113976
1782984709136812500,1.2578125,-16.29438938653469,-14.054286401200294,1.4376184359416364
1782984709146886400,1.267886474609375,-27.960034099793432,-13.659663983035086,4.917970195946097
1782984709156961500,1.27796142578125,-43.71201055357456,-11.085756913113594,5.139782809078693
1782984709167035400,1.288035400390625,-55.7281673251152,-6.1644274698674675,1.5667463356360791
1782984709177109500,1.298109619140625,-59.64324350430965,-3.13861834372282,-0.9484585160784422
1782984709187183400,1.308183349609375,-53.63250203680992,-2.375745089228451,0.5724902372397482
1782984709197258500,1.318258544921875,-41.1239440253973,-4.057532639278471,0.9387280532460659
1782984709207332400,1.328332275390625,-28.102402589333057,-5.901335336363315,1.3275843821652233
1782984709217406500,1.338406494140625,-17.783834163564443,-5.250450338453054,4.355821466109156
1782984709227480300,1.348480224609375,-11.279140135097503,-3.535031444697082,5.367520720607042
1782984709237554400,1.358554443359375,-7.3016545537412165,-2.302953409262001,3.4852567754417656
1782984709247629300,1.36862939453125,-4.53787665387094,-0.5409986820414662,1.7110016618356108
1782984709257703400,1.378703369140625,0.4942623575687408,1.8370152289018034,-0.4801002689644694
1782984709267777500,1.388777587890625,8.364121287924052,4.204299071516096,-2.612995217728615
1782984709277851400,1.398851318359375,16.495331645596025,6.110667822629213,-3.256984610906243
1782984709287926500,1.408926513671875,23.794969598817826,6.69579995316863,-3.222093914788961
1782984709298000400,1.41900048828125,29.15616462353468,6.015822716286778,-3.656726271781325
1782984709308074500,1.429074462890625,31.126997078990936,5.866335334652662,-3.7225013509839773
1782984709318148400,1.4391484375,29.672629460561275,6.328895563012361,-3.646379357551038
1782984709328223500,1.449223388671875,25.463136619794366,6.855255771109461,-3.734019939342141
1782984709338297300,1.45929736328125,19.90004539629221,7.054897468966245,-3.8000387641727924
1782984709348371500,1.469371337890625,14.18998900310993,7.6302581470757715,-3.8420235102042555
1782984709358445300,1.4794453125,8.703398250964284,8.083837196600436,-3.4828237030759452
1782984709368520400,1.4895205078125,4.21319812502563,8.142602689301967,-2.9427231389179824
1782984709378594300,1.49959423828125,1.297803430277109,7.723094836205243,-2.5359599088430405
1782984709388668400,1.50966845703125,0.3703571609586477,7.001889516878127,-2.155779565267265
1782984709398742500,1.519742431640625,0.96907591830194,6.244111831957102,-1.5080388567321001
1782984709408816400,1.52981640625,2.381882861331105,5.888826567924022,-0.6678425624519586
1782984709418891500,1.5398916015625,4.0152082860291,5.6279614628195755,-0.5716450185872614
1782984709428965400,1.54996533203125,5.274837760734558,5.342839868336916,-1.0245758333362638
1782984709439039500,1.56003955078125,6.806684924685954,5.099697466927767,-1.212519786875695
1782984709449113300,1.57011328125,8.515742174455523,5.054476515454054,-1.0045382768273352
1782984709459188500,1.5801884765625,9.880711261510848,4.818436639526486,-0.6679223496899008
1782984709469262300,1.590262451171875,10.62993622214198,4.48918188880682,-0.7718340481285005
1782984709479336400,1.60033642578125,10.86203700505495,4.294462157522141,-0.9802931125607341
1782984709489410300,1.610410400390625,10.713554416549204,4.535963805986941,-0.5303304634349421
1782984709499485400,1.6204853515625,10.955282274985313,4.228004649013281,-0.32609782105870544
1782984709509559300,1.630559326171875,11.918948443198204,4.020506684698164,-0.19230971100088207
1782984709519633400,1.64063330078125,12.458394342839718,4.032034625406563,0.35247828032094985
1782984709529707500,1.65070751953125,12.469694320011138,3.835900643409788,0.5894022821392864
1782984709539781400,1.660781494140625,12.169017429000139,3.9961899895653126,0.5560672910314053
1782984709549856500,1.6708564453125,11.51836857793331,4.089284745109081,0.4596216176245361
1782984709559930400,1.680930419921875,10.426685101616382,3.9963630080446597,0.45690326204393056
1782984709570004500,1.69100439453125,9.701291682949662,3.8543104525864123,0.18491423045471309
1782984709580078300,1.701078369140625,9.94661610457301,3.5510391611680387,-0.09148680889047682
1782984709590153500,1.711153564453125,10.360005182528495,3.323091990803182,0.24370595357604324
1782984709600227300,1.721227294921875,9.919200858902931,2.9994156247377393,0.4144634657213464
1782984709610301400,1.731301513671875,8.729737391835451,2.214300727818906,0.10613573116362095
1782984709620375300,1.741375244140625,6.256356981024146,1.2613175739228724,-0.5740137204799801
1782984709630450400,1.751450439453125,2.7189690363287924,0.5450362669944763,-0.2973202009942382
1782984709640524300,1.761524169921875,-0.7814251024901866,-0.07276303839385509,0.8541545308753847
1782984709650598400,1.771598388671875,-5.216055901420116,-1.5043410251274705,1.745961039274931
1782984709660672500,1.781672607421875,-9.864524681341647,-3.602141571895778,2.3892891920648514
1782984709670747400,1.791747314453125,-14.231983393752573,-6.61374126316309,1.987657918050885
1782984709680821500,1.801821533203125,-18.945747944927213,-9.724739778554438,1.374781748278439
1782984709690895600,1.8118955078125,-29.452608407020566,-11.842362047123908,-1.093393933496624
1782984709700969500,1.821969482421875,-45.127610342192646,-13.840854078400135,-8.14017107824087
1782984709711044600,1.832044677734375,-54.931426580071445,-13.000032199567556,-10.177351444351672
1782984709721118500,1.842118408203125,-56.909111970162385,-11.194981842464207,-7.561063614818453
1782984709731192300,1.8521923828125,-53.3010173350811,-10.536701473605632,-3.201706083537638
1782984709741266400,1.862266357421875,-46.30730177230835,-10.456680426907539,-0.6860357332032173
1782984709751340300,1.87234033203125,-39.1495717053771,-11.462975776535272,1.1442557404015212
1782984709761415400,1.88241552734375,-33.817209976434704,-11.062395911270379,2.4693670835167167
1782984709771489300,1.8924892578125,-28.96089456489086,-8.767634284031391,1.0293424632161856
1782984709781563600,1.902563720703125,-23.815465274357795,-5.696888868573308,-2.04170120453611
1782984709791637500,1.912637451171875,-16.966624630987642,-2.167902841520309,-4.260455258502066
1782984709801712600,1.922712646484375,-7.849667790719867,0.9955904157400131,-6.418387033367156
1782984709811786500,1.932786376953125,1.9312877960532902,1.9632830629900098,-7.407203424927592
1782984709821860600,1.942860595703125,11.848635136044024,3.704697983267903,-4.198975538405776
1782984709831934500,1.9529345703125,20.19370685558319,6.329636152246594,0.757940182006359
1782984709842009600,1.963009521484375,23.717901556706426,7.558378905779123,1.5417890045121312
1782984709852083500,1.97308349609375,24.15218027795553,7.102900744634867,0.2950393965806812
1782984709862157300,1.9831572265625,24.464109215342997,7.9762477594971655,0.3839816355548799
1782984709872231400,1.9932314453125,24.302977573144435,8.412307518944143,0.939217078872025
1782984709882305300,2.00330517578125,23.741125780427456,8.574507667157054,1.2476879847601055
1782984709892380400,2.01338037109375,22.87222697714567,8.746147843888401,1.5146932000547646
1782984709902454300,2.023454345703125,20.65368817336559,9.62232803635001,0.91384356816262
1782984709912528600,2.033528564453125,17.931873684477804,9.447305815964937,-1.0168411474309862
1782984709922602500,2.0436025390625,14.856211855405569,8.410877193880081,-2.4282709568880496
1782984709932677600,2.053677734375,10.005583841848372,8.04362209059,-2.1573200727075337
1782984709942751500,2.06375146484375,7.482204013115167,7.824925563651323,-2.90186505882889
1782984709952825600,2.07382568359375,6.161898828172683,7.298325117057561,-3.332832171311974
1782984709962899500,2.0838994140625,5.235231726533174,6.983743619334697,-2.457315118934214
1782984709972974600,2.093974609375,5.05330747167468,6.894210063403844,-0.39993557601198554
1782984709983048400,2.10404833984375,5.606545749825239,6.779348004949092,1.1127147200383245
1782984709993122300,2.114122314453125,6.239741361787915,6.254989784324168,1.3502823900550602
1782984710003196400,2.124196533203125,6.72582801168561,5.281030185633897,0.96686342988424
1782984710013271300,2.134271240234375,7.089352696275711,4.468060774844885,0.8403865561552345
1782984710023345400,2.144345458984375,7.381594351896643,3.9222631680890916,0.7026260718677193
1782984710033419300,2.154419189453125,7.429353297415375,3.8597657953828572,0.21377328172493726
1782984710043493600,2.16449365234375,7.175012041121721,3.6843382090672847,-0.045576377315260465
1782984710053567500,2.1745673828125,7.096403783831,3.3649119016617535,-0.2730856311868876
1782984710063642600,2.184642578125,7.405335877490043,3.0965953115075826,-0.5242062449336051
1782984710073716500,2.194716552734375,7.780082797840238,2.824842609424889,-0.5629892357816919
1782984710083790600,2.20479052734375,8.132551250886916,2.4712235250383614,-0.5897452138254419
1782984710093864400,2.214864501953125,8.528966397687793,2.1213217076092956,-0.6824305483181029
1782984710103939600,2.224939697265625,8.836562274307012,1.9104720947787164,-0.6689134065538644
1782984710114013400,2.235013427734375,9.143215317118168,1.8005416475072502,-0.5928756208056584
1782984710124087300,2.24508740234375,9.39919849539995,1.8377026266440748,-0.2321111581765115
1782984710134161400,2.255161376953125,9.261420256260037,1.9964502963155506,0.38367289839927105
1782984710144236300,2.265236328125,8.914468520808219,2.116121800878644,0.9468240467444061
1782984710154310400,2.275310302734375,8.694033041247724,2.129042657250166,0.965513184319064
1782984710164384300,2.28538427734375,8.880518904933332,2.1579361587792634,1.231441929488629
1782984710174458600,2.295458740234375,9.134517046877741,1.9359610485613346,1.0021195252478121
1782984710184533200,2.305533203125,8.655143046361207,2.0644003814697265,1.0660141975313424
1782984710194607600,2.315607666015625,7.955128399100899,2.054985487392545,0.7472381707280874
1782984710204681500,2.325681396484375,6.455671346622705,1.8242375803932547,0.8497470896966755
1782984710214755600,2.335755615234375,4.4462382346153255,1.4542761407539249,1.1056238849945366
1782984710224830500,2.34583056640625,1.7607962048351764,0.22348931417316198,0.9991357601966708
1782984710234904600,2.355904541015625,-1.700031062749028,-1.4279460599720477,0.5173812577517702
1782984710244978400,2.365978515625,-5.557983086708187,-4.197949994750321,-0.9569282382600008
1782984710255052300,2.37605224609375,-10.284320119208097,-7.606327236390113,-1.8906725848093628
1782984710265126400,2.38612646484375,-18.20225246785879,-10.552960534489154,-2.4775232097044584
1782984710275201500,2.396201416015625,-30.506566840577122,-13.574655795574188,-3.5244495526671407
1782984710285275400,2.406275390625,-46.73134668431282,-14.390674072539806,-1.5843511120401321
1782984710295349200,2.416349365234375,-62.93726751379966,-11.147077935516833,2.5038424768313763
1782984710305423600,2.426423583984375,-70.58261275537014,-7.996596135520934,5.779649569368362
1782984710315498200,2.436498291015625,-65.77058539836406,-6.189765324741602,7.618352605226636
1782984710325572600,2.446572509765625,-51.7955414607048,-6.085533965894579,6.995435226172209
1782984710335646500,2.456646484375,-35.231991434407234,-6.771728762117028,2.3876021157607434
1782984710345720600,2.466720458984375,-21.068801590895653,-6.085419984126091,-2.2370909440368414
1782984710355795500,2.47679541015625,-10.767819090700149,-4.93197007972598,-5.575657859608531
1782984710365869600,2.48686962890625,-3.951030120629072,-3.7192706984996793,-7.388955820575356
1782984710375943400,2.496943359375,0.40098903058767316,-2.536115391665697,-7.811043168771267
1782984710386017500,2.507017578125,3.591616963011026,-0.782403592133522,-7.534118909269571
1782984710396091400,2.51709130859375,7.772247866430878,1.250301966650784,-6.528328586554527
1782984710406166500,2.52716650390625,12.422406499135494,2.6850170823663473,-4.9387265682488675
1782984710416240400,2.537240478515625,16.039987924486397,4.719459547945857,-2.0693626800522207
1782984710426314200,2.547314208984375,18.867343685775992,6.323880365198851,1.042213635227084
1782984710436388600,2.557388671875,21.016332567989824,6.779944217276573,2.5770570583850145
1782984710446463200,2.567463134765625,22.151878566908835,6.881005129393935,3.0123814892947673
1782984710456537600,2.57753759765625,22.08978831369877,6.888563581949472,2.4157395382255316
1782984710466611500,2.587611572265625,22.027599860811232,7.413277191883325,1.6892518945813177
1782984710476685600,2.597685546875,21.945418421208856,7.625099741399287,1.2621321051761507
1782984710486760400,2.607760498046875,20.762629025077818,7.91793994743526,0.9762081813346594
1782984710496834600,2.61783447265625,17.729430373203755,8.144472574827075,0.3569823502745479
1782984710506908400,2.627908447265625,13.153126665782928,7.709782934689521,-0.450069360903278
1782984710516982500,2.637982421875,6.561729336374998,7.84206959067583,0.6721146137479692
1782984710527057400,2.648057373046875,2.6606021875560284,6.951500222855806,-0.6161877785384655
1782984710537131500,2.658131591796875,0.9292723157018422,5.996017361098527,-2.0168664768785236
1782984710547205400,2.668205322265625,0.6034528001278638,5.3159378328859805,-1.5732658005326985
1782984710557279200,2.678279296875,1.2066934188097715,4.771435526637733,-0.4427711301865056
1782984710567353600,2.688353515625,2.679791456672549,4.207168489472568,0.22266206956878304
1782984710577428200,2.69842822265625,4.4172436107993125,3.04039791572839,0.029096239293273537
1782984710587502600,2.708502685546875,5.830228833004832,2.175368939617276,-0.4933570792920887
1782984710597576400,2.718576416015625,6.372542397037148,1.731296261845529,-0.7481688757069408
1782984710607650600,2.728650634765625,6.639841919103264,1.3440955181136727,-0.9217408242184668
1782984710617725400,2.738725341796875,7.01382077769041,1.0111997805431485,-0.9692425070405006
1782984710627799600,2.748799560546875,7.337014036414026,0.8634835002347826,-0.916087986088544
1782984710637873400,2.758873291015625,7.790076953110098,0.8833651355296372,-0.7069997569072991
1782984710647947500,2.768947509765625,8.395488486090303,0.8039771260380745,-0.7034943060696125
1782984710658022400,2.7790224609375,9.106503835314511,0.7122565814569592,-0.6740839410595596
1782984710668096500,2.789096435546875,9.85825393050909,0.7438257319360971,-0.4501728212777525
1782984710678170400,2.79917041015625,10.421202286291122,1.1033055250495671,-0.4390977754360065
1782984710688244200,2.809244140625,10.61405008622408,1.3815157327085732,-0.4248783671539277
1782984710698319400,2.8193193359375,10.675827035701275,1.4833619499847293,-0.5322656327486038
1782984710708393200,2.829393310546875,10.708041206085682,1.7384905572637914,-0.8801501190058887
1782984710718467600,2.839467529296875,10.57183942248225,2.0475757956579326,-0.8600315331500024
1782984710728541400,2.84954150390625,10.019608860069512,2.060005069120228,-0.40776572164837266
1782984710738615600,2.859615478515625,9.260970758926868,2.0696084715068337,0.08442170194298959
1782984710748690400,2.8696904296875,8.778456122297047,2.3752561366677285,0.24700817345920947
1782984710758764500,2.8797646484375,8.043459593504666,2.5078502511680125,0.08293637702236883
1782984710768838400,2.88983837890625,6.620487230291962,2.3649719124101103,0.22816972707435487
1782984710778912500,2.89991259765625,4.970170338782668,1.918995885235071,0.7083565783437341
1782984710788987400,2.9099873046875,3.235365484294295,1.2563463613815604,1.4841586533203721
1782984710799061500,2.9200615234375,0.31372692672014235,0.6090533966138959,2.518011871959269
1782984710809135400,2.93013525390625,-3.675283088213205,-1.2690401309989392,3.435930142214894
1782984710819209200,2.940209228515625,-8.118648982262611,-4.662382154461741,3.0923648343309758
1782984710829284400,2.950284423828125,-13.731915564775466,-8.216254785490035,0.9735790018748491
1782984710839358200,2.960358154296875,-22.396517344355583,-10.697316398453712,-1.6865635322801769
1782984710849432600,2.9704326171875,-35.538643308174606,-10.81341647427082,-1.6407599586129187
1782984710859506400,2.98050634765625,-48.94057288534641,-7.870179248350858,2.843057772812247
1782984710869581600,2.99058154296875,-56.43541075458526,-5.443102323552965,8.212295234209298
1782984710879655400,3.000655517578125,-55.632053221750255,-4.331138860273361,11.883629292535781
1782984710889729500,3.0107294921875,-47.07645308415889,-4.586610874162614,12.482417023462057
1782984710899803400,3.020803466796875,-34.09273956670761,-5.675615778920054,9.00790668296218
1782984710909877500,3.03087744140625,-22.015355296266076,-6.763208186531067,4.074010019087791
1782984710919952400,3.040952392578125,-13.26358493632078,-6.597983722060919,0.26941885230764745
1782984710930026500,3.051026611328125,-7.177021627378464,-5.934055702704191,-1.780272035808116
1782984710940100400,3.061100341796875,-3.8268683189094066,-4.491321238923073,-2.5679499150827527
1782984710950174200,3.07117431640625,-2.5603783107846976,-2.4993884200319645,-2.3675417628981172
1782984710960249300,3.081249267578125,-2.870167898055911,0.3102928606182337,-0.7519646147280931
1782984710970323200,3.0913232421875,-3.3834424146085977,3.816177413547039,1.3161600479617714
1782984710980397600,3.1013974609375,-2.710241539993882,5.9724880169510834,1.5859266907937823
1782984710990471400,3.111471435546875,0.26178923421204087,7.50090579097569,0.67306658071056
1782984711000546600,3.121546630859375,5.074189516183734,7.865425916343927,-1.6955996561728417
1782984711010620400,3.131620361328125,11.053885272556542,7.92635063290596,-4.029704428893328
1782984711020694500,3.141694580078125,16.75328816977739,7.972352505624293,-4.5340237778350705
1782984711030768400,3.151768310546875,20.807450163578984,7.999528097319603,-3.6849762147098777
1782984711040843500,3.161843505859375,23.958247605395314,8.482762864917516,-2.1397394078314305
1782984711050917400,3.17191748046875,25.751621553230283,8.095236542493105,-2.2188814797379077
1782984711060991700,3.18199169921875,25.106066225910187,7.379390119850635,-3.6180341375544667
1782984711071065600,3.192065673828125,22.342346193706987,6.73082567384243,-4.739831597106159
1782984711081139700,3.2021396484375,18.4866118457973,6.449857691907883,-4.363505006349087
1782984711091214600,3.212214599609375,14.682294381392001,6.595020196080207,-3.084530779704451
1782984711101288700,3.222288818359375,9.06337196507454,6.359105407837033,-1.6652118244327603
1782984711111362800,3.23236279296875,5.272864999356866,6.275396612536907,-1.0427422622110694
1782984711121436700,3.242436767578125,3.359271265426278,6.675512367421388,-0.7467317555759102
1782984711131511800,3.25251171875,2.635474760562181,5.956714109236001,0.17669702172949908
1782984711141585700,3.262585693359375,3.6881601054430004,5.23665679090023,0.22762502573840318
1782984711151659800,3.27265966796875,5.5199266200363635,4.569916928993165,-0.11273885575570165
1782984711161733600,3.282733642578125,6.747343093401193,3.8587621712982654,-0.24309246132019907
1782984711171808800,3.292808837890625,7.53904467523396,3.301706088425219,0.14025339708179235
1782984711181882600,3.302882568359375,8.0316125038445,2.8916388483688236,0.25191315236389633
1782984711191956700,3.312956787109375,8.006597305053472,2.5714564618989826,0.13196569866994395
1782984711202030600,3.323030517578125,7.913695733994245,2.4917592403277755,0.2224826761475764
1782984711212105700,3.333105712890625,7.92450295921266,2.0780396152436733,-0.06317840463980101
1782984711222179600,3.3431796875,8.12168908061087,1.4798980732664464,-0.7732678072586655
1782984711232253700,3.353253662109375,8.289449785560368,0.6303223946139216,-1.6799373921386898
1782984711242327800,3.363327880859375,8.430213177990913,0.30444121198058127,-1.3570987920716404
1782984711252401700,3.373401611328125,8.863264403271675,0.6003337913244963,-0.5034783680729568
1782984711262476800,3.383476806640625,9.18052710290253,0.5034735457673668,-0.36787049524206666
1782984711272550700,3.393550537109375,8.880555729812382,0.45480566871017214,-0.2693352108784951
1782984711282624800,3.403624755859375,8.411109833592176,0.5429354953229427,-0.18106201200596986
1782984711292698600,3.41369873046875,7.608027610567212,0.728682231079042,0.11833058394868858
1782984711302773800,3.423773681640625,6.587690876105428,0.9127546038821339,0.13947694194973445
1782984711312847600,3.43384765625,5.357306200584769,0.8939432281672954,-0.07433859888119623
1782984711322921700,3.443921630859375,4.355625651276111,0.6847969121232629,-0.3771303814206272
1782984711332995600,3.45399560546875,3.5445284640997645,0.5992743453994392,-0.7838313599143176
1782984711343070700,3.46407080078125,2.6285832474827764,0.4070224655330181,-0.831393906078115
1782984711353144600,3.47414453125,1.7582056038200855,0.05901742163598537,-0.26439481360055506
1782984711363218700,3.48421875,0.13779519027471543,-0.7115262213557958,0.2401816519074142
1782984711373292800,3.494292724609375,-2.8084131604105234,-1.867294631831348,1.0490669351879507
1782984711383366700,3.50436669921875,-6.23204846919775,-4.025380428214371,2.547875679825246
1782984711393441800,3.51444189453125,-10.170945084440708,-6.640742082813381,3.467566220450401
1782984711403515600,3.524515625,-15.882225466459989,-8.401582126790284,2.707313085326552
1782984711413589800,3.53458984375,-24.84221772108078,-9.300525355201959,-0.3811989095011726
1782984711423663600,3.54466357421875,-35.622907983791826,-8.846310345861315,-3.0612980804160235
1782984711433738800,3.55473876953125,-42.18660014467239,-8.818267323681711,-3.35896000752002
1782984711443812600,3.5648125,-41.989649001073836,-9.442710304868221,-2.046402367964387
1782984711453886700,3.57488671875,-38.26209212026596,-9.913540348923206,-0.8680760887220501
1782984711463960600,3.584960693359375,-35.78385024089813,-9.648668930786847,0.03853800311107188
1782984711474035700,3.59503564453125,-35.08574171952009,-8.771260073313117,-0.3478286644168198
1782984711484109600,3.605109619140625,-32.940062400245665,-7.459507612660527,-2.0586888719551264
1782984711494183700,3.61518359375,-26.883024460995195,-6.348477046316861,-4.545090823033452
1782984711504257800,3.6252578125,-17.734352047514914,-5.376832738831639,-6.46427726240456
1782984711514332700,3.635332763671875,-8.997268969091772,-3.852928935100138,-6.302495047342777
1782984711524406800,3.64540673828125,-2.2642226965904233,-1.8757012256488204,-4.473597950705885
1782984711534481000,3.65548095703125,2.5811744305759667,0.13099106321781873,-2.5038331244811416
1782984711544554800,3.6655546875,6.331936245882511,1.9353230429187416,-1.1922729715302587
1782984711554630000,3.6756298828125,9.458552601644396,3.156783822749555,-0.3283152413798496
1782984711564703700,3.685703857421875,12.064251232624054,4.402515120483935,0.7235303282085805
1782984711574777600,3.695777587890625,14.383028526222706,5.1789720791727305,1.7112036141484974
1782984711584851700,3.705851806640625,16.492589068889618,5.453630147308111,2.6371456163838505
1782984711594925600,3.715925537109375,18.78270140901804,5.404726707929372,3.499147938150167
1782984711605000700,3.726000732421875,20.565733995580672,5.616043061488867,3.997322792987525
1782984711615074600,3.736074462890625,20.717447821092605,5.945716914403438,3.7102117782533166
1782984711625148700,3.746148681640625,19.402175369620323,6.3826096175432205,3.1066473344445225
1782984711635222800,3.756222900390625,16.84865408512354,6.811780786520242,2.0914728050515055
1782984711645297700,3.766297607421875,13.655470622998475,7.317047353184223,1.3974154587604104
1782984711655371800,3.776371826171875,9.742388247969746,7.728371899825334,0.9436176519185304
1782984711665446000,3.78644580078125,5.982859773361683,7.992029850518703,0.6802548847794533
1782984711675519700,3.796519775390625,3.242523539355397,7.961160665002465,0.5198812213413417
1782984711685595000,3.806594970703125,2.0565338858783244,7.5727809406191104,0.7812693274065852
1782984711695668700,3.816668701171875,2.889256629407406,7.088676988971233,0.922083280980587
1782984711705742600,3.82674267578125,5.067234874740243,6.522202797150611,1.0524251595746725
1782984711715816700,3.836816650390625,7.341862645488977,5.958260754156112,1.5294367418088017
1782984711725890600,3.846890625,8.973597001603245,5.4453854660540815,1.4478608668841422
1782984711735965700,3.856965576171875,9.510628825840353,4.753940494218468,0.909820888517797
1782984711746039600,3.86703955078125,9.42128465500176,3.8941049950972197,0.5690342150343581
1782984711756113700,3.87711376953125,8.99501680625081,3.219041249220073,0.45298696538303046
1782984711766187800,3.887187744140625,8.509778297615052,2.5287685360342262,0.33367439379282293
1782984711776262700,3.8972626953125,8.231230820825695,1.9849024818629026,-0.09409297280088066
1782984711786336800,3.907336669921875,8.599731540262699,1.66430362354666,-0.5466050506811588
1782984711796411000,3.917410888671875,9.410337729051708,1.4992667906031012,-0.7113792141005396
1782984711806484700,3.927484619140625,10.273825613200664,1.2542065728738903,-0.6573826893664896
1782984711816559900,3.937559814453125,11.057857683318852,1.1163654976308346,-0.48176674087196586
1782984711826633700,3.9476337890625,11.383478461450338,1.2544614244177936,-0.3382019907524809
1782984711836707600,3.95770751953125,10.982408766841887,1.322742641222477,-0.3548130434114486
1782984711846781700,3.96778173828125,10.092212323987484,1.447994284005463,-0.30540329847838726
1782984711856856600,3.977856689453125,9.203089063322544,1.6883841718360781,-0.3014840426754206
1782984711866930700,3.9879306640625,8.284286703708768,1.891524233202636,-0.3383946272477507
1782984711877004500,3.998004638671875,7.596860319864749,1.980707075999677,-0.4998698221869766
1782984711887078000,4.008077880859375,7.602357748237252,1.959552352029085,-0.48493784518875177
1782984711897152800,4.01815283203125,6.902326734364032,2.0933675327569246,-0.4960034290824085
1782984711907227000,4.028226806640625,6.260979380127787,2.1396187040612102,-0.575541368438676
1782984711917300700,4.03830078125,5.367034982916713,1.8991966675266623,-0.5739147170849144
1782984711927374600,4.04837451171875,4.107698938199878,1.1790014020249246,-0.710039855255559
1782984711937449700,4.05844970703125,2.6573306185394525,0.5690981105834245,-0.5496819739084691
1782984711947523600,4.068523681640625,0.10808686523139475,-0.2784945775583386,-0.4525065249223262
1782984711957597700,4.07859765625,-2.4590637161672113,-2.309410622577369,-0.743289579232782
1782984711967671600,4.088671630859375,-4.68558591991663,-4.19517176220864,-1.3070764316655694
1782984711977746700,4.09874658203125,-9.214301362210511,-5.99142535713315,-2.036391846081614
1782984711987820500,4.108820556640625,-19.655619384813306,-7.448678175610303,-2.5359888426765798
1782984711997894700,4.118894775390625,-34.09423126657009,-7.734300120830535,-3.2150486724525686
1782984712007968800,4.12896875,-46.15958607652187,-7.644850151529908,-4.375552879278361
1782984712018043600,4.139043701171875,-51.85980145916938,-6.801085789504647,-5.902485090920329
1782984712028117800,4.14911767578125,-49.96867207050323,-5.956464518389105,-6.387896033513545
1782984712038191900,4.15919189453125,-42.53992726037502,-5.960128886115551,-6.543529078295826
1782984712048265700,4.169265625,-33.620719436085224,-7.30468705330491,-5.959368423137068
1782984712058339600,4.179339599609375,-25.455481721127033,-9.057958123332261,-1.75255108518973
1782984712068414200,4.189414306640625,-17.25117456306219,-10.254766692465543,3.544615265600383
1782984712078488000,4.199488037109375,-11.211681632852553,-10.526682768416403,6.569070346787572
1782984712088562200,4.209562255859375,-8.934007918536663,-9.74186042470336,7.183176642876863
1782984712098636000,4.219635986328125,-8.247624321743846,-7.4958034994006155,4.959531455868483
1782984712108711200,4.229711181640625,-7.5986045331835745,-4.576762849365174,1.6067223721936343
1782984712118785000,4.239784912109375,-6.499239270192384,-1.856723553456366,-1.200453939898312
1782984712128859400,4.249859375,-4.755044071546196,0.6343880366176367,-3.129698247425258
1782984712138933200,4.259933349609375,-2.054874428233504,2.926860091614723,-3.9903208052709696
1782984712149008400,4.27000830078125,1.588884225425124,4.797515432050824,-4.302315209110081
1782984712159082200,4.280082275390625,5.8823319452077145,6.121027888602018,-4.150119445300102
1782984712169156000,4.290156005859375,10.321683927440644,6.978906116175651,-3.352806453326344
1782984712179230200,4.300230224609375,14.741010774254798,7.593623237639665,-1.9825671707831323
1782984712189304000,4.310303955078125,18.78292118924856,7.589533922499418,-0.6602406360808759
1782984712199379200,4.320379150390625,21.291614320981502,7.241043140912056,-0.09438508761525154
1782984712209453000,4.330453125,22.083454434502123,7.711279310727119,0.12249867254672571
1782984712219527200,4.340527099609375,21.46496948493719,7.838017684936523,0.042059692697506396
1782984712229602000,4.35060205078125,19.342736507701872,7.76931532011032,0.020365299759106708
1782984712239676200,4.36067626953125,16.89887503684163,8.07747233774364,0.16941422604387624
1782984712249751000,4.3707509765625,14.338027354979515,8.3143457418859,0.12029317099223844
1782984712259825200,4.3808251953125,11.4616535880208,8.401057226133346,-0.316985965048708
1782984712269899000,4.39089892578125,8.755794793155788,8.475111473381519,-0.3554620088394731
1782984712279973400,4.400973388671875,6.568752951401471,8.296465801802277,-0.2764133143048733
1782984712290047200,4.411047119140625,5.040303613194823,8.071983677199482,0.1759697121019475
1782984712300122400,4.421122314453125,4.285256230020523,7.5280837207585565,0.8293195109568536
1782984712310196200,4.4311962890625,4.496475552946329,6.7721542940527195,1.4094928500451147
1782984712320270300,4.441270263671875,5.498054979968071,5.865539215838909,1.8195786486715078
1782984712330344200,4.45134423828125,6.744895700249075,4.976190914246439,1.857487815827131
1782984712340419300,4.46141943359375,8.079882321494818,4.248279375278949,1.540801600909978
1782984712350493200,4.4714931640625,9.24921660824716,3.764210787205398,1.061238653692603
1782984712360567000,4.481567138671875,9.865241305178403,3.4234044226408002,0.6841790724858641
1782984712370641200,4.49164111328125,9.918839624375105,3.037408670784533,0.13207871232405305
1782984712380716000,4.501716064453125,9.936759896469116,2.6715701562941074,-0.09704820587728172
1782984712390790100,4.5117900390625,10.047454313850402,2.2223960637301206,0.05645538912825286
1782984712400864000,4.521864013671875,10.112928948801756,1.8694024177655577,0.2588660767743364
1782984712410938400,4.5319384765625,10.168145224589109,1.6586816920116543,0.39817382703647014
1782984712421013000,4.542012939453125,10.10029275459051,1.393935361559689,0.5973972264159471
1782984712431087400,4.55208740234375,9.777841838666797,1.2219754513546823,0.7886617026802152
1782984712441161200,4.5621611328125,9.210128460440039,1.130426756209135,0.8307409951273351
1782984712451235300,4.5722353515625,8.762129256874323,0.997994554272294,0.9927361222874372
1782984712461309200,4.58230908203125,8.35200064201951,0.9149711108878255,1.1876278491381556
1782984712471384300,4.59238427734375,7.790463322079181,0.7806208003699779,1.1369108575314282
1782984712481458200,4.602458251953125,6.87172701343894,0.7269596450701356,1.1177656467523425
1782984712491532000,4.612531982421875,5.284044565019011,0.6957073054552078,0.8763190894756465
1782984712501606100,4.622606201171875,2.8151193800508976,0.48086949977129695,0.645854456397146
1782984712511681000,4.632680908203125,0.0569248332709074,-0.46252544930726286,0.7822994741719216
1782984712521755100,4.642755126953125,-2.7753648772895336,-1.234527766674757,0.9793241213981062
1782984712531829000,4.6528291015625,-5.995667232486605,-2.4743866652444004,1.0247137074369936
1782984712541903400,4.6629033203125,-9.59529097634256,-4.407198602125049,1.378000710324943
1782984712551978000,4.67297802734375,-14.469801969790458,-5.9741153258919715,2.0513219964489338
1782984712562052400,4.68305224609375,-21.952000137686728,-6.865238820463419,2.2506221873916683
1782984712572126200,4.693126220703125,-29.051895270764827,-7.570669647553562,1.4282368596121668
1782984712582200300,4.703200439453125,-32.73410728145838,-8.175166403776407,0.516869253109023
1782984712592275200,4.713275146484375,-33.63108651632071,-8.871397440844774,0.16715893966406584
1782984712602349300,4.723349365234375,-31.256910576105117,-10.722242749917507,0.08819821567386388
1782984712612423200,4.733423095703125,-28.324696263980865,-12.009380993795395,0.6292491393592208
1782984712622497000,4.7434970703125,-27.95634927380085,-12.191198865669966,0.41908202890008683
1782984712632572200,4.753572265625,-29.899339782607555,-9.836660522860289,-1.6888681559607386
1782984712642646000,4.76364599609375,-31.066066517210004,-6.475432862669229,-5.114282457119226
1782984712652720000,4.77372021484375,-29.9126785721302,-3.0847277635812755,-8.458339202278852
1782984712662794200,4.783794189453125,-25.148829847359657,-0.18905483739078044,-8.616654033491015
1782984712672869000,4.793869140625,-17.107119143348932,1.6677902966186404,-6.276738090273738
1782984712682943200,4.803943115234375,-8.682727803379297,3.016813626523316,-2.3447655752055345
1782984712693017300,4.814017333984375,-1.6090794567137956,3.620244799341261,1.0611656615216285
1782984712703091200,4.82409130859375,2.706306538632512,3.4632366668134926,2.0630653334736824
1782984712713165300,4.834165283203125,5.796484384313225,3.7656004879981277,1.7016989959612487
1782984712723240200,4.844240234375,8.33987590446174,4.497830182425678,0.4043951492367312
1782984712733314300,4.854314208984375,10.025622421270608,5.105057532656192,-1.310015261596441
1782984712743388200,4.86438818359375,11.57715277533531,5.49524109159112,-2.1787395850941538
1782984712753462000,4.8744619140625,13.606597578758,5.446169894430041,-2.494059041702747
1782984712763537200,4.884537109375,16.033070692443847,4.6055774404391645,-2.6476211254298687
1782984712773611300,4.894611328125,18.723339703989026,4.899143622662127,0.19669081216193735
1782984712783685000,4.90468505859375,21.522437339043616,4.573939316377044,1.5560608371011913
1782984712793759200,4.91475927734375,21.68953344260454,4.037474186111987,2.013529441410303
1782984712803834000,4.924834228515625,19.249556704223156,3.7591385985076426,1.8342618385404348
1782984712813908200,4.934908203125,15.070891547918318,3.7926410551369187,1.3932989633522928
1782984712823982300,4.944982421875,10.298214204525946,3.9689033387109633,1.0644370113424957
1782984712834056200,4.95505615234375,6.084200671464204,4.113836125780642,0.5860895773947239
1782984712844131300,4.96513134765625,3.1156513096332548,4.325191934567689,0.19428331262879073
1782984712854205200,4.975205078125,1.8040876495510338,4.5761982012197375,0.3772679632604122
1782984712864279300,4.985279296875,2.223732865291834,4.672478893323242,0.8781107221327722
1782984712874353200,4.995353271484375,3.8667023166477676,4.6164401952371,1.5036087653301655
1782984712884428300,5.00542822265625,5.619232797440886,4.413349818231165,2.0604057588756084
1782984712894502100,5.015502197265625,6.8544748498648405,4.0852451143294575,2.4709894240215418
1782984712904576300,5.025576171875,7.6623332012504335,3.807750945985317,2.3909097790040073
1782984712914650000,5.035650146484375,8.116236660423874,3.616109014710784,2.2360034410610794
1782984712924724200,5.04572412109375,8.403896833473443,3.5013702903747554,2.058656430990249
1782984712934799000,5.055799072265625,8.687453662857413,3.4658906884536145,1.8418530243217943
1782984712944873200,5.065873291015625,8.958073269256948,3.4385222045347095,1.6517919324979184
1782984712954947300,5.075947265625,9.050503715673088,3.3472152091905474,1.3018801781967282
1782984712965021200,5.086021240234375,9.26325916212499,3.2161350063845515,0.8124747591398656
1782984712975096300,5.096096435546875,9.613586511489748,3.216454447597265,0.530529018214345
1782984712985170200,5.106170166015625,10.10596612405181,3.2624510596185923,0.4642052921529859
1782984712995244300,5.116244384765625,10.458498289984464,3.1633456654831766,0.4729167141359299
1782984713005318100,5.126318115234375,10.57130283138752,3.1193408118009565,0.5400327596187591
1782984713015393300,5.136393310546875,10.333619864428043,3.05112155431658,0.6563344954878091
1782984713025467100,5.146467041015625,9.762216984033584,2.858433328859508,0.676719769455865
1782984713035541200,5.156541259765625,9.217932996711134,2.731877325479686,0.6973037808664143
1782984713045615000,5.166614990234375,8.663224646008015,2.669470845927298,0.8563490452449768
1782984713055690200,5.176690185546875,7.916471043926477,2.516263859248161,0.7979976863022893
1782984713065764000,5.18676416015625,7.061929267299175,2.0800570925459265,0.5725935514837504
1782984713075838200,5.196838134765625,5.993883856201172,1.6094196484535932,0.2978317307129502
1782984713085912300,5.206912353515625,4.274810823851824,0.84780370054394,0.1017554702527821
1782984713095987200,5.2169873046875,2.0509622232258318,0.10622340944707392,-0.20559476104229688
1782984713106061300,5.227061279296875,-0.6311994697093963,-0.723461866082251,-1.1857515338722615
1782984713116135200,5.23713525390625,-3.008637042069435,-2.6924595073267814,-1.4581035900875925
1782984713126209300,5.247209228515625,-5.0132180378705264,-5.1568298054695125,-1.195163505339995
1782984713136283100,5.257283203125,-7.436406723058223,-8.150277461713552,-1.6109055030971764
1782984713146358300,5.267358154296875,-11.37759934028387,-11.215490377485752,-2.037955880527943
1782984713156432100,5.27743212890625,-18.607529551029206,-13.004866195595264,-3.2271555820927023
1782984713166506200,5.28750634765625,-28.23381713865995,-13.010510338962078,-4.620381626339256
1782984713176580000,5.297580078125,-37.910607417559625,-11.861910797202587,-6.560421760907769
1782984713186655200,5.3076552734375,-45.28383200051784,-10.04150621910095,-7.259826751837134
1782984713196729000,5.31772900390625,-47.98544541289806,-8.567862237793207,-7.02025636369586
1782984713206803200,5.32780322265625,-45.501924131822584,-7.945340580058097,-7.473001300483942
1782984713216877300,5.337877197265625,-38.33520879440307,-8.160784827202558,-6.931499052834511
1782984713226952200,5.3479521484375,-29.777326683354374,-7.858685794433951,-5.417327830827236
1782984713237026300,5.3580263671875,-22.59505371131897,-7.11020493016839,-4.129837120249867
1782984713247100200,5.36810009765625,-17.01834546587467,-5.776518870127201,-3.335980698470771
1782984713257174300,5.37817431640625,-11.967627426171303,-4.246165159603953,-2.4168898773044347
1782984713267249400,5.38824951171875,-7.069728542873263,-2.4155568751350045,-0.9537204551946371
1782984713277323300,5.3983232421875,-2.1007979750186205,-0.43434184961318967,0.3571200051795691
1782984713287397000,5.408397216796875,2.3511153826236724,1.6821563833624122,1.5651777711451054
1782984713297471200,5.41847119140625,5.298822447434067,3.648459086434543,2.486219141857326
1782984713307546000,5.428546142578125,6.91247637245655,5.2966836818397045,3.00716375464648
1782984713317620200,5.4386201171875,8.514653210175037,6.384191333776712,2.8442659795582292
1782984713327694000,5.448694091796875,10.695708963257074,7.183344985181093,3.027693624716997
1782984713337768200,5.458768310546875,13.44796067598462,7.498045725369453,3.0819904475718736
1782984713347842300,5.46884228515625,16.329846484363078,7.242920625221728,3.1112244331017136
1782984713357917200,5.478917236328125,18.768958130347727,7.104184939226507,3.5983503629192706
1782984713367991300,5.4889912109375,20.335294423878192,6.952372914037108,4.001839393629133
1782984713378065400,5.4990654296875,20.61186446311474,6.8243900927245615,3.7229052556097506
1782984713388139300,5.50913916015625,19.734623363423346,6.519868216723204,3.2488466048970817
1782984713398214400,5.51921435546875,18.57042643955946,6.316167014342546,2.105710735370964
1782984713408288300,5.529288330078125,16.84939525887966,6.357528952300548,0.9817292097784578
1782984713418362000,5.539362060546875,14.257239415562152,6.059835461014509,0.7110586769092828
1782984713428436200,5.549436279296875,10.989292096614838,5.7216129754632705,0.1859397741101682
1782984713438511000,5.559510986328125,8.400443478149175,5.49887681774497,-0.528070811407268
1782984713448585200,5.569585205078125,6.793114664494991,5.718375308716297,-1.0255495737392455
1782984713458659000,5.5796591796875,5.468658789613842,5.538820705598592,-0.7836692281551658
1782984713468733200,5.589733154296875,4.72657785551846,5.130870019304752,-0.26831549417562783
1782984713478808000,5.59980810546875,5.170302450504899,4.85073147393167,-0.21814861073233185
1782984713488882200,5.609882080078125,6.134743110221624,4.575457611985504,-0.05389679068662226
1782984713498956300,5.619956298828125,6.978942356532812,4.093598808915913,0.15002850277349353
1782984713509030400,5.630030517578125,7.797779198050499,3.521715159267187,0.26617950506024063
1782984713519105300,5.640105224609375,8.27506996255219,3.118705728767812,0.4432372498609125
1782984713529179400,5.650179443359375,8.291285768815875,2.8738150223866104,0.4850303457777947
1782984713539253200,5.660253173828125,8.045384424087406,2.72139772478044,0.3051527212508023
1782984713549327000,5.6703271484375,7.876285748532414,2.5006208844363687,0.1341528882496059
1782984713559402200,5.68040234375,7.730478516715764,2.351804241670668,0.021249051190540193
1782984713569476000,5.69047607421875,7.754511134210229,2.2011659364357588,-0.10742942423596978
1782984713579550200,5.70055029296875,7.965704153650998,2.091815334878862,-0.1830179683793336
1782984713589624000,5.7106240234375,8.323300617235898,1.9892180069744585,-0.11872224101424217
1782984713599698400,5.720698486328125,8.616566939729452,1.9829326430946588,-0.07776216185539961
1782984713609773000,5.73077294921875,8.643274913913011,1.8767393365249037,0.033567192428559066
1782984713619847400,5.740847412109375,8.705247678223252,1.6944003633856772,-0.04952602825649082
1782984713629921300,5.75092138671875,8.182567619943619,1.5512470070786772,-0.23947949498742818
1782984713639995400,5.760995361328125,7.024808620172738,1.4236245435111223,-0.058601461246237156
1782984713650070300,5.7710703125,5.272980734691023,1.1967590309031306,-0.08411752223148941
1782984713660144400,5.781144287109375,2.848710684007406,0.8449924425154924,-0.5427821313921362
1782984713670218200,5.79121826171875,-0.46292906167209147,0.20961422581672667,-0.7710387330323457
1782984713680292000,5.8012919921875,-4.413267108383774,-1.4974837065786122,-0.7736950927600265
1782984713690367200,5.8113671875,-7.54956314663887,-3.490089894686639,-0.5225768901661038
1782984713700441000,5.821441162109375,-8.808916142490506,-5.059921921378374,-0.6514068298272788
1782984713710515200,5.83151513671875,-9.191413238576054,-6.24892653876245,-1.4371559329964219
1782984713720589000,5.841589111328125,-10.613858363044262,-6.75617054297924,-2.592776021042466
1782984713730664200,5.851664306640625,-15.633203943884372,-6.757492731493711,-4.300754243403673
1782984713740738000,5.861738037109375,-23.90320200999975,-6.25187252908647,-5.517538848116994
1782984713750812400,5.8718125,-32.43686854820251,-5.52459402732551,-5.0833098112285136
1782984713760886300,5.88188623046875,-38.49997850084305,-5.340185554435849,-4.3550794155701995
1782984713770961400,5.89196142578125,-40.78178829205036,-5.303244940051436,-4.3517818353295326
1782984713781035300,5.90203515625,-38.95151464636326,-5.603641260555386,-3.297318082599342
1782984713791109400,5.912109375,-33.73604092874527,-5.5358571796178815,-2.8543811308592555
1782984713801183200,5.922183349609375,-27.23134105505943,-4.519001273009181,-3.749931794223189
1782984713811258400,5.93225830078125,-21.046748749041555,-3.1769998045653103,-4.583962697741389
1782984713821332200,5.942332275390625,-15.966769543540476,-1.8396536145813762,-4.650789331823587
1782984713831406000,5.952406005859375,-12.041519176334141,-1.106715333493054,-4.406277687887847
1782984713841480200,5.962480224609375,-8.56798966356516,-0.6866425399899483,-3.3899610027223823
1782984713851554000,5.972553955078125,-5.130229383313655,-0.056216831132024525,-1.974478118482232
1782984713861629200,5.982629150390625,-2.5089970831155775,0.9688280810207128,-0.9726467625260352
1782984713871703000,5.992703125,-1.2354647552639246,2.1482173133194444,-0.30425957180336116
1782984713881777400,6.00277734375,-0.40975510536730286,2.832005925182998,0.19764190234169363
1782984713891851300,6.012851318359375,2.100046864390373,3.113722387397289,0.690145945001021
1782984713901926400,6.022926513671875,6.4782783152282235,2.9965295479074117,0.7001917573928833
1782984713912000300,6.033000244140625,11.346072567641734,2.3124817005857823,0.7019376512121409
1782984713922074400,6.043074462890625,15.858920578718184,2.1715917591661213,2.331804532954097
1782984713932148200,6.053148193359375,19.762682752215863,2.4421643115535376,4.16841790305674
1782984713942223400,6.063223388671875,21.850307357406614,2.9764874613538383,5.0738458173125975
1782984713952297200,6.073297119140625,22.306711401224135,3.5803391976714134,5.122175840717554
1782984713962371300,6.083371337890625,21.80335154496431,3.9773295140117404,4.2622327895686025
1782984713972445200,6.093445068359375,19.92695912218094,4.360986301526427,3.4445386883452533
1782984713982520300,6.103520263671875,17.38251195549965,4.654695691612362,2.7533181729152796
1782984713992594200,6.11359423828125,14.544111068582534,5.081714066469669,1.6666712294608355
1782984714002668000,6.12366796875,11.434859104597567,5.385310059797764,0.8118233094938099
1782984714012742400,6.133742431640625,9.056553517231345,5.551624073070287,0.07835252896398305
1782984714022817000,6.143817138671875,7.696866754493117,5.71307252613306,-0.11542641433924436
1782984714032891400,6.153891357421875,6.916014483454823,5.468773940426111,-0.06999905357323587
1782984714042965200,6.16396533203125,6.451490261545777,4.875848964053392,0.22458266236782073
1782984714053039400,6.174039306640625,6.022378713801503,4.23930754879415,0.7010812535785138
1782984714063114200,6.1841142578125,5.519411071729659,3.69353186160922,0.7158363396398723
1782984714073188400,6.194188232421875,5.206497799479961,3.14224559430927,0.4582332320060581
1782984714083262200,6.20426220703125,5.486349344605207,2.480396427053213,0.15212408681325615
1782984714093336000,6.214336181640625,6.0520373544842005,2.0261371401794253,-0.03517185114622116
1782984714103410200,6.22441015625,6.548178365406393,1.44792107263878,-0.13481288652829826
1782984714113485000,6.234485107421875,7.363685185718536,0.8801889897115528,-0.2602185508292168
1782984714123559200,6.24455908203125,8.139273837140202,0.5751745078876614,-0.16058051112182437
1782984714133633000,6.254633056640625,8.478388303095102,0.27139628986045716,-0.14518559278696774
1782984714143707400,6.264707275390625,8.67367589739561,0.09996215709522366,-0.09156520788893104
1782984714153782000,6.274781982421875,8.569195532223581,0.12185118668973445,0.1327318424705416
1782984714163856400,6.2848564453125,8.374152852594852,0.03918181743994355,0.32373240710161627
1782984714173930200,6.29493017578125,8.486254214164614,0.012110855162888765,0.5366857142131776
1782984714184004400,6.30500439453125,8.823943615752459,0.10253946023732423,0.7728787348758429
1782984714194079200,6.315079345703125,9.23603213250339,0.2506584761276841,0.8312034250073135
1782984714204153300,6.3251533203125,9.322879225829244,0.4124487283654511,1.1447933544095605
1782984714214227200,6.335227294921875,9.175564512059092,0.5337495876960456,1.4704180049985647
1782984714224301000,6.345301025390625,8.466712478348612,0.6900976488798857,1.8074371061094103
1782984714234376200,6.355376220703125,6.900508871287107,0.7581288364462554,2.2137432400666177
1782984714244450000,6.365449951171875,4.548456500074267,0.3310987711511552,2.7231667802795765
1782984714254524200,6.375524169921875,1.5533955634146928,-0.8091362623669207,3.049088294923305
1782984714264598000,6.385597900390625,-0.8795540528088808,-1.8345948698870838,2.795416316193342
1782984714274673200,6.395673095703125,-2.8876328275978564,-2.332930614374578,2.1384026062697172
1782984714284747000,6.4057470703125,-9.723290164268017,-2.7747192728623746,1.492457695110142
1782984714294821400,6.4158212890625,-23.96894201788902,-3.238613087913394,0.9050422759391367
1782984714304895200,6.425895263671875,-40.12744643168449,-2.489329675093293,1.1452962624303995
1782984714314970400,6.435970458984375,-51.20561391258239,-1.4538684367358683,1.9198608315013348
1782984714325044200,6.446044189453125,-53.6779684874773,-2.2044003883123398,2.7006562577858566
1782984714335118300,6.456118408203125,-47.667208315277094,-5.169331559646129,1.3021125256478785
1782984714345192200,6.466192138671875,-38.84181391619444,-6.894212986013293,0.5346492399495095
1782984714355266000,6.47626611328125,-31.107824761009216,-7.168213467022777,-0.9584637772642075
1782984714365341200,6.486341064453125,-24.885685106885433,-6.442902465942502,-3.827245920050144
1782984714375415000,6.4964150390625,-18.873609760433435,-5.6955129040449854,-5.997832301566004
1782984714385489200,6.5064892578125,-13.62248839085102,-4.672720593124628,-7.12146983602643
1782984714395563000,6.51656298828125,-9.501200487759709,-3.5467367877990004,-6.927707843858003
1782984714405638100,6.52663818359375,-5.69913986237049,-2.0104462345726786,-6.00116115372777
1782984714415712000,6.5367119140625,-2.764436656039953,-0.07302154319956898,-4.339478818595409
1782984714425786400,6.546786376953125,-1.1509048960924149,1.8715743549771606,-2.262269224435091
1782984714435860200,6.556860107421875,0.29535423468351363,3.3202722572073338,-0.49754145230464636
1782984714445935400,6.566935302734375,2.9907804828613993,4.058706651493907,0.6927075391173362
1782984714456009200,6.57700927734375,7.1804971945345395,4.557000748796761,1.082260252802819
1782984714466083300,6.587083251953125,12.037374916136264,4.576230057662725,1.8229526551492512
1782984714476157200,6.5971572265625,16.53016447404623,4.214140958833694,2.7517393792912364
1782984714486232300,6.607232421875,20.034747296726703,3.9852299118727443,3.312429727013409
1782984714496306200,6.61730615234375,22.023494179058073,3.9364766946196554,3.5519793646275994
1782984714506380000,6.627380126953125,22.09142263690233,4.0112700697973365,3.232990279595554
1782984714516454100,6.6374541015625,20.270029047763348,4.04688615757972,3.021721856831014
1782984714526529000,6.647529052734375,17.462617173349855,4.203386340585351,2.068200358274579
1782984714536603100,6.65760302734375,13.968360514372586,4.782552840718627,1.3341307350687681
1782984714546677000,6.667677001953125,9.994728101313113,4.9265831259906285,0.20527088111648334
1782984714556751400,6.67775146484375,6.856706554439664,5.165312387132644,-0.5681509293938055
1782984714566826000,6.687825927734375,5.066650352850556,5.358708468598127,-0.8257095768313855
1782984714576900400,6.697900390625,4.464981513530016,5.4697267111063,-0.9679293786153197
1782984714586974200,6.70797412109375,4.927673259314894,5.4857987249851226,-0.8050496506404131
1782984714597048300,6.71804833984375,5.5980830419063565,5.302848634210228,-0.4922917881481349
1782984714607122200,6.7281220703125,6.274069747847318,5.079994987592101,-0.32760687391478566
1782984714617197300,6.738197265625,6.987638288685679,4.907055418699979,-0.42327155301179736
1782984714627271200,6.748271240234375,7.73257636577785,4.541014951896667,-0.5955669057162478
1782984714637345000,6.758344970703125,8.639661399590969,4.126003533436358,-0.6601991350267082
1782984714647419100,6.768419189453125,9.472084283390641,3.8005157340347764,-1.0041939934343098
1782984714657494300,6.778494384765625,10.196876813554763,3.548125027287006,-1.0776879764512182
1782984714667568000,6.788568115234375,10.893428168618678,3.3284801135823128,-0.9066831750139593
1782984714677642000,6.79864208984375,11.473391956609486,3.0457638266757128,-0.7705564294081181
1782984714687716400,6.80871630859375,11.944363454961776,2.6318507248461245,-0.36272999054845423
1782984714697791000,6.818791015625,12.304093423444032,2.3755165411695836,0.30320849184785037
1782984714707865300,6.828865234375,12.129722360444068,2.204153427813947,0.8130624228347092
1782984714717939200,6.838939208984375,11.680150208473204,2.0918352086231113,1.0227264060772956
1782984714728013300,6.849013427734375,11.040355928897856,2.087885301953554,0.9279464739255606
1782984714738088200,6.859088134765625,10.223184974765777,2.070114375202358,0.8168064316686242
1782984714748162300,6.869162353515625,9.379538686162233,1.899068364971876,0.7511125279434024
1782984714758236200,6.879236083984375,8.35034001533091,1.8365730380922556,0.665515142417699
1782984714768310300,6.889310302734375,6.733682232317328,1.5576201953724025,0.47723757300972935
1782984714778385200,6.89938525390625,5.20105356259942,1.0618480177626013,0.19136446604002266
1782984714788459300,6.909459228515625,3.8992823977351185,0.6037001990176737,0.035737029014620926
1782984714798533000,6.919533203125,2.536442139402032,0.052174423873424525,0.0930704248201102
1782984714808607000,6.92960693359375,0.6153764621555805,-1.2422076536528766,0.37894115716964005
1782984714818682000,6.93968212890625,-1.8035118954896925,-3.082795334213972,0.642681598514691
1782984714828756000,6.949755859375,-5.172672102245688,-4.406272719451785,0.4043917517032474
1782984714838830300,6.959830322265625,-10.709902323782444,-4.872283380526304,-0.2723060799154453
1782984714848904200,6.969904296875,-19.78640966476202,-4.806462124094367,-0.9043416533891111
1782984714858978300,6.979978271484375,-30.774224090039727,-4.234006519776583,-1.7196445486269891
1782984714869053200,6.99005322265625,-38.40983353501558,-3.6053278007164598,-1.832043870230019
1782984714879127300,7.000127197265625,-39.496508827781675,-4.090663339985907,0.14757014983594416
1782984714889201200,7.010201171875,-36.542583034586904,-5.567935156401991,2.709562617819011
1782984714899275300,7.020275146484375,-33.001883773386474,-7.110089779356121,4.260436553801596
1782984714909350100,7.03035009765625,-31.678944732809065,-7.298990302968025,3.7799341337770223
1782984714919424300,7.04042431640625,-31.38514298826456,-6.167440095686912,0.7480868234466761
1782984714929498000,7.050498046875,-29.57518966155052,-4.878770404458046,-2.3596071705065667
1782984714939572000,7.060572021484375,-25.1547498850584,-3.733232003834843,-4.983114576029777
1782984714949647000,7.070647216796875,-18.908448434102535,-3.0706667972639203,-6.518119327229261
1782984714959721200,7.08072119140625,-12.830468244588374,-2.4355634519837794,-5.495478407478332
1782984714969795300,7.09079541015625,-8.854677776712178,-1.4243921668827533,-2.7893659301131963
1782984714979869200,7.100869140625,-6.981001627150177,-0.2632330032795667,-0.6178594380777329
1782984714989944300,7.1109443359375,-5.606448719191551,1.0071490438476205,1.044302058873698
1782984715000018200,7.12101806640625,-3.148858582708239,2.1281220352739094,1.6880325819194315
1782984715010092300,7.13109228515625,1.1994237200677393,2.914926200453937,1.2950276819534599
1782984715020166100,7.141166259765625,6.674926091966032,3.5603874197497962,0.8732872474990785
1782984715030241300,7.1512412109375,12.507924389684199,4.179107054853439,0.9075400841042399
1782984715040315100,7.161315185546875,17.96925502836704,4.70031937866807,1.0756786824554205
1782984715050389200,7.17138916015625,22.341078950250147,5.1350224628090855,1.4631051977671683
1782984715060463000,7.181463134765625,24.73012980351448,5.049838918781281,1.5696274440303444
1782984715070538800,7.191538818359375,25.066823764324187,5.226036028164625,1.609298652422428
1782984715080612600,7.201612548828125,23.446823685145375,5.309476527917385,1.6175921412542462
1782984715090686700,7.211686767578125,20.658235753667352,5.493770434516668,1.1217333082742988
1782984715100760600,7.221760498046875,17.183891417384146,5.810163950097561,0.6531935671135782
1782984715110835000,7.2318349609375,13.312944302773476,6.021300270915031,0.11513919489569961
1782984715120909600,7.24190966796875,9.323237537747621,6.376691917932034,-0.6628767567381263
1782984715130984000,7.25198388671875,5.799498763698339,6.505051171341538,-1.14040483712703
1782984715141057800,7.262057861328125,3.187547502064705,6.3491913320660585,-1.0927394881758838
1782984715151131600,7.272131591796875,1.9954004950016735,5.929089020207524,-1.0709936664443462
1782984715161206800,7.282206787109375,2.341424009692669,5.42271069290936,-1.0875817400865255
1782984715171280600,7.29228076171875,3.5094396150618787,4.747653376772999,-1.1278177427545188
1782984715181354800,7.302354736328125,4.863359484836459,3.956384925660491,-1.1439788962215185
1782984715191428600,7.3124287109375,6.40832799616754,3.2404467330813405,-1.2108355601157992
1782984715201503700,7.322503662109375,7.813257337689399,2.5315941148489713,-1.0557448785819112
1782984715211577600,7.33257763671875,9.013651948615909,1.8989552599862216,-0.8196136711090802
1782984715221651700,7.342651611328125,9.906388139081,1.4918413167774676,-0.4996223136993125
1782984715231725600,7.3527255859375,10.506245545065402,1.127785594050586,-0.0875968522472307
1782984715241800700,7.36280078125,10.878110187977551,0.848441413925588,0.26120661201849577
1782984715251874600,7.37287451171875,11.076491072118282,0.6796282773137092,0.6891868176452816
1782984715261949000,7.382948974609375,11.149196242845058,0.5521089818596839,1.1302369327254593
1782984715272022800,7.393022705078125,11.274011540037392,0.5066247032746672,1.3018044826120136
1782984715282098000,7.403097900390625,11.300027440303563,0.5966863747328519,1.322303957544267
1782984715292171800,7.413171875,11.104553968042135,0.7717614943489431,1.1606320709891618
1782984715302245600,7.42324560546875,10.61462525576353,0.9752037535324692,1.0324703129131347
1782984715312319700,7.43331982421875,9.927138666164874,1.13607762157768,0.7860702979475259
1782984715322395000,7.443394775390625,9.060692516732216,1.3526492653168738,0.8363231061086058
1782984715332468700,7.45346875,7.868264939162135,1.4543980135679244,0.8938271275069564
1782984715342542600,7.46354248046875,6.452668073153496,1.3097427282653749,0.3570931902378797
1782984715352616700,7.47361669921875,4.1415661364883185,1.0423794933132826,-0.18280885567329824
1782984715362690600,7.483690673828125,0.7849427552223205,0.4532052477762103,-0.2787213355189189
1782984715372765700,7.493765625,-2.4220032747954128,-1.040664067697525,-0.3333997415699064
1782984715382839600,7.503839599609375,-6.258435540863871,-2.9610370865046978,-0.45863125488031653
1782984715392914000,7.513913818359375,-12.2705827835083,-4.793971475833654,-0.8921578060552477
1782984715402987800,7.52398779296875,-21.08850465475321,-5.743967430612445,-1.4315302020691334
1782984715413063000,7.53406298828125,-31.644532760119436,-5.989387713825702,-2.2720025368116796
1782984715423136800,7.54413671875,-39.502288580226896,-5.924047518908977,-2.2610811836943028
1782984715433211000,7.5542109375,-41.11249207253456,-7.059093167090415,-0.8102353096500039
1782984715443284700,7.56428466796875,-37.05729430594444,-8.804833257091046,0.6901678645718843
1782984715453359900,7.57435986328125,-31.421224355471132,-9.874304901599883,1.4271211534552275
1782984715463433700,7.584433837890625,-28.51737805969715,-9.48019569365382,0.9948166548885404
1782984715473507600,7.594507568359375,-28.289664698088167,-8.055192116874457,-1.387012284298241
1782984715483581700,7.604581787109375,-28.23251950006485,-5.696086320018768,-4.497114435371756
1782984715493656600,7.614656494140625,-25.917286747205257,-3.3963562567174432,-7.41252198960185
1782984715503730700,7.624730712890625,-20.308205341422557,-2.1295631739929317,-9.081483375826478
1782984715513804800,7.6348046875,-12.487587704098225,-1.074323468454182,-8.555493754607438
1782984715523879000,7.64487890625,-4.987509596118331,0.5500540951564907,-5.483838823089004
1782984715533953800,7.654953857421875,0.598556844779849,2.1720783736392852,-2.3034150354243814
1782984715544028000,7.66502783203125,3.826835585683584,3.364096201364696,0.31261834442373365
1782984715554101800,7.675101806640625,6.589192512840032,4.0482516007140275,2.062824072063714
1782984715564176000,7.68517578125,9.105501380273699,4.358972623616457,3.2526731774479147
1782984715574250800,7.695250732421875,11.890873856836556,4.474953164707124,3.663246613460779
1782984715584324900,7.705324951171875,14.766542690396308,4.472307034112513,3.321903657801449
1782984715594398700,7.715398681640625,17.177627680814265,4.161437834911048,3.1488936540216206
1782984715604472600,7.72547265625,19.24210288108587,3.6779157748043536,3.0486516570717095
1782984715614547700,7.735547607421875,20.957017624711987,3.562265196320414,2.7881849036350843
1782984715624621600,7.74562158203125,21.203283711099623,3.670535309164226,2.7759298176959155
1782984715634695700,7.75569580078125,19.454630364000796,3.8199528404325243,2.466008128477633
1782984715644769800,7.765769775390625,16.236341686713693,3.8928690235614773,1.6059395512528716
1782984715654844700,7.7758447265625,12.226750656044482,4.199994944581389,1.112642093193531
1782984715664918800,7.785918701171875,7.727416206535697,4.511605902060866,0.414038774035871
1782984715674993000,7.795992919921875,3.6847944284021854,4.511291429284214,-0.3332035979432985
1782984715685066800,7.806066650390625,1.1916688681572676,4.5926884405106305,-0.5164527081973851
1782984715695140900,7.816140869140625,0.9510001633852719,4.654169621911644,-0.3382059728078544
1782984715705215700,7.8262158203125,2.5140438451111313,4.466128345477581,0.005721007995307445
1782984715715289900,7.836289794921875,4.937481536623835,4.019993766739964,0.21383206270746885
1782984715725363700,7.84636376953125,7.134571894183755,3.4841157887130976,0.2594166233291849
1782984715735437600,7.8564375,8.63561124741733,2.9513129803478715,0.39425566721204663
1782984715745512700,7.8665126953125,9.675653383824228,2.491455581206083,0.4348887063736096
1782984715755586600,7.876586669921875,10.24636009864807,2.0510290048517286,0.2492860187307
1782984715765660700,7.88666064453125,10.357568895292282,1.7597968185342847,-0.09210695008281618
1782984715775734800,7.89673486328125,10.224703562635183,1.5658910339809953,-0.2852592859202996
1782984715785809700,7.9068095703125,10.113036500829457,1.517618732112646,-0.3678859485395253
1782984715795883800,7.9168837890625,10.072121137595175,1.3873431236878038,-0.28360717133171853
1782984715805958000,7.9269580078125,10.250261197739839,1.1644561593219638,-0.13363551331199705
1782984715816031700,7.93703173828125,10.646321539753675,0.9941247271016239,0.09133680596053599
1782984715826107000,7.94710693359375,10.937293029308318,0.9001773002512753,0.41792357957996423
1782984715836180700,7.9571806640625,11.040849265372753,0.7907634241998195,0.823992836041376
1782984715846254800,7.9672548828125,10.881707335686682,0.6927030090726911,1.17900052524209
1782984715856328700,7.97732861328125,10.070206243884563,0.8617170750841497,1.1572981042608619
1782984715866403800,7.98740380859375,8.403459611099958,0.9724557699985802,0.8331594544459134
1782984715876477700,7.997477783203125,6.678849402889609,1.078162754356116,0.5208237628884613
1782984715886551600,8.007551513671874,5.300036499398947,1.1829790734842418,0.3376267846804112
1782984715896625700,8.017625732421875,4.268076547160744,1.2034016837880015,0.3754574797723442
1782984715906699800,8.02769970703125,3.2640637555122374,0.7400584883570671,0.588508694300428
1782984715916774000,8.03777392578125,1.2207640297383069,0.10705912961885332,0.816038004579395
1782984715926847700,8.04784765625,-1.4620318694472312,-1.627826681151241,0.7864261256478726
1782984715936923000,8.0579228515625,-3.982667952430248,-3.585777881594002,0.04843823301978409
1782984715946996700,8.067996826171875,-8.449162208610772,-5.159715005517006,-1.0382802413009107
1782984715957070800,8.07807080078125,-16.819783379948138,-6.069611005097627,-1.7738716672465205
1782984715967144700,8.088144775390624,-28.517700715780258,-5.324933040246367,-2.3662283422119916
1782984715977219800,8.0982197265625,-39.4257816791296,-3.598051672233641,-2.0412237962827087
1782984715987293700,8.108293701171876,-43.51863668394088,-3.3223487712204456,-0.4019217083279043
1782984715997367600,8.118367431640625,-39.838940455460545,-4.952898301464319,1.458213626333326
1782984716007441700,8.128441650390625,-35.13809617613554,-7.128169625926017,1.3159949205279349
1782984716017516800,8.138516845703125,-33.84189550487995,-7.707199932458996,-0.1809603051971644
1782984716027590700,8.148590576171875,-34.24810782307386,-6.365685370749235,-2.418857816376537
1782984716037664800,8.158664794921876,-32.3826646643281,-4.905118897679448,-4.362689306052029
1782984716047739000,8.16873876953125,-26.525093650889396,-4.230535628795623,-4.667086386629939
1782984716057813800,8.178813720703126,-17.86509790380001,-3.6635605017155406,-4.0143203972786665
1782984716067887000,8.18888720703125,-9.530953820988536,-2.525499305105209,-2.249434292781353
1782984716077961200,8.198961181640625,-3.116603495791554,-1.0474831000626086,0.059959817052632564
1782984716088035000,8.20903515625,2.0045605375349522,0.2943251838967204,1.3868005412437021
1782984716098110200,8.219110107421875,5.707791955381632,1.5017463324591516,2.2988848446488377
1782984716108184000,8.22918408203125,8.38825385866165,2.6806673627242446,2.3786865495078264
1782984716118258000,8.2392578125,11.060980199253558,3.57636357203871,2.0050524127051235
1782984716128332000,8.24933203125,14.471144032049178,4.318115420310199,1.5183677969142795
1782984716138407000,8.259406982421876,18.460080397224424,4.942606040030718,1.353725808507204
1782984716148481000,8.26948095703125,22.13114674452543,5.299176083177327,1.8106969846881924
1782984716158555100,8.27955517578125,24.47072366504669,5.196736868444085,2.236903020249307
1782984716168629200,8.289629150390626,24.294941566205022,5.06427427136898,1.8940046518415212
1782984716178704100,8.2997041015625,21.35622035640478,5.437745764955878,1.434801040433347
1782984716188778200,8.3097783203125,16.86993068190813,5.8563119532883166,0.6324645942743867
1782984716198852000,8.31985205078125,11.593888806080818,5.934940668845177,-0.0849180980246514
1782984716208926200,8.32992626953125,6.476362836995721,5.812223805236816,-0.6523289861734957
1782984716219001000,8.3400009765625,2.578275786525011,5.806040732687712,-0.8378601794827729
1782984716229075200,8.3500751953125,0.8811182333856821,5.373420884561538,-0.6064426295936107
1782984716239150000,8.360150146484376,1.6398486889868973,4.726236202473938,-0.07464264159537852
1782984716249224200,8.37022412109375,3.8810429766893386,3.9801872415304183,0.31332207224629816
1782984716259298000,8.380298095703125,5.875874147370458,3.2401226156935095,0.5611512432321906
1782984716269372200,8.3903720703125,7.238696870046853,2.607388483762741,0.5521430302597582
1782984716279446000,8.400446044921875,8.230840944725275,2.1120415458276867,0.43272469674013553
1782984716289521200,8.410521240234376,8.801641767573356,1.766867341442406,0.27813305076956746
1782984716299595000,8.420594970703124,8.826858626416325,1.487181800533831,0.2323270659495145
1782984716309669000,8.430669189453125,8.86769215658605,1.201425707539916,0.20274587441720068
1782984716319743200,8.4407431640625,9.27715441648662,1.0131959227964282,0.3894697115771472
1782984716329818000,8.450818115234375,9.990623588603734,0.8213564231231808,0.6195602506462484
1782984716339892200,8.460892333984376,10.660129115831852,0.7992191178560256,0.9719866911821067
1782984716349966000,8.470966064453124,10.913858377707005,0.8365519464284181,1.2569345365330575
1782984716360040200,8.481040283203125,10.786385844004153,0.977223861183226,1.572744699268043
1782984716370115000,8.491114990234376,10.461218654859065,1.1213523461326955,1.8739187261462211
1782984716380189200,8.501189208984375,9.840975463449954,1.342671622790396,2.075790959534049
1782984716390263000,8.511262939453125,9.006347178560494,1.5519436110407112,2.073161780074239
1782984716400337200,8.521337158203124,8.114969416967034,1.8572241964548826,1.987846426360309
1782984716410412000,8.531412109375,7.26602560647726,2.171999170923233,1.7573215144619345
1782984716420486100,8.541486083984376,6.536263471207023,2.3478949592724443,1.5566966507866977
1782984716430560000,8.55156005859375,5.8062079059481615,2.3891999063462017,1.4748561335764825
1782984716440634000,8.561634033203125,5.05715070309937,2.045978297333419,1.3558856168895959
1782984716450709000,8.571708984375,4.1269180179327725,1.1759677334174514,1.4610764684185384
1782984716460783000,8.581783203125,2.8450340413212776,0.07473696881532668,1.60593765155673
1782984716470857200,8.591857177734376,1.398774910545349,-1.7803709661379457,1.1214714424677192
1782984716480931000,8.60193115234375,0.17938976794481276,-3.9702272807911037,0.63492499303855
1782984716491006200,8.612006103515625,-2.041433347380161,-5.589098355939984,-0.6389660851228982
1782984716501080000,8.622080078125,-6.8364774208813905,-6.544186665421724,-1.9306588504999875
1782984716511154200,8.632154296875,-14.51743115144968,-6.529045210391283,-2.745716173478961
1782984716521228000,8.64222802734375,-23.353618162703512,-5.396198533558845,-3.499935873657465
1782984716531303200,8.65230322265625,-31.025339370024202,-4.832801264965534,-4.280737875813245
1782984716541377000,8.662376953125,-35.03682191352844,-6.062647011303901,-5.104006562298536
1782984716551451100,8.672451171875,-36.71832070976495,-7.3093550451159475,-3.1229251000285148
1782984716561525000,8.68252490234375,-38.470995567464826,-7.16608171569109,-0.8612639244891702
1782984716571600100,8.69260009765625,-39.71869261231422,-5.377326659828424,-0.0017829013613983988
1782984716581674000,8.702674072265625,-37.9300369251728,-3.141365888865292,-0.7284606972828507
1782984716591748000,8.712748046875,-31.849410020542145,-1.909648795697093,-1.766925939761847
1782984716601822200,8.722822265625,-23.391331515026092,-1.7659300605922936,-2.8687399110794067
1782984716611897000,8.73289697265625,-15.434425584858655,-1.823716771389544,-3.720269354148209
1782984716621971200,8.74297119140625,-10.501057328772545,-1.3446516906917094,-3.439143843564391
1782984716632045000,8.753045166015625,-8.847778080326318,-0.19749562573879956,-2.5736136399328706
1782984716642119200,8.763119140625,-8.303757712376116,1.1629752731144427,-0.5597002407062799
1782984716652194000,8.773194091796874,-6.900500103458762,1.98142896053344,2.1219797331266106
1782984716662268200,8.78326806640625,-3.707503103816509,2.09631323082,3.8357287939742206
1782984716672342000,8.793342041015626,1.0105576832473278,2.4821426861986517,3.6741800954073667
1782984716682416000,8.803416015625,6.229764157652855,3.207125770498812,2.3783076331928372
1782984716692490000,8.813489990234375,11.018657307308912,3.9237572060391304,1.4596723007090389
1782984716702565000,8.823565185546874,15.171818604522942,4.490670666059851,1.0404784819975494
1782984716712639000,8.833638916015625,18.726192170810698,4.6699414838001125,1.0318581723641604
1782984716722713000,8.843713134765625,21.943239323604107,4.571556805154681,1.4652429404482246
1782984716732787200,8.853787109375,24.619910017907618,4.535300373642146,1.4901090861573814
1782984716742862300,8.8638623046875,25.662638616919516,5.061149417346716,1.1626788474511354
1782984716752936200,8.873936279296874,23.1866857252717,5.916813476002216,0.21938883831808342
1782984716763010000,8.884010009765625,17.453714904969928,6.689745475435257,-0.8600047182083129
1782984716773084200,8.894084228515625,10.491618469297885,7.556206237915158,-1.5059291711017488
1782984716783159000,8.904158935546874,4.312027332568168,7.909716308969259,-1.9807512074023483
1782984716793233200,8.914233154296875,0.058416533133387565,7.690052982825041,-1.5655996498189866
1782984716803307000,8.92430712890625,-0.800579884815216,7.028831299817561,-0.7598851785942912
1782984716813381000,8.934381103515625,1.4353858545839786,5.947041441005468,0.31880097858142104
1782984716823456000,8.9444560546875,5.18378386336863,4.673995143105089,0.8001110982596874
1782984716833530000,8.954530029296874,8.298114153531193,3.6707185567766425,1.023332409146428
1782984716843604000,8.96460400390625,10.054162287056446,2.924895513543486,1.0942384214967489
1782984716853678300,8.97467822265625,10.594006830626725,2.527872171716392,0.5250595372946932
1782984716863753000,8.9847529296875,10.270779085111618,2.2785399757564067,0.12092895727828144
1782984716873827300,8.994827392578125,9.935117389959096,1.9181722938925028,0.09957206179909407
1782984716883901200,9.004901123046874,9.936077174901962,1.5398101056545972,0.31213841541968285
1782984716893975000,9.01497509765625,10.219031362217665,0.9990636448085307,0.644609570902586
1782984716904050200,9.02505029296875,10.841147361761331,0.701613314628601,1.1307981468047945
1782984716914124000,9.0351240234375,11.27219133887291,0.7335638656407594,1.4278824932165444
1782984716924198100,9.0451982421875,11.40130404099822,0.9530249472111463,1.1564004247687756
1782984716934272000,9.05527197265625,11.09275831630826,1.3161974573627113,0.8464440295632928
1782984716944347100,9.06534716796875,10.563234091222286,1.6589184233769774,0.5520356243625283
1782984716954421000,9.0754208984375,10.022743066442013,2.0503803316846487,0.35089141298830506
1782984716964495000,9.0854951171875,9.148855953353642,2.460479428184032,0.3045661535345018
1782984716974569000,9.09556884765625,8.160726959535479,2.7351372040584683,0.14173004550561308
1782984716984644000,9.10564404296875,7.693048657509684,3.0855028396070003,0.018953706794977185
1782984716994718000,9.115718017578125,7.526561041235923,3.3503330489501355,0.027324425581470132
1782984717004792300,9.125792236328126,7.5600950620472425,3.3803704598173496,0.049404447703436015
1782984717014866200,9.1358662109375,7.4020005955874915,3.2803806840628384,0.48704796921052035
1782984717024941300,9.14594140625,6.531575605651736,2.885420412245393,0.4239999038189649
1782984717035015200,9.15601513671875,5.230672455793619,2.049421131263673,-0.06661401424482465
1782984717045089000,9.166089111328125,3.3852965180426833,1.0343518158107996,0.10292312579266727
1782984717055163100,9.1761630859375,0.9753080906897783,-0.5464592855349183,0.18933694226779044
1782984717065237500,9.186237548828124,-1.4175187739819288,-3.040442339392006,-0.311977306573838
1782984717075311600,9.1963115234375,-5.640123609778285,-4.877445293334127,-1.066491240458563
1782984717085385500,9.206385498046876,-13.433984757602214,-5.270756628900766,-2.4844138460010288
1782984717095459600,9.21645947265625,-23.776769925260542,-4.7157612779498095,-5.462496759852766
1782984717105534500,9.226534423828125,-32.19762607684135,-4.153763062499463,-7.7443977364748715
1782984717115608600,9.236608642578124,-34.13894017686844,-4.967056590676307,-7.532393400651216
1782984717125682700,9.2466826171875,-32.1020848049283,-7.432637725913525,-5.153768664333224
1782984717135756500,9.256756591796876,-32.47063287063837,-9.158007228058576,-2.3071882703527806
1782984717145830700,9.26683056640625,-36.843625836300845,-9.432582294085622,-0.23385880556143818
1782984717155905800,9.27690576171875,-40.680595862507815,-8.643776433694363,0.9106560972329228
1782984717165979600,9.286979736328124,-39.76910645625591,-7.846790773978829,1.1999741935573518
1782984717176053500,9.297053466796875,-33.99654830645323,-7.7415376708686345,0.5074665609262884
1782984717186127600,9.307127685546876,-25.664156035745144,-7.793744827967882,-0.4098351848661899
1782984717196202500,9.317202392578125,-17.996228375488517,-7.451750422662496,-0.9393644514534621
1782984717206276600,9.327276611328125,-12.365831794476508,-6.331458691498637,-0.9269307210117578
1782984717216350500,9.3373505859375,-8.85691240389645,-4.549265770630538,-0.4744030071709305
1782984717226424600,9.347424560546875,-8.144933178076148,-2.321404427231848,-0.19064926697537302
1782984717236499500,9.35749951171875,-8.712010596486925,0.05720014308094978,-0.3193682205427438
1782984717246573600,9.367573486328125,-6.315757849019765,2.2089996988013385,0.06603073446415364
1782984717256647700,9.377647705078125,-2.1507605680614708,3.87864322207123,0.18148710555024444
1782984717266721800,9.3877216796875,3.4529771386057138,5.2388002326697105,-1.038086253098771
1782984717276796700,9.397796630859375,9.139055274829268,6.443533749583363,-2.1328630923211573
1782984717286870800,9.407870849609376,13.9894091476202,7.303943541461229,-2.7008915278464554
1782984717296944600,9.417944580078125,18.178972130036353,9.01235957071781,-1.9279257722742855
1782984717307018500,9.4280185546875,22.297387108039853,9.321874432700872,-0.22882081139422952
1782984717317093600,9.43809375,25.4140250906229,8.620761468809842,1.708129029008746
1782984717327167500,9.44816748046875,27.610136958539485,8.176881975522637,3.697564478126168
1782984717337241600,9.45824169921875,28.197013302397725,7.830067018193006,4.68080014694482
1782984717347315500,9.4683154296875,26.031355024933813,8.192216907298564,4.582445863437652
1782984717357390600,9.478390625,20.08269913446903,8.396216215842962,3.729279759077728
1782984717367464400,9.48846435546875,13.669666321611404,8.664777720668912,2.6131080304533243
1782984717377538600,9.49853857421875,8.875422458577155,9.445187508636712,1.2708068484105168
1782984717387612700,9.50861279296875,5.019511000534892,9.255885418486594,0.05178367099016905
1782984717397687600,9.5186875,3.23447993363142,8.408069735243917,-0.4737281766492873
1782984717407761700,9.52876171875,3.9643262400537727,7.377353061065078,-0.40223968823589384
1782984717417835800,9.538835693359376,5.543548318642378,6.029691082641482,0.11926818445920943
1782984717427909600,9.54890966796875,6.960828023171424,4.696443998539448,0.5109823139622807
1782984717437984800,9.55898486328125,7.556511358341575,3.7749353025764223,0.6364158891834318
1782984717448058600,9.56905859375,7.343841836607456,3.1424089681774374,0.8007306183975189
1782984717458132500,9.579132568359375,7.02219580732584,2.5394939281880853,0.6937656698681414
1782984717468206600,9.58920654296875,6.918802068346738,2.056575094671547,0.30969606376886366
1782984717478281500,9.599281494140625,6.856753900712728,1.623092492236197,0.2434856618888676
1782984717488355600,9.60935546875,6.890714622503519,1.2228972423747182,0.3543088202163577
1782984717498429400,9.619429443359374,7.189032383167743,0.8193260863393544,0.43130452774390576
1782984717508503600,9.629503662109375,7.590377972108125,0.4871650927841663,0.7416608089871705
1782984717518578400,9.639578369140626,7.941890147343277,0.3741945471644401,1.1978634850136936
1782984717528652500,9.649652587890625,8.176845735165477,0.4683139695808291,1.514555399019271
1782984717538726700,9.6597265625,8.261579781860112,0.7359703422605991,1.722017122977227
1782984717548800800,9.66980078125,8.439910980662702,1.0957587629318237,1.7589266115710138
1782984717558875600,9.679875732421875,8.726012818354368,1.515515037831664,1.4489347797259688
1782984717568949800,9.68994970703125,8.839152290800213,1.9402368261843919,1.298153120497614
1782984717579023600,9.700023681640625,8.384464403250814,2.3549454623058437,1.1513248020049185
1782984717589097500,9.710097412109375,7.558724942737817,2.7044772773787376,1.060285517686233
1782984717599172600,9.720172607421874,6.664408789604902,2.7233330767571924,1.1151653280608356
1782984717609246500,9.73024658203125,5.890676579704881,2.1288509340703485,1.2936544939041137
1782984717619320600,9.740320556640626,4.961171624290943,1.1260469336897134,1.1484413555230946
1782984717629394400,9.75039453125,3.6852065163344143,-0.22934359315931796,1.028620724812895
1782984717639469600,9.760469482421875,2.075030496555567,-2.3121143285781143,0.6432996573477983
1782984717649543400,9.77054345703125,-0.6959159797698259,-4.208331103511155,-0.07850370093770324
1782984717659617500,9.780617431640625,-5.521112614950537,-5.293561165904999,-1.4794320631898938
1782984717669691600,9.790691650390626,-12.866612740159034,-5.963942306923866,-2.621196644362807
1782984717679765800,9.800765869140625,-21.670947984600065,-5.605066909444332,-3.3457150337606665
1782984717689840600,9.810840576171875,-29.42589108048677,-5.17156794039607,-3.019121903465688
1782984717699914800,9.820914794921874,-34.65117073732614,-5.535215959104895,-1.2284218510150908
1782984717709988600,9.830988525390625,-38.018636415123936,-6.1505368916809555,-0.6283477335400879
1782984717720063700,9.841063720703126,-39.48083428878784,-6.0538406045138835,-2.5739257746219635
1782984717730137600,9.8511376953125,-39.220997942209245,-5.639319892179966,-4.821445465953648
1782984717740211700,9.861211669921875,-36.63798402124643,-5.4499289547026155,-6.54680415444374
1782984717750285600,9.87128564453125,-31.472358330380914,-5.468233842200041,-7.780275105541944
1782984717760359400,9.881359375,-24.80193247244358,-5.654885710102319,-7.299809218135476
1782984717770434600,9.8914345703125,-18.104555479216575,-5.423134471279383,-5.309103602951764
1782984717780508400,9.90150830078125,-12.50443713209033,-5.062449394029379,-3.4698704057395457
1782984717790582800,9.911582763671875,-8.783931338837743,-4.436760504435003,-1.9138928630076348
1782984717800656600,9.92165673828125,-7.0551640109479425,-3.4728491292893886,-0.35575741158947344
1782984717810731800,9.931731689453125,-6.180362705624103,-2.2557982748553154,1.1653974587600677
1782984717820805600,9.9418056640625,-5.038235574749112,-0.6266665024548769,2.8115885755762458
1782984717830879700,9.951879638671874,-2.5305472361445425,1.0668556167915464,3.962258786129951
1782984717840953600,9.96195361328125,1.4575409877687693,2.4627596480756995,4.2645223618105055
1782984717851028700,9.97202880859375,5.762080594930052,3.3526249592795967,4.149981498134136
1782984717861102600,9.9821025390625,9.81703812302351,3.6960052659854292,4.005357338622212
1782984717871176700,9.9921767578125,13.92896256996393,3.8135076098158955,3.619475276273489
1782984717881250600,10.00225048828125,18.289380131691694,4.07407870040983,3.367046283341944
1782984717891325700,10.01232568359375,22.4857411036849,4.475194864508509,3.3560245385900136
1782984717901399600,10.022399658203126,25.531196010541915,4.557859703713655,1.8501301465407012
1782984717911473400,10.032473388671875,25.81466574616432,4.689517998668551,0.14280856145732104
1782984717921547800,10.0425478515625,22.864445821750163,5.6435226045668125,-0.999546167628467
1782984717931622400,10.052622314453124,17.65889728581905,6.454940694260597,-1.4051128813952207
1782984717941696800,10.06269677734375,11.404840398430824,7.296658060628175,-1.4831637970641254
1782984717951770600,10.0727705078125,5.712219708696008,8.047762843656539,-1.6622389461018143
1782984717961844700,10.0828447265625,2.2582272555679084,8.5472666090101,-1.5861581614620983
1782984717971919600,10.092919677734375,1.7034563610225915,8.619094412380456,-0.9523832883067429
1782984717981993700,10.10299365234375,3.4413697029203174,8.099805165582895,-0.18037644089460372
1782984717992067600,10.113067626953125,5.405877047008276,7.2019187527477735,0.8004862151823937
1782984718002141700,10.1231416015625,6.404331035485863,6.110866560071706,1.9434968508936463
1782984718012216600,10.133216552734375,7.107236728012562,4.947250650966168,2.9119372477710246
1782984718022290700,10.143290771484375,8.085915756440162,4.00092257104516,3.266246067987382
1782984718032364500,10.153364501953124,8.912952271026372,3.0623151485040783,3.323590880236029
1782984718042438400,10.1634384765625,9.392225733777881,2.397214870497584,3.4331729524612427
1782984718052513500,10.173513427734376,9.533169158950448,1.9962471749588846,3.3565281041979786
1782984718062587400,10.18358740234375,8.909521712055803,1.7030939574509858,3.2512907831788063
1782984718072662000,10.193662109375,7.840380322414636,1.4655258490428327,2.8280945969581603
1782984718082736000,10.203736083984374,7.58009214041531,1.1755343104362488,2.691764803060889
1782984718092811000,10.21381103515625,8.226314407211541,1.2299801863729953,2.93119256786108
1782984718102885000,10.223885009765626,8.493197749692202,1.4440139821976423,2.7531401859998703
1782984718112959200,10.233959228515625,8.62100930609107,1.5065657154396175,1.7429399378880857
1782984718123033000,10.244033203125,8.702259602323174,1.950304046690464,1.4803683211266994
1782984718133108200,10.254108154296874,7.970283298134803,2.394468202137947,1.388401985090971
1782984718143182000,10.26418212890625,7.17057376641333,2.8665318796411157,1.0741752921551466
1782984718153256200,10.274256103515626,5.949598139750957,3.2608947700873014,0.8618795721694826
1782984718163330000,10.284330078125,4.270846011874079,3.3071450646087523,0.7930645407490432
1782984718173405200,10.2944052734375,2.884714894324541,3.0755168676435947,0.3187807029783726
1782984718183479000,10.30447900390625,1.802291413784027,2.376082650619745,-0.17692615431025624
1782984718193553200,10.31455322265625,2.18500361392498,1.4091487127825617,-0.6766496998943388
