time,seconds_elapsed,z,y,x
1782984707958128600,0.079128662109375,-0.5527232885360718,1.9196265935897827,-0.4743218719959259
1782984707968202500,0.089202392578125,-0.32075902819633484,1.9588171243667603,-0.43826720118522644
1782984707978276600,0.099276611328125,0.12422601133584976,1.7093496322631836,-0.28581780195236206
1782984707988350700,0.109350830078125,0.5689225196838379,1.0340620279312134,-0.08962137252092361
1782984707998424600,0.119424560546875,0.8758373856544495,0.34463056921958923,0.4158642590045929
1782984708008499700,0.129499755859375,1.224770188331604,0.2906126081943512,1.2585009336471558
1782984708018573600,0.139573486328125,1.4905098676681519,0.5993868708610535,2.0504722595214844
1782984708028647700,0.149647705078125,1.7621512413024902,0.8201876878738403,2.4816505908966064
1782984708038721500,0.159721435546875,1.9234012365341187,0.42741313576698303,2.4119932651519775
1782984708048796700,0.169796630859375,2.035114288330078,-0.6692744493484497,1.905356526374817
1782984708058869000,0.179868896484375,2.028522491455078,-2.1201958656311035,0.9408217668533325
1782984708068943000,0.189943115234375,1.3596850633621216,-2.6740365028381348,-0.4223417043685913
1782984708079017000,0.200016845703125,0.664762556552887,-2.599013566970825,-1.2757365703582764
1782984708089092000,0.210092041015625,0.4098857343196869,-1.8940696716308594,-1.746107578277588
1782984708099166000,0.220166015625,0.5955144762992859,-0.9123594760894775,-2.2181291580200195
1782984708109240000,0.230239990234375,0.8776625394821167,-0.5781362056732178,-2.504606246948242
1782984708119314000,0.24031396484375,1.0543183088302612,-0.682974636554718,-2.6320815086364746
1782984708129387800,0.2503876953125,0.8241402506828308,-1.135080099105835,-2.9022016525268555
1782984708139463000,0.260462890625,0.3833962678909302,-1.6872183084487915,-3.1881771087646484
1782984708149536800,0.270536865234375,0.18060559034347534,-2.146193265914917,-3.0763819217681885
1782984708159611000,0.28061083984375,0.3108316659927368,-2.3891117572784424,-2.536893367767334
1782984708169685000,0.29068505859375,0.662816047668457,-2.40458083152771,-1.7059013843536377
1782984708179759900,0.300759765625,1.0615170001983643,-2.2068934440612793,-0.8440622687339783
1782984708189834000,0.310833984375,1.3199783563613892,-1.8633449077606201,-0.15787775814533234
1782984708199908000,0.320908203125,1.4207805395126343,-1.4023622274398804,0.29944849014282227
1782984708209982000,0.33098193359375,1.3913980722427368,-0.9999058842658997,0.46647074818611145
1782984708220057000,0.34105712890625,1.2165651321411133,-0.8519881963729858,0.3505277633666992
1782984708230131000,0.351130859375,0.8527626395225525,-0.9341033101081848,0.02889166586101055
1782984708240205000,0.361205078125,0.5405217409133911,-0.9429089426994324,-0.3509382903575897
1782984708250279000,0.37127880859375,0.42390668392181396,-0.9291619658470154,-0.6727656126022339
1782984708260354000,0.38135400390625,0.46282660961151123,-0.8737924098968506,-0.8811094164848328
1782984708270428000,0.391427978515625,0.5490754842758179,-0.6581189632415771,-0.9494203329086304
1782984708280501800,0.401501708984375,0.5916503667831421,-0.16427503526210785,-0.9746714234352112
1782984708290576000,0.411575927734375,0.5720205307006836,0.3473496437072754,-0.9839786291122437
1782984708300650000,0.42164990234375,0.5104151964187622,0.6280227303504944,-0.8968199491500854
1782984708310724900,0.431724853515625,0.4333808422088623,0.7054237723350525,-0.6318852305412292
1782984708320799000,0.441799072265625,0.3858662247657776,0.610082745552063,-0.26842498779296875
1782984708330873000,0.451873046875,0.3948115110397339,0.5210140943527222,0.10787060111761093
1782984708340947000,0.461947021484375,0.44676992297172546,0.5967953205108643,0.41979241371154785
1782984708351022000,0.47202197265625,0.4919280707836151,0.8389152884483337,0.5988470911979675
1782984708361096000,0.482095947265625,0.4629727602005005,1.059869647026062,0.6843470931053162
1782984708371170000,0.492170166015625,0.3379780948162079,1.2558892965316772,0.7610114812850952
1782984708381244000,0.502243896484375,0.23832206428050995,1.3835798501968384,0.8547924160957336
1782984708391319000,0.512319091796875,0.2723276913166046,1.5085865259170532,0.9769585132598877
1782984708401393000,0.522392822265625,0.49552804231643677,1.7271332740783691,1.0583364963531494
1782984708411466800,0.532466796875,0.8245554566383362,1.969005823135376,1.09237802028656
1782984708421540900,0.542540771484375,1.0250396728515625,1.9725902080535889,1.1738864183425903
1782984708431615000,0.552614990234375,0.9850377440452576,1.7507110834121704,1.4040756225585938
1782984708441689900,0.56268994140625,0.8100196719169617,1.3052786588668823,1.7218915224075317
1782984708451764000,0.572763916015625,0.5643619298934937,0.8687136173248291,2.0491909980773926
1782984708461838000,0.582838134765625,0.2639298141002655,0.6711146235466003,2.3429486751556396
1782984708471912000,0.592911865234375,0.04506909102201462,0.8019405603408813,2.430758237838745
1782984708481987000,0.602987060546875,-0.0053180065006017685,1.2368046045303345,2.2918810844421387
1782984708492061000,0.61306103515625,0.01874898001551628,1.603227138519287,1.9869914054870605
1782984708502135000,0.623135009765625,-0.09294340014457703,1.7003682851791382,1.574635624885559
1782984708512209000,0.633208984375,-0.24598434567451477,1.5474562644958496,1.193434476852417
1782984708522284000,0.643283935546875,-0.29327628016471863,1.5014901161193848,0.8308697938919067
1782984708532358000,0.65335791015625,-0.07669095695018768,2.111820936203003,0.40849569439888
1782984708542431700,0.663431640625,0.20613883435726166,2.382160186767578,0.030959229916334152
1782984708552505900,0.673505859375,0.3998507857322693,2.0413448810577393,-0.22668109834194183
1782984708562580700,0.683580810546875,0.43960368633270264,1.1893963813781738,-0.31605982780456543
1782984708572654800,0.69365478515625,0.3985348343849182,0.6693241000175476,-0.185969740152359
1782984708582729000,0.70372900390625,0.09028390049934387,0.8820016980171204,-0.1842213273048401
1782984708592803000,0.713802978515625,-0.16707094013690948,1.3011192083358765,-0.4205441474914551
1782984708602878000,0.7238779296875,-0.03198247775435448,1.4159952402114868,-0.7718775868415833
1782984708612952000,0.7339521484375,0.3716523349285126,1.0986639261245728,-1.0225106477737427
1782984708623026000,0.74402587890625,0.5964608788490295,0.7193701267242432,-1.1015114784240723
1782984708633100000,0.75410009765625,0.6471280455589294,0.1774863302707672,-1.241775393486023
1782984708643174000,0.764173828125,0.7281331419944763,-0.3548841178417206,-1.5365575551986694
1782984708653249000,0.7742490234375,0.8919220566749573,-0.5233067274093628,-1.8778246641159058
1782984708663323000,0.784322998046875,0.8976036310195923,-0.4217415452003479,-2.140080213546753
1782984708673396700,0.794396728515625,0.6554415822029114,-0.4788708984851837,-2.126166820526123
1782984708683470800,0.804470947265625,0.4821915328502655,-0.5741745233535767,-1.807657241821289
1782984708693546000,0.8145458984375,0.46483755111694336,-0.5986660122871399,-1.364816665649414
1782984708703619800,0.824619873046875,0.6979540586471558,-0.4251873195171356,-0.8242294192314148
1782984708713694000,0.83469384765625,1.0839041471481323,0.6591030359268188,-0.5069209337234497
1782984708723768000,0.84476806640625,1.1255100965499878,1.5161241292953491,0.3928954005241394
1782984708733843000,0.854843017578125,0.6769320964813232,0.9311096668243408,0.9503602385520935
1782984708743917000,0.8649169921875,0.1601220816373825,0.37611624598503113,1.6302138566970825
1782984708753991000,0.874990966796875,-0.14083029329776764,-0.3533661663532257,2.174943447113037
1782984708764065000,0.88506494140625,-0.39173373579978943,-1.1272083520889282,2.3952300548553467
1782984708774140000,0.895139892578125,-0.5668264031410217,-1.7967702150344849,2.5032801628112793
1782984708784214000,0.905214111328125,-0.6673120260238647,-1.801931381225586,2.060389280319214
1782984708794287900,0.915287841796875,-0.4507770240306854,-1.231175422668457,1.4031002521514893
1782984708804362000,0.925362060546875,-0.3870675265789032,-0.5187329649925232,0.6093957424163818
1782984708814435800,0.935435791015625,-0.4742567837238312,0.005766734480857849,-0.11281038075685501
1782984708824511000,0.945510986328125,-0.6054002642631531,0.1751701831817627,-0.5214262008666992
1782984708834584800,0.955584716796875,-0.5718784928321838,0.027911756187677383,-0.5896332263946533
1782984708844659000,0.965658935546875,-0.5259926915168762,-0.4376421272754669,-0.35769355297088623
1782984708854733000,0.975733154296875,-0.7239566445350647,-0.41350057721138,-0.2539043128490448
1782984708864808000,0.985807861328125,-0.7533342838287354,0.057455889880657196,-0.3017425835132599
1782984708874882000,0.995882080078125,-0.8197758793830872,0.39711013436317444,-0.43030375242233276
1782984708884956000,1.005955810546875,-1.0012309551239014,0.47635704278945923,-0.15487417578697205
1782984708895030000,1.016030029296875,-1.2621328830718994,0.09419956058263779,0.003669391619041562
1782984708905105000,1.02610498046875,-1.1667979955673218,-0.047319941222667694,-0.12013851851224899
1782984708915179000,1.036178955078125,-0.9068670868873596,-0.21747542917728424,-0.2306802123785019
1782984708925252900,1.0462529296875,-0.648252546787262,-0.41274601221084595,-0.16480380296707153
1782984708935327000,1.056326904296875,-0.43651020526885986,-0.42097675800323486,-0.0002862254623323679
1782984708945401900,1.06640185546875,-0.3195926249027252,-0.12269216775894165,0.15204204618930817
1782984708955476000,1.07647607421875,-0.3115687966346741,0.28460928797721863,0.2552848160266876
1782984708965549800,1.0865498046875,-0.3636530041694641,0.5273272395133972,0.3532201051712036
1782984708975624000,1.0966240234375,-0.3909149765968323,0.5251876711845398,0.38257184624671936
1782984708985698800,1.10669873046875,-0.38942375779151917,0.5565369129180908,0.34801390767097473
1782984708995773000,1.11677294921875,-0.3291556239128113,0.46081575751304626,0.20445701479911804
1782984709005847000,1.126846923828125,-0.22911371290683746,0.4115472137928009,-0.0003087345394305885
1782984709015921000,1.1369208984375,-0.1570775955915451,0.4217098355293274,-0.2034594565629959
1782984709025995000,1.1469951171875,-0.1275022029876709,0.5255730152130127,-0.33365270495414734
1782984709036070000,1.15706982421875,-0.09587237983942032,0.6085192561149597,-0.3907652795314789
1782984709046144000,1.16714404296875,-0.02449524961411953,0.6312044858932495,-0.442737340927124
1782984709056218400,1.17721826171875,0.06266281753778458,0.6504785418510437,-0.42783376574516296
1782984709066292500,1.18729248046875,0.27969637513160706,0.5712376236915588,-0.16552525758743286
1782984709076367400,1.197367431640625,0.5026471614837646,0.42923834919929504,0.21306093037128448
1782984709086441500,1.20744140625,0.5672698616981506,0.3479762673377991,0.4795624017715454
1782984709096515300,1.217515380859375,0.508967936038971,0.5950667858123779,0.41393038630485535
1782984709106589400,1.22758935546875,0.39356425404548645,1.0583627223968506,0.09990975260734558
1782984709116664300,1.237664306640625,-0.18897932767868042,1.517751693725586,-0.46982428431510925
1782984709126738400,1.247738525390625,-0.6371353268623352,1.5556572675704956,-1.2289339303970337
1782984709136812500,1.2578125,-0.6169799566268921,0.8604984283447266,-2.30381178855896
1782984709146886400,1.267886474609375,-0.4124968945980072,0.24102424085140228,-3.2694597244262695
1782984709156961500,1.27796142578125,-0.005032720044255257,0.25423991680145264,-3.289918899536133
1782984709167035400,1.288035400390625,0.18148928880691528,0.6657077074050903,-2.0925498008728027
1782984709177109500,1.298109619140625,0.07287891954183578,0.9057631492614746,-0.0725666806101799
1782984709187183400,1.308183349609375,-0.12347318232059479,1.1550624370574951,1.5135061740875244
1782984709197258500,1.318258544921875,-0.45785224437713623,1.6840565204620361,1.802085518836975
1782984709207332400,1.328332275390625,-0.5927097201347351,2.280238389968872,1.1470533609390259
1782984709217406500,1.338406494140625,-0.24260447919368744,2.4998698234558105,0.3937872648239136
1782984709227480300,1.348480224609375,0.3185800015926361,1.8854866027832031,0.3492245674133301
1782984709237554400,1.358554443359375,0.757662296295166,0.6554083824157715,0.995754599571228
1782984709247629300,1.36862939453125,1.079371452331543,-0.09487343579530716,2.1033618450164795
1782984709257703400,1.378703369140625,1.2259411811828613,-0.4881879985332489,3.309821367263794
1782984709267777500,1.388777587890625,1.2323747873306274,-0.6105926632881165,4.112955570220947
1782984709277851400,1.398851318359375,1.2193609476089478,-0.37195131182670593,4.267919063568115
1782984709287926500,1.408926513671875,1.1495747566223145,-0.08542554080486298,3.734476089477539
1782984709298000400,1.41900048828125,0.8988229632377625,-0.1358540803194046,2.6785950660705566
1782984709308074500,1.429074462890625,0.614193856716156,-0.4552418291568756,1.3350741863250732
1782984709318148400,1.4391484375,0.28489479422569275,-0.8899538516998291,0.009026105515658855
1782984709328223500,1.449223388671875,-0.04207249730825424,-1.2872270345687866,-1.0678914785385132
1782984709338297300,1.45929736328125,-0.3380247950553894,-1.5773650407791138,-1.7459049224853516
1782984709348371500,1.469371337890625,-0.538563072681427,-1.6522490978240967,-2.023247241973877
1782984709358445300,1.4794453125,-0.5941547155380249,-1.402603030204773,-1.9577045440673828
1782984709368520400,1.4895205078125,-0.5409640669822693,-0.9758652448654175,-1.6379212141036987
1782984709378594300,1.49959423828125,-0.4375857412815094,-0.5608323812484741,-1.1982018947601318
1782984709388668400,1.50966845703125,-0.3457415699958801,-0.43912801146507263,-0.7387182116508484
1782984709398742500,1.519742431640625,-0.2456863522529602,-0.6583623886108398,-0.266093909740448
1782984709408816400,1.52981640625,-0.1278185397386551,-1.0558292865753174,0.1150142103433609
1782984709418891500,1.5398916015625,-0.054084137082099915,-1.3465332984924316,0.34833720326423645
1782984709428965400,1.54996533203125,-0.03810799494385719,-1.340283751487732,0.43689435720443726
1782984709439039500,1.56003955078125,-0.06232332065701485,-1.3167986869812012,0.4808144271373749
1782984709449113300,1.57011328125,-0.09239836037158966,-1.1390712261199951,0.38133543729782104
1782984709459188500,1.5801884765625,-0.11656388640403748,-0.9059179425239563,0.18382528424263
1782984709469262300,1.590262451171875,-0.21495167911052704,-0.7195634245872498,-0.028650304302573204
1782984709479336400,1.60033642578125,-0.34019961953163147,-0.6831918358802795,-0.12514568865299225
1782984709489410300,1.610410400390625,-0.4282878637313843,-0.5559406876564026,-0.1645457148551941
1782984709499485400,1.6204853515625,-0.5619117021560669,-0.3897700309753418,-0.29318705201148987
1782984709509559300,1.630559326171875,-0.6379308104515076,-0.36895617842674255,-0.4269978404045105
1782984709519633400,1.64063330078125,-0.6365459561347961,-0.4918179214000702,-0.537018358707428
1782984709529707500,1.65070751953125,-0.6116932034492493,-0.7216351628303528,-0.5890432596206665
1782984709539781400,1.660781494140625,-0.5713692307472229,-0.9911680817604065,-0.6202147603034973
1782984709549856500,1.6708564453125,-0.5501713156700134,-1.1212815046310425,-0.6164935231208801
1782984709559930400,1.680930419921875,-0.49374154210090637,-1.066046118736267,-0.534011960029602
1782984709570004500,1.69100439453125,-0.445127010345459,-0.8837330937385559,-0.4534406363964081
1782984709580078300,1.701078369140625,-0.4690733551979065,-0.6718288064002991,-0.48451200127601624
1782984709590153500,1.711153564453125,-0.5073649883270264,-0.48810651898384094,-0.6416135430335999
1782984709600227300,1.721227294921875,-0.5921259522438049,-0.36735695600509644,-0.8534075617790222
1782984709610301400,1.731301513671875,-0.7787371277809143,-0.4219679832458496,-1.0596970319747925
1782984709620375300,1.741375244140625,-0.9528873562812805,-0.18607769906520844,-1.2652981281280518
1782984709630450400,1.751450439453125,-0.9994006752967834,-0.01771075464785099,-1.3062680959701538
1782984709640524300,1.761524169921875,-0.972460925579071,-0.2776842713356018,-1.191868543624878
1782984709650598400,1.771598388671875,-0.8963540196418762,-0.7734327912330627,-1.0275987386703491
1782984709660672500,1.781672607421875,-0.6843320727348328,-0.931063711643219,-0.8791877627372742
1782984709670747400,1.791747314453125,-0.46390944719314575,-0.7990213632583618,-1.016035795211792
1782984709680821500,1.801821533203125,-0.31372153759002686,-1.1123722791671753,-1.438863754272461
1782984709690895600,1.8118955078125,-0.3954935073852539,-0.8084657192230225,-1.6076136827468872
1782984709700969500,1.821969482421875,-0.5774875283241272,-0.4635924994945526,-1.5145149230957031
1782984709711044600,1.832044677734375,-0.616569459438324,0.5835954546928406,-1.0713191032409668
1782984709721118500,1.842118408203125,-0.43824923038482666,1.426226258277893,-0.43502384424209595
1782984709731192300,1.8521923828125,-0.036240145564079285,1.7211400270462036,0.3973396420478821
1782984709741266400,1.862266357421875,0.3893386125564575,1.8533406257629395,0.9489524960517883
1782984709751340300,1.87234033203125,0.7732919454574585,1.5686514377593994,1.071014642715454
1782984709761415400,1.88241552734375,1.1406056880950928,0.931937038898468,1.1054362058639526
1782984709771489300,1.8924892578125,1.1679288148880005,0.1543566733598709,1.2287167310714722
1782984709781563600,1.902563720703125,0.9012827277183533,0.026052504777908325,1.645501732826233
1782984709791637500,1.912637451171875,0.5757871270179749,0.6485416293144226,2.199484348297119
1782984709801712600,1.922712646484375,0.2583177983760834,1.449129343032837,2.813039541244507
1782984709811786500,1.932786376953125,-0.26141977310180664,1.8942309617996216,3.3205490112304688
1782984709821860600,1.942860595703125,-0.48188716173171997,1.9560801982879639,3.2459218502044678
1782984709831934500,1.9529345703125,-0.34585824608802795,1.6723928451538086,2.7426624298095703
1782984709842009600,1.963009521484375,-0.2622176706790924,1.0320954322814941,2.362065553665161
1782984709852083500,1.97308349609375,-0.5072138905525208,0.27533629536628723,2.1050806045532227
1782984709862157300,1.9831572265625,-0.6236944198608398,-0.421163946390152,1.6217657327651978
1782984709872231400,1.9932314453125,-0.5143576860427856,-0.9768778085708618,1.0898497104644775
1782984709882305300,2.00330517578125,-0.39165574312210083,-1.44788658618927,0.5535851716995239
1782984709892380400,2.01338037109375,-0.3276422619819641,-1.626720666885376,-0.23050877451896667
1782984709902454300,2.023454345703125,-0.1598586142063141,-1.702528953552246,-0.9683133363723755
1782984709912528600,2.033528564453125,-0.1655994951725006,-1.9847371578216553,-1.4053702354431152
1782984709922602500,2.0436025390625,-0.3097587823867798,-2.1722254753112793,-1.59628427028656
1782984709932677600,2.053677734375,-0.33802396059036255,-1.4711650609970093,-1.5842196941375732
1782984709942751500,2.06375146484375,-0.3547278344631195,-0.7062658667564392,-1.5538058280944824
1782984709952825600,2.07382568359375,-0.44559985399246216,-0.08819697797298431,-1.4979881048202515
1782984709962899500,2.0838994140625,-0.5326055884361267,0.3217726945877075,-1.3969141244888306
1782984709972974600,2.093974609375,-0.49279841780662537,0.5158767104148865,-1.2347087860107422
1782984709983048400,2.10404833984375,-0.33388999104499817,0.49113601446151733,-1.0928906202316284
1782984709993122300,2.114122314453125,-0.19188547134399414,0.27607107162475586,-0.9907852411270142
1782984710003196400,2.124196533203125,-0.13410580158233643,-0.09173784404993057,-0.895308256149292
1782984710013271300,2.134271240234375,-0.09538929164409637,-0.45837336778640747,-0.8324781060218811
1782984710023345400,2.144345458984375,-0.10665899515151978,-0.6817271113395691,-0.8233280181884766
1782984710033419300,2.154419189453125,-0.17000815272331238,-0.7449212074279785,-0.8520259261131287
1782984710043493600,2.16449365234375,-0.23920319974422455,-0.684592604637146,-0.8367487192153931
1782984710053567500,2.1745673828125,-0.28465956449508667,-0.5682641267776489,-0.7725372314453125
1782984710063642600,2.184642578125,-0.27888476848602295,-0.48976585268974304,-0.7015624046325684
1782984710073716500,2.194716552734375,-0.22704148292541504,-0.40710458159446716,-0.6211197972297668
1782984710083790600,2.20479052734375,-0.16356955468654633,-0.3269522190093994,-0.5435259342193604
1782984710093864400,2.214864501953125,-0.1236988976597786,-0.20507217943668365,-0.4934503436088562
1782984710103939600,2.224939697265625,-0.11039508134126663,-0.03537449613213539,-0.469961017370224
1782984710114013400,2.235013427734375,-0.14300090074539185,0.09145566821098328,-0.4842945635318756
1782984710124087300,2.24508740234375,-0.2125845104455948,0.14785236120224,-0.526742696762085
1782984710134161400,2.255161376953125,-0.3020610511302948,0.08591963350772858,-0.5338497757911682
1782984710144236300,2.265236328125,-0.36899134516716003,-0.05994516611099243,-0.47831884026527405
1782984710154310400,2.275310302734375,-0.45964622497558594,-0.17244255542755127,-0.42669811844825745
1782984710164384300,2.28538427734375,-0.47386032342910767,-0.2087438404560089,-0.4244440197944641
1782984710174458600,2.295458740234375,-0.5128437280654907,-0.34854161739349365,-0.35391440987586975
1782984710184533200,2.305533203125,-0.5236074328422546,-0.4019710123538971,-0.34332194924354553
1782984710194607600,2.315607666015625,-0.5292592644691467,-0.44689199328422546,-0.3597757816314697
1782984710204681500,2.325681396484375,-0.4856114089488983,-0.5135663151741028,-0.3312831521034241
1782984710214755600,2.335755615234375,-0.40809810161590576,-0.6004059910774231,-0.2940419912338257
1782984710224830500,2.34583056640625,-0.33131250739097595,-0.5747962594032288,-0.22471804916858673
1782984710234904600,2.355904541015625,-0.28129833936691284,-0.4349929392337799,-0.12295927107334137
1782984710244978400,2.365978515625,-0.4694378674030304,-0.34661540389060974,-0.08645159006118774
1782984710255052300,2.37605224609375,-0.7278112769126892,-0.17082135379314423,-0.3721380829811096
1782984710265126400,2.38612646484375,-0.8805339932441711,0.4685865640640259,-1.1537859439849854
1782984710275201500,2.396201416015625,-1.1219747066497803,1.4823315143585205,-2.1352744102478027
1782984710285275400,2.406275390625,-1.059985876083374,2.418933153152466,-2.56490159034729
1782984710295349200,2.416349365234375,-0.5018518567085266,2.7323973178863525,-1.81105637550354
1782984710305423600,2.426423583984375,0.14630857110023499,1.9738062620162964,0.035842329263687134
1782984710315498200,2.436498291015625,0.8241003751754761,0.5031869411468506,2.1190273761749268
1782984710325572600,2.446572509765625,1.379124402999878,-0.7310308218002319,3.1920974254608154
1782984710335646500,2.456646484375,1.5679341554641724,-0.9220089912414551,2.9457099437713623
1782984710345720600,2.466720458984375,1.4830254316329956,-0.22030867636203766,1.9858384132385254
1782984710355795500,2.47679541015625,1.2037442922592163,0.6401103138923645,1.0541728734970093
1782984710365869600,2.48686962890625,0.910968005657196,1.3714202642440796,0.4834412932395935
1782984710375943400,2.496943359375,0.679021418094635,1.7388025522232056,0.4215565323829651
1782984710386017500,2.507017578125,0.44111111760139465,1.8806052207946777,0.7172377109527588
1782984710396091400,2.51709130859375,0.11788681149482727,1.929146647453308,1.0314064025878906
1782984710406166500,2.52716650390625,-0.336899071931839,1.5507357120513916,1.3833115100860596
1782984710416240400,2.537240478515625,-0.563150942325592,1.1344382762908936,1.6991835832595825
1782984710426314200,2.547314208984375,-0.5548053979873657,0.7205535769462585,1.861422061920166
1782984710436388600,2.557388671875,-0.4772818088531494,0.12183602154254913,1.8034900426864624
1782984710446463200,2.567463134765625,-0.4169958233833313,-0.546894371509552,1.589378833770752
1782984710456537600,2.57753759765625,-0.4258694648742676,-0.9552145600318909,1.195889949798584
1782984710466611500,2.587611572265625,-0.45142677426338196,-1.0788134336471558,0.5358449816703796
1782984710476685600,2.597685546875,-0.4892764091491699,-1.1758991479873657,-0.41737470030784607
1782984710486760400,2.607760498046875,-0.49221494793891907,-1.257102131843567,-1.4487922191619873
1782984710496834600,2.61783447265625,-0.49485886096954346,-1.3425178527832031,-2.291916847229004
1782984710506908400,2.627908447265625,-0.5212379693984985,-1.4226340055465698,-2.7268054485321045
1782984710516982500,2.637982421875,-0.3772144615650177,-1.039764404296875,-2.5360536575317383
1782984710527057400,2.648057373046875,-0.2778093218803406,-0.552922785282135,-2.16825795173645
1782984710537131500,2.658131591796875,-0.3125494718551636,-0.33342987298965454,-1.6518194675445557
1782984710547205400,2.668205322265625,-0.32542774081230164,-0.43697676062583923,-1.116125464439392
1782984710557279200,2.678279296875,-0.24630092084407806,-0.48395800590515137,-0.6578604578971863
1782984710567353600,2.688353515625,-0.10621171444654465,-0.5478544235229492,-0.34064817428588867
1782984710577428200,2.69842822265625,-0.028951989486813545,-0.5950671434402466,-0.19764572381973267
1782984710587502600,2.708502685546875,0.0346195288002491,-0.5388403534889221,-0.1985626518726349
1782984710597576400,2.718576416015625,0.09841778874397278,-0.34932616353034973,-0.26220712065696716
1782984710607650600,2.728650634765625,0.12294124066829681,-0.18082505464553833,-0.2981667220592499
1782984710617725400,2.738725341796875,0.09484703093767166,-0.09995382279157639,-0.25838494300842285
1782984710627799600,2.748799560546875,0.06853660196065903,-0.10367878526449203,-0.17008143663406372
1782984710637873400,2.758873291015625,0.03599865734577179,-0.09113191813230515,-0.09167023748159409
1782984710647947500,2.768947509765625,-0.01982972025871277,-0.13865868747234344,-0.03363143280148506
1782984710658022400,2.7790224609375,-0.10300751775503159,-0.20963509380817413,0.014693635515868664
1782984710668096500,2.789096435546875,-0.17624737322330475,-0.2547016441822052,0.005868718959391117
1782984710678170400,2.79917041015625,-0.23893284797668457,-0.25126633048057556,-0.050850480794906616
1782984710688244200,2.809244140625,-0.2695789039134979,-0.20048359036445618,-0.1299615502357483
1782984710698319400,2.8193193359375,-0.2971648871898651,-0.12023604661226273,-0.20874163508415222
1782984710708393200,2.829393310546875,-0.33092576265335083,-0.043108511716127396,-0.2913433015346527
1782984710718467600,2.839467529296875,-0.3462272584438324,0.031794268637895584,-0.37000012397766113
1782984710728541400,2.84954150390625,-0.33642125129699707,0.08796193450689316,-0.3444311320781708
1782984710738615600,2.859615478515625,-0.29637664556503296,0.07583353668451309,-0.21184271574020386
1782984710748690400,2.8696904296875,-0.22735843062400818,0.009490469470620155,-0.11675136536359787
1782984710758764500,2.8797646484375,-0.19613051414489746,-0.014669576659798622,-0.12207840383052826
1782984710768838400,2.88983837890625,-0.15475350618362427,0.025145214051008224,-0.12787796556949615
1782984710778912500,2.89991259765625,-0.11245468258857727,0.0482160747051239,-0.05286787822842598
1782984710788987400,2.9099873046875,-0.08434954285621643,-0.13769732415676117,0.0624118410050869
1782984710799061500,2.9200615234375,0.012781312689185143,-0.32526925206184387,0.17332549393177032
1782984710809135400,2.93013525390625,0.17878518998622894,-0.2642405331134796,0.1795746088027954
1782984710819209200,2.940209228515625,0.2458106428384781,0.05625348165631294,-0.24433766305446625
1782984710829284400,2.950284423828125,0.13274294137954712,0.7167131900787354,-1.1464298963546753
1782984710839358200,2.960358154296875,-0.22453977167606354,1.8273767232894897,-2.224935531616211
1782984710849432600,2.9704326171875,-0.5651841163635254,3.2290148735046387,-2.8551218509674072
1782984710859506400,2.98050634765625,-0.4913673996925354,3.851377248764038,-2.2844409942626953
1782984710869581600,2.99058154296875,-0.05806177854537964,3.068777084350586,-0.7198714017868042
1782984710879655400,3.000655517578125,0.5626426339149475,1.5803059339523315,1.2637500762939453
1782984710889729500,3.0107294921875,0.9877249598503113,0.22205698490142822,2.558420419692993
1782984710899803400,3.020803466796875,1.0928620100021362,-0.4527696669101715,2.7583844661712646
1782984710909877500,3.03087744140625,1.0154914855957031,-0.2285245656967163,2.0800373554229736
1782984710919952400,3.040952392578125,0.8959895968437195,0.6986324191093445,1.0655488967895508
1782984710930026500,3.051026611328125,0.7621169686317444,1.5354011058807373,0.2181328982114792
1782984710940100400,3.061100341796875,0.7438852190971375,1.7531839609146118,-0.1620255410671234
1782984710950174200,3.07117431640625,0.7700260281562805,1.559854507446289,-0.13526158034801483
1782984710960249300,3.081249267578125,0.9207919239997864,1.2801039218902588,0.043850336223840714
1782984710970323200,3.0913232421875,1.1010842323303223,0.8028988242149353,0.46026700735092163
1782984710980397600,3.1013974609375,1.1183327436447144,-0.010571999475359917,1.2699393033981323
1782984710990471400,3.111471435546875,1.1030235290527344,-0.726536750793457,2.219085454940796
1782984711000546600,3.121546630859375,0.9125773906707764,-1.0826454162597656,2.9764132499694824
1782984711010620400,3.131620361328125,0.6683186888694763,-1.1571828126907349,3.3828206062316895
1782984711020694500,3.141694580078125,0.4420899748802185,-1.0803781747817993,3.3884568214416504
1782984711030768400,3.151768310546875,0.3745138347148895,-0.7073010206222534,2.988490581512451
1782984711040843500,3.161843505859375,0.4638718068599701,-0.4686991274356842,2.1295905113220215
1782984711050917400,3.17191748046875,0.40416187047958374,-0.47911155223846436,0.945832371711731
1782984711060991700,3.18199169921875,0.1382296234369278,-0.47602200508117676,-0.3279777765274048
1782984711071065600,3.192065673828125,-0.23591867089271545,-0.5012165904045105,-1.4472856521606445
1782984711081139700,3.2021396484375,-0.5637385249137878,-0.6911266446113586,-2.2494900226593018
1782984711091214600,3.212214599609375,-0.7471312284469604,-0.9491462111473083,-2.727424383163452
1782984711101288700,3.222288818359375,-0.7812778949737549,-0.7389668226242065,-2.597886800765991
1782984711111362800,3.23236279296875,-0.7289105653762817,-0.6423662304878235,-2.1957952976226807
1782984711121436700,3.242436767578125,-0.5636042952537537,-0.8341386318206787,-1.5736647844314575
1782984711131511800,3.25251171875,-0.3204140365123749,-0.962472140789032,-0.9205958843231201
1782984711141585700,3.262585693359375,-0.10736613720655441,-1.084726095199585,-0.44924163818359375
1782984711151659800,3.27265966796875,0.026385271921753883,-1.2027182579040527,-0.21796263754367828
1782984711161733600,3.282733642578125,0.15220431983470917,-1.1664711236953735,-0.149204820394516
1782984711171808800,3.292808837890625,0.32315316796302795,-1.0633386373519897,-0.15201632678508759
1782984711181882600,3.302882568359375,0.39592576026916504,-0.8714314699172974,-0.20212456583976746
1782984711191956700,3.312956787109375,0.5098981261253357,-0.6890180110931396,-0.2169988453388214
1782984711202030600,3.323030517578125,0.6098456978797913,-0.4839176833629608,-0.206885427236557
1782984711212105700,3.333105712890625,0.6172999143600464,-0.36372897028923035,-0.2108985334634781
1782984711222179600,3.3431796875,0.4921920597553253,-0.37988921999931335,-0.20120090246200562
1782984711232253700,3.353253662109375,0.25979238748550415,-0.3970354497432709,-0.22692623734474182
1782984711242327800,3.363327880859375,0.1270933598279953,-0.300337553024292,-0.3079790472984314
1782984711252401700,3.373401611328125,0.099910207092762,-0.17770643532276154,-0.4290069341659546
1782984711262476800,3.383476806640625,0.056399866938591,-0.171522319316864,-0.5169026255607605
1782984711272550700,3.393550537109375,-0.0007587614236399531,-0.24472303688526154,-0.5510920286178589
1782984711282624800,3.403624755859375,-0.0668451339006424,-0.2815748155117035,-0.59324049949646
1782984711292698600,3.41369873046875,-0.09116432070732117,-0.28238174319267273,-0.6032577157020569
1782984711302773800,3.423773681640625,-0.07648496329784393,-0.300830602645874,-0.5619555711746216
1782984711312847600,3.43384765625,-0.02741302363574505,-0.3225233852863312,-0.4109775722026825
1782984711322921700,3.443921630859375,0.0183111559599638,-0.3712991178035736,-0.1881781667470932
1782984711332995600,3.45399560546875,0.0890716165304184,-0.31215137243270874,0.03516117483377457
1782984711343070700,3.46407080078125,0.20998872816562653,-0.23909001052379608,0.21373802423477173
1782984711353144600,3.47414453125,0.38561540842056274,-0.22704213857650757,0.31842926144599915
1782984711363218700,3.48421875,0.45240288972854614,-0.32924097776412964,0.37725573778152466
1782984711373292800,3.494292724609375,0.42360374331474304,-0.49848008155822754,0.3924831748008728
1782984711383366700,3.50436669921875,0.3496898114681244,-0.48591306805610657,0.27669557929039
1782984711393441800,3.51444189453125,0.31249797344207764,-0.35205620527267456,-0.06573555618524551
1782984711403515600,3.524515625,0.31548136472702026,-0.13810424506664276,-0.6782468557357788
1782984711413589800,3.53458984375,0.2727198004722595,0.2834046483039856,-1.1363842487335205
1782984711423663600,3.54466357421875,0.182864248752594,0.7614570260047913,-0.9647790789604187
1782984711433738800,3.55473876953125,0.04684915021061897,0.5576387047767639,-0.2979946732521057
1782984711443812600,3.5648125,0.01775762066245079,0.056175440549850464,0.26194846630096436
1782984711453886700,3.57488671875,0.11755132675170898,-0.10565873235464096,0.24429917335510254
1782984711463960600,3.584960693359375,0.40507397055625916,-0.04043274000287056,-0.028139354661107063
1782984711474035700,3.59503564453125,0.7374045252799988,0.009099656715989113,-0.004854539409279823
1782984711484109600,3.605109619140625,1.0196750164031982,-0.06750111281871796,0.503322184085846
1782984711494183700,3.61518359375,1.1145858764648438,-0.10817929357290268,1.1478947401046753
1782984711504257800,3.6252578125,1.0164376497268677,0.05189426988363266,1.5429373979568481
1782984711514332700,3.635332763671875,0.782338559627533,0.3758249282836914,1.6620557308197021
1782984711524406800,3.64540673828125,0.5225133299827576,0.49995139241218567,1.686669111251831
1782984711534481000,3.65548095703125,0.3177218437194824,0.5314477682113647,1.7423582077026367
1782984711544554800,3.6655546875,0.16904352605342865,0.5460662245750427,1.8019428253173828
1782984711554630000,3.6756298828125,0.03889671713113785,0.5800188779830933,1.907030701637268
1782984711564703700,3.685703857421875,-0.07436243444681168,0.5517927408218384,1.9816924333572388
1782984711574777600,3.695777587890625,-0.16042383015155792,0.4372642934322357,1.9842724800109863
1782984711584851700,3.705851806640625,-0.2049095183610916,0.2685271203517914,1.8741413354873657
1782984711594925600,3.715925537109375,-0.25716206431388855,-0.024816323071718216,1.5295560359954834
1782984711605000700,3.726000732421875,-0.2938559651374817,-0.4474412202835083,0.9484584331512451
1782984711615074600,3.736074462890625,-0.3068854808807373,-0.7503169775009155,0.26330408453941345
1782984711625148700,3.746148681640625,-0.2879229485988617,-0.8985973596572876,-0.4133937656879425
1782984711635222800,3.756222900390625,-0.2676674723625183,-0.9115172028541565,-0.9828044772148132
1782984711645297700,3.766297607421875,-0.26344865560531616,-0.7345677614212036,-1.442896842956543
1782984711655371800,3.776371826171875,-0.24950967729091644,-0.29800236225128174,-1.6533489227294922
1782984711665446000,3.78644580078125,-0.21396329998970032,0.135000079870224,-1.5438084602355957
1782984711675519700,3.796519775390625,-0.16665410995483398,0.41345831751823425,-1.1726083755493164
1782984711685595000,3.806594970703125,-0.06681106984615326,0.5429301261901855,-0.7107087969779968
1782984711695668700,3.816668701171875,0.061078451573848724,0.48265182971954346,-0.37608420848846436
1782984711705742600,3.82674267578125,0.17463378608226776,0.3018462061882019,-0.24433283507823944
1782984711715816700,3.836816650390625,0.2872444987297058,0.16465424001216888,-0.32199567556381226
1782984711725890600,3.846890625,0.4185348153114319,0.12950962781906128,-0.5316944122314453
1782984711735965700,3.856965576171875,0.5258631706237793,0.17126986384391785,-0.7086931467056274
1782984711746039600,3.86703955078125,0.637136697769165,0.19664251804351807,-0.7958443760871887
1782984711756113700,3.87711376953125,0.7503389120101929,0.16912460327148438,-0.7873475551605225
1782984711766187800,3.887187744140625,0.8260130882263184,0.13494789600372314,-0.6725389957427979
1782984711776262700,3.8972626953125,0.8557371497154236,0.0672823041677475,-0.44676709175109863
1782984711786336800,3.907336669921875,0.8214367032051086,0.016667306423187256,-0.2372012734413147
1782984711796411000,3.917410888671875,0.7443981170654297,-0.03793441876769066,-0.11169660836458206
1782984711806484700,3.927484619140625,0.6382637023925781,-0.07282023131847382,-0.0862642154097557
1782984711816559900,3.937559814453125,0.5172768235206604,-0.08453015238046646,-0.18356600403785706
1782984711826633700,3.9476337890625,0.40758398175239563,-0.08764049410820007,-0.35065606236457825
1782984711836707600,3.95770751953125,0.3116574287414551,-0.06558153033256531,-0.48973938822746277
1782984711846781700,3.96778173828125,0.24793802201747894,-0.07955004274845123,-0.5383643507957458
1782984711856856600,3.977856689453125,0.2127438187599182,-0.09921828657388687,-0.5016233921051025
1782984711866930700,3.9879306640625,0.1993212103843689,-0.09469836950302124,-0.4077429175376892
1782984711877004500,3.998004638671875,0.1790337860584259,-0.10289903730154037,-0.2802203595638275
1782984711887078000,4.008077880859375,0.16184057295322418,-0.11300216615200043,-0.1540622115135193
1782984711897152800,4.01815283203125,0.1538870483636856,-0.11808640509843826,-0.0865742415189743
1782984711907227000,4.028226806640625,0.1654815524816513,-0.08349679410457611,-0.0011004832340404391
1782984711917300700,4.03830078125,0.12424249947071075,-0.07854864001274109,0.09101000428199768
1782984711927374600,4.04837451171875,0.05581654608249664,-0.23788666725158691,0.10593576729297638
1782984711937449700,4.05844970703125,-0.07118933647871017,-0.42999032139778137,0.1142304465174675
1782984711947523600,4.068523681640625,-0.24739721417427063,-0.64595627784729,0.09804506599903107
1782984711957597700,4.07859765625,-0.43396708369255066,-0.7380451560020447,-0.26384711265563965
1782984711967671600,4.088671630859375,-0.5770054459571838,-0.4278579652309418,-1.0608181953430176
1782984711977746700,4.09874658203125,-0.5207522511482239,0.345926970243454,-1.8792650699615479
1782984711987820500,4.108820556640625,-0.2230970710515976,0.935369074344635,-2.0345852375030518
1782984711997894700,4.118894775390625,0.12869958579540253,0.741341233253479,-1.286505103111267
1782984712007968800,4.12896875,0.3592812120914459,0.17349155247211456,0.04706477001309395
1782984712018043600,4.139043701171875,0.3866598308086395,0.11675344407558441,1.2520471811294556
1782984712028117800,4.14911767578125,0.07667437940835953,0.6872559189796448,1.8572742938995361
1782984712038191900,4.15919189453125,-0.28103530406951904,1.2726067304611206,2.01340651512146
1782984712048265700,4.169265625,-0.262663871049881,1.5585800409317017,1.8258957862854004
1782984712058339600,4.179339599609375,0.06890366971492767,1.4397151470184326,1.122897744178772
1782984712068414200,4.189414306640625,0.4555761516094208,0.9477830529212952,0.34713229537010193
1782984712078488000,4.199488037109375,0.7961417436599731,0.2935943305492401,-0.10355416685342789
1782984712088562200,4.209562255859375,0.8811042904853821,-0.3219117820262909,-0.12773610651493073
1782984712098636000,4.219635986328125,0.7952362895011902,-0.7932202219963074,0.1306736171245575
1782984712108711200,4.229711181640625,0.5757966041564941,-0.8286793231964111,0.5349573493003845
1782984712118785000,4.239784912109375,0.2896394431591034,-0.627106785774231,0.9723035097122192
1782984712128859400,4.249859375,0.0003020192962139845,-0.2476252317428589,1.5306098461151123
1782984712138933200,4.259933349609375,-0.2310957908630371,0.09618967026472092,2.197153329849243
1782984712149008400,4.27000830078125,-0.40973377227783203,0.28886035084724426,2.8022658824920654
1782984712159082200,4.280082275390625,-0.5787382125854492,0.4345560371875763,3.110689401626587
1782984712169156000,4.290156005859375,-0.70460444688797,0.5791420340538025,2.9738805294036865
1782984712179230200,4.300230224609375,-0.7428597211837769,0.589490532875061,2.493272066116333
1782984712189304000,4.310303955078125,-0.7598230242729187,0.36844733357429504,1.803719401359558
1782984712199379200,4.320379150390625,-0.7933633923530579,0.057928357273340225,1.0003036260604858
1782984712209453000,4.330453125,-0.8849437236785889,-0.29924073815345764,0.1565512865781784
1782984712219527200,4.340527099609375,-0.9431993365287781,-0.5613466501235962,-0.5256813764572144
1782984712229602000,4.35060205078125,-0.9627339243888855,-0.7285588979721069,-0.9922117590904236
1782984712239676200,4.36067626953125,-0.934904158115387,-0.8463135361671448,-1.2892833948135376
1782984712249751000,4.3707509765625,-0.868294894695282,-0.7998942732810974,-1.4346648454666138
1782984712259825200,4.3808251953125,-0.7679693698883057,-0.6228652000427246,-1.448652744293213
1782984712269899000,4.39089892578125,-0.6705114841461182,-0.4393652379512787,-1.344700574874878
1782984712279973400,4.400973388671875,-0.5805975794792175,-0.30638110637664795,-1.1963878870010376
1782984712290047200,4.411047119140625,-0.4725862443447113,-0.23018820583820343,-1.0293841361999512
1782984712300122400,4.421122314453125,-0.3186939060688019,-0.2998860776424408,-0.8421427607536316
1782984712310196200,4.4311962890625,-0.1430014818906784,-0.4816625714302063,-0.6856510639190674
1782984712320270300,4.441270263671875,0.040298305451869965,-0.6418091058731079,-0.602449357509613
1782984712330344200,4.45134423828125,0.18463662266731262,-0.686808705329895,-0.6315508484840393
1782984712340419300,4.46141943359375,0.2614738643169403,-0.6165710091590881,-0.7436867356300354
1782984712350493200,4.4714931640625,0.2875026762485504,-0.5001043081283569,-0.8486820459365845
1782984712360567000,4.481567138671875,0.26942700147628784,-0.38617804646492004,-0.8750295042991638
1782984712370641200,4.49164111328125,0.23593224585056305,-0.3037238121032715,-0.8670645356178284
1782984712380716000,4.501716064453125,0.19749431312084198,-0.26600971817970276,-0.8478186726570129
1782984712390790100,4.5117900390625,0.14699529111385345,-0.2710292637348175,-0.8229383230209351
1782984712400864000,4.521864013671875,0.09481517970561981,-0.29667019844055176,-0.8228312730789185
1782984712410938400,4.5319384765625,0.04752384498715401,-0.34987953305244446,-0.8259460926055908
1782984712421013000,4.542012939453125,0.02280358597636223,-0.3558593988418579,-0.8298732042312622
1782984712431087400,4.55208740234375,-0.006445365492254496,-0.2927442193031311,-0.8111857771873474
1782984712441161200,4.5621611328125,-0.029547221958637238,-0.27848780155181885,-0.778272807598114
1782984712451235300,4.5722353515625,-0.02075389213860035,-0.3010224997997284,-0.727766752243042
1782984712461309200,4.58230908203125,0.013497287407517433,-0.3680364191532135,-0.6996373534202576
1782984712471384300,4.59238427734375,0.08590707927942276,-0.46579083800315857,-0.6939771771430969
1782984712481458200,4.602458251953125,0.15933868288993835,-0.5654582977294922,-0.6722995638847351
1782984712491532000,4.612531982421875,0.18660105764865875,-0.6301140189170837,-0.5738427042961121
1782984712501606100,4.622606201171875,0.12281382083892822,-0.7087449431419373,-0.3772023320198059
1782984712511681000,4.632680908203125,0.02496475540101528,-0.680141806602478,-0.18744440376758575
1782984712521755100,4.642755126953125,-0.07859013974666595,-0.4752171039581299,-0.08139891922473907
1782984712531829000,4.6528291015625,-0.10320787876844406,-0.25234177708625793,-0.06526469439268112
1782984712541903400,4.6629033203125,0.08469278365373611,0.020967792719602585,-0.20732277631759644
1782984712551978000,4.67297802734375,0.3631398379802704,0.3871191442012787,-0.21504347026348114
1782984712562052400,4.68305224609375,0.5644396543502808,0.45980745553970337,0.18800625205039978
1782984712572126200,4.693126220703125,0.6440842151641846,0.35351988673210144,0.9253294467926025
1782984712582200300,4.703200439453125,0.6107267737388611,0.39024168252944946,1.5175848007202148
1782984712592275200,4.713275146484375,0.6346383094787598,0.4146735370159149,1.486035704612732
1782984712602349300,4.723349365234375,0.811246931552887,0.20724524557590485,0.8543314933776855
1782984712612423200,4.733423095703125,0.9814742803573608,-0.16110855340957642,-0.024052241817116737
1782984712622497000,4.7434970703125,0.9346471428871155,-0.31169751286506653,-0.5803019404411316
1782984712632572200,4.753572265625,0.6648624539375305,-0.08652482181787491,-0.682449460029602
1782984712642646000,4.76364599609375,0.23861606419086456,0.5265119671821594,-0.26447322964668274
1782984712652720000,4.77372021484375,-0.14022497832775116,1.1303752660751343,0.4470171630382538
1782984712662794200,4.783794189453125,-0.3944860100746155,1.4150829315185547,1.0149508714675903
1782984712672869000,4.793869140625,-0.41686928272247314,1.4059232473373413,1.1853222846984863
1782984712682943200,4.803943115234375,-0.1211249828338623,1.0841870307922363,1.0560513734817505
1782984712693017300,4.814017333984375,0.2655082643032074,0.7158148288726807,0.9228439331054688
1782984712703091200,4.82409130859375,0.6023494601249695,0.3499351441860199,0.8794330358505249
1782984712713165300,4.834165283203125,0.7793378233909607,0.057916730642318726,0.9429751634597778
1782984712723240200,4.844240234375,0.6996616721153259,-0.20732906460762024,1.16764235496521
1782984712733314300,4.854314208984375,0.4487121105194092,-0.43016400933265686,1.535248041152954
1782984712743388200,4.86438818359375,0.1194567084312439,-0.564315140247345,1.8964617252349854
1782984712753462000,4.8744619140625,-0.18618258833885193,-0.6075381636619568,2.079402446746826
1782984712763537200,4.884537109375,-0.33168333768844604,-0.4855654239654541,1.74375581741333
1782984712773611300,4.894611328125,-0.4314233660697937,-0.6219796538352966,0.9084617495536804
1782984712783685000,4.90468505859375,-0.4653967618942261,-0.6432487368583679,-0.22635194659233093
1782984712793759200,4.91475927734375,-0.4381989538669586,-0.47346389293670654,-1.301687479019165
1782984712803834000,4.924834228515625,-0.3926706314086914,-0.3235098123550415,-1.9175165891647339
1782984712813908200,4.934908203125,-0.35789886116981506,-0.20266395807266235,-2.0749876499176025
1782984712823982300,4.944982421875,-0.3562373220920563,-0.09000345319509506,-1.8673632144927979
1782984712834056200,4.95505615234375,-0.3955652415752411,-0.012219259515404701,-1.4174367189407349
1782984712844131300,4.96513134765625,-0.44315966963768005,0.04790053516626358,-0.8505728840827942
1782984712854205200,4.975205078125,-0.44256341457366943,0.053282689303159714,-0.34870976209640503
1782984712864279300,4.985279296875,-0.3997645378112793,-0.05859111249446869,-0.03409962356090546
1782984712874353200,4.995353271484375,-0.3085464537143707,-0.20280979573726654,0.09379514306783676
1782984712884428300,5.00542822265625,-0.1799040585756302,-0.22873540222644806,0.08700781315565109
1782984712894502100,5.015502197265625,-0.047059137374162674,-0.180720254778862,0.012282909825444221
1782984712904576300,5.025576171875,0.07536584883928299,-0.1493317037820816,-0.05197037756443024
1782984712914650000,5.035650146484375,0.1792878657579422,-0.15797977149486542,-0.06365503370761871
1782984712924724200,5.04572412109375,0.2709871530532837,-0.22429700195789337,-0.04241286963224411
1782984712934799000,5.055799072265625,0.34540215134620667,-0.29679542779922485,-0.012499748729169369
1782984712944873200,5.065873291015625,0.39904752373695374,-0.30157819390296936,0.017817409709095955
1782984712954947300,5.075947265625,0.40687161684036255,-0.2626027762889862,0.05018572136759758
1782984712965021200,5.086021240234375,0.3860568702220917,-0.17122438549995422,0.05878080800175667
1782984712975096300,5.096096435546875,0.34146368503570557,-0.04799113795161247,0.00263448734767735
1782984712985170200,5.106170166015625,0.2714393436908722,0.0758112296462059,-0.10085061937570572
1782984712995244300,5.116244384765625,0.2019740343093872,0.15342660248279572,-0.2000339925289154
1782984713005318100,5.126318115234375,0.14121241867542267,0.17076511681079865,-0.2696477174758911
1782984713015393300,5.136393310546875,0.08512867242097855,0.14781054854393005,-0.29931938648223877
1782984713025467100,5.146467041015625,0.025481320917606354,0.09752341359853745,-0.30842098593711853
1782984713035541200,5.156541259765625,-0.018801143392920494,0.001599928829818964,-0.3119380474090576
1782984713045615000,5.166614990234375,-0.0404270775616169,-0.08585748076438904,-0.3041065037250519
1782984713055690200,5.176690185546875,-0.02412116341292858,-0.10060656070709229,-0.291473388671875
1782984713065764000,5.18676416015625,0.002155181486159563,-0.16311149299144745,-0.3062155842781067
1782984713075838200,5.196838134765625,-0.019819611683487892,-0.162519633769989,-0.26875436305999756
1782984713085912300,5.206912353515625,-0.11473920196294785,-0.1264609694480896,-0.15136195719242096
1782984713095987200,5.2169873046875,-0.3293412923812866,-0.0037088943645358086,-0.00781415868550539
1782984713106061300,5.227061279296875,-0.5619441866874695,0.07019968330860138,0.07094457000494003
1782984713116135200,5.23713525390625,-0.6455253958702087,0.00013038469478487968,-0.04639022424817085
1782984713126209300,5.247209228515625,-0.5722842216491699,-0.06551547348499298,-0.4849875271320343
1782984713136283100,5.257283203125,-0.35508647561073303,-0.12842518091201782,-1.1730650663375854
1782984713146358300,5.267358154296875,-0.13028746843338013,0.03964771330356598,-1.7571018934249878
1782984713156432100,5.27743212890625,0.03521557152271271,0.21932289004325867,-1.9690454006195068
1782984713166506200,5.28750634765625,0.023532548919320107,0.16859926283359528,-1.6940655708312988
1782984713176580000,5.297580078125,-0.04917088523507118,0.061445966362953186,-1.0098998546600342
1782984713186655200,5.3076552734375,-0.05482211336493492,0.035555507987737656,-0.0801546573638916
1782984713196729000,5.31772900390625,0.007790295407176018,0.13055482506752014,0.8627345561981201
1782984713206803200,5.32780322265625,0.12213525176048279,0.2760672867298126,1.4369293451309204
1782984713216877300,5.337877197265625,0.2600751519203186,0.4363802671432495,1.558382272720337
1782984713226952200,5.3479521484375,0.3571721315383911,0.6427526473999023,1.434846043586731
1782984713237026300,5.3580263671875,0.3570607304573059,0.9006367325782776,1.2791756391525269
1782984713247100200,5.36810009765625,0.2906705141067505,1.0230529308319092,1.1986768245697021
1782984713257174300,5.37817431640625,0.20684932172298431,0.9793795347213745,1.2114150524139404
1782984713267249400,5.38824951171875,0.09766664355993271,0.9397416114807129,1.167374849319458
1782984713277323300,5.3983232421875,-0.007635811809450388,0.8158995509147644,1.018895149230957
1782984713287397000,5.408397216796875,-0.09410519152879715,0.5452065467834473,0.9615926742553711
1782984713297471200,5.41847119140625,-0.10957885533571243,0.2870464026927948,1.1571191549301147
1782984713307546000,5.428546142578125,-0.13610181212425232,-0.009372745640575886,1.5385479927062988
1782984713317620200,5.4386201171875,-0.12328853458166122,-0.20052261650562286,1.868209958076477
1782984713327694000,5.448694091796875,-0.11802053451538086,-0.2664044201374054,2.0222630500793457
1782984713337768200,5.458768310546875,-0.1325080841779709,-0.3262433409690857,1.9459761381149292
1782984713347842300,5.46884228515625,-0.1031765565276146,-0.4243866801261902,1.6193276643753052
1782984713357917200,5.478917236328125,-0.017562465742230415,-0.6010381579399109,1.0562840700149536
1782984713367991300,5.4889912109375,0.10199110209941864,-0.8047047257423401,0.3822028338909149
1782984713378065400,5.4990654296875,0.2751210033893585,-0.8400830030441284,-0.3007899522781372
1782984713388139300,5.50913916015625,0.43224990367889404,-0.814337432384491,-0.9613490104675293
1782984713398214400,5.51921435546875,0.5224708914756775,-0.6782383322715759,-1.5142523050308228
1782984713408288300,5.529288330078125,0.6138210892677307,-0.33592602610588074,-1.8343162536621094
1782984713418362000,5.539362060546875,0.6397033929824829,0.1492389440536499,-1.8581894636154175
1782984713428436200,5.549436279296875,0.5886902809143066,0.5743225812911987,-1.7323484420776367
1782984713438511000,5.559510986328125,0.46164900064468384,0.6334946751594543,-1.545105218887329
1782984713448585200,5.569585205078125,0.32693299651145935,0.4914374053478241,-1.2237011194229126
1782984713458659000,5.5796591796875,0.22996290028095245,0.3071216344833374,-0.8880360722541809
1782984713468733200,5.589733154296875,0.1376742571592331,0.13532614707946777,-0.6782050728797913
1782984713478808000,5.59980810546875,0.09626714885234833,0.01589180715382099,-0.5882589817047119
1782984713488882200,5.609882080078125,0.09458722919225693,-0.01912955939769745,-0.6094833016395569
1782984713498956300,5.619956298828125,0.1075618714094162,-0.02787238359451294,-0.7117703557014465
1782984713509030400,5.630030517578125,0.142451673746109,-0.03847575932741165,-0.8265869617462158
1782984713519105300,5.640105224609375,0.1810178905725479,-0.054478660225868225,-0.9001569747924805
1782984713529179400,5.650179443359375,0.21608532965183258,-0.04510699585080147,-0.9183463454246521
1782984713539253200,5.660253173828125,0.23426710069179535,0.004457790870219469,-0.8994085788726807
1782984713549327000,5.6703271484375,0.24697783589363098,0.024713793769478798,-0.8124555945396423
1782984713559402200,5.68040234375,0.24106965959072113,-0.02241409569978714,-0.6825375556945801
1782984713569476000,5.69047607421875,0.21533474326133728,-0.05597977712750435,-0.5599101781845093
1782984713579550200,5.70055029296875,0.19232220947742462,-0.11478078365325928,-0.4796070456504822
1782984713589624000,5.7106240234375,0.193133145570755,-0.2113235741853714,-0.42188170552253723
1782984713599698400,5.720698486328125,0.21948130428791046,-0.24726459383964539,-0.4015888273715973
1782984713609773000,5.73077294921875,0.2586390972137451,-0.2798539698123932,-0.4312284588813782
1782984713619847400,5.740847412109375,0.2784326374530792,-0.3444640338420868,-0.4869830012321472
1782984713629921300,5.75092138671875,0.3198389410972595,-0.4758332371711731,-0.5008003115653992
1782984713639995400,5.760995361328125,0.33750981092453003,-0.6241989135742188,-0.47553807497024536
1782984713650070300,5.7710703125,0.28816941380500793,-0.6761635541915894,-0.4286738932132721
1782984713660144400,5.781144287109375,0.10329125821590424,-0.5455306768417358,-0.29021045565605164
1782984713670218200,5.79121826171875,-0.23611211776733398,-0.5006018280982971,0.01742672361433506
1782984713680292000,5.8012919921875,-0.5509756207466125,-0.6882880926132202,0.42448657751083374
1782984713690367200,5.8113671875,-0.7118350863456726,-1.014519453048706,0.7292163968086243
1782984713700441000,5.821441162109375,-0.6964352130889893,-1.129783034324646,0.47281041741371155
1782984713710515200,5.83151513671875,-0.5922084450721741,-0.6056919097900391,-0.42759793996810913
1782984713720589000,5.841589111328125,-0.5943507552146912,0.3180628716945648,-1.4744243621826172
1782984713730664200,5.851664306640625,-0.7629672288894653,0.8382581472396851,-2.0103447437286377
1782984713740738000,5.861738037109375,-0.9580437541007996,0.5743209719657898,-1.7121171951293945
1782984713750812400,5.8718125,-1.064780354499817,0.04123597592115402,-0.9657082557678223
1782984713760886300,5.88188623046875,-0.9870641231536865,-0.2668288052082062,-0.2052079439163208
1782984713770961400,5.89196142578125,-0.5921953320503235,-0.3318706750869751,0.39268797636032104
1782984713781035300,5.90203515625,-0.05294010788202286,-0.29349103569984436,0.7519025206565857
1782984713791109400,5.912109375,0.30893474817276,-0.13821916282176971,0.8500466346740723
1782984713801183200,5.922183349609375,0.37481144070625305,-0.016180647537112236,0.8184643983840942
1782984713811258400,5.93225830078125,0.29511767625808716,-0.02463964745402336,0.7452890276908875
1782984713821332200,5.942332275390625,0.19646604359149933,0.0037483128253370523,0.680518388748169
1782984713831406000,5.952406005859375,0.1791706681251526,0.12476661801338196,0.628653883934021
1782984713841480200,5.962480224609375,0.2484123855829239,0.2721269726753235,0.5210165977478027
1782984713851554000,5.972553955078125,0.30723336338996887,0.42273378372192383,0.4303775131702423
1782984713861629200,5.982629150390625,0.3020702302455902,0.5107942223548889,0.5809524059295654
1782984713871703000,5.992703125,0.25520047545433044,0.6182948350906372,1.1040923595428467
1782984713881777400,6.00277734375,0.15390777587890625,0.7035066485404968,1.7166303396224976
1782984713891851300,6.012851318359375,-0.07403963804244995,0.7449116110801697,2.1389594078063965
1782984713901926400,6.022926513671875,-0.3857409954071045,0.7816296219825745,2.2807207107543945
1782984713912000300,6.033000244140625,-0.6322594881057739,0.6955432295799255,2.0915746688842773
1782984713922074400,6.043074462890625,-0.7596065402030945,0.35334572196006775,1.5903615951538086
1782984713932148200,6.053148193359375,-0.7823765277862549,0.0584712028503418,0.9341265559196472
1782984713942223400,6.063223388671875,-0.701701283454895,-0.0502784363925457,0.20970672369003296
1782984713952297200,6.073297119140625,-0.6078954339027405,-0.14657488465309143,-0.5002670288085938
1782984713962371300,6.083371337890625,-0.4777519106864929,-0.18511179089546204,-1.0722039937973022
1782984713972445200,6.093445068359375,-0.3665308356285095,-0.17178240418434143,-1.5394151210784912
1782984713982520300,6.103520263671875,-0.31156012415885925,-0.19268731772899628,-1.8147227764129639
1782984713992594200,6.11359423828125,-0.2825084924697876,-0.26381397247314453,-1.7497813701629639
1782984714002668000,6.12366796875,-0.2897561192512512,-0.3626525402069092,-1.5272350311279297
1782984714012742400,6.133742431640625,-0.2563731372356415,-0.3455111086368561,-1.3281623125076294
1782984714022817000,6.143817138671875,-0.1792026311159134,-0.19760830700397491,-1.1940890550613403
1782984714032891400,6.153891357421875,-0.039741143584251404,-0.0791194885969162,-1.109452247619629
1782984714042965200,6.16396533203125,0.12220931053161621,-0.052934013307094574,-1.0129916667938232
1782984714053039400,6.174039306640625,0.2522842288017273,-0.11632417142391205,-0.8648954033851624
1782984714063114200,6.1841142578125,0.3318707048892975,-0.18114405870437622,-0.6779940128326416
1782984714073188400,6.194188232421875,0.3393408954143524,-0.2875397503376007,-0.5125064849853516
1782984714083262200,6.20426220703125,0.3058519959449768,-0.34148669242858887,-0.37346285581588745
1782984714093336000,6.214336181640625,0.24563978612422943,-0.2750631868839264,-0.2677111327648163
1782984714103410200,6.22441015625,0.18248508870601654,-0.14687477052211761,-0.24655771255493164
1782984714113485000,6.234485107421875,0.1302250772714615,0.007945176213979721,-0.2685104310512543
1782984714123559200,6.24455908203125,0.047991544008255005,0.20668505132198334,-0.2975768446922302
1782984714133633000,6.254633056640625,-0.07673255354166031,0.34330201148986816,-0.3186807930469513
1782984714143707400,6.264707275390625,-0.19818860292434692,0.3701225817203522,-0.2693573236465454
1782984714153782000,6.274781982421875,-0.30338823795318604,0.3385012745857239,-0.14331765472888947
1782984714163856400,6.2848564453125,-0.3724408745765686,0.3040052354335785,-0.007249753922224045
1782984714173930200,6.29493017578125,-0.4005236327648163,0.3197418451309204,0.0843222439289093
1782984714184004400,6.30500439453125,-0.40849173069000244,0.3986716866493225,0.12129714339971542
1782984714194079200,6.315079345703125,-0.38785648345947266,0.5199751853942871,0.12465352565050125
1782984714204153300,6.3251533203125,-0.36863529682159424,0.6290550231933594,0.07405998557806015
1782984714214227200,6.335227294921875,-0.35087308287620544,0.6941924691200256,-0.008970987051725388
1782984714224301000,6.345301025390625,-0.32311105728149414,0.665350079536438,-0.0524916797876358
1782984714234376200,6.355376220703125,-0.3053267300128937,0.5359897017478943,-0.012888610363006592
1782984714244450000,6.365449951171875,-0.314534455537796,0.3871319591999054,0.12234090268611908
1782984714254524200,6.375524169921875,-0.2501133978366852,0.411857545375824,0.0540369488298893
1782984714264598000,6.385597900390625,-0.1087598204612732,0.4421067237854004,-0.8035010099411011
1782984714274673200,6.395673095703125,0.04414050653576851,0.6797248721122742,-2.2209837436676025
1782984714284747000,6.4057470703125,0.020620321854948997,1.2971011400222778,-3.170644760131836
1782984714294821400,6.4158212890625,-0.06976629793643951,1.486274003982544,-2.7133853435516357
1782984714304895200,6.425895263671875,0.009291457012295723,0.9454152584075928,-0.903468668460846
1782984714314970400,6.435970458984375,0.31035009026527405,0.026006804779171944,0.9511165022850037
1782984714325044200,6.446044189453125,0.4854239225387573,-0.6129904389381409,1.8219101428985596
1782984714335118300,6.456118408203125,0.8194738030433655,-0.9363700747489929,1.9637389183044434
1782984714345192200,6.466192138671875,1.0428022146224976,-1.0916564464569092,1.830541968345642
1782984714355266000,6.47626611328125,1.0490158796310425,-0.7848789095878601,1.5298426151275635
1782984714365341200,6.486341064453125,0.7776697278022766,-0.17529205977916718,1.1233173608779907
1782984714375415000,6.4964150390625,0.41176044940948486,0.3025919497013092,0.9086971879005432
1782984714385489200,6.5064892578125,0.09149385988712311,0.5738113522529602,0.8784388899803162
1782984714395563000,6.51656298828125,-0.11677119135856628,0.73019939661026,0.8536038398742676
1782984714405638100,6.52663818359375,-0.1805085390806198,0.8911408185958862,0.8420544266700745
1782984714415712000,6.5367119140625,-0.17957617342472076,0.9717352986335754,0.9909224510192871
1782984714425786400,6.546786376953125,-0.16728395223617554,0.8723713159561157,1.394700288772583
1782984714435860200,6.556860107421875,-0.18601635098457336,0.6710744500160217,1.9108978509902954
1782984714445935400,6.566935302734375,-0.2497321367263794,0.4158093333244324,2.300297737121582
1782984714456009200,6.57700927734375,-0.29582875967025757,0.1633581817150116,2.4199886322021484
1782984714466083300,6.587083251953125,-0.2962443232536316,-0.043120127171278,2.2262706756591797
1782984714476157200,6.5971572265625,-0.2997799217700958,-0.18956975638866425,1.7314183712005615
1782984714486232300,6.607232421875,-0.30964022874832153,-0.3232700824737549,1.003123164176941
1782984714496306200,6.61730615234375,-0.30160120129585266,-0.44343963265419006,0.23394249379634857
1782984714506380000,6.627380126953125,-0.2833787500858307,-0.5159913301467896,-0.3903193175792694
1782984714516454100,6.6374541015625,-0.24920456111431122,-0.5136764645576477,-0.8536432981491089
1782984714526529000,6.647529052734375,-0.21819931268692017,-0.4685991704463959,-1.1054937839508057
1782984714536603100,6.65760302734375,-0.2005649209022522,-0.39627811312675476,-1.0718274116516113
1782984714546677000,6.667677001953125,-0.18811695277690887,-0.3706686496734619,-0.8398920893669128
1782984714556751400,6.67775146484375,-0.17989231646060944,-0.3100852072238922,-0.5538379549980164
1782984714566826000,6.687825927734375,-0.1638612598180771,-0.19344475865364075,-0.35602396726608276
1782984714576900400,6.697900390625,-0.1098632663488388,-0.12402040511369705,-0.2883581221103668
1782984714586974200,6.70797412109375,-0.042103111743927,-0.1232478991150856,-0.2619721293449402
1782984714597048300,6.71804833984375,0.031247269362211227,-0.17724667489528656,-0.22988368570804596
1782984714607122200,6.7281220703125,0.11324939131736755,-0.21928268671035767,-0.14950640499591827
1782984714617197300,6.738197265625,0.17117846012115479,-0.255642294883728,-0.055841170251369476
1782984714627271200,6.748271240234375,0.1976025253534317,-0.29918572306632996,0.003354921005666256
1782984714637345000,6.758344970703125,0.16184639930725098,-0.24653078615665436,0.017570875585079193
1782984714647419100,6.768419189453125,0.07007396966218948,-0.15680590271949768,-0.018503645434975624
1782984714657494300,6.778494384765625,-0.04117586091160774,-0.06563177704811096,-0.09538538008928299
1782984714667568000,6.788568115234375,-0.1468755155801773,0.02592051960527897,-0.18394696712493896
1782984714677642000,6.79864208984375,-0.2205851525068283,0.11788826435804367,-0.3121395707130432
1782984714687716400,6.80871630859375,-0.2467009425163269,0.1260891854763031,-0.450481116771698
1782984714697791000,6.818791015625,-0.2435014247894287,0.07958478480577469,-0.5685364007949829
1782984714707865300,6.828865234375,-0.23309539258480072,0.043308012187480927,-0.6714001893997192
1782984714717939200,6.838939208984375,-0.24416667222976685,0.05939696356654167,-0.7286893129348755
1782984714728013300,6.849013427734375,-0.25728365778923035,0.08095730096101761,-0.7544522285461426
1782984714738088200,6.859088134765625,-0.25721946358680725,0.056020792573690414,-0.7479708790779114
1782984714748162300,6.869162353515625,-0.23564516007900238,0.0008385397959500551,-0.7069838047027588
1782984714758236200,6.879236083984375,-0.20282410085201263,-0.014671976678073406,-0.5599336624145508
1782984714768310300,6.889310302734375,-0.1732582002878189,0.014676514081656933,-0.35052913427352905
1782984714778385200,6.89938525390625,-0.15002717077732086,0.022537367418408394,-0.21703658998012543
1782984714788459300,6.909459228515625,-0.19276870787143707,0.043463729321956635,-0.2149413824081421
1782984714798533000,6.919533203125,-0.2927307188510895,0.010432278737425804,-0.25669175386428833
1782984714808607000,6.92960693359375,-0.4158625304698944,-0.17240235209465027,-0.3560740053653717
1782984714818682000,6.93968212890625,-0.4961360692977905,-0.15937335789203644,-0.7888898849487305
1782984714828756000,6.949755859375,-0.5557169914245605,0.17648442089557648,-1.574612021446228
1782984714838830300,6.959830322265625,-0.6342589855194092,0.7418386340141296,-2.0899269580841064
1782984714848904200,6.969904296875,-0.7946595549583435,1.2770828008651733,-1.7477236986160278
1782984714858978300,6.979978271484375,-0.9353618025779724,1.2962919473648071,-0.6404867768287659
1782984714869053200,6.99005322265625,-0.8629071116447449,0.8628799915313721,0.38047024607658386
1782984714879127300,7.000127197265625,-0.5365196466445923,0.37522614002227783,0.7462940812110901
1782984714889201200,7.010201171875,-0.05192400887608528,-0.12435910850763321,0.5799451470375061
1782984714899275300,7.020275146484375,0.41901901364326477,-0.6509014368057251,0.38487446308135986
1782984714909350100,7.03035009765625,0.6564021706581116,-0.9867806434631348,0.34437620639801025
1782984714919424300,7.04042431640625,0.6406197547912598,-0.9173690676689148,0.4895762801170349
1782984714929498000,7.050498046875,0.44048526883125305,-0.43549105525016785,0.7161073088645935
1782984714939572000,7.060572021484375,0.15097303688526154,0.2041565328836441,0.8534507751464844
1782984714949647000,7.070647216796875,-0.0646253451704979,0.7493506669998169,0.7695357203483582
1782984714959721200,7.08072119140625,-0.101612389087677,1.0436817407608032,0.5992090106010437
1782984714969795300,7.09079541015625,-0.021004941314458847,0.9781672358512878,0.6484458446502686
1782984714979869200,7.100869140625,0.15197083353996277,0.5786334276199341,1.0033197402954102
1782984714989944300,7.1109443359375,0.312042772769928,0.18134967982769012,1.5175986289978027
1782984715000018200,7.12101806640625,0.3866264522075653,-0.09028583019971848,2.005411148071289
1782984715010092300,7.13109228515625,0.36658036708831787,-0.14130423963069916,2.3318593502044678
1782984715020166100,7.141166259765625,0.29363587498664856,-0.08097030967473984,2.415032148361206
1782984715030241300,7.1512412109375,0.17011985182762146,0.09257693588733673,2.137936592102051
1782984715040315100,7.161315185546875,0.04342636466026306,0.19531342387199402,1.5259630680084229
1782984715050389200,7.17138916015625,-0.08329526335000992,0.14398622512817383,0.7541728615760803
1782984715060463000,7.181463134765625,-0.14439456164836884,-0.13063254952430725,0.021809715777635574
1782984715070538800,7.191538818359375,-0.14505814015865326,-0.4409462511539459,-0.5594176054000854
1782984715080612600,7.201612548828125,-0.09594358503818512,-0.6523024439811707,-1.0232819318771362
1782984715090686700,7.211686767578125,-0.045340586453676224,-0.7700909972190857,-1.3743840456008911
1782984715100760600,7.221760498046875,0.02153857983648777,-0.827674925327301,-1.513588547706604
1782984715110835000,7.2318349609375,0.07083012908697128,-0.8185009360313416,-1.4345910549163818
1782984715120909600,7.24190966796875,0.11035969108343124,-0.707876443862915,-1.2364087104797363
1782984715130984000,7.25198388671875,0.16977259516716003,-0.5503382682800293,-0.984921395778656
1782984715141057800,7.262057861328125,0.2448931783437729,-0.46060413122177124,-0.7165477275848389
1782984715151131600,7.272131591796875,0.312765896320343,-0.4726225733757019,-0.48234280943870544
1782984715161206800,7.282206787109375,0.3481537103652954,-0.510421872138977,-0.28628087043762207
1782984715171280600,7.29228076171875,0.35038527846336365,-0.4881751239299774,-0.11259827017784119
1782984715181354800,7.302354736328125,0.3345911502838135,-0.48426613211631775,0.009587290696799755
1782984715191428600,7.3124287109375,0.30894333124160767,-0.4240086078643799,0.06272153556346893
1782984715201503700,7.322503662109375,0.25849106907844543,-0.3128211200237274,0.050025977194309235
1782984715211577600,7.33257763671875,0.19485898315906525,-0.1943494975566864,0.002772148698568344
1782984715221651700,7.342651611328125,0.12964162230491638,-0.05896503105759621,-0.06803756952285767
1782984715231725600,7.3527255859375,0.05606714263558388,0.0693296417593956,-0.14568251371383667
1782984715241800700,7.36280078125,-0.010916417464613914,0.1359395682811737,-0.2077285796403885
1782984715251874600,7.37287451171875,-0.059381358325481415,0.10859958827495575,-0.24947965145111084
1782984715261949000,7.382948974609375,-0.08529098331928253,0.002997798379510641,-0.2714555263519287
1782984715272022800,7.393022705078125,-0.09805457293987274,-0.1095375269651413,-0.31533220410346985
1782984715282098000,7.403097900390625,-0.11178769916296005,-0.13379359245300293,-0.3796462118625641
1782984715292171800,7.413171875,-0.10997850447893143,-0.047429244965314865,-0.43391555547714233
1782984715302245600,7.42324560546875,-0.11425820738077164,0.03666618838906288,-0.44526779651641846
1782984715312319700,7.43331982421875,-0.09057009220123291,0.05147625878453255,-0.4233972728252411
1782984715322395000,7.443394775390625,-0.07145045697689056,0.07241775840520859,-0.41438138484954834
1782984715332468700,7.45346875,-0.14088241755962372,0.11815060675144196,-0.4578721225261688
1782984715342542600,7.46354248046875,-0.28139638900756836,0.05777169391512871,-0.4836834669113159
1782984715352616700,7.47361669921875,-0.4137313663959503,-0.15161392092704773,-0.36841604113578796
1782984715362690600,7.483690673828125,-0.46975255012512207,-0.3545694351196289,-0.2529189884662628
1782984715372765700,7.493765625,-0.41474151611328125,-0.26062458753585815,-0.43267351388931274
1782984715382839600,7.503839599609375,-0.3467733860015869,0.27147209644317627,-1.063711404800415
1782984715392914000,7.513913818359375,-0.3278256356716156,0.9039328694343567,-1.6814507246017456
1782984715402987800,7.52398779296875,-0.44777095317840576,1.2238054275512695,-1.520093560218811
1782984715413063000,7.53406298828125,-0.5969651937484741,0.8580326437950134,-0.4725944697856903
1782984715423136800,7.54413671875,-0.5942458510398865,0.047307297587394714,0.802838921546936
1782984715433211000,7.5542109375,-0.4128728210926056,-0.5886818766593933,1.3925466537475586
1782984715443284700,7.56428466796875,-0.02186884917318821,-0.7922730445861816,1.1293562650680542
1782984715453359900,7.57435986328125,0.4452213644981384,-0.8359479904174805,0.5359587073326111
1782984715463433700,7.584433837890625,0.8383188247680664,-0.9059625267982483,0.17512676119804382
1782984715473507600,7.594507568359375,0.9525508284568787,-0.9115839600563049,0.22743593156337738
1782984715483581700,7.604581787109375,0.8124810457229614,-0.783653199672699,0.6484299898147583
1782984715493656600,7.614656494140625,0.5531347393989563,-0.5763382315635681,1.2045286893844604
1782984715503730700,7.624730712890625,0.3199360966682434,-0.20148655772209167,1.4605940580368042
1782984715513804800,7.6348046875,0.17307539284229279,0.24394583702087402,1.350650429725647
1782984715523879000,7.64487890625,0.05997786670923233,0.5505377054214478,1.0504509210586548
1782984715533953800,7.654953857421875,-0.03729281201958656,0.6655144095420837,0.836161732673645
1782984715544028000,7.66502783203125,-0.13958323001861572,0.4532325267791748,0.8291341662406921
1782984715554101800,7.675101806640625,-0.20524238049983978,0.0963909775018692,0.9912391304969788
1782984715564176000,7.68517578125,-0.26422393321990967,-0.1278298795223236,1.1401240825653076
1782984715574250800,7.695250732421875,-0.32843735814094543,-0.24863961338996887,1.1893610954284668
1782984715584324900,7.705324951171875,-0.3816041946411133,-0.35495540499687195,1.1350123882293701
1782984715594398700,7.715398681640625,-0.4015255868434906,-0.43738529086112976,0.88904869556427
1782984715604472600,7.72547265625,-0.38889366388320923,-0.4024677872657776,0.3529975414276123
1782984715614547700,7.735547607421875,-0.31866782903671265,-0.253542959690094,-0.40060481429100037
1782984715624621600,7.74562158203125,-0.2550894021987915,-0.08274378627538681,-1.1723265647888184
1782984715634695700,7.75569580078125,-0.2266523391008377,0.03347672522068024,-1.7707023620605469
1782984715644769800,7.765769775390625,-0.22704701125621796,0.12560932338237762,-2.090507984161377
1782984715654844700,7.7758447265625,-0.24074308574199677,0.21654227375984192,-2.046550989151001
1782984715664918800,7.785918701171875,-0.2881569266319275,0.2386973649263382,-1.6260979175567627
1782984715674993000,7.795992919921875,-0.344485878944397,0.17146123945713043,-1.0014996528625488
1782984715685066800,7.806066650390625,-0.3862018883228302,0.035793155431747437,-0.4062563180923462
1782984715695140900,7.816140869140625,-0.37325572967529297,-0.09382165223360062,-0.015208416618406773
1782984715705215700,7.8262158203125,-0.33160096406936646,-0.18703468143939972,0.12161920964717865
1782984715715289900,7.836289794921875,-0.28467628359794617,-0.2533150315284729,0.11172061413526535
1782984715725363700,7.84636376953125,-0.2315768450498581,-0.32308611273765564,0.020487375557422638
1782984715735437600,7.8564375,-0.17491415143013,-0.3158859610557556,-0.1263679414987564
1782984715745512700,7.8665126953125,-0.10192568600177765,-0.24002420902252197,-0.2662789821624756
1782984715755586600,7.876586669921875,-0.05026256665587425,-0.14988593757152557,-0.32903942465782166
1782984715765660700,7.88666064453125,-0.03991059213876724,-0.09506716579198837,-0.2942465543746948
1782984715775734800,7.89673486328125,-0.08284234255552292,-0.10619145631790161,-0.20395871996879578
1782984715785809700,7.9068095703125,-0.14302845299243927,-0.12520429491996765,-0.09637501090765
1782984715795883800,7.9168837890625,-0.19884879887104034,-0.10068834573030472,-0.02905765362083912
1782984715805958000,7.9269580078125,-0.22755581140518188,-0.08445531874895096,-0.03287290036678314
1782984715816031700,7.93703173828125,-0.2420320063829422,-0.10645217448472977,-0.08089378476142883
1782984715826107000,7.94710693359375,-0.2458650916814804,-0.21393123269081116,-0.16414234042167664
1782984715836180700,7.9571806640625,-0.2392587810754776,-0.32838281989097595,-0.28752434253692627
1782984715846254800,7.9672548828125,-0.23974934220314026,-0.353406697511673,-0.40842387080192566
1782984715856328700,7.97732861328125,-0.258647620677948,-0.2960893511772156,-0.40857788920402527
1782984715866403800,7.98740380859375,-0.2817217707633972,-0.2636762857437134,-0.25850236415863037
1782984715876477700,7.997477783203125,-0.30712124705314636,-0.24505427479743958,-0.01516910083591938
1782984715886551600,8.007551513671874,-0.325492799282074,-0.2668304145336151,0.21431095898151398
1782984715896625700,8.017625732421875,-0.3700627088546753,-0.4635341465473175,0.3581502437591553
1782984715906699800,8.02769970703125,-0.39657899737358093,-0.637336015701294,0.4344729781150818
1782984715916774000,8.03777392578125,-0.4378519356250763,-0.6557501554489136,0.374972939491272
1782984715926847700,8.04784765625,-0.4596983790397644,-0.564185380935669,0.00013143845717422664
1782984715936923000,8.0579228515625,-0.43433380126953125,-0.13671235740184784,-0.7598222494125366
1782984715946996700,8.067996826171875,-0.4799516201019287,0.558965265750885,-1.657590389251709
1782984715957070800,8.07807080078125,-0.6372374892234802,0.993456244468689,-1.8792167901992798
1782984715967144700,8.088144775390624,-0.7915631532669067,0.692187488079071,-0.9818769097328186
1782984715977219800,8.0982197265625,-0.6818063855171204,-0.24282145500183105,0.26278412342071533
1782984715987293700,8.108293701171876,-0.24858760833740234,-0.8855511546134949,0.583034873008728
1782984715997367600,8.118367431640625,0.3475525379180908,-0.7701930999755859,0.10614802688360214
1782984716007441700,8.128441650390625,0.9404798150062561,-0.3620567321777344,-0.28473106026649475
1782984716017516800,8.138516845703125,1.2366362810134888,-0.15837951004505157,-0.06923040002584457
1782984716027590700,8.148590576171875,1.1317425966262817,-0.11983077973127365,0.5551176071166992
1782984716037664800,8.158664794921876,0.7732498645782471,-0.07087967544794083,1.1353222131729126
1782984716047739000,8.16873876953125,0.34146466851234436,-0.030212141573429108,1.4976963996887207
1782984716057813800,8.178813720703126,0.036019034683704376,0.1807330697774887,1.55629301071167
1782984716067887000,8.18888720703125,-0.001828745356760919,0.45845362544059753,1.4083563089370728
1782984716077961200,8.198961181640625,0.09019023180007935,0.6349674463272095,1.2437245845794678
1782984716088035000,8.20903515625,0.233657106757164,0.6512510776519775,1.2523777484893799
1782984716098110200,8.219110107421875,0.33402419090270996,0.5702539682388306,1.4985164403915405
1782984716108184000,8.22918408203125,0.3618052303791046,0.45821988582611084,1.870186686515808
1782984716118258000,8.2392578125,0.2813160717487335,0.32544511556625366,2.1574597358703613
1782984716128332000,8.24933203125,0.11867309361696243,0.19333979487419128,2.0864946842193604
1782984716138407000,8.259406982421876,-0.031228315085172653,0.05908128246665001,1.5207082033157349
1782984716148481000,8.26948095703125,-0.12845313549041748,-0.04908806085586548,0.5365116596221924
1782984716158555100,8.27955517578125,-0.17720723152160645,-0.18015198409557343,-0.5422733426094055
1782984716168629200,8.289629150390626,-0.18846309185028076,-0.2775871753692627,-1.3995517492294312
1782984716178704100,8.2997041015625,-0.20532569289207458,-0.31667226552963257,-1.9420331716537476
1782984716188778200,8.3097783203125,-0.2028966248035431,-0.21418185532093048,-2.0831987857818604
1782984716198852000,8.31985205078125,-0.17637106776237488,-0.12555855512619019,-1.7884573936462402
1782984716208926200,8.32992626953125,-0.13049998879432678,-0.17224110662937164,-1.2004114389419556
1782984716219001000,8.3400009765625,-0.06811277568340302,-0.2925492525100708,-0.5757855772972107
1782984716229075200,8.3500751953125,0.02338704653084278,-0.37933793663978577,-0.1575971245765686
1782984716239150000,8.360150146484376,0.09445624053478241,-0.4609287679195404,-0.013195618987083435
1782984716249224200,8.37022412109375,0.14104770123958588,-0.5206555128097534,-0.013412666507065296
1782984716259298000,8.380298095703125,0.15677013993263245,-0.5036159753799438,-0.06399846076965332
1782984716269372200,8.3903720703125,0.14617368578910828,-0.45705029368400574,-0.1478574126958847
1782984716279446000,8.400446044921875,0.11161474138498306,-0.383932888507843,-0.22430795431137085
1782984716289521200,8.410521240234376,0.07322660833597183,-0.2913006842136383,-0.22116248309612274
1782984716299595000,8.420594970703124,0.031016405671834946,-0.2707497179508209,-0.12551555037498474
1782984716309669000,8.430669189453125,-0.01716497167944908,-0.2047824114561081,-0.025836899876594543
1782984716319743200,8.4407431640625,-0.0607440248131752,-0.10233087837696075,0.0112958624958992
1782984716329818000,8.450818115234375,-0.10671816766262054,-0.03149798884987831,-0.0047898972406983376
1782984716339892200,8.460892333984376,-0.16239117085933685,0.013023396022617817,-0.056400321424007416
1782984716349966000,8.470966064453124,-0.2194209098815918,0.057815633714199066,-0.13664774596691132
1782984716360040200,8.481040283203125,-0.25973743200302124,0.07513833791017532,-0.2165907919406891
1782984716370115000,8.491114990234376,-0.27800485491752625,0.088283970952034,-0.2695019543170929
1782984716380189200,8.501189208984375,-0.29635360836982727,0.10577838122844696,-0.2843610644340515
1782984716390263000,8.511262939453125,-0.303920179605484,0.15339648723602295,-0.2612275183200836
1782984716400337200,8.521337158203124,-0.32295385003089905,0.2252722531557083,-0.19765888154506683
1782984716410412000,8.531412109375,-0.331892728805542,0.3210856020450592,-0.08230005204677582
1782984716420486100,8.541486083984376,-0.3297696113586426,0.444174200296402,0.04115896672010422
1782984716430560000,8.55156005859375,-0.34428223967552185,0.5541068315505981,0.13738510012626648
1782984716440634000,8.561634033203125,-0.35241344571113586,0.5440463423728943,0.22989779710769653
1782984716450709000,8.571708984375,-0.375939279794693,0.4829917550086975,0.2937087416648865
1782984716460783000,8.581783203125,-0.45943203568458557,0.41097530722618103,0.3382745385169983
1782984716470857200,8.591857177734376,-0.47187405824661255,0.314668208360672,0.13204145431518555
1782984716480931000,8.60193115234375,-0.4470791518688202,0.3393103778362274,-0.4917774498462677
1782984716491006200,8.612006103515625,-0.48171037435531616,0.4636847972869873,-1.2689603567123413
1782984716501080000,8.622080078125,-0.6251126527786255,0.3909079432487488,-1.7224334478378296
1782984716511154200,8.632154296875,-0.7865201830863953,0.10595128685235977,-1.491620421409607
1782984716521228000,8.64222802734375,-0.8691310286521912,-0.04292804375290871,-0.733040452003479
1782984716531303200,8.65230322265625,-0.7832382321357727,0.06315258890390396,-0.0829535573720932
1782984716541377000,8.662376953125,-0.34028521180152893,0.26692405343055725,0.08835440129041672
1782984716551451100,8.672451171875,0.2476256936788559,0.3351196348667145,0.1629956215620041
1782984716561525000,8.68252490234375,0.7208753228187561,0.2550814747810364,0.5430996417999268
1782984716571600100,8.69260009765625,0.9057953953742981,0.07803105562925339,1.1215286254882812
1782984716581674000,8.702674072265625,0.808457612991333,-0.1004723310470581,1.5505484342575073
1782984716591748000,8.712748046875,0.5551574230194092,-0.1426679790019989,1.5625911951065063
1782984716601822200,8.722822265625,0.2569434344768524,-0.017885752022266388,1.232518196105957
1782984716611897000,8.73289697265625,0.014935056678950787,0.2865127623081207,0.8610802292823792
1782984716621971200,8.74297119140625,-0.13795606791973114,0.6286784410476685,0.7073489427566528
1782984716632045000,8.753045166015625,-0.152629554271698,0.7070276141166687,0.8466570377349854
1782984716642119200,8.763119140625,-0.03277504816651344,0.4972802400588989,1.1638716459274292
1782984716652194000,8.773194091796874,0.16583071649074554,0.19793905317783356,1.5380363464355469
1782984716662268200,8.78326806640625,0.32049205899238586,0.056679751724004745,1.8417540788650513
1782984716672342000,8.793342041015626,0.34666213393211365,0.15850864350795746,2.0587117671966553
1782984716682416000,8.803416015625,0.24758736789226532,0.3144528865814209,2.200324773788452
1782984716692490000,8.813489990234375,0.1162799522280693,0.3746003806591034,2.206772565841675
1782984716702565000,8.823565185546874,0.0029768238309770823,0.34906917810440063,2.0405924320220947
1782984716712639000,8.833638916015625,-0.01952768675982952,0.1291232407093048,1.5707155466079712
1782984716722713000,8.843713134765625,-0.0011015182826668024,-0.1475560963153839,0.6884468197822571
1782984716732787200,8.853787109375,0.042966075241565704,-0.36114346981048584,-0.4984758794307709
1782984716742862300,8.8638623046875,0.0322134755551815,-0.41294726729393005,-1.6476025581359863
1782984716752936200,8.873936279296874,-0.002277388935908675,-0.2997075021266937,-2.3557865619659424
1782984716763010000,8.884010009765625,-0.051721565425395966,-0.08267972618341446,-2.4509518146514893
1782984716773084200,8.894084228515625,-0.08140728622674942,0.10001498460769653,-1.9923704862594604
1782984716783159000,8.904158935546874,-0.06329619139432907,0.1649005115032196,-1.1866990327835083
1782984716793233200,8.914233154296875,0.03646528720855713,0.039986006915569305,-0.372233510017395
1782984716803307000,8.92430712890625,0.21543240547180176,-0.13355673849582672,0.14672432839870453
1782984716813381000,8.934381103515625,0.39357152581214905,-0.2652204930782318,0.26335346698760986
1782984716823456000,8.9444560546875,0.5400049686431885,-0.36454978585243225,0.11043071001768112
1782984716833530000,8.954530029296874,0.6442341804504395,-0.39509835839271545,-0.13566561043262482
1782984716843604000,8.96460400390625,0.6354074478149414,-0.32445380091667175,-0.3758224546909332
1782984716853678300,8.97467822265625,0.5590945482254028,-0.15542694926261902,-0.46897581219673157
1782984716863753000,8.9847529296875,0.44663605093955994,0.005347962491214275,-0.40502846240997314
1782984716873827300,8.994827392578125,0.37400364875793457,0.0815197005867958,-0.24956727027893066
1782984716883901200,9.004901123046874,0.33828940987586975,0.0795016884803772,-0.1318197399377823
1782984716893975000,9.01497509765625,0.3214544951915741,0.0013754628598690033,-0.10558014363050461
1782984716904050200,9.02505029296875,0.3155662715435028,-0.1061491072177887,-0.16058515012264252
1782984716914124000,9.0351240234375,0.2735876739025116,-0.19852031767368317,-0.2479027509689331
1782984716924198100,9.0451982421875,0.21764592826366425,-0.2054232656955719,-0.33342525362968445
1782984716934272000,9.05527197265625,0.1276305466890335,-0.15995191037654877,-0.40534284710884094
1782984716944347100,9.06534716796875,0.039902083575725555,-0.19175837934017181,-0.43236875534057617
1782984716954421000,9.0754208984375,-0.017976129427552223,-0.22498583793640137,-0.3978182375431061
1782984716964495000,9.0854951171875,-0.06276766955852509,-0.18257781863212585,-0.306201308965683
1782984716974569000,9.09556884765625,-0.07787205278873444,-0.11357611417770386,-0.21948476135730743
1782984716984644000,9.10564404296875,-0.07897703349590302,-0.02759305015206337,-0.14580035209655762
1782984716994718000,9.115718017578125,-0.08136695623397827,-0.00041469314601272345,-0.14497609436511993
1782984717004792300,9.125792236328126,-0.03379986435174942,0.030094105750322342,-0.1877690702676773
1782984717014866200,9.1358662109375,0.016530685126781464,0.1525646299123764,-0.20851455628871918
1782984717024941300,9.14594140625,0.013513993471860886,0.18654301762580872,-0.17486892640590668
1782984717035015200,9.15601513671875,-0.0037145279347896576,0.010103805921971798,-0.041400618851184845
1782984717045089000,9.166089111328125,-0.018347924575209618,-0.25444644689559937,-0.01419700775295496
1782984717055163100,9.1761630859375,0.007346518337726593,-0.45711860060691833,-0.44248712062835693
1782984717065237500,9.186237548828124,0.02618502825498581,-0.4811321496963501,-1.292620301246643
1782984717075311600,9.1963115234375,-0.06254164129495621,-0.34745877981185913,-1.962605357170105
1782984717085385500,9.206385498046876,-0.36169692873954773,-0.15377384424209595,-1.8269705772399902
1782984717095459600,9.21645947265625,-0.7640204429626465,-0.09774118661880493,-0.9945476055145264
1782984717105534500,9.226534423828125,-1.0064879655838013,-0.28344640135765076,-0.28129875659942627
1782984717115608600,9.236608642578124,-0.8883808255195618,-0.27908414602279663,-0.2272714525461197
1782984717125682700,9.2466826171875,-0.5054673552513123,0.041391272097826004,-0.5388350486755371
1782984717135756500,9.256756591796876,-0.05428365245461464,0.22107528150081635,-0.5402278900146484
1782984717145830700,9.26683056640625,0.301498681306839,0.0903029814362526,-0.0790642723441124
1782984717155905800,9.27690576171875,0.46857982873916626,-0.2670181393623352,0.5906949043273926
1782984717165979600,9.286979736328124,0.4347623288631439,-0.6363559365272522,1.1121513843536377
1782984717176053500,9.297053466796875,0.2619279623031616,-0.8569772839546204,1.2881368398666382
1782984717186127600,9.307127685546876,0.04007836431264877,-0.8390969038009644,1.158016562461853
1782984717196202500,9.317202392578125,-0.1358170360326767,-0.5686022639274597,0.8380749821662903
1782984717206276600,9.327276611328125,-0.22830696403980255,-0.2220679521560669,0.5091539621353149
1782984717216350500,9.3373505859375,-0.25447437167167664,0.222415491938591,0.5331218838691711
1782984717226424600,9.347424560546875,-0.2661372125148773,0.42297765612602234,0.975570797920227
1782984717236499500,9.35749951171875,-0.2905176281929016,0.29958808422088623,1.6503266096115112
1782984717246573600,9.367573486328125,-0.2777874171733856,0.25705593824386597,2.346050262451172
1782984717256647700,9.377647705078125,-0.33250072598457336,0.35733142495155334,2.864164352416992
1782984717266721800,9.3877216796875,-0.49716469645500183,0.5868906378746033,3.2163379192352295
1782984717276796700,9.397796630859375,-0.7218603491783142,0.8199169635772705,3.4615848064422607
1782984717286870800,9.407870849609376,-0.9101279377937317,0.9362399578094482,3.4889817237854004
1782984717296944600,9.417944580078125,-1.0415360927581787,0.8635337948799133,3.0998761653900146
1782984717307018500,9.4280185546875,-1.0667647123336792,0.8191328644752502,2.279238224029541
1782984717317093600,9.43809375,-0.9364317059516907,0.7229453325271606,1.044989824295044
1782984717327167500,9.44816748046875,-0.6922803521156311,0.4329394996166229,-0.4100727438926697
1782984717337241600,9.45824169921875,-0.4380374252796173,-0.08313370496034622,-1.6981157064437866
1782984717347315500,9.4683154296875,-0.2426234930753708,-0.4809347093105316,-2.376265048980713
1782984717357390600,9.478390625,-0.0898379385471344,-0.7699489593505859,-2.494504451751709
1782984717367464400,9.48846435546875,0.0015616522869095206,-1.0086736679077148,-2.233760118484497
1782984717377538600,9.49853857421875,0.07034923881292343,-1.0430516004562378,-1.6439443826675415
1782984717387612700,9.50861279296875,0.13655520975589752,-0.9087074398994446,-1.0091654062271118
1782984717397687600,9.5186875,0.23978519439697266,-0.7322807908058167,-0.6184834241867065
1782984717407761700,9.52876171875,0.39995571970939636,-0.563140869140625,-0.4847176969051361
1782984717417835800,9.538835693359376,0.5676262378692627,-0.479710191488266,-0.5366448163986206
1782984717427909600,9.54890966796875,0.6926500201225281,-0.48858219385147095,-0.6269490718841553
1782984717437984800,9.55898486328125,0.7661460638046265,-0.5069297552108765,-0.6660565137863159
1782984717448058600,9.56905859375,0.7713753581047058,-0.49818000197410583,-0.6446799039840698
1782984717458132500,9.579132568359375,0.6974124908447266,-0.5135770440101624,-0.5925813317298889
1782984717468206600,9.58920654296875,0.5587143898010254,-0.4776877760887146,-0.5171433091163635
1782984717478281500,9.599281494140625,0.4042659401893616,-0.38581645488739014,-0.4332081973552704
1782984717488355600,9.60935546875,0.24215590953826904,-0.2598835825920105,-0.35824668407440186
1782984717498429400,9.619429443359374,0.11235664784908295,-0.12823794782161713,-0.2931414544582367
1782984717508503600,9.629503662109375,0.01699175126850605,-0.04629826545715332,-0.2370595484972
1782984717518578400,9.639578369140626,-0.06164606660604477,-0.03427036106586456,-0.19531716406345367
1782984717528652500,9.649652587890625,-0.13283288478851318,-0.03165291249752045,-0.151438906788826
1782984717538726700,9.6597265625,-0.17549832165241241,-0.0028164698742330074,-0.14543507993221283
1782984717548800800,9.66980078125,-0.22621311247348785,0.027627404779195786,-0.18292473256587982
1782984717558875600,9.679875732421875,-0.2775375545024872,0.03951495885848999,-0.23454025387763977
1782984717568949800,9.68994970703125,-0.34061533212661743,0.11859812587499619,-0.2607921063899994
1782984717579023600,9.700023681640625,-0.3674203157424927,0.2579954266548157,-0.24312549829483032
1782984717589097500,9.710097412109375,-0.3338186740875244,0.30574309825897217,-0.1597171574831009
1782984717599172600,9.720172607421874,-0.2808707654476166,0.21643663942813873,-0.026849644258618355
1782984717609246500,9.73024658203125,-0.27819159626960754,-0.014342587441205978,0.09257546067237854
1782984717619320600,9.740320556640626,-0.3193747401237488,-0.3289788067340851,0.12280154228210449
1782984717629394400,9.75039453125,-0.4046742022037506,-0.5758194327354431,-0.11541999131441116
1782984717639469600,9.760469482421875,-0.4795183539390564,-0.5515601634979248,-0.6982282996177673
1782984717649543400,9.77054345703125,-0.66010981798172,-0.36792632937431335,-1.4203572273254395
1782984717659617500,9.780617431640625,-0.9371781945228577,-0.07163525372743607,-1.9461677074432373
1782984717669691600,9.790691650390626,-1.1832554340362549,0.29897329211235046,-2.0026297569274902
1782984717679765800,9.800765869140625,-1.2057971954345703,0.32173508405685425,-1.5984266996383667
1782984717689840600,9.810840576171875,-0.8282893300056458,-0.0836363434791565,-1.0959490537643433
1782984717699914800,9.820914794921874,-0.19685015082359314,-0.34582003951072693,-0.695623517036438
1782984717709988600,9.830988525390625,0.3837874233722687,-0.4475304186344147,-0.29060840606689453
1782984717720063700,9.841063720703126,0.8201120495796204,-0.5526994466781616,0.2557334899902344
1782984717730137600,9.8511376953125,1.0847829580307007,-0.5632492899894714,0.8426826596260071
1782984717740211700,9.861211669921875,1.1230111122131348,-0.4463202953338623,1.2972147464752197
1782984717750285600,9.87128564453125,0.949499785900116,-0.285971075296402,1.501718282699585
1782984717760359400,9.881359375,0.6563835144042969,-0.14618204534053802,1.4390738010406494
1782984717770434600,9.8914345703125,0.3823586404323578,0.13106973469257355,1.0894144773483276
1782984717780508400,9.90150830078125,0.19291332364082336,0.5032851099967957,0.6459869742393494
1782984717790582800,9.911582763671875,0.05799803137779236,0.8103255033493042,0.37523403763771057
1782984717800656600,9.92165673828125,-0.04433766007423401,0.9233929514884949,0.37266969680786133
1782984717810731800,9.931731689453125,-0.08551950007677078,0.8820569515228271,0.6368827223777771
1782984717820805600,9.9418056640625,-0.10496404021978378,0.6460572481155396,1.0677785873413086
1782984717830879700,9.951879638671874,-0.14341244101524353,0.3378101885318756,1.5452885627746582
1782984717840953600,9.96195361328125,-0.18227620422840118,0.1076400876045227,1.9939227104187012
1782984717851028700,9.97202880859375,-0.17543421685695648,-0.0749235600233078,2.4057669639587402
1782984717861102600,9.9821025390625,-0.13192908465862274,-0.3189801573753357,2.6790428161621094
1782984717871176700,9.9921767578125,-0.045033182948827744,-0.5052160620689392,2.5788915157318115
1782984717881250600,10.00225048828125,0.11934857070446014,-0.4349901080131531,1.956182599067688
1782984717891325700,10.01232568359375,0.1792716234922409,-0.3324279189109802,0.9467818140983582
1782984717901399600,10.022399658203126,0.11086088418960571,-0.25274720788002014,-0.19705383479595184
1782984717911473400,10.032473388671875,-0.04660284146666527,-0.1892596185207367,-1.1811071634292603
1782984717921547800,10.0425478515625,-0.20096765458583832,-0.07859648019075394,-1.8511230945587158
1782984717931622400,10.052622314453124,-0.3048626184463501,-0.07739895582199097,-2.0074965953826904
1782984717941696800,10.06269677734375,-0.3518011271953583,-0.2370738387107849,-1.5922869443893433
1782984717951770600,10.0727705078125,-0.37481972575187683,-0.3467273712158203,-0.9667309522628784
1782984717961844700,10.0828447265625,-0.36998263001441956,-0.3015502989292145,-0.4947378635406494
1782984717971919600,10.092919677734375,-0.33237630128860474,-0.22675740718841553,-0.3001786470413208
1782984717981993700,10.10299365234375,-0.23841388523578644,-0.1646016240119934,-0.3002593517303467
1782984717992067600,10.113067626953125,-0.10424217581748962,-0.17078536748886108,-0.2985776364803314
1782984718002141700,10.1231416015625,0.06182615086436272,-0.24484175443649292,-0.2745532691478729
1782984718012216600,10.133216552734375,0.2192334234714508,-0.30267614126205444,-0.2889326214790344
1782984718022290700,10.143290771484375,0.3341320753097534,-0.3142411708831787,-0.3580171465873718
1782984718032364500,10.153364501953124,0.39093440771102905,-0.33657407760620117,-0.437685489654541
1782984718042438400,10.1634384765625,0.3550930619239807,-0.3735158443450928,-0.5243543386459351
1782984718052513500,10.173513427734376,0.30632638931274414,-0.3042570650577545,-0.5027707815170288
1782984718062587400,10.18358740234375,0.24764177203178406,-0.16700148582458496,-0.34246450662612915
1782984718072662000,10.193662109375,0.17933259904384613,-0.13214656710624695,-0.1548229306936264
1782984718082736000,10.203736083984374,0.13688980042934418,-0.14469192922115326,-0.024215655401349068
1782984718092811000,10.21381103515625,0.13401544094085693,-0.08073168992996216,0.10272391140460968
1782984718102885000,10.223885009765626,0.10101568698883057,-0.09050948172807693,0.1691514104604721
1782984718112959200,10.233959228515625,0.08907110244035721,0.05518528074026108,0.1120932549238205
1782984718123033000,10.244033203125,0.07971755415201187,0.25300437211990356,0.04797019436955452
1782984718133108200,10.254108154296874,0.04997151717543602,0.31960469484329224,0.0016908054240047932
1782984718143182000,10.26418212890625,0.0011230201926082373,0.3433513045310974,-0.020337797701358795
1782984718153256200,10.274256103515626,-0.029380720108747482,0.40407684445381165,0.059344012290239334
1782984718163330000,10.284330078125,-0.07124613970518112,0.372325599193573,0.2866511940956116
1782984718173405200,10.2944052734375,-0.1382817029953003,0.3180314302444458,0.7178720235824585
1782984718183479000,10.30447900390625,-0.28046679496765137,0.21217742562294006,0.863150954246521
1782984718193553200,10.31455322265625,-0.4226808547973633,0.3395368456840515,0.5511113405227661
