time,seconds_elapsed,z,y,x
1782986273960539000,0.074538818359375,-12.959247769236564,-1.702103192847967,-0.6242697435114533
1782986273970614000,0.084614013671875,-8.983830810847877,-1.8201833365663884,0.14452933910163118
1782986273980688000,0.09468798828125,-5.241728102815151,-2.372598900157213,0.1412298408985138
1782986273990761700,0.10476171875,-2.6624329101145268,-2.7180425691336394,-0.1988770701598376
1782986274000836900,0.1148369140625,-1.1798059964060783,-2.5951830821841955,-0.26581991450022907
1782986274010910700,0.12491064453125,-0.7810866643160581,-2.2188974079594015,-0.1065492438679561
1782986274020984800,0.13498486328125,-0.9789280347526073,-1.5293550548747181,0.09227426947373896
1782986274031060000,0.14506005859375,-0.8734925608128309,-0.7415250537782907,0.46504287548828865
1782986274041133800,0.1551337890625,-0.11695113968849181,-0.028894962833821772,0.8577752055905759
1782986274051209000,0.165208984375,1.1311182456046343,0.44480712952613827,1.1679035232968629
1782986274061282800,0.17528271484375,2.4997318266421553,0.7122860998123883,1.3592618153244256
1782986274071356700,0.185356689453125,3.9334816044569014,0.9420067095905542,1.4786466119006276
1782986274081431800,0.195431884765625,5.363666383266449,1.001312300518155,1.3679089398995041
1782986274091505700,0.205505615234375,6.497071863025426,1.0360951523467898,0.8740755483325571
1782986274101580000,0.215580078125,7.121261161711812,1.165585747873783,0.4862810399586335
1782986274111654700,0.225654541015625,7.625712904861569,1.4181398284897206,0.470021138824895
1782986274121729000,0.23572900390625,8.11303581855595,1.677182978864014,0.6328093160588294
1782986274131803000,0.245802978515625,8.40401373785138,1.8726400845125317,0.7331046506311744
1782986274141878000,0.2558779296875,8.39084796680808,2.019866827738285,0.7900491384506225
1782986274151952000,0.265951904296875,7.800949060258269,2.211835506749153,0.8248417810209095
1782986274162026000,0.27602587890625,6.91048081472516,2.4234584420397876,0.8306335892301052
1782986274172100900,0.286100830078125,6.199706288519502,2.5698876051470636,0.7727213523570448
1782986274182175000,0.296175048828125,5.800791726118326,2.647846166357398,0.6733851451404392
1782986274192249900,0.306249755859375,5.816674354904889,2.728533860270679,0.6508699464716017
1782986274202324000,0.316323974609375,6.186696000298857,2.785528543907404,0.6385413569048046
1782986274212397800,0.326397705078125,6.750490159255266,2.8704125204667448,0.6994403545036911
1782986274222473000,0.336472900390625,7.202140871065855,3.010634061105549,0.7950561529576778
1782986274232546800,0.346546875,7.428025263682008,3.1117671616762874,0.8774495548103004
1782986274242621000,0.356620849609375,7.60508395833075,3.2163530330494043,0.9714467390865087
1782986274252695800,0.36669580078125,7.8435975308954715,3.2990175799936052,1.0093802369657903
1782986274262770000,0.37677001953125,8.005996416550873,3.301707841990888,0.7491407894790172
1782986274272843800,0.38684375,8.143067384204269,3.289422945435345,0.6428823087185621
1782986274282919000,0.3969189453125,8.266649924731254,3.3529595980614424,0.47611551017723974
1782986274292992800,0.40699267578125,8.301647003832459,3.451122450649738,0.2082049070080742
1782986274303067000,0.41706689453125,8.233083755216002,3.613605507457256,0.11760368531309068
1782986274313141800,0.427141845703125,7.946943339079618,3.6450767505198716,0.36974772382341325
1782986274323216000,0.4372158203125,7.427742939609288,3.310097776934504,0.839430205278471
1782986274333290000,0.4472900390625,6.859836084637045,2.589273565879464,1.0355872028246522
1782986274343364900,0.45736474609375,6.166929223555326,1.826106004613638,0.8150630220673978
1782986274353439000,0.46743896484375,4.499920140442252,1.0448486599057911,0.5048772385528311
1782986274363513900,0.477513916015625,1.1800140861988067,-0.013570260190963744,0.4177223579194396
1782986274373588000,0.487587890625,-3.394486371192336,-1.4387111996144055,0.48780353681817645
1782986274383661800,0.497661865234375,-8.270077561092377,-2.650326877257228,0.3948755892086774
1782986274393737000,0.507737060546875,-11.769217315936087,-3.3912504580110308,0.07892831955794244
1782986274403811000,0.51781103515625,-12.828294992202519,-4.428634773385524,0.8380890928678214
1782986274413885000,0.527885009765625,-12.788144183599949,-6.145002053907513,2.568452311646938
1782986274423960000,0.5379599609375,-13.278667939162254,-8.132781552511453,3.921001185329258
1782986274434034000,0.548033935546875,-14.31287771615386,-9.2497415089041,4.163369387495518
1782986274444107800,0.558107666015625,-15.536048222512006,-9.606109891998766,3.808218271236121
1782986274454183000,0.568182861328125,-16.09900943777561,-9.932914911478758,3.1422026319503784
1782986274464256800,0.5782568359375,-16.511861924636364,-11.110290465867518,2.3556878051057457
1782986274474331000,0.588330810546875,-17.239859388321637,-11.6927665289402,0.6386549002818763
1782986274484405800,0.59840576171875,-17.875939615809916,-10.148521655708551,-2.1657019704751668
1782986274494480000,0.60847998046875,-18.17828707038164,-7.281289226582646,-4.404032539309561
1782986274504554800,0.6185546875,-17.354429185831545,-4.379011787560582,-5.040447990101575
1782986274514628900,0.62862890625,-14.85792333549857,-2.429377602955699,-4.254506579230726
1782986274524702700,0.63870263671875,-11.313344017994403,-1.6775252164304255,-3.2158103044748305
1782986274534777900,0.64877783203125,-7.635701214912533,-1.6251543932020662,-2.689816007080674
1782986274544851700,0.658851806640625,-4.010640831983089,-1.5146458537817,-2.6572017314627767
1782986274554925800,0.66892578125,-0.7965314862072468,-1.2707412358283996,-2.7642417179897425
1782986274565000700,0.679000732421875,1.7118518489241599,-0.7355512400656938,-2.532863111871481
1782986274575074800,0.68907470703125,3.5034073491603133,-0.028556232398748396,-1.8885009398587047
1782986274585149000,0.69914892578125,4.846051791682839,0.6381184553176165,-1.049284742657095
1782986274595223800,0.709223876953125,5.830933766403794,1.4010603911340236,-0.1804680647008121
1782986274605298000,0.7192978515625,6.47132834995985,2.2610534189045426,0.624146628588438
1782986274615372800,0.729372802734375,6.950462696501612,2.9431057084947825,1.3324059571027755
1782986274625447000,0.739447021484375,7.188929507315159,3.1546295673251152,1.8692454736381767
1782986274635521000,0.74952099609375,7.395394913712144,3.450419270816445,1.8838386471360922
1782986274645596000,0.759595947265625,7.673309937816858,3.884221606725454,1.549519598764181
1782986274655670000,0.769669921875,7.832340808343887,3.9232349357306955,1.1392502602644263
1782986274665744000,0.779743896484375,8.01555334944725,3.735741356307268,0.7879565500855445
1782986274675819000,0.789819091796875,8.176267058494686,3.49431277307868,0.387261972399801
1782986274685892900,0.799892822265625,8.217934116879105,3.204386408662796,0.06538951395116746
1782986274695967000,0.809967041015625,8.225754435241221,2.961180294367671,-0.20592611188851295
1782986274706041900,0.820041748046875,8.13443048876226,2.873149544215202,-0.46620201892815527
1782986274716116000,0.830115966796875,7.893578828638792,2.9088872125506398,-0.6589036153234541
1782986274726189800,0.84018994140625,7.596465767589211,3.0635832687437534,-0.7968781076878309
1782986274736265000,0.850264892578125,7.22126467373073,3.282613557681441,-0.8671537131801247
1782986274746338800,0.8603388671875,7.013905533364415,3.5010867972582576,-0.7699468461424112
1782986274756412700,0.87041259765625,6.955626947396993,3.7223359312891957,-0.5884253268659114
1782986274766487800,0.88048779296875,6.910301951026916,3.972775503969192,-0.37741537237446754
1782986274776562000,0.89056201171875,6.900501857024431,4.163315611481666,-0.25040844688937064
1782986274786636800,0.90063671875,6.91374478495717,4.3359214183747765,-0.26211625594301147
1782986274796711000,0.9107109375,6.956373966372013,4.483275879633426,-0.27831237112553786
1782986274806784800,0.92078466796875,7.055462701633572,4.615989236599207,-0.4018170789096504
1782986274816860000,0.93085986328125,7.185052958142757,4.687465157791972,-0.6702657710108906
1782986274826933800,0.940933837890625,7.230958384749293,4.700385429641604,-0.8636418326016515
1782986274837008000,0.9510078125,7.137998946022987,4.571411843726039,-0.9313230376865714
1782986274847082800,0.961082763671875,7.017016358861326,4.408040898168086,-1.0522823901031166
1782986274857156900,0.971156982421875,6.552972613945603,4.293545334938169,-1.2535326191350817
1782986274867231000,0.98123095703125,6.136441146311164,4.151835601568222,-1.3929611097000538
1782986274877305900,0.991305908203125,5.796689551496505,3.870923733735084,-1.495172653157264
1782986274887380000,1.0013798828125,5.093039762604237,3.4698002631127833,-1.4720445832870899
1782986274897455000,1.011455078125,4.367161775290966,2.9169454313218592,-1.2574237813547253
1782986274907529000,1.021529052734375,3.6774247764170167,2.1722125214129684,-0.6066178034974262
1782986274917602800,1.031602783203125,2.630268424090743,0.9762012401372193,0.4500425094289705
1782986274927678000,1.041677978515625,0.649590866446495,-0.5445581280887126,1.668167897759378
1782986274937751800,1.051751708984375,-1.3531108914792538,-2.0673604003190995,3.009638328066468
1782986274947826000,1.061825927734375,-3.348722983404994,-3.5130139664173123,4.34762763825953
1782986274957900800,1.07190087890625,-5.783036289197206,-4.607531204855442,4.596038335460424
1782986274967975000,1.081974853515625,-8.93942059123516,-5.514632605281472,2.9786817565277217
1782986274978048800,1.092048828125,-11.145787311184405,-6.467904220730066,0.6854607828594744
1782986274988124000,1.1021240234375,-11.620166572153568,-7.851817662230133,0.01891205961033702
1782986274998197800,1.11219775390625,-10.775845745289326,-9.626447746628521,1.2644577716447412
1782986275008272000,1.12227197265625,-10.518882908320426,-11.201962202870845,2.383099251383543
1782986275018346800,1.1323466796875,-11.657232274222373,-10.721519111818074,2.8046009086459875
1782986275028420900,1.1424208984375,-13.192887013763189,-7.440557997518777,3.0059353818953034
1782986275038494700,1.15249462890625,-13.79880708078742,-3.53945510635823,4.053374058294296
1782986275048569900,1.16256982421875,-12.540608515667914,-0.7570870723083615,5.266833902499079
1782986275058643700,1.172643798828125,-10.40652844877243,0.6819608119145035,5.504314624884724
1782986275068718800,1.18271875,-8.737585182726383,0.8490566232144832,4.230765345898271
1782986275078792700,1.192792724609375,-8.144805752304196,-0.13237111939936874,1.5814575825557111
1782986275088867000,1.2028671875,-8.218991516977548,-1.5099331460461018,-1.2528646567456423
1782986275098941700,1.212941650390625,-7.913625006845593,-1.8742466429263351,-3.322966610857844
1782986275109016000,1.22301611328125,-7.358302323636412,-1.4221382504761217,-4.300858288300037
1782986275119090000,1.23308984375,-6.126888305068015,-1.0572080830022692,-4.05047658328712
1782986275129165000,1.2431650390625,-4.122479743224382,-1.2434846878513692,-2.9240993947297333
1782986275139239000,1.253239013671875,-1.7624872266620397,-1.652387852564454,-1.4645122880861163
1782986275149313000,1.26331298828125,0.6240373229950666,-1.6870482470571995,-0.13124679154455662
1782986275159388000,1.273387939453125,2.7066870623826977,-1.4103314928263424,0.971463836351782
1782986275169462000,1.2834619140625,4.5106747586905955,-0.9160615364730358,1.7550538617908953
1782986275179536000,1.293535888671875,5.9540410906344645,-0.33231355376839633,2.2702713291049004
1782986275189611000,1.303611083984375,7.0706298756271595,0.36290450686514375,2.494326752728224
1782986275199684900,1.313684814453125,7.921733494499326,0.9990846875965594,2.383924888552725
1782986275209760000,1.323760009765625,8.454251640704273,1.211748656372726,1.3126004557840525
1782986275219833900,1.333833740234375,8.648578865540028,1.4722253466814756,1.4459256610378621
1782986275229907700,1.34390771484375,8.912423278716206,1.5151716312214731,1.7808591880463063
1782986275239982800,1.35398291015625,8.911259495633841,1.4714143225595355,1.7800103161320089
1782986275250057000,1.364056884765625,8.640670284372568,1.758072332829237,1.7479910837978123
1782986275260130800,1.374130859375,7.9321070044755935,2.0208280739858746,1.283793609625101
1782986275270206000,1.3842060546875,7.101176405060291,2.09287302723825,0.7197597966939211
1782986275280279800,1.39427978515625,6.547994825533032,2.216061307750642,0.3448408807776868
1782986275290353700,1.404353759765625,6.238545430001616,2.3524647514060137,0.04000741807650775
1782986275300428800,1.4144287109375,5.996856734532117,2.4207041748955844,-0.06558167552240192
1782986275310502700,1.424502685546875,5.75348753862977,2.547771342667937,-0.030419615117833018
1782986275320577000,1.434576904296875,5.573568193852901,2.6926997458234427,0.05903703965190798
1782986275330651600,1.444651611328125,5.443668140742182,2.825243006919324,0.023757782608456908
1782986275340726000,1.45472607421875,5.133800227537751,2.961875875416398,-0.21637356388382611
1782986275350800000,1.4647998046875,4.64718458532989,2.9301360445454714,-0.7379147543266416
1782986275360875000,1.474875,4.482321939909458,2.9145602897509932,-1.0771551847487688
1782986275370948900,1.484948974609375,4.545235784462094,2.8584695692166684,-1.3349321145795285
1782986275381024000,1.49502392578125,4.642239530143142,2.6007062295198438,-1.4229980821758508
1782986275391097900,1.505097900390625,4.4426229667276145,2.227154948695004,-1.3875731330513954
1782986275401172000,1.515171875,3.8671442151963706,1.7199667663186788,-1.3368728733837603
1782986275411246800,1.525246826171875,2.5859739398121833,1.3546499376147985,-1.3403440566256641
1782986275421321000,1.535321044921875,0.289613060683012,1.2417846059352158,-1.2203470464352517
1782986275431394800,1.545394775390625,-2.110877470484376,1.0407119984924793,-0.7231338762369006
1782986275441470000,1.555469970703125,-4.397815272229909,0.39227556277811526,-0.11308151344722137
1782986275451543800,1.565543701171875,-6.589056903761625,-0.23976269584298132,0.5725731662828475
1782986275461618000,1.575617919921875,-8.982202332863212,-0.6446551636099815,0.7550072703596205
1782986275471692800,1.58569287109375,-10.7719025606215,-1.0320072985112667,0.031909945007134226
1782986275481767000,1.595766845703125,-10.952828452092408,-1.683852665886283,-1.4198792195029555
1782986275491840800,1.6058408203125,-9.626093526363372,-3.518960892122984,-2.696177651067078
1782986275501916000,1.615916015625,-7.92521256878674,-5.804107134276628,-2.659738848724961
1782986275511989800,1.62598974609375,-6.3664581086874,-7.33814508627057,-2.2014090975418688
1782986275522065000,1.63606494140625,-6.073654143008589,-8.467425010532141,-1.843886868236959
1782986275532138800,1.646138671875,-7.200320085379481,-8.196694929495454,-1.9348254686601458
1782986275542212900,1.656212890625,-9.199594791465998,-5.57398028178513,-2.1948142293214796
1782986275552287700,1.666287841796875,-11.262521008729934,-1.9208885671138762,-2.061136265107244
1782986275562361900,1.67636181640625,-11.686879224467276,0.8946692043542861,-1.2887018399327992
1782986275572436000,1.68643603515625,-10.170873772770166,2.047522896426916,-0.2788128314609639
1782986275582510800,1.6965107421875,-7.5838634756475685,1.3978911134481429,0.1159303087407723
1782986275592585000,1.7065849609375,-4.224477059409022,-0.2682370951771736,-0.5021258574854582
1782986275602658800,1.716658935546875,-1.0515408510208129,-1.7654770561277866,-1.5618983110830187
1782986275612734000,1.72673388671875,1.3008926284641027,-2.6442756143942474,-2.251204225063324
1782986275622808000,1.73680810546875,2.951398320543766,-2.7131670720517636,-2.0791069522142407
1782986275632882000,1.7468818359375,3.987330099022388,-2.0685013870477675,-1.1089126243416219
1782986275642957000,1.75695703125,4.687760925868154,-1.2651494071707128,0.23028821706566957
1782986275653031000,1.767031005859375,5.559938312429189,-0.612898673865199,1.4084630686059594
1782986275663105300,1.777105224609375,6.361323083886504,-0.16523030968904495,2.1808850726902484
1782986275673179100,1.78717919921875,6.3523442431390285,-0.13303805887550116,2.4390843195863066
1782986275683253000,1.7972529296875,5.4849915002554654,-0.30534312925636764,2.1627543727159497
1782986275693328100,1.807328125,4.448491566500067,-0.2162201999530196,1.4828724129021167
1782986275703402000,1.817402099609375,3.9180028802961107,0.15262509513795375,0.8294296933330595
1782986275713476000,1.82747607421875,3.9000171417504546,0.29676176339387894,0.5642893585948273
1782986275723551200,1.83755126953125,4.505852453100681,0.06219196001887321,0.6370723803307861
1782986275733625000,1.847625,5.3706572650671,-0.1483291515097022,0.7763384468756616
1782986275743699200,1.85769921875,6.164659525057673,-0.08966068944185972,0.9768144766647369
1782986275753774000,1.867774169921875,6.759649617266654,0.33034780665338037,1.4194456503912807
1782986275763848200,1.87784814453125,6.8560068817377084,-0.2915574727490544,1.4677404563523828
1782986275773922300,1.88792236328125,6.647189943778515,-0.655193508759141,1.414288121497631
1782986275783997200,1.8979970703125,6.565109626463055,-0.08539630999565125,1.0266855920318514
1782986275794071300,1.9080712890625,6.507878503721952,0.1464604350283742,0.4052314904630184
1782986275804145200,1.918145263671875,5.899643730014562,0.3976321213752031,-0.3469132666049525
1782986275814220300,1.92822021484375,5.033714882454276,0.7865498981580138,-0.8294224598746747
1782986275824294100,1.938294189453125,4.0193887865841385,0.9398916171327233,-1.0710520455680788
1782986275834369300,1.948369384765625,3.5365035630762574,1.0230787266463042,-1.2616434448763727
1782986275844443100,1.958443115234375,3.7425919528543945,1.2936319898113608,-1.3770457476876676
1782986275854517200,1.968517333984375,4.195943623363972,1.42101333809942,-1.5088760382086037
1782986275864592100,1.978592041015625,4.428928787896037,1.2344710680514572,-1.4338833410665393
1782986275874666200,1.988666259765625,4.451503607797623,0.9180278681099414,-1.2348425317123533
1782986275884740000,1.998739990234375,4.208499738076329,0.6211667359948158,-1.0814608460534363
1782986275894815200,2.008815185546875,3.5903017887592314,0.3197954329788685,-0.8317521449312567
1782986275904889000,2.01888916015625,2.2170734074026344,-0.08086188143640756,-0.5747313672300428
1782986275914963200,2.028963134765625,-0.5203033922761678,-0.557987518504262,-0.4315672338007018
1782986275925038000,2.0390380859375,-4.50604008462727,-0.7628288308307528,-0.5560073044724763
1782986275935112200,2.0491123046875,-8.691205124345421,-0.06727203976213932,-0.4380766522273421
1782986275945186000,2.05918603515625,-11.387774697339534,0.9498296583011746,0.5600556665478273
1782986275955261200,2.06926123046875,-12.210890239089727,1.0447618584051728,2.648806535822153
1782986275965335000,2.0793349609375,-11.826118183809518,-0.4631333520725369,4.37176926908642
1782986275975409200,2.0894091796875,-10.908153444063663,-2.785638434022665,4.723775657579303
1782986275985484000,2.099484130859375,-10.630712467211485,-4.676040677458047,3.7973783127918836
1782986275995558100,2.10955810546875,-10.573365024614333,-5.502473380932211,1.6806383800148963
1782986276005633000,2.119633056640625,-10.119444029784201,-5.526447546237707,-0.9043472063470631
1782986276015707100,2.12970703125,-9.89333342719674,-6.322103418654203,-1.8355469099149107
1782986276025781200,2.13978125,-9.941455945330858,-6.545146450364589,-1.8689175568580627
1782986276035856100,2.149856201171875,-9.359406583237648,-4.127711798658967,-2.140409854438901
1782986276045930200,2.15993017578125,-8.062325622016191,-0.5578124541983008,-2.2953742061793805
1782986276056004000,2.170004150390625,-7.025423537200689,1.7384437955126166,-2.1496954230479894
1782986276066079200,2.180079345703125,-6.073648882311582,2.4087211838960645,-2.1634145901903508
1782986276076153000,2.190153076171875,-5.4214335125803945,1.7757567503407596,-3.1094021861106156
1782986276086227200,2.200227294921875,-6.1012400690704585,-0.03480594044327736,-5.275439818280935
1782986276096302300,2.21030224609375,-7.312009359017014,-1.7903820725426076,-7.183553074973821
1782986276106376200,2.220376220703125,-7.260912208986282,-2.211870578062534,-7.1876856447339055
1782986276116450000,2.230449951171875,-5.500153413552045,-1.3910975077852605,-5.557561646425723
1782986276126525200,2.240525146484375,-3.054463558220863,-0.5946323648124933,-3.1115994038939476
1782986276136599000,2.25059912109375,-0.12168167534172535,-0.0354968453168869,-1.0512501975111663
1782986276146673200,2.260673095703125,2.894412696996331,0.3232566793486476,0.6850925340689719
1782986276156748000,2.270748046875,5.623620803266763,0.406789533559978,2.1396651735514403
1782986276166822100,2.280822265625,7.846556380701065,0.4221162820294499,3.135844787356257
1782986276176897000,2.29089697265625,9.330813525959849,0.33254034826159473,3.2388331604048606
1782986276186971100,2.30097119140625,9.595759178376197,-0.12407704604566097,2.5706448532551525
1782986276197045000,2.311044921875,10.044779541683196,0.2422124270826578,2.0875448179528115
1782986276207120100,2.3211201171875,10.343220051944256,0.13867577250152827,2.0190303769141433
1782986276217194000,2.331194091796875,10.229096829158067,-0.2706134689196944,2.319348809876293
1782986276227268000,2.34126806640625,9.816706114590167,-0.1832435207635164,2.533403210097551
1782986276237343000,2.351343017578125,8.969794686710834,0.3767114984214306,2.5397286137267945
1782986276247417000,2.3614169921875,6.607989567768573,1.0059440519720315,2.334261862978339
1782986276257491200,2.3714912109375,5.37157204182446,1.3288535253182052,1.2841836318559945
1782986276267566000,2.381566162109375,4.803335516506433,1.8682675685167311,0.5371037204295397
1782986276277640200,2.39164013671875,4.748133269244432,2.0610902340084314,-0.034654257012903686
1782986276287714300,2.40171435546875,4.751048279908299,1.886752196495235,-0.3203868960659951
1782986276297789200,2.4117890625,4.892050157269836,1.751348869793117,-0.18941234559156
1782986276307863300,2.42186328125,5.345244591391086,1.8455936721548436,-0.014126213573291897
1782986276317937200,2.431937255859375,5.932973752686381,2.054766876205802,0.09949910616073757
1782986276328012300,2.44201220703125,6.567377571395039,2.3195021007418632,0.1895797745803371
1782986276338086100,2.452086181640625,7.032352459681034,2.6818314380675554,0.2554048669371754
1782986276348160300,2.46216015625,7.253516253516078,3.030918139721453,0.2625526563325897
1782986276358235100,2.472235107421875,7.514746684801578,3.2531340729579328,0.24249975612405686
1782986276368309200,2.482309326171875,7.786091682866215,3.306383432586491,0.1573719974040985
1782986276378384100,2.492384033203125,7.976682059261202,3.2317259587481617,-0.04491561185158789
1782986276388458200,2.502458251953125,8.056327842906118,3.1540503061324356,-0.27119974437505007
1782986276398532000,2.512531982421875,7.935435856637358,3.1873981567218896,-0.43035657936930655
1782986276408607200,2.522607177734375,7.365687173190713,3.1890622905418273,-0.6422725062571466
1782986276418681000,2.53268115234375,6.519608104482293,3.0835218949228524,-0.8233398520253599
1782986276428755000,2.5427548828125,5.64125115250349,2.95950330106616,-0.9131340316537767
1782986276438830000,2.552830078125,4.785833762085438,2.7204829480230805,-1.0281835024394095
1782986276448904000,2.562904052734375,3.815992704629898,2.211018929669261,-1.1323146888475863
1782986276458978300,2.572978271484375,2.162616425549984,1.5403352985724805,-1.1048267432674765
1782986276469053200,2.58305322265625,-0.21816811915040016,0.845651490946114,-0.6317139220375567
1782986276479127300,2.593127197265625,-2.647810510522127,0.10626578728407621,0.02976588218314573
1782986276489201200,2.603201171875,-4.863723641973734,-0.858900556358695,0.9693731476828455
1782986276499276300,2.6132763671875,-7.017773314708471,-2.061379864604771,1.6086347816862165
1782986276509350100,2.62335009765625,-8.84318958349228,-3.7971193695947525,0.9548442715927958
1782986276519424300,2.63342431640625,-10.381141494059563,-5.9986886261343955,-0.3662170654792338
1782986276529499100,2.6434990234375,-12.239817058366537,-7.676342437380552,-1.0313136902239173
1782986276539573200,2.6535732421875,-14.325088378429411,-8.187009986305236,-0.6033275663129984
1782986276549648100,2.663648193359375,-15.929874521863459,-7.160893499398231,-0.16883100106213242
1782986276559722200,2.67372216796875,-16.418516116940975,-5.89459462993145,-0.15858539178185163
1782986276569796000,2.683796142578125,-15.830773511642217,-6.612506752932071,-0.21383513144738972
1782986276579871200,2.693871337890625,-14.956443330961465,-7.633491722169518,0.15504048571661114
1782986276589945000,2.703945068359375,-14.441576576781271,-7.279505265775322,1.1959622545022517
1782986276600019200,2.714019287109375,-13.4294231487751,-6.058722531336546,2.047286311192065
1782986276610094000,2.724093994140625,-11.239971323269605,-4.72216676107794,2.0807269546315075
1782986276620168200,2.734168212890625,-8.436087622982264,-3.753668350403011,1.5099259856529532
1782986276630242000,2.744241943359375,-5.582118580055236,-2.9978043901488185,0.5334774927563966
1782986276640317200,2.754317138671875,-2.9601164645284412,-2.1667180156499146,-0.35247707474455237
1782986276650391000,2.76439111328125,-1.0564917514264582,-1.4437965400546788,-0.9741226802974938
1782986276660465200,2.774465087890625,0.0204693720549345,-1.1811571187540888,-1.4323986554667352
1782986276670540300,2.784540283203125,0.6202268247961997,-0.8982906097218394,-1.5258977540276943
1782986276680614100,2.7946142578125,1.6469617358624935,-0.5568123372450471,-1.4198304119251668
1782986276690689300,2.804689208984375,3.0335043568223714,-0.3584174245789647,-1.1708521439693866
1782986276700763100,2.81476318359375,4.182497866335511,-0.12293693609982728,-0.6177389535032213
1782986276710837200,2.824837158203125,4.952943894171715,0.006354921984672546,0.25148089842647314
1782986276720912100,2.834912109375,5.5637885581165545,-0.019476269364356993,1.052438822773844
1782986276730986200,2.844986328125,6.097138478970527,0.14136340415030718,1.660327413392067
1782986276741060400,2.855060302734375,6.505170998328924,0.6592685031130909,2.0318274607755242
1782986276751135200,2.86513525390625,6.728395231825113,1.3802917438715696,2.0981433688566087
1782986276761209300,2.875209228515625,6.705390788334608,2.1536162497535347,2.1639232703648505
1782986276771283500,2.885283447265625,6.63751844459176,2.844827997355163,2.283117366674542
1782986276781358300,2.8953583984375,6.45706075515449,3.305609817865491,2.450939300291985
1782986276791432400,2.905432373046875,6.097212713250517,3.4761239131763575,2.6438983055144547
1782986276801506300,2.91550634765625,5.913620232918858,3.4855978439643978,2.6323756255030633
1782986276811581400,2.92558154296875,5.8981339099735015,3.390015363258123,2.4427384581796825
1782986276821655300,2.9356552734375,5.980295475831627,3.2304666063368317,2.2125157440982757
1782986276831729200,2.945729248046875,5.936566808742285,3.09468830884248,2.2159771365985272
1782986276841804300,2.95580419921875,5.92116933312416,2.9493773361101745,2.04115569948256
1782986276851878100,2.965878173828125,5.941006837016344,2.856385164158046,1.8198950211443006
1782986276861952300,2.9759521484375,6.051070555278659,2.8481983505710957,1.5176425513796508
1782986276872027400,2.98602734375,6.100893447589874,2.8659289453119037,1.2373545145332812
1782986276882101200,2.996101318359375,6.029871699905395,2.8860628018021584,1.0193155747205018
1782986276892176400,3.00617626953125,5.962601413708925,2.9003683905303475,0.7774749035596847
1782986276902250200,3.016250244140625,5.87411590552628,2.948009554888308,0.6403172805361449
1782986276912324000,3.026323974609375,5.766695395249128,3.0988325690403578,0.5381938537538051
1782986276922399200,3.036399169921875,5.878402789065241,3.1714509382665157,0.3422276295393705
1782986276932473000,3.04647314453125,6.0573132490605115,3.1693861146911977,0.4431054401747882
1782986276942547200,3.056547119140625,6.0207736166924235,3.028045799155533,0.7613623384747654
1782986276952622000,3.0666220703125,5.984983341386914,2.785822558417916,0.8395401684589684
1782986276962696200,3.0766962890625,5.658244372880459,2.703228738622367,0.7363602914262563
1782986276972770300,3.086770263671875,4.774231002575159,2.6157936162754893,0.5382124123238027
1782986276982845200,3.09684521484375,3.3888065719902514,2.3278902821198106,0.5106820158414542
1782986276992919300,3.106919189453125,1.8306389718681573,1.9603122304856777,0.5810539578476921
1782986277002993400,3.116993408203125,0.5716781902045012,1.6212454030647874,0.5484151688430458
1782986277013068300,3.127068359375,-1.0839496671944857,1.269789341931045,0.10748254266269504
1782986277023142400,3.137142333984375,-2.6802216647833585,1.066684644138813,-0.15917765858657656
1782986277033216300,3.14721630859375,-4.514073168957233,0.9776382872030138,0.8526995828267186
1782986277043291400,3.15729150390625,-7.498828984701633,0.27585166183412074,2.6155992627471685
1782986277053365200,3.167365234375,-10.460270560353994,-0.8004913297489284,3.625399697886407
1782986277063439400,3.177439453125,-11.0856318254292,-1.4843027379661797,2.9176307832375166
1782986277073514200,3.18751416015625,-9.957337405073643,-2.7765757143840193,1.584578783316165
1782986277083588400,3.19758837890625,-9.51141793039143,-5.140036491578817,1.3867721919320524
1782986277093663200,3.207663330078125,-10.067047487592697,-6.972666929525136,1.3913487060673535
1782986277103737300,3.2177373046875,-10.868541564643383,-7.016950307887792,0.3641666722880676
1782986277113811200,3.227811279296875,-11.262448528015613,-6.4781292621463535,-0.5515381597017869
1782986277123886300,3.23788623046875,-11.187952382218837,-6.153011757361888,-0.014751213603839278
1782986277133960200,3.247960205078125,-10.98887708607316,-4.861509765316546,0.8298439001571386
1782986277144034300,3.258034423828125,-11.26620232759118,-2.1658391869887708,1.0356761962823569
1782986277154109200,3.268109130859375,-11.191871016967296,0.41704380107074973,0.6922111339025199
1782986277164183300,3.278183349609375,-9.517546642404794,1.8214421044558287,-0.0022474866658449173
1782986277174257200,3.288257080078125,-6.8459326469689605,1.2001827217414975,-0.8086779972054063
1782986277184332300,3.298332275390625,-3.959392290782928,-0.8473316991180181,-2.161470324254781
1782986277194406100,3.30840625,-1.951594671022892,-2.7109996648848056,-3.625910277757048
1782986277204480300,3.318480224609375,-1.0894541098296642,-3.875038183316588,-4.597002212056517
1782986277214555100,3.32855517578125,-0.8740268138200045,-4.3985815804272885,-4.684028461341559
1782986277224629200,3.338629150390625,-0.9441372918784617,-4.154592791321873,-3.730843939654529
1782986277234703400,3.348703369140625,-0.9810252992928028,-3.2767551870420575,-2.4302429876133798
1782986277244778500,3.358778564453125,-0.9169307205229997,-2.2008611082702876,-1.4247140923134982
1782986277254852400,3.368852294921875,-0.5649988585710525,-1.3067580133661627,-0.8844929705157876
1782986277264927500,3.378927490234375,0.251501648953557,-0.6388268958479165,-0.7078660914130509
1782986277275001300,3.38900146484375,1.484132642096281,-0.33119244078397747,-0.7441235458388924
1782986277285075200,3.3990751953125,3.0117279938220975,-0.43051586158424615,-0.9020030543737113
1782986277295150300,3.409150390625,4.860944824910163,-0.6777715435311198,-1.0364217539526521
1782986277305224200,3.41922412109375,6.512533636051416,-0.8840233071774244,-1.036418539082259
1782986277315298300,3.42929833984375,7.747936431995034,-0.8618722656458616,-0.950680283781141
1782986277325373200,3.439373291015625,8.590019124543666,-0.6155053492322564,-0.8376727671518921
1782986277335447300,3.449447265625,8.994638036066293,-0.14354045592844486,-0.5645774182885885
1782986277345521200,3.459521240234375,8.976576309674977,0.4217217297539115,-0.22740122691988943
1782986277355596300,3.46959619140625,8.622599790152908,0.9499234740644693,0.2818838546704501
1782986277365670100,3.479670166015625,8.102820129489897,1.4315478838562965,0.7960438488207757
1782986277375744300,3.489744140625,7.514738501495122,1.7741367479234933,1.1399742636900394
1782986277385819100,3.499819091796875,6.795039495077729,1.8818012960895896,1.356411394329369
1782986277395893200,3.509893310546875,6.297258900254964,1.8329507559418676,1.4325766423821449
1782986277405967400,3.51996728515625,6.026667350906133,1.7007687293738125,1.3384661339245736
1782986277416042200,3.530042236328125,5.872320838803053,1.5422516535878181,1.1144205010429025
1782986277426116400,3.540116455078125,5.826997595998645,1.4530010062515735,0.8899515281826257
1782986277436191200,3.550191162109375,5.809238067424297,1.490639539772272,0.6926235140956938
1782986277446265300,3.560265380859375,5.881196803697943,1.5263985431566833,0.4818544922206551
1782986277456339500,3.57033935546875,5.945357433441281,1.610869993392378,0.29104130338784306
1782986277466414300,3.580414306640625,5.988064356267452,1.7311393177181482,0.10837680635498836
1782986277476488400,3.590488525390625,5.6542614407241345,1.808921645578742,-0.24706262532649562
1782986277486562300,3.600562255859375,5.380846650648117,1.839574557995796,-0.7061456973612308
1782986277496637400,3.610637451171875,5.358426729047298,1.9561130252301693,-0.8970952624574303
1782986277506711300,3.620711181640625,5.212140773802996,1.769180002298951,-0.9568892944891005
1782986277516785400,3.630785400390625,4.669006541037559,1.3197273850545286,-0.7554584481932223
1782986277526860300,3.6408603515625,3.92193963522315,0.6957394541591405,-0.3376278806589544
1782986277536934400,3.650934326171875,2.435371290412545,-0.15549655892103909,0.054511780779808755
1782986277547008300,3.66100830078125,0.2282961299329996,-0.43769466717243194,0.7797601649526507
1782986277557083400,3.67108349609375,-2.519479898685217,0.018693302293121813,1.727440317069739
1782986277567157200,3.6811572265625,-5.188405093428492,0.8659405379980802,2.592294959527254
1782986277577231000,3.691231201171875,-7.643303506609797,1.7111761416196822,3.83803327152431
1782986277587306200,3.70130615234375,-10.127482374811171,2.0926514934420584,5.454743661507964
1782986277597380000,3.711380126953125,-11.85431435072422,1.8112649938344954,6.346631126189232
1782986277607454200,3.7214541015625,-11.948637479019164,0.5579609227582812,5.513915396922826
1782986277617529300,3.731529296875,-10.835131462472676,-1.48853584549129,3.5665649393409486
1782986277627603200,3.741603271484375,-9.316447731477021,-3.924670229230821,1.3171952362284063
1782986277637678300,3.75167822265625,-7.589353305235504,-6.328042745575308,-0.18604155398420988
1782986277647752200,3.761752197265625,-5.468523765057325,-8.03927441677451,-0.7434425778374075
1782986277657826300,3.771826416015625,-2.8715713351130483,-8.723893341982365,-0.7425050047263503
1782986277667901200,3.781901123046875,-1.1012591139137744,-8.112852278682588,0.4395900524649769
1782986277677975300,3.791975341796875,-2.5604712497651576,-5.908650043290853,1.6055902994237838
1782986277688049400,3.80204931640625,-6.8943164463877675,-1.9271297995910048,1.2118202603042125
1782986277698124300,3.812124267578125,-10.589293246108292,2.26772602853626,-0.40677813538312907
1782986277708198400,3.822198486328125,-11.7047024659276,4.858077452780306,-1.895082071814686
1782986277718272500,3.8322724609375,-10.615440079277754,5.1406993394017215,-2.822809642292559
1782986277728347400,3.842347412109375,-8.366132627746463,3.7289296304658053,-4.057499029269814
1782986277738421500,3.85242138671875,-5.330751955658197,2.0595906431004405,-5.312743420758843
1782986277748495400,3.862495361328125,-2.201482455039024,0.7560857863113284,-5.910695869904756
1782986277758570500,3.872570556640625,0.5112748671680688,-0.2214586851283908,-5.4248348454564805
1782986277768644400,3.882644287109375,2.5664468170434236,-1.061456680357456,-4.223862726902961
1782986277778718500,3.892718505859375,4.063733539745211,-1.5878221491515636,-2.72445652782917
1782986277788793300,3.90279345703125,5.4661102741748095,-1.4568462835028766,-1.479054315918684
1782986277798867500,3.912867431640625,6.510683039748669,-1.079573644067347,-0.17867957384884356
1782986277808941300,3.92294140625,7.01492026336491,-0.7344856566607951,0.9841809868447482
1782986277819016400,3.933016357421875,6.996911143943667,-0.45265492041707034,1.8317289590619503
1782986277829090300,3.94309033203125,6.436090447840094,-0.22936492820829152,2.034533797124773
1782986277839165400,3.95316552734375,5.731671428140998,0.035384324853122234,1.6939758543632923
1782986277849239300,3.9632392578125,5.196142409682274,0.2650891525402665,1.3791304450072348
1782986277859313200,3.973313232421875,5.303091210794449,0.4555956500440836,1.4375252047002314
1782986277869388300,3.98338818359375,5.829222870832681,0.6237003461256623,1.6415801889546215
1782986277879461400,3.99346142578125,6.479228747820854,0.7003828960508107,1.9219158643350005
1782986277889535500,4.003535400390625,7.252707859742641,0.7731798367142677,2.2112848871290685
1782986277899610400,4.0136103515625,7.927298142889142,0.8781459395766258,2.3485766579262912
1782986277909684500,4.0236845703125,8.2824372764498,0.9137705029264092,2.3803619353741405
1782986277919758300,4.03375830078125,8.321063651964067,0.738864894658327,2.279647644737363
1782986277929833500,4.04383349609375,8.210462173563242,0.509862662282586,1.9242913612946866
1782986277939907300,4.0539072265625,7.971009274321794,0.3077434683963656,1.3492656142279504
1782986277949982500,4.063982421875,7.676635282847285,0.220247848033905,0.7289949502900243
1782986277960056300,4.074056396484375,7.244494742670655,0.2684945770695805,0.2256438618585467
1782986277970130400,4.08413037109375,6.642837009266018,0.40845483642369507,-0.06071991470493376
1782986277980205300,4.094205322265625,5.885135896712542,0.545508560681343,-0.13157448912896216
1782986277990279400,4.104279541015625,5.398212211468816,0.6295858970329166,0.004719868128746748
1782986278000353300,4.114353271484375,5.348678072971105,0.7793968115329742,0.2517222329016775
1782986278010428400,4.124428466796875,5.6479135330021375,0.9191337835252285,0.4760042683551088
1782986278020502300,4.134502197265625,5.914572419077158,0.9803986918270587,0.7508141295187175
1782986278030576400,4.144576416015625,5.802130865767598,0.9435761508643626,0.8883620670340955
1782986278040651300,4.1546513671875,5.177604882472753,0.9534791207194327,0.8840425233345478
1782986278050725400,4.164725341796875,3.7131490007489916,0.9831395149677992,0.6932524596489965
1782986278060799500,4.174799560546875,1.0549626421630383,0.5953405130818485,0.06669504359178245
1782986278070874400,4.184874267578125,-2.8628876779198644,-0.06055442194491625,-0.6337579950857907
1782986278080948500,4.194948486328125,-7.871660426819324,-0.4841019058212638,-1.1775254842534661
1782986278091022300,4.205022216796875,-11.728860755628347,-0.08248889811635017,-1.2437065139085053
1782986278101097500,4.215097412109375,-13.49628076251745,0.5267912929907441,-0.05747543462468311
1782986278111171300,4.22517138671875,-13.339047881323099,0.8981456482931971,2.4968600705981254
1782986278121245400,4.235245361328125,-11.96268938524723,0.3964952262997627,4.764385608126223
1782986278131320600,4.245320556640625,-10.437353795146942,-1.3842238226234913,5.749468950638175
1782986278141394400,4.25539453125,-9.978533337837456,-3.622828386093676,4.805190788984299
1782986278151469600,4.265469482421875,-11.382480098062754,-5.181139486339688,2.3048051746085285
1782986278161543400,4.27554345703125,-14.165880982291698,-6.161001002550125,-0.05652479653607588
1782986278171617300,4.2856171875,-17.073415611189603,-6.409720327308774,-2.0942771949477494
1782986278181692400,4.2956923828125,-19.05165162090063,-5.795065749686956,-3.4707544950976965
1782986278191766300,4.305766357421875,-19.188229836601018,-5.004769942998886,-3.731574007494747
1782986278201840400,4.31584033203125,-17.929429213935137,-3.8062437562927602,-3.3301942240238187
1782986278211915300,4.325915283203125,-16.22445017338991,-2.043199480269849,-3.096098467901349
1782986278221989400,4.3359892578125,-13.429607857692242,0.029663901379704472,-2.7111130621314046
1782986278232064300,4.346064208984375,-9.645074705687165,1.3366840728133915,-1.631178037405759
1782986278242138400,4.356138427734375,-5.417129677906632,1.7867364095166325,-0.43060302841104564
1782986278252212200,4.366212158203125,-1.5252128405034542,1.6101073384568094,0.2005141698423773
1782986278262287400,4.376287353515625,1.2486013002127407,1.1147416958212852,0.23383783583864567
1782986278272361200,4.386361328125,3.1906922298312184,0.8979095014497637,-0.12405717230141163
1782986278282435300,4.396435302734375,4.531750864467025,0.8668196589201689,-0.4564806161850691
1782986278292510200,4.40651025390625,5.368023409432173,0.7037690313577651,-0.3205617411762476
1782986278302584300,4.416584228515625,5.872969073578715,0.6185542154088616,0.03182677850201726
1782986278312658400,4.426658447265625,6.2806999796420335,0.881853269661963,0.467327588891983
1782986278322733300,4.4367333984375,6.621545799434185,1.016122623898089,0.9443268231011926
1782986278332807400,4.446807373046875,6.8367246736407274,0.7303431500285863,1.2630993427731096
1782986278342882300,4.45688232421875,7.137858076247572,0.4959472419157624,1.3891418436728418
1782986278352956400,4.466956298828125,7.458729614025354,0.2273962584838271,1.233218729902804
1782986278363030500,4.477030517578125,7.70471337634027,0.17564707428514956,0.8422694472923874
1782986278373105400,4.48710546875,7.696578000679612,0.4493269450381398,0.5461188015341758
1782986278383179500,4.497179443359375,7.58516579041779,0.8256237251788378,0.48182709275707597
1782986278393253400,4.50725341796875,7.548855875152349,1.6423200475364923,0.8862995815463364
1782986278403328500,4.51732861328125,7.546998264586925,2.1275506651267406,1.642065634384006
1782986278413402400,4.52740234375,7.777506225350499,2.361345392476022,2.440146980381757
1782986278423476500,4.5374765625,8.24403652638495,2.4868562707170843,2.921136745531857
1782986278433551400,4.54755126953125,8.561015148377418,2.514507955491543,3.1170503627762196
1782986278443625500,4.55762548828125,8.807336179822682,2.332465627211332,2.873877273967862
1782986278453699300,4.56769921875,9.012776334825158,2.1690584412962197,2.3454228700704873
1782986278463774500,4.5777744140625,9.121827661174535,2.178619465845823,1.7120599387168882
1782986278473848300,4.587848388671875,9.08334332447946,2.424410920459032,1.0851867347087711
1782986278483922400,4.59792236328125,8.957057370212674,2.67068811276257,0.5840799911379814
1782986278493997300,4.607997314453125,8.750113824909924,2.6658368733391162,0.24041012690104543
1782986278504071400,4.618071533203125,8.421231414633988,2.6227698850288985,-0.03474588081911206
1782986278514146300,4.628146240234375,8.127054407036304,2.7906024861708283,-0.22875132635459303
1782986278524220400,4.638220458984375,7.748607463124394,2.9435435153901577,-0.37673531768843527
1782986278534294300,4.648294189453125,7.33667326015234,3.1269606391549107,-0.37747276511751116
1782986278544369400,4.658369384765625,6.446871369573474,3.164984372600913,-0.0442176196500659
1782986278554443300,4.668443359375,5.437302697363496,3.0309339218124745,0.14441482761017976
1782986278564517400,4.678517333984375,5.190690574017167,3.2451199855893846,-0.07599712494425476
1782986278574592300,4.68859228515625,5.162935721129179,3.4086814852833744,-0.46856999016851186
1782986278584666400,4.698666259765625,4.884478845232725,3.224760211388767,-0.9491614036507904
1782986278594740500,4.708740478515625,4.142217293873429,2.8015999732643366,-1.5409915705241262
1782986278604815400,4.7188154296875,3.0218215178132057,2.4847207199931143,-2.1989453377768395
1782986278614889500,4.728889404296875,1.7607810072660446,2.325298219799995,-2.2174366877570746
1782986278624963300,4.73896337890625,-0.23330548252761363,1.8643799134284256,-0.9664892628096043
1782986278635038500,4.74903857421875,-3.1366514275640247,0.9177353149041533,1.4366260639034212
1782986278645112300,4.7591123046875,-6.20899667943418,-0.006575286737084388,4.124298483084142
1782986278655186400,4.7691865234375,-9.204509451514483,-0.823635181710124,5.738806686848402
1782986278665261300,4.77926123046875,-11.742853040623665,-1.7946940905228257,5.146161111938953
1782986278675335400,4.78933544921875,-12.86301909958124,-3.3917028779536484,2.387618920765072
1782986278685409300,4.7994091796875,-13.377645030742883,-5.745974678781629,-0.6153341573838145
1782986278695484400,4.809484375,-13.453133694708347,-7.83274646653533,-2.3921534954547883
1782986278705558300,4.819558349609375,-12.618990562987326,-9.774996386107802,-2.442377223651856
1782986278715633400,4.82963330078125,-12.357819168412684,-11.045492707264422,-2.119497853183001
1782986278725707300,4.839707275390625,-13.34657652326226,-10.729825167870521,-2.962474718092382
1782986278735781400,4.849781494140625,-14.473631757211685,-8.433238663291931,-4.60160356837213
1782986278745856300,4.859856201171875,-14.378013328409194,-5.3006479092955585,-5.801991165035963
1782986278755930400,4.869930419921875,-13.026785766458511,-2.798764165316522,-5.306026679724455
1782986278766004200,4.880004150390625,-11.078866569077968,-1.46574533701241,-3.1327412683829663
1782986278776079400,4.890079345703125,-8.712142113912105,-0.7610375634998082,-0.9654046824432909
1782986278786153200,4.9001533203125,-6.340802273905277,-0.3594824234619736,-0.15002477644644677
1782986278796227300,4.910227294921875,-4.4189258647978304,-0.09899024332314729,-0.6685458153504877
1782986278806302200,4.92030224609375,-3.23024565706253,-0.44882776334434743,-1.703964602805674
1782986278816376300,4.930376220703125,-4.063905389180779,-0.866647809484601,-2.466233461666107
1782986278826450400,4.940450439453125,-5.651017344236373,0.0948141266822815,-2.03239926931411
1782986278836525600,4.950525634765625,-6.915101460263132,0.8241836093731224,-0.4907018886081874
1782986278846599400,4.960599365234375,-7.011710069146752,0.6069724986866116,1.0523163654379546
1782986278856673500,4.970673583984375,-5.656396699187159,0.30801380977034565,1.9004468137182293
1782986278866748400,4.98074853515625,-3.343819429272413,-0.00664469871148467,2.371182019096613
1782986278876822500,4.990822509765625,-0.9563999766021967,-0.2583870245531201,2.7316595910757777
1782986278886897400,5.0008974609375,0.9074901074826717,-0.10545213281363248,2.9540777688860893
1782986278896971500,5.010971435546875,2.5173376259595153,0.4663436924211681,3.0261180459633468
1782986278907045400,5.02104541015625,4.057210859978198,1.104674767576158,2.975209988763928
1782986278917120500,5.03112060546875,5.673018163642287,1.6747595511093736,2.6758891885370013
1782986278927194400,5.0411943359375,7.372365920302271,2.0445400812238455,2.1862489378109573
1782986278937268200,5.051268310546875,9.143094905608892,1.937621967510879,0.45507115124594416
1782986278947343400,5.06134326171875,10.19507180995941,1.8503271304175257,-1.0938013452537356
1782986278957417200,5.071417236328125,10.794101532948016,1.899905984839797,-0.5306435845047235
1782986278967491300,5.0814912109375,11.13412025426626,1.4834823614940047,0.004379347595386207
1782986278977566500,5.09156640625,11.28266830922365,1.9487319750681518,0.3375088573891669
1782986278987640300,5.101640380859375,11.109652167963981,2.8786595398083326,0.6254286312229931
1782986278997714200,5.111714111328125,10.63338840842247,3.32332901442945,1.163585294771567
1782986279007789300,5.121789306640625,9.9522672622025,3.381145243582129,1.8263596871137617
1782986279017863200,5.13186328125,9.260597249439359,3.32686332603544,2.138695013345033
1782986279027937500,5.1419375,8.780728743404149,3.4609745671004055,1.880078710080683
1782986279038012200,5.15201220703125,8.599291395279765,3.7368849733844396,1.3650332383327186
1782986279048086500,5.16208642578125,8.60659324272573,3.8381329325065012,0.775592450813949
1782986279058160400,5.172160400390625,8.527054426586627,3.8867759673833846,0.06083119305968284
1782986279068235500,5.182235595703125,8.282681022077798,4.161456831872463,-0.7034152494840323
1782986279078309400,5.192309326171875,8.014873550489545,4.348790252298117,-1.1186264283001421
1782986279088384500,5.202384521484375,7.789180881053209,4.21467112018764,-1.2304194545730949
1782986279098458400,5.212458251953125,7.711383940145373,4.157036969603598,-1.3555831268116831
1782986279108532500,5.222532470703125,7.780518851169943,4.306504185232519,-1.5579145021438598
1782986279118607400,5.232607421875,7.945839761751889,4.445329010815918,-1.8027486560322343
1782986279128681500,5.242681396484375,8.161516648608446,4.48990903403759,-2.0661786431886253
1782986279138755300,5.25275537109375,8.206017469114064,4.545234030896425,-2.176328140038252
1782986279148830500,5.26283056640625,7.941565737694502,4.453527222579718,-2.206441100359708
1782986279158904300,5.272904296875,6.942600292563438,4.167027910003066,-2.151155558728427
1782986279168978400,5.282978515625,4.640568966582417,3.317209654766321,-1.9179912382371722
1782986279179053300,5.29305322265625,2.3020149593681096,1.7819412841945885,-1.8183818401023744
1782986279189127400,5.30312744140625,0.5631669669687748,-0.030624270844459532,-1.5962354649707675
1782986279199201300,5.313201171875,-2.22096106249094,-1.5659434948205948,-0.4247701575390994
1782986279209276400,5.3232763671875,-6.03821808796823,-2.742495457866788,1.4769351318076251
1782986279219350300,5.333350341796875,-9.4074250564754,-3.6870690953359007,2.9324375994861125
1782986279229424400,5.34342431640625,-12.401857047581672,-4.826146483251452,3.187890616413951
1782986279239499300,5.353499267578125,-15.010321051621435,-5.836192125323414,2.100998466026783
1782986279249573400,5.363573486328125,-16.613290501022338,-5.998992577517032,0.5950303876867518
1782986279259648300,5.373648193359375,-17.154337990641594,-6.063102938377857,0.04213938860390335
1782986279269722400,5.383722412109375,-17.65440348153114,-6.360741484606265,0.7831447658896445
1782986279279796500,5.39379638671875,-18.115184425258636,-6.34189649888277,1.4106205389007924
1782986279289871400,5.403871337890625,-16.63575367724299,-5.1755555487275124,1.0954577341586351
1782986279299945500,5.413945556640625,-13.495939401733875,-3.907605404922366,0.997094171366468
1782986279310019300,5.424019287109375,-9.679912794834374,-3.213294522261619,0.9874134659599513
1782986279320094500,5.434094482421875,-5.754991513451934,-2.757930050624907,0.33347941920999435
1782986279330168300,5.444168212890625,-2.551656659668684,-2.070844735303521,-0.7165484334319829
1782986279340242400,5.454242431640625,-1.2432698760569094,-1.4904872718200086,-1.3249078564323484
1782986279350317600,5.464317626953125,-2.452322425213456,-0.8027215730190277,-2.410642361216992
1782986279360391400,5.474391357421875,-5.142309112685918,0.276250305762887,-4.150360560579598
1782986279370465300,5.48446533203125,-8.013117646732926,1.2577771248370408,-5.730500046274066
1782986279380540400,5.49454052734375,-9.617999067234992,1.661384521229565,-6.5371449302166695
1782986279390614300,5.5046142578125,-8.962683977922797,1.1954358194753527,-5.749448492372036
1782986279400688400,5.5146884765625,-6.712440706846118,-0.03220394125133753,-3.6982086212486025
1782986279410763300,5.52476318359375,-3.377822236639261,-0.9367112335309385,-1.4198371339268983
1782986279420837400,5.53483740234375,-0.059389762079715726,-0.794162418988347,0.709500926073268
1782986279430912300,5.544912353515625,2.6649007615327833,-0.11588818663209675,2.385494914348423
1782986279440986400,5.554986328125,4.603745841097831,0.22758768940269947,3.516541556021571
1782986279451060200,5.565060302734375,5.882108657845855,0.12071370709240437,3.7487615814000366
1782986279461135400,5.57513525390625,6.558823093539476,-0.03942512467652559,2.6619796133890747
1782986279471209200,5.585209228515625,6.981965503746271,-0.184307350602746,0.7834053895872086
1782986279481283300,5.595283447265625,7.483508081451058,-0.37278994106352326,-0.9317366599887609
1782986279491358200,5.605358154296875,7.8989254503637545,-0.5760591817677021,-1.8021026132136582
1782986279501432300,5.615432373046875,8.15261204214096,-0.7391019182845949,-1.751689207663387
1782986279511506400,5.62550634765625,8.366479833748937,-0.8232160795152187,-1.1391798984419554
1782986279521581300,5.635581298828125,8.453947104799747,-0.7553636095166206,-0.4073473501058295
1782986279531655400,5.645655517578125,8.061203924509883,-0.5236012647777796,0.3275918955413624
1782986279541729500,5.6557294921875,7.624684146335721,-0.11428601213246584,0.9987038715854286
1782986279551804400,5.665804443359375,7.153074350079893,0.26488559279218316,1.3887857237115502
1782986279561878500,5.67587841796875,6.627087066948413,0.5434922524228691,1.3859107527971266
1782986279571952400,5.685952392578125,5.9735664598375555,0.7407042389146983,1.0609393784850836
1782986279582027500,5.696027587890625,5.586443457517028,0.9082041009709239,0.5144701926106586
1782986279592101400,5.706101318359375,5.587159496831894,1.011529597019404,-0.1320669488210231
1782986279602175500,5.716175537109375,5.455124769780039,0.9520645777463912,-0.8546184951253235
1782986279612250400,5.72625048828125,5.373749970385432,0.8946598520040512,-1.4477479080289601
1782986279622324500,5.736324462890625,5.516977122581005,0.9594128946825862,-1.7937053717464209
1782986279632399400,5.7463994140625,5.768312182796001,1.0860329032093285,-1.9082187628939746
1782986279642473500,5.756473388671875,5.901292081743478,1.195144435313344,-1.7455360918611287
1782986279652547300,5.76654736328125,5.881188620391487,1.15265758497864,-1.5229191766083239
1782986279662622500,5.77662255859375,5.534671184703708,0.9617699792027473,-1.4739181220740079
1782986279672696600,5.786696533203125,4.842974868455529,0.6986728772625327,-1.66464396141693
1782986279682770400,5.7967705078125,4.112852083179354,0.47579438846409317,-1.8996705686487256
1782986279692845600,5.806845458984375,3.2219998067647215,0.34149200874119995,-1.974538031975925
1782986279702919400,5.81691943359375,1.4761357981234788,0.10293898094892501,-1.6072024107955396
1782986279712993500,5.82699365234375,-0.8415659751981497,-0.1495990253150463,-1.1669674114905297
1782986279723068400,5.837068359375,-3.7757787676632404,-0.06231032570153475,-0.39051023360602555
1782986279733142500,5.847142578125,-7.5373694354981176,0.08018792769759893,0.5112866306710988
1782986279743216600,5.857216552734375,-10.706565872836112,-0.0030111645147204396,1.354883746370673
1782986279753291500,5.86729150390625,-12.354274627673625,-0.4010898606136441,2.094272957164049
1782986279763365600,5.87736572265625,-13.030840010285377,-1.2018345806017516,2.4762343389376995
1782986279773439700,5.887439697265625,-13.666561341333388,-2.4990672252535817,2.348082444668561
1782986279783514600,5.8975146484375,-13.501665378165244,-3.6561253832787273,1.9282824767574667
1782986279793588700,5.907588623046875,-11.321924799335003,-4.717611581991613,1.9344024209424853
1782986279803662600,5.91766259765625,-8.021766232612729,-6.641327189224958,3.072799133117497
1782986279813737700,5.92773779296875,-4.510363793045282,-7.943204152551293,3.790696643070876
1782986279823811600,5.9378115234375,-1.774389261379838,-8.020391437128186,3.095712098932266
1782986279833886700,5.94788671875,-1.1251631365925072,-7.021197443938255,2.1458571600593626
1782986279843960600,5.957960693359375,-2.125841815382242,-3.8162671376571056,0.8881444056954234
1782986279854034400,5.968034423828125,-3.1672102319568394,0.1866656041666865,-0.03643506688191555
1782986279864109600,5.978109619140625,-3.386132968866825,2.9274279546305535,-0.8822485525898635
1782986279874183400,5.988183349609375,-3.238799550396204,3.7767815149649975,-2.020377992130816
1782986279884257500,5.998257568359375,-3.1469185545563696,2.9291797667339443,-3.4837913790643213
1782986279894332700,6.008332763671875,-2.4420412696957587,1.637678359210491,-4.71299152097553
1782986279904406500,6.018406494140625,-1.098425351792574,0.5883680437207222,-5.288042110222578
1782986279914480400,6.02848046875,-0.005351297900080681,-0.059845981414616105,-5.227001658326387
1782986279924555500,6.038555419921875,0.37425942909419535,0.20920973666906356,-4.221991672334075
1782986279934629400,6.04862939453125,-0.4457470407247543,1.2944061890542506,-1.8583745355337857
1782986279944703500,6.058703369140625,-1.0304407798469066,2.1195164117529988,0.672181760700047
1782986279954778400,6.0687783203125,-0.8161515479564666,2.3671472106225786,2.4562246933490037
1782986279964852500,6.0788525390625,-0.22379355781674384,2.11346704858616,3.3783211260721084
1782986279974926600,6.088926513671875,0.4849918403983116,1.5529840600043534,3.3247117009595035
1782986279985001500,6.09900146484375,1.1974690788686275,1.0112285682462154,2.7357319550812242
1782986279995075600,6.10907568359375,2.144541839677095,0.6015031273648143,1.7345844897359608
1782986280005149700,6.119149658203125,3.098199824094772,0.36066388833150265,0.7611187389772385
1782986280015224600,6.129224609375,3.9923032112598418,0.2088219063952565,-0.08094535846877843
1782986280025298700,6.139298583984375,5.09146564515531,0.240721896263957,-0.5643199363961815
1782986280035373600,6.14937353515625,6.449468984851241,0.4069049766331911,-0.4378230427924543
1782986280045447700,6.15944775390625,7.677047370779514,0.5058943431735038,0.14427206727177835
1782986280055521500,6.169521484375,8.407697394800186,0.5427607232779265,0.7407550192538649
1782986280065596700,6.1795966796875,8.646458220124245,0.5632444161191582,1.22575643119812
1782986280075670500,6.18967041015625,8.571521929344534,0.6192667475923895,1.5994960742019115
1782986280085744600,6.19974462890625,8.118246831202507,0.7607458870768546,1.7878464165851473
1782986280095819500,6.209819580078125,7.369033561009168,0.9814461550533771,1.73505210724771
1782986280105893600,6.2198935546875,6.450170995640755,1.1455743487194179,1.364785985573381
1782986280115967500,6.229967529296875,5.239315780976415,1.3427534558549523,0.87733849565126
1782986280126042600,6.240042724609375,4.2634062172621485,1.6452552242055534,0.3610841230375692
1782986280136116500,6.250116455078125,3.8260382978260514,2.0204829138100147,-0.2161981159853749
1782986280146190600,6.260190673828125,3.930887496310472,2.268690197393298,-0.6605090046934783
1782986280156265500,6.270265380859375,4.351182700392604,2.303181372798979,-0.7576873032238334
1782986280166339600,6.280339599609375,4.839427989628911,2.2235785515129565,-0.5351805338146165
1782986280176413400,6.290413330078125,5.283460043129325,2.243150390206277,-0.1303215481921099
1782986280186488600,6.300488525390625,5.640597072508931,2.285341180203855,0.026879211697774005
1782986280196562400,6.3105625,5.852268230855465,2.2946800864353776,-0.08948884000629186
1782986280206637600,6.320637451171875,5.9050879668951035,2.2640175294071434,-0.3060044244430028
1782986280216711400,6.33071142578125,5.831179265597462,2.1314523487403987,-0.6178077078904957
1782986280226785500,6.34078564453125,5.530747873780131,1.8778581114217638,-0.9975764749906957
1782986280236860400,6.3508603515625,4.426747352203726,1.6110738454014062,-1.4184431953504681
1782986280246934500,6.3609345703125,2.3769085800498724,1.4648548179134726,-1.9759807781301437
1782986280257008600,6.371008544921875,0.2226402961283922,1.188320142251253,-2.818338634358346
1782986280267083500,6.38108349609375,-1.461653683784604,1.0724123741358518,-3.457290033368766
1782986280277157600,6.39115771484375,-2.519376438310742,1.3019412607342005,-2.478938044938445
1782986280287231500,6.4012314453125,-3.1450293798089026,1.3004504376545547,-0.03107387777548283
1782986280297306600,6.411306640625,-3.84674264768064,0.9544228313103318,2.9938872167050836
1782986280307380500,6.42138037109375,-4.879110011675953,0.37291970492303367,5.548021080142259
1782986280317454600,6.43145458984375,-6.584947130355238,-0.37095834172219033,6.987530736657977
1782986280327529500,6.441529541015625,-8.606540635755657,-1.2506889201417564,6.6208560636043545
1782986280337603600,6.451603515625,-9.918403571045397,-2.627317173069715,4.789733692133426
1782986280347677400,6.461677490234375,-10.79017588393688,-5.068563492995501,3.7522228277698155
1782986280357752600,6.471752685546875,-10.818305415356159,-6.991092228531837,3.148881671322882
1782986280367826400,6.481826416015625,-10.198429303693771,-7.070178040206432,0.13045488311504014
1782986280377900500,6.491900634765625,-11.37782379668951,-6.765096192234754,-3.7218566233396526
1782986280387975400,6.501975341796875,-13.890797966742515,-4.889000122049451,-7.0839446997523305
1782986280398049500,6.512049560546875,-15.363991866195201,-1.1522858290567994,-8.671570449548959
1782986280408124400,6.52212451171875,-14.899067831313609,1.8353814902201293,-6.686130207547545
1782986280418198500,6.532198486328125,-12.487436897450685,2.3246558302432296,-2.2611662316292525
1782986280428272400,6.5422724609375,-8.458280165567993,1.0401815448775886,1.1791147262062878
1782986280438347500,6.552347412109375,-4.232394992926716,-0.7406304430261254,1.6235075027778745
1782986280448421400,6.56242138671875,-0.3555015371322632,-2.425447862291336,-0.6830526257392019
1782986280458495700,6.572495849609375,1.9802607935369014,-3.6955548918694254,-2.977522357359528
1782986280468570400,6.5825703125,1.5767325998604296,-3.6887604094237085,-3.071355656310916
1782986280478644700,6.592644775390625,-1.8597516691058873,-2.5530466527223585,-1.5059166038811207
1782986280488718600,6.602718505859375,-5.044040461635589,-0.22771657647937535,-0.30321181631609795
1782986280498793700,6.612793701171875,-6.06746113358736,1.9106345918640493,0.4792833996236324
1782986280508867600,6.62286767578125,-7.23874012466669,1.8303161696545778,1.7151090971544385
1782986280518941700,6.632941650390625,-8.971246639084816,0.3905312033288181,2.635479436737299
1782986280529016600,6.6430166015625,-8.58557266652882,-0.5634613468054682,1.4889280596792698
1782986280539090700,6.653090576171875,-5.42655041720271,-1.1484357294999061,-0.6875494987670332
1782986280549164500,6.66316455078125,-1.3315917181104422,-2.2286598003000018,-1.6135772065244613
1782986280559239700,6.67323974609375,2.2238655517607926,-3.3219553879886865,-1.4683337460704147
1782986280569313500,6.6833134765625,4.831224224907159,-3.820684661838412,-1.0504447994124144
1782986280579387400,6.693387451171875,6.58675330299437,-3.7527433445125817,-0.7019828055281192
1782986280589462500,6.703462646484375,7.86708069781363,-3.3347920732080936,-0.20556885941606015
1782986280599536400,6.713536376953125,8.82502147411704,-2.836813325464725,0.5222076915275305
1782986280609610500,6.723610595703125,9.527670561534165,-2.4353949635490775,1.1848889256935566
1782986280619685400,6.733685302734375,9.944649772936105,-2.1197097423680127,1.5548188742160796
1782986280629759500,6.743759521484375,10.215932227158547,-1.8755040956415234,1.5598181438080965
1782986280639834600,6.753834716796875,10.133689997279644,-1.607490580087155,1.4308793369449675
1782986280649908500,6.763908447265625,9.583379004752635,-1.4504787942975759,1.1528535459421574
1782986280659982300,6.773982421875,8.780385629054903,-1.3432505917221307,0.8038939777992665
1782986280670057700,6.7840576171875,8.064711640369891,-1.1522113025158642,0.39227877764850855
1782986280680131600,6.794131591796875,7.493558935344219,-0.8902904047481716,-0.021416224450990555
1782986280690205700,6.804205810546875,7.126735793730616,-0.6611011253677308,-0.3621555151287466
1782986280700280600,6.814280517578125,6.919184345662593,-0.5740087155112996,-0.7036841295532882
1782986280710354700,6.824354736328125,6.801970171123743,-0.6880119286470114,-1.0537523895904422
1782986280720428800,6.8344287109375,6.67052931831181,-0.7320723849739879,-1.4751399189539254
1782986280730503700,6.844503662109375,6.7004656068921085,-0.5192926077984273,-1.8365565253488718
1782986280740577800,6.854577880859375,6.8892252607285975,-0.1122908927924931,-1.8858023484244941
1782986280750652000,6.86465185546875,7.287557054805755,0.2765570336245,-1.553457668865472
1782986280760726800,6.874726806640625,7.871589115148782,0.49107598261758684,-1.1950475508101284
1782986280770801000,6.88480078125,8.328516890579461,0.6015469665065407,-0.9929597749754786
1782986280780874800,6.894874755859375,8.61013602989912,0.6384646384067834,-1.073142003584653
1782986280790950000,6.904949951171875,8.935768498468398,0.6014633798763156,-1.2970536348231136
1782986280801023700,6.915023681640625,8.960761485427618,0.4769077565334737,-1.500621858473867
1782986280811099000,6.925098876953125,8.365860240545869,0.3101766868926584,-1.6977493815526365
1782986280821172700,6.9351728515625,7.52634301457107,0.2133151261612773,-1.9115582825802266
1782986280831246800,6.945246826171875,6.487915327623486,0.1532639775633812,-2.1806012873128053
1782986280841321700,6.95532177734375,5.2280117121517655,0.037383097454905506,-2.4729145468652245
1782986280851395800,6.965395751953125,3.7646477173179385,-0.1618755924336612,-2.2185944794900716
1782986280861469700,6.9754697265625,0.37363282162845135,-0.7097488364197313,-0.7655011187799274
1782986280871544800,6.985544921875,-4.510505831864476,-1.073621603795141,1.5847143923945723
1782986280881618700,6.99561865234375,-10.157796849054098,-0.8311902732647954,4.38397613196969
1782986280891692500,7.005692626953125,-15.454793834626674,-0.6641035220541059,6.294812676146626
1782986280901767700,7.015767578125,-18.376577938151357,-0.9001590339422225,5.954054534637928
1782986280911841500,7.025841552734375,-18.43817953106165,-2.2398022488221523,4.3087128011927005
1782986280921915600,7.03591552734375,-17.4620478490293,-4.499501330508291,2.4325053795874116
1782986280931990500,7.045990478515625,-16.40024630075693,-6.384934261098504,0.6135982004366815
1782986280942064600,7.056064697265625,-16.50751775795221,-7.3867971812367434,-0.7995148859322071
1782986280952138800,7.066138671875,-17.478057903587818,-7.624433386445045,-1.8692016344964504
1782986280962213600,7.076213623046875,-17.56339225426316,-6.197253050148487,-2.927725476272404
1782986280972287700,7.086287841796875,-16.320712745314836,-3.5980151396155353,-2.8290768859937785
1782986280982361900,7.09636181640625,-13.527385510355233,-1.6448127411350606,-0.6218376209937035
1782986280992436700,7.106436767578125,-9.1521625936836,-0.8916475184455513,1.909475192695856
1782986281002510800,7.1165107421875,-4.315356184729933,-0.9741358320400119,3.1438463075041767
1782986281012585700,7.126585693359375,-0.6063835928827523,-1.3904618402302265,3.0430870086818933
1782986281022659800,7.136659912109375,1.7316835075974464,-1.4955232201606035,2.1946752592422065
1782986281032733700,7.146733642578125,3.102221334695816,-1.5766916833281517,0.7841634414128958
1782986281042808800,7.156808837890625,3.984219273525476,-1.9808362553372978,-0.7711762418068945
1782986281052882700,7.166882568359375,4.044722549805045,-2.0228513965070247,-1.688093372195959
1782986281062956800,7.176956787109375,3.002206132239103,-1.1572744311243295,-1.8923259049743413
1782986281073031700,7.18703173828125,1.668921054214239,0.01761339810192585,-1.192791953903064
1782986281083105800,7.197105712890625,1.1888006192445755,0.7589804848395287,0.23905995440110564
1782986281093179600,7.2071796875,0.3702624684125185,0.740360686174035,1.9250531394474206
1782986281103254800,7.2172548828125,-1.3937269795060157,0.18796718828454612,3.3366116898506877
1782986281113328600,7.22732861328125,-1.9067209255516528,0.4478478123962879,3.3242566506683824
1782986281123402800,7.23740283203125,-0.8678098390012979,0.9486042081594467,2.4220915376007555
1782986281133477600,7.2474775390625,0.995139164841175,0.7900020844385027,2.0030688376724717
1782986281143551700,7.2575517578125,3.1274142281413075,0.5490972328230739,1.70938019811362
1782986281153625600,7.26762548828125,5.071527603498101,0.6624088469654321,1.289681206358969
1782986281163700700,7.27770068359375,6.570802285146713,0.8968371960431337,0.8252683358699083
1782986281173774600,7.287774658203125,7.763958176991343,1.1974921674832701,0.6502561984874308
1782986281183848700,7.2978486328125,8.783816188025474,1.497657309579849,0.847660565746203
1782986281193923600,7.307923583984375,9.563327565848827,1.6107862606316803,1.062903225903958
1782986281203998000,7.317998046875,9.831748200899362,1.5097250562533735,1.1959344166472554
1782986281214071800,7.32807177734375,9.631873863330483,1.3589356521099805,1.2877619287341833
1782986281224147000,7.33814697265625,8.942457766973972,1.281089319102466,1.2340164561517535
1782986281234220800,7.348220703125,7.663357283601164,1.40846189956218,0.8765123470254242
1782986281244296000,7.3582958984375,6.5757526010304685,1.5959128088876604,0.35211704579312353
1782986281254369800,7.368369873046875,5.85962502335906,1.6712158871531486,-0.09760014067161828
1782986281264443600,7.378443603515625,5.316569116526842,1.6872522451967,-0.44623117097988724
1782986281274518800,7.388518798828125,4.8494198068112135,1.679579518611729,-0.6754902276609093
1782986281284592600,7.398592529296875,4.571422949641943,1.6802184010371566,-0.8867817390400916
1782986281294666800,7.408666748046875,4.603274131932855,1.7747580946922301,-1.1588408767234533
1782986281304741600,7.41874169921875,4.934833652463555,1.9143284779459238,-1.3694134992435574
1782986281314815700,7.428815673828125,5.523779203811287,2.0420663845866915,-1.3142083293721079
1782986281324889600,7.4388896484375,6.113720195937156,2.1350243620082736,-1.0154176174338907
1782986281334964700,7.44896484375,6.614338644534349,2.2642153900668025,-0.7280789314236491
1782986281345038600,7.45903857421875,6.975498938080668,2.384190553751588,-0.5053549755997956
1782986281355112700,7.46911279296875,7.109908577570319,2.4502497105926273,-0.36801395883336663
1782986281365187600,7.4791875,7.169677109834551,2.442161973465979,-0.4196866437297314
1782986281375261700,7.48926171875,6.866303819346427,2.2519918683096765,-0.7615100763823837
1782986281385335800,7.499335693359375,6.287234934368729,1.859069824321568,-1.1661217544466256
1782986281395410700,7.50941064453125,5.4325189702183,1.3981655464753509,-1.4497384973242877
1782986281405484800,7.51948486328125,3.9869975060671567,0.890553293468058,-1.606903866240382
1782986281415559000,7.529558837890625,1.8840256941407918,0.34821196464598175,-1.5318372270792722
1782986281425633800,7.5396337890625,-0.42017829970419407,-0.17843904309123754,-0.8685298238389193
1782986281435708000,7.5497080078125,-2.6492864282935855,-0.5588432585507631,0.36961766770295795
1782986281445782800,7.55978271484375,-4.9661535043567415,-1.221507833842933,1.2557907733254134
1782986281455857000,7.56985693359375,-8.066419613331556,-2.2615753969520327,1.0493098040331155
1782986281465930800,7.5799306640625,-11.692062764585017,-3.5125571625605225,-0.2353244941998273
1782986281476006000,7.590005859375,-14.616124165391922,-4.626505369916558,-1.4694536900110542
1782986281486079700,7.600079833984375,-16.767262919116018,-5.250073906356096,-1.9515195599600672
1782986281496153900,7.61015380859375,-17.82718464499116,-5.42330632071495,-1.7943917465753851
1782986281506228700,7.620228759765625,-18.221996448248625,-5.06091736215651,-1.950736300627887
1782986281516302800,7.630302734375,-19.502724825084208,-4.92147089754343,-2.9334479455724356
1782986281526376700,7.640376708984375,-20.997868690538404,-4.212949118700624,-4.108621898263692
1782986281536451800,7.650451904296875,-20.39967834098339,-2.433397944512963,-4.4885497283831235
1782986281546525700,7.660525634765625,-17.883248477518556,-1.2887775355175137,-3.07711991892606
1782986281556599800,7.670599853515625,-14.19938928413987,-1.2911495253458618,-0.5153123059906065
1782986281566674700,7.6806748046875,-9.876876797914504,-1.4558625331625341,1.3327141462691128
1782986281576748800,7.690748779296875,-6.2561547364503145,-1.4073974852010607,2.2131477583914996
1782986281586822700,7.70082275390625,-3.9299318030208346,-0.8925684326827525,2.249864500892162
1782986281596897800,7.710897705078125,-2.2239438776940106,-0.31790245883911844,1.6159113485604524
1782986281606971600,7.7209716796875,-0.8123691068083048,-0.2529465870648622,0.6323957668218761
1782986281617045800,7.731045654296875,0.15879063203036783,-0.4565536814212799,-0.5993374737635254
1782986281627120600,7.74112060546875,0.9734937347441911,-0.743193863773346,-1.4509686236411332
1782986281637194800,7.75119482421875,1.640248501959443,-1.0328992789149283,-1.333789666546136
1782986281647269600,7.76126953125,2.3054963717430828,-1.1304311401233076,-0.31865020846650005
1782986281657343700,7.77134375,3.2250662085980175,-0.8823495287463069,0.9648074472025037
1782986281667417900,7.78141796875,4.303227940040826,-0.5249903810486197,2.0873313213326035
1782986281677492500,7.791492431640625,5.209796256503463,-0.5269049824982881,3.1677439004421233
1782986281687566600,7.801566650390625,5.802188733434677,-0.7667445429697632,4.231169250524044
1782986281697640400,7.811640380859375,6.011150048300624,-0.9232362504079937,5.091327697989344
1782986281707715600,7.821715576171875,6.127798990172147,-0.6794996824979782,5.4132455299496645
1782986281717789400,7.83178955078125,6.2640335070013995,-0.23556495189219712,5.346560934686661
1782986281727863600,7.841863525390625,6.302303908684849,0.2778819986179471,5.066260476750135
1782986281737938400,7.8519384765625,6.17576251835227,0.6848442583963275,4.762353517776727
1782986281748012500,7.862012451171875,5.98062748426497,0.8830483246654272,4.3852755241304635
1782986281758086400,7.87208642578125,5.729459012788534,1.143261687862873,4.017878966543078
1782986281768161500,7.88216162109375,5.440150488010048,1.3649503823548554,3.55912105307579
1782986281778235400,7.8922353515625,4.916839730611443,1.5001631549209355,2.8976147079080343
1782986281788309500,7.9023095703125,4.390771783459186,1.6278019851014016,2.058585703841597
1782986281798384400,7.91238427734375,4.2161838628381485,1.8238950505658984,1.3971056621588767
1782986281808458500,7.92245849609375,4.355947722837328,1.9684826774597166,0.9244381735436618
1782986281818532400,7.932532470703125,4.659703875163197,2.0262576978191733,0.6035128597520292
1782986281828607500,7.942607421875,4.801556231874227,1.9748484130993484,0.23163564961925148
1782986281838681300,7.952681396484375,4.960344525817036,1.9726769142791627,-0.1672553857758641
1782986281848755700,7.962755615234375,5.2903088861107825,2.1118542065620423,-0.49335371829122304
1782986281858830300,7.972830322265625,5.828960420504212,2.171663363097608,-0.7417473912920802
1782986281868904700,7.98290478515625,6.348185369893908,2.161314110779762,-0.9072889588873833
1782986281878979300,7.992979248046875,6.556264641228318,2.1323411142736672,-0.8335978458631783
1782986281889053700,8.0030537109375,6.520931462040543,2.137168388299644,-0.6349803034223616
1782986281899127600,8.01312744140625,6.6661594326645135,2.2087445549964904,-0.3095125969607383
1782986281909201400,8.023201416015626,7.030097374230623,2.271243389007449,-0.017161343485489488
1782986281919276500,8.033276611328125,7.581477457293867,2.431403848086297,0.33478695814460513
1782986281929350400,8.043350341796875,7.92823337791264,2.6850390019372106,0.7842837067916989
1782986281939424500,8.053424560546874,7.885124888548255,2.9263632480084896,1.1874708319455385
1782986281949499600,8.063499755859375,7.582056718486547,3.0718352565214038,1.4406272623687981
1782986281959573500,8.073573486328126,7.17687900403738,3.0549267918184397,1.2722322050385177
1782986281969647400,8.0836474609375,6.248225112494826,2.8669913138464094,0.9211467307828366
1782986281979722500,8.093722412109376,4.251659665367007,2.6600331554964183,0.6148647132411599
1782986281989796400,8.10379638671875,1.375171332117915,2.344200780929625,0.5502937491312623
1782986281999870500,8.113870361328125,-1.5474679269313811,1.7835864210531114,0.6638787003222852
1782986282009945300,8.1239453125,-3.9839112304896114,0.8162669910296797,0.9753593824855983
1782986282020019500,8.13401953125,-5.581769035965204,-0.4539329775288701,1.8684782886579632
1782986282030093300,8.14409326171875,-6.899387758302688,-1.791795154210925,3.232226601746678
1782986282040168400,8.15416845703125,-9.185157100790738,-2.8589991460487245,3.392065573786199
1782986282050242300,8.1642421875,-12.810271844255924,-3.516233512985706,1.681101321351528
1782986282060317400,8.1743173828125,-16.802236032819746,-4.165039951056242,-0.6090303079992533
1782986282070391300,8.184391357421875,-18.817768046224117,-4.699645132668316,-2.293506220350414
1782986282080465700,8.194465576171876,-17.878710249567032,-5.1667345288902515,-2.3642266470007596
1782986282090540300,8.204540283203125,-16.13510015733242,-5.584980399227142,-0.6011990298517048
1782986282100614700,8.21461474609375,-14.282306052279472,-6.05849047614634,1.3318690737470984
1782986282110688500,8.2246884765625,-11.45962295897603,-7.026499057477713,2.4475705545112487
1782986282120763600,8.234763671875,-9.789467394530773,-8.601644095885753,2.608561034673452
1782986282130837500,8.24483740234375,-10.412464853084087,-9.34738998222947,0.9184875945761799
1782986282140911600,8.25491162109375,-11.419212622654438,-8.039792303168774,-1.5140058023124932
1782986282150986500,8.264986572265625,-10.704213756752013,-6.0212231140255925,-3.2012408041134477
1782986282161060600,8.275060546875,-7.969495362627506,-4.570286054566503,-3.635954117387533
1782986282171134500,8.285134521484375,-4.350234021365642,-3.188371093407273,-3.108170306228101
1782986282181209600,8.295209716796874,-1.0457669437944888,-1.4002861918911338,-2.018345024998486
1782986282191283500,8.305283447265625,1.1413684214621782,0.1963400259628892,-0.6676714436687529
1782986282201357600,8.315357666015625,2.1332371863305566,0.9693845458596945,0.7411143540855497
1782986282211432400,8.325432373046874,2.3616391147255897,1.064185520799458,1.3537879139579831
1782986282221506600,8.335506591796875,2.507621703109145,1.221546996809542,0.7773156213447451
1782986282231581400,8.34558154296875,2.6425369540333747,1.4732283862441777,-0.06014727504928596
1782986282241656600,8.355656494140625,2.956167434641719,1.5046227646782993,-0.4306162166861817
1782986282251730400,8.36573046875,3.611636837732792,1.4090718481540678,-0.6825856658145785
1782986282261804500,8.375804443359375,4.493650558653473,1.3261080260023475,-0.8844222433671355
1782986282271879400,8.38587939453125,5.525553812268376,1.2997688851311802,-0.9636077890891581
1782986282281953500,8.39595361328125,6.64505351627171,1.4466452074840663,-0.840542331238836
1782986282292027400,8.40602734375,7.651419593048095,1.7935694704070686,-0.4677046055108309
1782986282302102500,8.4161025390625,8.369975859171152,2.1151637695014474,-0.11260691820541396
1782986282312176400,8.42617626953125,8.912722553923725,2.3488529906496405,0.17535611024824901
1782986282322250500,8.43625048828125,9.24815336292982,2.541655782397091,0.37471707320120184
1782986282332325400,8.446325439453124,9.39778629051447,2.603033503423631,0.13981926171453668
1782986282342399500,8.4563994140625,9.243522195997834,2.5290961605533955,-0.6649659841023385
1782986282352474400,8.466474365234374,8.547783326360582,2.501188747452199,-0.7285029289893805
1782986282362548500,8.476548583984375,7.2736647230535745,2.017660842126608,-1.2902265652820468
1782986282372622600,8.48662255859375,6.386857922637462,1.9280702953115105,-1.8904729705840349
1782986282382697500,8.496697509765625,5.979608078089356,2.342320958532393,-2.2696131574571132
1782986282392771600,8.506771484375,5.775318846687674,2.6959058483883735,-2.3090014572545883
1782986282402845400,8.516845458984376,5.437620677271485,2.8367607184946535,-1.7842460540056229
1782986282412920600,8.526920654296875,4.940296009522676,2.8986551568716763,-0.894461552952975
1782986282422994400,8.536994384765626,4.555347428631782,3.113320236337185,-0.15342165234312413
1782986282433068500,8.547068603515624,4.520985140302777,3.4459801193252204,0.2836467726897448
1782986282443143700,8.557143798828125,4.806501287060976,3.5935502691611645,0.5265566805172711
1782986282453217500,8.567217529296874,5.244830160483717,3.517008881272375,0.5649480051666498
1782986282463291400,8.57729150390625,5.800452703422308,3.3012799719676376,0.45525735800042744
1782986282473366500,8.587366455078126,6.264113001978397,3.0384008966922758,0.19198548401519655
1782986282483440400,8.5974404296875,6.3516170979082585,2.7651851363196966,-0.08246383674032985
1782986282493514500,8.607514404296875,6.2012599477022885,2.535126965150237,-0.25776516632772983
1782986282503589400,8.61758935546875,5.911717614167928,2.485351419112086,-0.08855791583172977
1782986282513663500,8.62766357421875,5.232960858991742,2.47693255033493,-0.012857289616018532
1782986282523737300,8.6377373046875,4.321819243264198,2.3295500320255753,-0.32815036967433986
1782986282533812500,8.6478125,3.504487545612454,2.386776770852506,-0.6147257431618869
1782986282543886300,8.65788623046875,2.9131518842577933,2.567385266937315,-0.24541392653770744
1782986282553961500,8.66796142578125,2.2757366087734696,2.2582997362822295,0.9802565068773925
1782986282564035300,8.678035400390625,1.2049030282616615,1.4879703205630181,2.852646269890666
1782986282574109400,8.688109375,-0.7330757898628711,-0.10180793109238147,5.630554986444115
1782986282584184300,8.698184326171875,-3.32774799991548,-2.0840867864534256,8.345578500017524
1782986282594258400,8.708258544921875,-6.278667597031593,-3.620101299217343,9.136783238244057
1782986282604332500,8.71833251953125,-9.23789734185338,-4.704536704102158,6.993120519489049
1782986282614407400,8.728407470703125,-12.840346664524077,-6.482325544792413,4.239672290453314
1782986282624481500,8.7384814453125,-16.03429585032463,-7.7017545265346765,2.0938034399561585
1782986282634555600,8.7485556640625,-17.003254279726743,-7.14705786626935,0.7518818318154662
1782986282644630500,8.758630615234376,-15.714533150571583,-5.922141977548599,0.0455664404431358
1782986282654704600,8.76870458984375,-14.386798692411183,-5.62433508901596,0.3410000970384106
1782986282664778500,8.778778564453125,-15.414929441750049,-5.417678543961048,-0.2408481529921293
1782986282674853400,8.788853271484374,-17.095826180440188,-3.828267956574261,-2.555101539425552
1782986282684927500,8.798927490234375,-17.052393865948915,-2.6141888114273546,-4.0623444234743715
1782986282695001300,8.80900146484375,-14.46090087045431,-3.0426132536903023,-3.4936379425570365
1782986282705076500,8.819076416015625,-10.018443323421478,-4.137180761010945,-2.7719483468443156
1782986282715150300,8.829150390625,-4.941591310030222,-4.991860777065158,-3.2932793286025523
1782986282725224200,8.83922412109375,-0.2404606149792671,-5.360001431018114,-4.045391535107791
1782986282735299300,8.84929931640625,2.741877033707499,-4.9315749429285525,-4.066111082531512
1782986282745373200,8.859373291015626,3.9141204859048124,-3.349955447809398,-2.848781703417003
1782986282755448300,8.8694482421875,3.4753561436742544,-1.432104640956223,-0.3967607088355347
1782986282765522400,8.8795224609375,1.8379443264454602,0.29077099854648114,1.9381193956390022
1782986282775596300,8.88959619140625,-0.7608727283269167,1.5313485667794942,3.2580022635161874
1782986282785671400,8.89967138671875,-2.787280940532684,2.178899159570038,2.884351321709156
1782986282795745300,8.909745361328126,-3.124884417402744,2.350250582487881,1.2436771416835486
1782986282805819400,8.9198193359375,-2.0742092433005572,1.641052950210124,-0.6254667712762951
1782986282815894300,8.929894287109375,-0.051823710739612575,0.3614312194421887,-2.004213916054368
1782986282825968400,8.939968505859374,2.3251070811420678,-0.5488984953805804,-2.919215422080457
1782986282836042500,8.95004248046875,4.483336085388064,-0.8459408292815088,-3.294613792076707
1782986282846117400,8.960117431640626,6.163846455109119,-0.7581506098866462,-3.20489114331454
1782986282856191500,8.97019140625,7.32425041643083,-0.14044512026160955,-2.7721011993184685
1782986282866265300,8.980265380859375,7.693351439848541,0.6450923859834671,-2.0621230841875073
1782986282876340500,8.990340576171874,7.517493353161215,1.2373112599134444,-1.0873768651641904
1782986282886414300,9.000414306640625,7.26660369862616,1.5722861418455838,-0.24530754355378448
1782986282896488400,9.010488525390626,7.278473584640025,1.935796213388443,0.2512845173378475
1782986282906563300,9.020563232421875,7.390676653018593,2.223044298505783,0.49897312907557934
1782986282916637400,9.030637451171875,7.168733106982708,2.2755016309738156,0.48450303396806116
1782986282926711300,9.040711181640624,6.77523121728003,2.054063404111564,0.0948894752071239
1782986282936786400,9.050786376953125,6.3255181955337525,1.782384351786971,-0.4972900348268449
1782986282946860300,9.0608603515625,5.94364244621694,1.6344786863863467,-1.1136879489846527
1782986282956935400,9.070935302734375,5.64490792144537,1.6399819599777459,-1.5319066390536724
1782986282967009300,9.08100927734375,5.456090984463692,1.7310142300337552,-1.6504337958872317
1782986282977083400,9.09108349609375,5.254320457884669,1.87766901859045,-1.4648156549468636
1782986282987158300,9.101158203125,5.021017897966503,1.9358000127807258,-1.1482286626204847
1782986282997232400,9.111232421875,4.8368894110620015,1.9351763279244303,-0.9708432933006435
1782986283007306200,9.12130615234375,4.9079631811946625,1.884004651352763,-0.9527196806542575
1782986283017381400,9.13138134765625,5.2541754964560266,1.7536828656986354,-0.9378231402955949
1782986283027455200,9.141455322265625,5.741193874245882,1.6658210423722861,-0.8816637384392321
1782986283037529300,9.151529296875,6.139530344498157,1.799400660778582,-1.0355496472932397
1782986283047604200,9.161604248046874,6.208477039474248,2.065938258561492,-1.710732781766355
1782986283057678300,9.17167822265625,5.996984744825959,2.201421372501552,-2.504412093412876
1782986283067752400,9.18175244140625,5.271804676648974,2.1044734486609697,-2.705347922733426
1782986283077827300,9.191827392578125,4.416421188500523,1.8127043789878488,-2.4343698582850397
1782986283087901400,9.2019013671875,3.2780285679787395,1.3741966418668627,-1.8122871764890849
1782986283097975300,9.211975341796874,1.4710469505518673,0.9328557271465658,-0.7237757543370127
1782986283108050400,9.222050537109375,-1.004596729016304,0.2377966564670205,0.5579559543222189
1782986283118124300,9.232124267578126,-3.675287179866433,-0.7683274282470345,1.8320571681030093
1782986283128198400,9.242198486328125,-5.6262283554166554,-1.8158514448419212,2.692306070330739
1782986283138273500,9.2522734375,-6.492213901600241,-2.5784292235210535,2.854697357201576
1782986283148347400,9.262347412109374,-7.055756716144084,-3.5351816668227314,2.5504817706704137
1782986283158421200,9.272421142578125,-8.331669801652431,-5.010439805328845,2.293461650556326
1782986283168496400,9.282496337890626,-9.994891767442226,-5.753551836037635,2.2078571046374735
1782986283178570200,9.2925703125,-10.777964052617548,-5.507390963590145,2.448597121080011
1782986283188645400,9.302645263671875,-9.938547364407777,-4.673652613277733,3.4339436445727944
1782986283198719200,9.31271923828125,-8.22872380644083,-4.654628471595049,5.1470665363460775
1782986283208793300,9.32279345703125,-6.642450640296936,-5.590956551027298,5.922770338580012
1782986283218868200,9.3328681640625,-6.3967918721526855,-5.744173182317614,5.339833672258258
1782986283228942300,9.3429423828125,-7.512036256799101,-4.107634348531067,3.7131384793549773
1782986283239016200,9.35301611328125,-8.586008135336638,-1.7303046204596757,1.9483416605763135
1782986283249091300,9.36309130859375,-8.055655642732978,0.4102233074009418,0.3243609142635017
1782986283259165200,9.373165283203125,-5.986667348951101,1.5443310902103782,-1.0072900597535073
1782986283269239600,9.383239501953126,-3.582688975667953,1.5020529141902923,-2.099573109398782
1782986283279314200,9.393314208984375,-1.706053391778469,0.5276280360758304,-3.081207772761583
1782986283289388500,9.403388427734376,-0.5507371089845895,-0.8696426073864102,-3.819504512143135
1782986283299462400,9.41346240234375,0.027650807991623876,-2.0321862110853193,-4.125463435210287
1782986283309537500,9.42353759765625,0.3267325387656688,-2.439476387643814,-4.004385278719663
1782986283319611400,9.433611328125,0.6676391488343477,-2.2669138353705405,-3.5638393137693405
1782986283329685500,9.443685546875,1.4461825584083794,-1.6702464575991034,-2.6564123346507547
1782986283339760400,9.453760498046876,2.3931080197006462,-1.0016320339918137,-1.4536186997584997
1782986283349834500,9.46383447265625,3.185910840773582,-0.4536661432862282,-0.20611995396018026
1782986283359908400,9.473908447265625,3.7781560181885956,-0.21902999667674303,0.8173864965789019
1782986283369983500,9.4839833984375,4.316666682806611,-0.14418985974788665,1.5265058029234408
1782986283380057300,9.494057373046875,4.84756102720201,-0.10957271987497806,1.8734062465794383
1782986283390132500,9.504132568359376,5.392461685118079,-0.19655776036679742,1.5941906612701713
1782986283400206300,9.514206298828125,5.839404073107242,-0.4406447491496801,0.8082313494164496
1782986283410280400,9.524280517578125,6.171850313344597,-0.6440595358043909,-0.0014895444380119442
1782986283420355300,9.534355224609374,6.386644572147727,-0.6894070362672209,-0.37940358704961835
1782986283430429400,9.544429443359375,6.274800984731316,-0.707514355365932,-0.4711472933106124
1782986283440503300,9.55450341796875,5.953616727742553,-0.5840647935688495,-0.4055076770558953
1782986283450578400,9.564578369140625,5.70078119983673,-0.22029811691641807,-0.3230983104491606
1782986283460652300,9.57465234375,5.445184390524029,0.2053863789886236,-0.37469025825951247
1782986283470726100,9.58472607421875,5.288249030971527,0.5772571593806147,-0.4426557601785287
1782986283480801300,9.59480126953125,5.252011596420407,0.8465583766579627,-0.3711548872075975
1782986283490875100,9.604875244140626,5.153550053146481,1.0559732805103064,-0.3146562434595078
1782986283500949500,9.614949462890625,4.943678637698293,1.2214978969708084,-0.41369492903426286
1782986283511024400,9.6250244140625,4.726668456411361,1.3288108552202582,-0.6366195950619876
1782986283521098500,9.635098388671874,4.536676630431414,1.445269535216689,-0.6939110696882009
1782986283531172400,9.64517236328125,4.403768627676367,1.6949012986451386,-0.6246885534454136
1782986283541247500,9.65524755859375,4.211150544846058,1.8823513311877846,-0.6670172906089574
1782986283551321300,9.6653212890625,4.008969683900475,1.8932409739926457,-0.8003943721804767
1782986283561395500,9.6753955078125,3.873512581184506,1.9471257089152931,-0.7456726019117981
1782986283571470300,9.68547021484375,4.024696829864382,1.9653160301223396,-0.42840577409509567
1782986283581544400,9.69554443359375,4.246235886752605,1.8707815971642732,-0.1380296018187888
1782986283591618300,9.705618408203126,4.200862959587574,1.696767677038908,0.124048988994956
1782986283601693400,9.715693359375,3.551256895571947,1.3770698592156172,0.30113519270513206
1782986283611767300,9.725767333984376,2.7640415192425247,0.8591670983403921,0.393705778244324
1782986283621841400,9.73584130859375,2.1324287925571204,0.389778777526319,0.38886107815951104
1782986283631916300,9.745916259765625,1.658788367256522,0.2424520810574293,0.501445474005863
1782986283641990400,9.755990478515624,0.6221276899814605,0.32179829723387954,1.4016554344177246
1782986283652065300,9.766065185546875,-1.6924176651358604,0.2904731846436858,3.3057071407601235
1782986283662139400,9.776139404296876,-4.967955000820756,-0.016260229927301407,5.11558009571433
1782986283672213500,9.786213623046875,-7.961400318977236,-0.4198904226735234,5.624589940559864
1782986283682288600,9.79628857421875,-8.91454100152254,-1.0496659970596431,4.573505308873951
1782986283692362500,9.806362548828124,-7.8117925258338445,-2.7221082111373542,2.9213477579340337
1782986283702436600,9.8164365234375,-6.438183036205172,-5.247834018474817,1.623593719756603
1782986283712511500,9.826511474609376,-6.381368093049526,-7.232136780878901,1.024798755371943
1782986283722585600,9.836585693359375,-8.028182529395819,-7.580847342696785,1.1699169820111244
1782986283732659500,9.846659423828125,-9.350249463313817,-6.514701043218374,0.8919159601233899
1782986283742734600,9.856734619140624,-9.631453007569908,-5.4294268494218585,0.4551460431130603
1782986283752808400,9.866808349609375,-10.122979218173027,-4.907364046257734,0.5961149315204471
1782986283762882800,9.8768828125,-12.417529248487948,-3.778123869484663,1.3886544985473155
1782986283772957400,9.88695751953125,-14.787050056374072,-1.3576073261156678,1.654959748879075
1782986283783031800,9.89703173828125,-15.399792662894725,0.8112582229569554,1.50125986411646
1782986283793105700,9.907105712890624,-13.81663382937908,1.1151175433963536,1.1205537431009114
1782986283803180800,9.917180908203125,-10.94234563652277,-0.20935148322731256,0.44683615113571284
1782986283813254700,9.927254638671876,-7.675857868734002,-1.8278484643667936,-0.2944513675596565
1782986283823329800,9.937329833984375,-4.975908590173721,-2.8637197448298335,-0.5964638180233538
1782986283833403600,9.947403564453126,-3.3456694410532712,-3.3052216953307387,-0.2578029410548508
1782986283843477800,9.957477783203124,-2.4251632001310583,-3.237053875772655,-0.018041706516593693
1782986283853552600,9.967552734375,-1.2762252201974391,-2.6532605926215647,0.11359890665113925
1782986283863626800,9.977626708984374,0.6424363185167312,-1.4876678304851054,0.5561283005036414
1782986283873700600,9.98770068359375,2.819793801602721,-0.3203492674693465,1.275010437580198
1782986283883775700,9.997775634765626,4.6889989432305095,0.3258241917490959,1.8696420717403293
1782986283893849600,10.007849609375,5.937345391899347,0.4433165987074375,1.8638512133792042
1782986283903923700,10.017923828125,6.350733300811052,0.26721856578439473,1.2169663910210131
1782986283913998600,10.02799853515625,6.303374168264866,0.19260493108779192,0.33666919169463216
1782986283924072700,10.03807275390625,6.106101537626981,0.3806973531872034,-0.6278136266633868
1782986283934146600,10.048146484375,5.725628056323528,0.7016904715180396,-1.4527869251094758
1782986283944221700,10.0582216796875,5.206121367383003,1.1772753088846801,-1.9802850511953234
1782986283954295600,10.068295654296875,4.555736135688424,1.6304986768394707,-2.1229820420369503
1782986283964369700,10.07836962890625,3.9706180336743593,2.005275407806039,-2.0703652812235056
1782986283974444500,10.088444580078125,3.787293848890066,2.383190144537389,-1.919654641404748
1782986283984518700,10.0985185546875,3.873255391553044,2.715158245868981,-1.6650947739243507
1782986283994592800,10.1085927734375,4.197376286515594,2.984581920482218,-1.2540215716958045
1782986284004667600,10.118667724609375,4.6479181603014466,3.237139508229494,-0.7994500040024518
1782986284014741800,10.12874169921875,5.1197021440804,3.5197008968353267,-0.404029786523059
1782986284024815600,10.138815673828125,5.572382198938727,3.9692268715769052,-0.12815172073920256
1782986284034890800,10.148890869140626,6.058986150708794,4.216119273169339,-0.18027161054695023
1782986284044964600,10.158964599609375,6.445321802043915,3.9836610551208254,-0.7137774343486875
1782986284055038700,10.169038818359375,6.426397905865311,3.7436183732926844,-1.5186444218985735
1782986284065113600,10.179113525390624,6.012445933330059,3.665667410866916,-2.2447440891385075
1782986284075187700,10.189187744140625,5.441382660153508,3.6547985185891387,-2.676049932056665
1782986284085262600,10.1992626953125,5.245540354579687,3.805411689382791,-2.602121357014775
1782986284095336700,10.209336669921875,5.530372610726952,4.011493941681087,-2.142467079229653
1782986284105410600,10.21941064453125,6.0124798355996605,4.0998920638412235,-1.5870497034743427
1782986284115485700,10.229485595703125,6.530656152719259,4.230545565667748,-1.0111956888899207
1782986284125559600,10.2395595703125,7.081423072320223,4.212696897505223,-0.28391901375986633
1782986284135633700,10.249633544921876,7.104340422049164,4.318183809371292,-0.10549049206264316
1782986284145708500,10.25970849609375,6.256343537020683,4.3460693029016255,-0.8201510659214108
1782986284155782700,10.26978271484375,5.406396686968207,3.958072732616961,-1.921610743908584
1782986284165856500,10.2798564453125,5.151529360973835,3.423528341281414,-2.798715649999678
