time,seconds_elapsed,z,y,x
1782986273950465000,0.064465087890625,-0.41955944895744324,0.9458016753196716,-2.5148379802703857
1782986273960539000,0.074538818359375,-0.24748249351978302,0.839001476764679,-1.892958164215088
1782986273970614000,0.084614013671875,-0.2783980667591095,0.29562926292419434,-1.341683268547058
1782986273980688000,0.09468798828125,-0.4509466588497162,-0.3213103711605072,-1.0208804607391357
1782986273990761700,0.10476171875,-0.6473737359046936,-0.7345741391181946,-0.9817607402801514
1782986274000836900,0.1148369140625,-0.7661772966384888,-0.7991454005241394,-1.0909844636917114
1782986274010910700,0.12491064453125,-0.8048285841941833,-0.528626024723053,-1.1511497497558594
1782986274020984800,0.13498486328125,-0.753371000289917,-0.14212331175804138,-1.068693995475769
1782986274031060000,0.14506005859375,-0.6275624632835388,0.18378421664237976,-0.84916752576828
1782986274041133800,0.1551337890625,-0.4790360927581787,0.38470613956451416,-0.5805345177650452
1782986274051209000,0.165208984375,-0.3558608889579773,0.4361211061477661,-0.27708619832992554
1782986274061282800,0.17528271484375,-0.27229517698287964,0.35409894585609436,0.04011386260390282
1782986274071356700,0.185356689453125,-0.2241867631673813,0.12065663933753967,0.3049173057079315
1782986274081431800,0.195431884765625,-0.24371865391731262,-0.2399177849292755,0.4323359727859497
1782986274091505700,0.205505615234375,-0.33400142192840576,-0.5599607825279236,0.4268714189529419
1782986274101580000,0.215580078125,-0.41346320509910583,-0.667079508304596,0.3164226710796356
1782986274111654700,0.225654541015625,-0.417147696018219,-0.663794755935669,0.10967403650283813
1782986274121729000,0.23572900390625,-0.3822014331817627,-0.6429046392440796,-0.15026326477527618
1782986274131803000,0.245802978515625,-0.3394286632537842,-0.5778558850288391,-0.40884289145469666
1782986274141878000,0.2558779296875,-0.27421316504478455,-0.46683961153030396,-0.5925331115722656
1782986274151952000,0.265951904296875,-0.18372029066085815,-0.3234393000602722,-0.6326043605804443
1782986274162026000,0.27602587890625,-0.11688454449176788,-0.1632046401500702,-0.5191898941993713
1782986274172100900,0.286100830078125,-0.09280530363321304,-0.042268626391887665,-0.2794516086578369
1782986274182175000,0.296175048828125,-0.08865077048540115,0.030100909993052483,0.03497635945677757
1782986274192249900,0.306249755859375,-0.09151820093393326,0.09043802320957184,0.34677499532699585
1782986274202324000,0.316323974609375,-0.09314991533756256,0.14451856911182404,0.5970492959022522
1782986274212397800,0.326397705078125,-0.085690937936306,0.1618775874376297,0.7580339312553406
1782986274222473000,0.336472900390625,-0.07672540098428726,0.15763463079929352,0.8891820907592773
1782986274232546800,0.346546875,-0.0645236000418663,0.187616765499115,1.0282717943191528
1782986274242621000,0.356620849609375,-0.051966793835163116,0.19035369157791138,1.1725064516067505
1782986274252695800,0.36669580078125,-0.06737051904201508,0.12448333948850632,1.292911171913147
1782986274262770000,0.37677001953125,-0.10817254334688187,0.07791423797607422,1.3639494180679321
1782986274272843800,0.38684375,-0.1498030722141266,0.04980750381946564,1.3530032634735107
1782986274282919000,0.3969189453125,-0.21030689775943756,0.039150066673755646,1.2472482919692993
1782986274292992800,0.40699267578125,-0.27301982045173645,0.04523352533578873,1.0748027563095093
1782986274303067000,0.41706689453125,-0.31182608008384705,0.034748394042253494,0.8973150849342346
1782986274313141800,0.427141845703125,-0.28437313437461853,0.05877409875392914,0.7404096722602844
1782986274323216000,0.4372158203125,-0.18204383552074432,0.13048450648784637,0.5881982445716858
1782986274333290000,0.4472900390625,-0.044505681842565536,0.09996841102838516,0.37110671401023865
1782986274343364900,0.45736474609375,0.08965398371219635,-0.12950073182582855,0.11553911119699478
1782986274353439000,0.46743896484375,0.19372312724590302,-0.33919456601142883,-0.06511588394641876
1782986274363513900,0.477513916015625,0.269468754529953,-0.12453154474496841,-0.06696012616157532
1782986274373588000,0.487587890625,0.341792494058609,0.4993501603603363,0.19522222876548767
1782986274383661800,0.497661865234375,0.4172499477863312,1.2231379747390747,0.6658912301063538
1782986274393737000,0.507737060546875,0.500301718711853,1.688854455947876,1.0767594575881958
1782986274403811000,0.51781103515625,0.6891096830368042,1.5132906436920166,1.2589292526245117
1782986274413885000,0.527885009765625,1.019883394241333,0.7930422425270081,1.2948590517044067
1782986274423960000,0.5379599609375,1.2723182439804077,-0.08400914818048477,1.2676188945770264
1782986274434034000,0.548033935546875,1.3385028839111328,-0.7285466194152832,1.230750322341919
1782986274444107800,0.558107666015625,1.3486956357955933,-1.4106193780899048,1.1417946815490723
1782986274454183000,0.568182861328125,1.3566323518753052,-2.432953357696533,0.7965746521949768
1782986274464256800,0.5782568359375,1.2277768850326538,-3.0616307258605957,0.20994816720485687
1782986274474331000,0.588330810546875,0.9499080181121826,-3.0735626220703125,-0.4660893976688385
1782986274484405800,0.59840576171875,0.7016950249671936,-2.6906230449676514,-1.041489839553833
1782986274494480000,0.60847998046875,0.6677564978599548,-2.048798084259033,-1.3040653467178345
1782986274504554800,0.6185546875,0.8236967921257019,-1.2881978750228882,-1.2413060665130615
1782986274514628900,0.62862890625,0.986504077911377,-0.7140227556228638,-0.9913076162338257
1782986274524702700,0.63870263671875,0.9831554293632507,-0.26164546608924866,-0.7144992351531982
1782986274534777900,0.64877783203125,0.7408810257911682,0.2128038853406906,-0.5561702847480774
1782986274544851700,0.658851806640625,0.34808555245399475,0.676784336566925,-0.5347979068756104
1782986274554925800,0.66892578125,-0.0521196611225605,1.1154452562332153,-0.5900135040283203
1782986274565000700,0.679000732421875,-0.3675321936607361,1.4315688610076904,-0.635169506072998
1782986274575074800,0.68907470703125,-0.5928689241409302,1.6323778629302979,-0.603194534778595
1782986274585149000,0.69914892578125,-0.7363962531089783,1.728824257850647,-0.4506393373012543
1782986274595223800,0.709223876953125,-0.7874817848205566,1.7072972059249878,-0.19738231599330902
1782986274605298000,0.7192978515625,-0.7381755113601685,1.5670255422592163,0.09426870942115784
1782986274615372800,0.729372802734375,-0.6076310873031616,1.3590654134750366,0.38061898946762085
1782986274625447000,0.739447021484375,-0.44969606399536133,1.0759087800979614,0.6216795444488525
1782986274635521000,0.74952099609375,-0.3115658760070801,0.6989966630935669,0.7662465572357178
1782986274645596000,0.759595947265625,-0.19490237534046173,0.3421490788459778,0.8069255352020264
1782986274655670000,0.769669921875,-0.11118404567241669,0.10423000156879425,0.7396053671836853
1782986274665744000,0.779743896484375,-0.0420776791870594,-0.004081827122718096,0.5823891162872314
1782986274675819000,0.789819091796875,0.020424049347639084,0.032711341977119446,0.37824901938438416
1782986274685892900,0.799892822265625,0.0673430860042572,0.14806456863880157,0.166879802942276
1782986274695967000,0.809967041015625,0.06803364306688309,0.23631693422794342,-0.03794711455702782
1782986274706041900,0.820041748046875,0.008247011341154575,0.2647706866264343,-0.1957940012216568
1782986274716116000,0.830115966796875,-0.08755195140838623,0.25347408652305603,-0.2942609190940857
1782986274726189800,0.84018994140625,-0.2170417755842209,0.23282578587532043,-0.320687472820282
1782986274736265000,0.850264892578125,-0.3540206551551819,0.2640968859195709,-0.2821009159088135
1782986274746338800,0.8603388671875,-0.4716508984565735,0.29801037907600403,-0.20709672570228577
1782986274756412700,0.87041259765625,-0.5455048680305481,0.2756584882736206,-0.12183722108602524
1782986274766487800,0.88048779296875,-0.5752113461494446,0.2398054003715515,-0.023782560601830482
1782986274776562000,0.89056201171875,-0.5923213958740234,0.23848207294940948,0.07452376931905746
1782986274786636800,0.90063671875,-0.608135998249054,0.25338006019592285,0.15063877403736115
1782986274796711000,0.9107109375,-0.6171063780784607,0.27034226059913635,0.1998065859079361
1782986274806784800,0.92078466796875,-0.6231450438499451,0.24664786458015442,0.20731137692928314
1782986274816860000,0.93085986328125,-0.6483409404754639,0.1402929276227951,0.17365914583206177
1782986274826933800,0.940933837890625,-0.6920043230056763,0.10162995755672455,0.1527666449546814
1782986274837008000,0.9510078125,-0.7382362484931946,0.16436150670051575,0.12476935982704163
1782986274847082800,0.961082763671875,-0.7942811250686646,0.252691388130188,0.0983705148100853
1782986274857156900,0.971156982421875,-0.8290249705314636,0.42624691128730774,0.08803798258304596
1782986274867231000,0.98123095703125,-0.8249647617340088,0.5920433402061462,0.08415935188531876
1782986274877305900,0.991305908203125,-0.7958433628082275,0.5911517143249512,0.09248705953359604
1782986274887380000,1.0013798828125,-0.7721553444862366,0.513907790184021,0.12997211515903473
1782986274897455000,1.011455078125,-0.702876627445221,0.4477282464504242,0.13093245029449463
1782986274907529000,1.021529052734375,-0.5605650544166565,0.41513222455978394,0.023603862151503563
1782986274917602800,1.031602783203125,-0.27358412742614746,0.4596453607082367,-0.11587094515562057
1782986274927678000,1.041677978515625,0.13311997056007385,0.46477779746055603,-0.2659589648246765
1782986274937751800,1.051751708984375,0.4807647466659546,0.19093719124794006,-0.44038376212120056
1782986274947826000,1.061825927734375,0.692326009273529,-0.3376440703868866,-0.5650034546852112
1782986274957900800,1.07190087890625,0.7601602077484131,-0.749201774597168,-0.4445156753063202
1782986274967975000,1.081974853515625,0.5783683061599731,-0.8537012934684753,-0.1763441413640976
1782986274978048800,1.092048828125,0.11041013151407242,-0.524664580821991,-0.05920286849141121
1782986274988124000,1.1021240234375,-0.38810139894485474,-0.3854350447654724,-0.36108681559562683
1782986274998197800,1.11219775390625,-0.8167731165885925,-0.7550296187400818,-1.2301918268203735
1782986275008272000,1.12227197265625,-1.1670647859573364,-0.9959524869918823,-2.2291061878204346
1782986275018346800,1.1323466796875,-1.3872007131576538,-0.9366446733474731,-2.7594223022460938
1782986275028420900,1.1424208984375,-1.3266369104385376,-0.9465263485908508,-2.6545329093933105
1782986275038494700,1.15249462890625,-0.9096426367759705,-1.203757882118225,-2.068002700805664
1782986275048569900,1.16256982421875,-0.2559438943862915,-1.8465908765792847,-1.3103138208389282
1782986275058643700,1.172643798828125,0.5079013109207153,-2.7860281467437744,-0.5699161887168884
1782986275068718800,1.18271875,1.132327914237976,-3.670544147491455,-0.06262343376874924
1782986275078792700,1.192792724609375,1.387939691543579,-3.7731029987335205,0.09340158849954605
1782986275088867000,1.2028671875,1.3189233541488647,-2.934464931488037,-0.053396910429000854
1782986275098941700,1.212941650390625,1.1271083354949951,-1.5057510137557983,-0.3144732415676117
1782986275109016000,1.22301611328125,0.9823938012123108,0.09687355160713196,-0.4678681194782257
1782986275119090000,1.23308984375,0.8892068266868591,1.4171918630599976,-0.46520790457725525
1782986275129165000,1.2431650390625,0.7879350781440735,2.259478807449341,-0.3402673006057739
1782986275139239000,1.253239013671875,0.653776228427887,2.571664333343506,-0.14342081546783447
1782986275149313000,1.26331298828125,0.48442792892456055,2.4343655109405518,0.12774091958999634
1782986275159388000,1.273387939453125,0.3127051889896393,2.001098871231079,0.45310065150260925
1782986275169462000,1.2834619140625,0.16121791303157806,1.4720960855484009,0.7580363154411316
1782986275179536000,1.293535888671875,0.07257060706615448,0.9915875196456909,0.9728732705116272
1782986275189611000,1.303611083984375,0.07011836767196655,0.6059844493865967,1.0716667175292969
1782986275199684900,1.313684814453125,0.028054803609848022,0.20363621413707733,1.015038251876831
1782986275209760000,1.323760009765625,-0.032644763588905334,-0.07349898666143417,0.8374326229095459
1782986275219833900,1.333833740234375,-0.023067235946655273,-0.0983462780714035,0.5746979117393494
1782986275229907700,1.34390771484375,0.07972332090139389,-0.00015952334797475487,0.27040672302246094
1782986275239982800,1.35398291015625,0.22126980125904083,0.10288669914007187,-0.018684471026062965
1782986275250057000,1.364056884765625,0.33151721954345703,0.13886255025863647,-0.25011661648750305
1782986275260130800,1.374130859375,0.3702755272388458,0.15321272611618042,-0.3597683012485504
1782986275270206000,1.3842060546875,0.3572998046875,0.18770518898963928,-0.33875247836112976
1782986275280279800,1.39427978515625,0.31076958775520325,0.18148404359817505,-0.2495477795600891
1782986275290353700,1.404353759765625,0.24982181191444397,0.09751297533512115,-0.13809847831726074
1782986275300428800,1.4144287109375,0.20192939043045044,-0.03874313458800316,-0.026198048144578934
1782986275310502700,1.424502685546875,0.17518725991249084,-0.1405741572380066,0.0965166836977005
1782986275320577000,1.434576904296875,0.14389565587043762,-0.12240607291460037,0.20625010132789612
1782986275330651600,1.444651611328125,0.1188661977648735,0.01124839298427105,0.3098420202732086
1782986275340726000,1.45472607421875,0.0919102132320404,0.22640784084796906,0.4412541091442108
1782986275350800000,1.4647998046875,0.051963865756988525,0.4820515811443329,0.5838037729263306
1782986275360875000,1.474875,-0.025906166061758995,0.6524912118911743,0.7103606462478638
1782986275370948900,1.484948974609375,-0.12302499264478683,0.664171040058136,0.7676061391830444
1782986275381024000,1.49502392578125,-0.20779713988304138,0.5645377039909363,0.741726815700531
1782986275391097900,1.505097900390625,-0.29556748270988464,0.42696303129196167,0.6317505240440369
1782986275401172000,1.515171875,-0.4210209846496582,0.323827862739563,0.4276275038719177
1782986275411246800,1.525246826171875,-0.5114606022834778,0.4423747658729553,0.2424382120370865
1782986275421321000,1.535321044921875,-0.44507652521133423,0.7643445134162903,0.15413977205753326
1782986275431394800,1.545394775390625,-0.2169075459241867,1.162079930305481,0.14173077046871185
1782986275441470000,1.555469970703125,0.14789891242980957,1.3367129564285278,0.21949000656604767
1782986275451543800,1.565543701171875,0.6624472141265869,1.1499806642532349,0.4971213638782501
1782986275461618000,1.575617919921875,1.1973098516464233,0.8015449047088623,0.991580069065094
1782986275471692800,1.58569287109375,1.472760558128357,0.45308706164360046,1.5213412046432495
1782986275481767000,1.595766845703125,1.3241705894470215,0.26416292786598206,1.7967535257339478
1782986275491840800,1.6058408203125,0.840342104434967,0.09101006388664246,1.6414943933486938
1782986275501916000,1.615916015625,0.2910821735858917,-0.40558478236198425,1.061341643333435
1782986275511989800,1.62598974609375,-0.22652661800384521,-1.1862430572509766,0.12507669627666473
1782986275522065000,1.63606494140625,-0.76450115442276,-1.6856610774993896,-0.9500907063484192
1782986275532138800,1.646138671875,-1.1619187593460083,-1.7030941247940063,-1.7496755123138428
1782986275542212900,1.656212890625,-1.271093487739563,-1.3404866456985474,-2.0136754512786865
1782986275552287700,1.666287841796875,-1.0951250791549683,-0.8394169211387634,-1.7505751848220825
1782986275562361900,1.67636181640625,-0.7010923027992249,-0.4917319118976593,-1.2091363668441772
1782986275572436000,1.68643603515625,-0.25217312574386597,-0.2942441403865814,-0.7049903869628906
1782986275582510800,1.6965107421875,0.05030285194516182,-0.1639186292886734,-0.5067580342292786
1782986275592585000,1.7065849609375,0.09845093637704849,-0.04940403625369072,-0.6465015411376953
1782986275602658800,1.716658935546875,-0.060862816870212555,0.17570364475250244,-0.9728192090988159
1782986275612734000,1.72673388671875,-0.30894798040390015,0.4834209978580475,-1.3442864418029785
1782986275622808000,1.73680810546875,-0.508003294467926,0.7661775946617126,-1.6113237142562866
1782986275632882000,1.7468818359375,-0.5674751400947571,0.8771496415138245,-1.7258985042572021
1782986275642957000,1.75695703125,-0.50786292552948,0.7930629849433899,-1.7277158498764038
1782986275653031000,1.767031005859375,-0.3795156180858612,0.5254712104797363,-1.6718089580535889
1782986275663105300,1.777105224609375,-0.2451770007610321,0.07334905117750168,-1.5887353420257568
1782986275673179100,1.78717919921875,-0.1324416697025299,-0.4001663029193878,-1.4261778593063354
1782986275683253000,1.7972529296875,-0.07224463671445847,-0.5910574197769165,-1.1366078853607178
1782986275693328100,1.807328125,-0.09503543376922607,-0.4781428873538971,-0.7854782938957214
1782986275703402000,1.817402099609375,-0.1527104526758194,-0.24541322886943817,-0.4481396973133087
1782986275713476000,1.82747607421875,-0.1932983547449112,-0.015660984441637993,-0.19686539471149445
1782986275723551200,1.83755126953125,-0.18811850249767303,0.11988885700702667,-0.05945240706205368
1782986275733625000,1.847625,-0.15247608721256256,0.1631748080253601,-0.009195095859467983
1782986275743699200,1.85769921875,-0.07901892066001892,0.07286381721496582,-0.057195380330085754
1782986275753774000,1.867774169921875,-0.017426660284399986,-0.004354268312454224,-0.18719199299812317
1782986275763848200,1.87784814453125,0.035532694309949875,-0.04922427237033844,-0.3141475319862366
1782986275773922300,1.88792236328125,0.05381769314408302,-0.14768053591251373,-0.41255852580070496
1782986275783997200,1.8979970703125,0.04417598247528076,-0.236124649643898,-0.5106486082077026
1782986275794071300,1.9080712890625,0.004877046681940556,-0.4121300280094147,-0.5751605033874512
1782986275804145200,1.918145263671875,-0.06694574654102325,-0.582047700881958,-0.5319792032241821
1782986275814220300,1.92822021484375,-0.16078196465969086,-0.5564637780189514,-0.30995306372642517
1782986275824294100,1.938294189453125,-0.2674463391304016,-0.27797383069992065,0.05757434666156769
1782986275834369300,1.948369384765625,-0.3969244360923767,0.10913447290658951,0.45626315474510193
1782986275844443100,1.958443115234375,-0.5778785347938538,0.5273391604423523,0.7751156687736511
1782986275854517200,1.968517333984375,-0.7491661310195923,0.7757822871208191,0.9579401016235352
1782986275864592100,1.978592041015625,-0.8580316305160522,0.7150465250015259,0.9949902892112732
1782986275874666200,1.988666259765625,-0.9096165299415588,0.3496994078159332,0.9068633317947388
1782986275884740000,1.998739990234375,-0.9461175203323364,-0.15846021473407745,0.7247062921524048
1782986275894815200,2.008815185546875,-0.9831568002700806,-0.6390260457992554,0.4565129578113556
1782986275904889000,2.01888916015625,-1.028946876525879,-0.7749907970428467,0.1551259309053421
1782986275914963200,2.028963134765625,-1.0410871505737305,-0.3570776879787445,-0.03446822986006737
1782986275925038000,2.0390380859375,-0.9374468326568604,0.4591268301010132,0.04641037434339523
1782986275935112200,2.0491123046875,-0.5833486318588257,1.4122694730758667,0.431753009557724
1782986275945186000,2.05918603515625,0.09940142184495926,2.1929051876068115,1.0154411792755127
1782986275955261200,2.06926123046875,0.8930713534355164,2.142425298690796,1.5086640119552612
1782986275965335000,2.0793349609375,1.4883946180343628,0.9393786787986755,1.7283830642700195
1782986275975409200,2.0894091796875,1.6789904832839966,-0.636971652507782,1.737023115158081
1782986275985484000,2.099484130859375,1.4364265203475952,-1.6526432037353516,1.6225944757461548
1782986275995558100,2.10955810546875,0.9349322319030762,-2.370121717453003,1.3216232061386108
1782986276005633000,2.119633056640625,0.44032570719718933,-3.16684627532959,0.7093476057052612
1782986276015707100,2.12970703125,0.03152143955230713,-3.74497127532959,-0.22562167048454285
1782986276025781200,2.13978125,-0.15590864419937134,-3.7893331050872803,-1.2701393365859985
1782986276035856100,2.149856201171875,0.051421646028757095,-3.467944860458374,-2.147982358932495
1782986276045930200,2.15993017578125,0.5830506682395935,-3.1676571369171143,-2.7338004112243652
1782986276056004000,2.170004150390625,1.1979420185089111,-3.034355878829956,-2.9805829524993896
1782986276066079200,2.180079345703125,1.577147126197815,-3.0675480365753174,-2.9863855838775635
1782986276076153000,2.190153076171875,1.4654650688171387,-2.9383068084716797,-2.8906142711639404
1782986276086227200,2.200227294921875,0.8386134505271912,-2.1136767864227295,-2.707026481628418
1782986276096302300,2.21030224609375,-0.007861917838454247,-0.6471382975578308,-2.3969218730926514
1782986276106376200,2.220376220703125,-0.7134590148925781,0.9666438698768616,-1.9592766761779785
1782986276116450000,2.230449951171875,-1.119803547859192,2.3563106060028076,-1.358060598373413
1782986276126525200,2.240525146484375,-1.227466106414795,3.236229419708252,-0.6730223298072815
1782986276136599000,2.25059912109375,-1.0966426134109497,3.4750545024871826,-0.023242471739649773
1782986276146673200,2.260673095703125,-0.8617768287658691,3.1361091136932373,0.5184096097946167
1782986276156748000,2.270748046875,-0.6274173259735107,2.452524185180664,0.9560641646385193
1782986276166822100,2.280822265625,-0.5017842650413513,1.6202067136764526,1.2448523044586182
1782986276176897000,2.29089697265625,-0.5499827265739441,0.8173486590385437,1.4374624490737915
1782986276186971100,2.30097119140625,-0.7009240388870239,0.18991240859031677,1.443915605545044
1782986276197045000,2.311044921875,-0.8621866703033447,-0.3812924921512604,1.1614303588867188
1782986276207120100,2.3211201171875,-0.921276867389679,-0.93538498878479,0.6485908031463623
1782986276217194000,2.331194091796875,-0.8617554903030396,-1.2973911762237549,0.044322457164525986
1782986276227268000,2.34126806640625,-0.733357846736908,-1.3392541408538818,-0.5273399949073792
1782986276237343000,2.351343017578125,-0.5328434109687805,-0.8790751099586487,-0.7981935739517212
1782986276247417000,2.3614169921875,-0.3410462737083435,0.035764388740062714,-0.7834612131118774
1782986276257491200,2.3714912109375,-0.24597355723381042,0.6312122941017151,-0.6221405267715454
1782986276267566000,2.381566162109375,-0.27533861994743347,0.7704522013664246,-0.39144474267959595
1782986276277640200,2.39164013671875,-0.39238935708999634,0.6526001691818237,-0.10681885480880737
1782986276287714300,2.40171435546875,-0.5258992314338684,0.5423634052276611,0.22132545709609985
1782986276297789200,2.4117890625,-0.6249855756759644,0.4659613072872162,0.5642154216766357
1782986276307863300,2.42186328125,-0.6865552067756653,0.35783910751342773,0.8572763204574585
1782986276317937200,2.431937255859375,-0.7127705812454224,0.2295178771018982,1.0650253295898438
1782986276328012300,2.44201220703125,-0.7036718726158142,0.16244404017925262,1.2043429613113403
1782986276338086100,2.452086181640625,-0.658567488193512,0.20871779322624207,1.307765245437622
1782986276348160300,2.46216015625,-0.5926790237426758,0.3077876567840576,1.35299551486969
1782986276358235100,2.472235107421875,-0.5415908098220825,0.3676946461200714,1.334518551826477
1782986276368309200,2.482309326171875,-0.5306811928749084,0.4113313555717468,1.2523163557052612
1782986276378384100,2.492384033203125,-0.5527843832969666,0.47995755076408386,1.1069176197052002
1782986276388458200,2.502458251953125,-0.5659643411636353,0.5333131551742554,0.9359426498413086
1782986276398532000,2.512531982421875,-0.5796796083450317,0.5268494486808777,0.7751069068908691
1782986276408607200,2.522607177734375,-0.6101685762405396,0.5116896629333496,0.6526669859886169
1782986276418681000,2.53268115234375,-0.648024320602417,0.5067974328994751,0.5787387490272522
1782986276428755000,2.5427548828125,-0.6873989105224609,0.4671115279197693,0.5391018390655518
1782986276438830000,2.552830078125,-0.7149857878684998,0.38339585065841675,0.46992915868759155
1782986276448904000,2.562904052734375,-0.7060908079147339,0.25309112668037415,0.37423431873321533
1782986276458978300,2.572978271484375,-0.6189223527908325,0.061895325779914856,0.31104522943496704
1782986276469053200,2.58305322265625,-0.4760562777519226,-0.027362648397684097,0.33530741930007935
1782986276479127300,2.593127197265625,-0.27553704380989075,-0.011687016114592552,0.41051268577575684
1782986276489201200,2.603201171875,-0.014110492542386055,-0.2490745335817337,0.5337259769439697
1782986276499276300,2.6132763671875,0.11960309743881226,-0.8693910837173462,0.6208488941192627
1782986276509350100,2.62335009765625,-0.08030655980110168,-1.495984673500061,0.5142406821250916
1782986276519424300,2.63342431640625,-0.5198605060577393,-1.770521640777588,0.12284016609191895
1782986276529499100,2.6434990234375,-0.8225085139274597,-1.6017752885818481,-0.4474733769893646
1782986276539573200,2.6535732421875,-0.73244708776474,-1.1343142986297607,-0.966693103313446
1782986276549648100,2.663648193359375,-0.2614864706993103,-0.7171541452407837,-1.3683942556381226
1782986276559722200,2.67372216796875,0.25839588046073914,-0.41577377915382385,-1.7497577667236328
1782986276569796000,2.683796142578125,0.42928025126457214,-0.39256566762924194,-2.249620199203491
1782986276579871200,2.693871337890625,0.4492531716823578,-0.6431986689567566,-2.4516873359680176
1782986276589945000,2.703945068359375,0.6012746691703796,-1.0669773817062378,-2.090794801712036
1782986276600019200,2.714019287109375,0.8243855237960815,-1.7323991060256958,-1.265499472618103
1782986276610094000,2.724093994140625,0.9782134294509888,-2.581012725830078,-0.28015202283859253
1782986276620168200,2.734168212890625,0.9921095371246338,-3.260197639465332,0.564561128616333
1782986276630242000,2.744241943359375,0.9127649068832397,-3.4160213470458984,1.0046956539154053
1782986276640317200,2.754317138671875,0.8304929137229919,-3.049570322036743,1.0109373331069946
1782986276650391000,2.76439111328125,0.7683427333831787,-2.2628681659698486,0.7321298718452454
1782986276660465200,2.774465087890625,0.7180955410003662,-1.1652683019638062,0.3635939359664917
1782986276670540300,2.784540283203125,0.6717312335968018,-0.01986292004585266,0.03404265642166138
1782986276680614100,2.7946142578125,0.5769879817962646,0.8604146242141724,-0.20826078951358795
1782986276690689300,2.804689208984375,0.43611952662467957,1.3986567258834839,-0.31496647000312805
1782986276700763100,2.81476318359375,0.29707375168800354,1.6177898645401,-0.26143187284469604
1782986276710837200,2.824837158203125,0.16002748906612396,1.470945119857788,-0.08536043763160706
1782986276720912100,2.834912109375,0.017049822956323624,0.9498193264007568,0.12087742239236832
1782986276730986200,2.844986328125,-0.15261830389499664,0.24824096262454987,0.28337791562080383
1782986276741060400,2.855060302734375,-0.34168490767478943,-0.3155462443828583,0.33742091059684753
1782986276751135200,2.86513525390625,-0.49297189712524414,-0.46892115473747253,0.28490975499153137
1782986276761209300,2.875209228515625,-0.5375902056694031,-0.2778262794017792,0.13717569410800934
1782986276771283500,2.885283447265625,-0.4836433529853821,0.01594674214720726,-0.06783337891101837
1782986276781358300,2.8953583984375,-0.3468642234802246,0.2794116735458374,-0.2589553892612457
1782986276791432400,2.905432373046875,-0.1654968112707138,0.4753052890300751,-0.3679750859737396
1782986276801506300,2.91550634765625,0.00267780851572752,0.5585125684738159,-0.3793465197086334
1782986276811581400,2.92558154296875,0.1066175252199173,0.4947460889816284,-0.3078196048736572
1782986276821655300,2.9356552734375,0.12787620723247528,0.4395235776901245,-0.1856130063533783
1782986276831729200,2.945729248046875,0.13143418729305267,0.3656914234161377,-0.016337960958480835
1782986276841804300,2.95580419921875,0.12907223403453827,0.28244367241859436,0.16766196489334106
1782986276851878100,2.965878173828125,0.11306849867105484,0.19715221226215363,0.33379366993904114
1782986276861952300,2.9759521484375,0.07660768926143646,0.12261193245649338,0.4555605947971344
1782986276872027400,2.98602734375,0.028600219637155533,0.11280404776334763,0.5475722551345825
1782986276882101200,2.996101318359375,-0.021637916564941406,0.17796973884105682,0.6066009998321533
1782986276892176400,3.00617626953125,-0.07225635647773743,0.35366618633270264,0.6119438409805298
1782986276902250200,3.016250244140625,-0.12645168602466583,0.690540611743927,0.5651483535766602
1782986276912324000,3.026323974609375,-0.18275409936904907,0.9816387891769409,0.5000364780426025
1782986276922399200,3.036399169921875,-0.22368209064006805,1.1877498626708984,0.44358569383621216
1782986276932473000,3.04647314453125,-0.2442752569913864,1.3329144716262817,0.38154709339141846
1782986276942547200,3.056547119140625,-0.2597849667072296,1.3663803339004517,0.29356104135513306
1782986276952622000,3.0666220703125,-0.2692277431488037,1.346631407737732,0.16951632499694824
1782986276962696200,3.0766962890625,-0.248004749417305,1.296878457069397,0.05534341558814049
1782986276972770300,3.086770263671875,-0.2092381715774536,1.2180547714233398,-0.024282436817884445
1782986276982845200,3.09684521484375,-0.1772666573524475,1.253089189529419,-0.0617230199277401
1782986276992919300,3.106919189453125,-0.1542188674211502,1.4511586427688599,-0.11373721808195114
1782986277002993400,3.116993408203125,-0.13465528190135956,1.7911696434020996,-0.19346719980239868
1782986277013068300,3.127068359375,-0.05374099314212799,2.0829949378967285,-0.2506684362888336
1782986277023142400,3.137142333984375,0.170055091381073,1.9195207357406616,-0.28890928626060486
1782986277033216300,3.14721630859375,0.5265465974807739,1.262785792350769,-0.24049410223960876
1782986277043291400,3.15729150390625,0.975288450717926,0.8163885474205017,0.0887860581278801
1782986277053365200,3.167365234375,1.3818018436431885,0.8106757998466492,0.6255165934562683
1782986277063439400,3.177439453125,1.5610454082489014,0.4194340109825134,0.9452277421951294
1782986277073514200,3.18751416015625,1.5075757503509521,-0.3960498571395874,0.893247663974762
1782986277083588400,3.19758837890625,1.336401343345642,-1.0323644876480103,0.6536270976066589
1782986277093663200,3.207663330078125,1.0978024005889893,-1.401092529296875,0.3941939175128937
1782986277103737300,3.2177373046875,0.8514592051506042,-1.7914695739746094,0.15297569334506989
1782986277113811200,3.227811279296875,0.5988437533378601,-2.240118980407715,-0.2240418940782547
1782986277123886300,3.23788623046875,0.3972248435020447,-2.599327802658081,-0.7708426713943481
1782986277133960200,3.247960205078125,0.534517228603363,-2.7476837635040283,-1.0734739303588867
1782986277144034300,3.258034423828125,1.0375730991363525,-2.5397205352783203,-0.9298863410949707
1782986277154109200,3.268109130859375,1.7241624593734741,-2.2909672260284424,-0.45246681571006775
1782986277164183300,3.278183349609375,2.3212392330169678,-2.1019790172576904,0.032331306487321854
1782986277174257200,3.288257080078125,2.516343116760254,-1.8017821311950684,0.19264215230941772
1782986277184332300,3.298332275390625,2.28560471534729,-1.413802981376648,0.001187237212434411
1782986277194406100,3.30840625,1.7909443378448486,-0.9329681992530823,-0.38195669651031494
1782986277204480300,3.318480224609375,1.1826342344284058,-0.30565205216407776,-0.8447775840759277
1782986277214555100,3.32855517578125,0.6504027843475342,0.3938434422016144,-1.244282603263855
1782986277224629200,3.338629150390625,0.3295707106590271,0.9798531532287598,-1.4461199045181274
1782986277234703400,3.348703369140625,0.19038724899291992,1.3160679340362549,-1.4133129119873047
1782986277244778500,3.358778564453125,0.14208364486694336,1.4942266941070557,-1.1616711616516113
1782986277254852400,3.368852294921875,0.11648879200220108,1.5781115293502808,-0.7514910697937012
1782986277264927500,3.378927490234375,0.05663851276040077,1.5685712099075317,-0.2617408037185669
1782986277275001300,3.38900146484375,-0.08259288221597672,1.4725773334503174,0.24398230016231537
1782986277285075200,3.3990751953125,-0.3240340054035187,1.2803179025650024,0.6257387399673462
1782986277295150300,3.409150390625,-0.6333657503128052,1.015989065170288,0.8133552074432373
1782986277305224200,3.41922412109375,-0.9671069979667664,0.7450557947158813,0.7659299373626709
1782986277315298300,3.42929833984375,-1.2684662342071533,0.5033782124519348,0.5079883933067322
1782986277325373200,3.439373291015625,-1.4995317459106445,0.33743423223495483,0.10470643639564514
1782986277335447300,3.449447265625,-1.6439874172210693,0.3315451741218567,-0.3628098964691162
1782986277345521200,3.459521240234375,-1.6919890642166138,0.464484304189682,-0.8104814291000366
1782986277355596300,3.46959619140625,-1.630569577217102,0.6519905924797058,-1.1656690835952759
1782986277365670100,3.479670166015625,-1.5032955408096313,0.820926308631897,-1.3992578983306885
1782986277375744300,3.489744140625,-1.3318356275558472,0.967589259147644,-1.469709873199463
1782986277385819100,3.499819091796875,-1.12995183467865,1.070781946182251,-1.393924355506897
1782986277395893200,3.509893310546875,-0.946291446685791,1.0571465492248535,-1.2304139137268066
1782986277405967400,3.51996728515625,-0.8230757713317871,0.9340419769287109,-1.0216546058654785
1782986277416042200,3.530042236328125,-0.7457868456840515,0.7621468901634216,-0.812849223613739
1782986277426116400,3.540116455078125,-0.6991551518440247,0.6210382580757141,-0.5959286093711853
1782986277436191200,3.550191162109375,-0.6816909313201904,0.5280667543411255,-0.36888882517814636
1782986277446265300,3.560265380859375,-0.6750807166099548,0.46507102251052856,-0.14075365662574768
1782986277456339500,3.57033935546875,-0.6768335700035095,0.44951868057250977,0.08629067987203598
1782986277466414300,3.580414306640625,-0.684037446975708,0.5047433376312256,0.3147544860839844
1782986277476488400,3.590488525390625,-0.7019517421722412,0.7104650735855103,0.5318170189857483
1782986277486562300,3.600562255859375,-0.6934772729873657,1.0163520574569702,0.6578004956245422
1782986277496637400,3.610637451171875,-0.6400367021560669,1.167164921760559,0.6515681743621826
1782986277506711300,3.620711181640625,-0.5498961806297302,1.1587882041931152,0.5211966037750244
1782986277516785400,3.630785400390625,-0.5051148533821106,1.0279210805892944,0.24181155860424042
1782986277526860300,3.6408603515625,-0.6366880536079407,0.8548896312713623,-0.1757204234600067
1782986277536934400,3.650934326171875,-0.9060894250869751,0.8164204955101013,-0.623748779296875
1782986277547008300,3.66100830078125,-1.1509846448898315,1.0424193143844604,-0.9026262760162354
1782986277557083400,3.67108349609375,-1.1702626943588257,1.4286357164382935,-0.9250580668449402
1782986277567157200,3.6811572265625,-0.8179137706756592,1.6184096336364746,-0.688444972038269
1782986277577231000,3.691231201171875,-0.03284316882491112,1.599933385848999,-0.11405040323734283
1782986277587306200,3.70130615234375,1.046046257019043,1.3977627754211426,0.8579245805740356
1782986277597380000,3.711380126953125,1.9670847654342651,0.794839084148407,1.9129829406738281
1782986277607454200,3.7214541015625,2.4065866470336914,-0.05771096795797348,2.779383897781372
1782986277617529300,3.731529296875,2.2914462089538574,-0.8999830484390259,3.309399366378784
1782986277627603200,3.741603271484375,1.7341053485870361,-1.4660334587097168,3.366176128387451
1782986277637678300,3.75167822265625,0.9429539442062378,-1.832593560218811,2.950259208679199
1782986277647752200,3.761752197265625,0.14372999966144562,-2.1296274662017822,2.0070602893829346
1782986277657826300,3.771826416015625,-0.49627685546875,-2.81782603263855,0.47886139154434204
1782986277667901200,3.781901123046875,-0.7254596948623657,-3.7516748905181885,-1.1246252059936523
1782986277677975300,3.791975341796875,-0.3945523798465729,-4.143105983734131,-2.012651205062866
1782986277688049400,3.80204931640625,0.2162816971540451,-3.9973161220550537,-1.9789851903915405
1782986277698124300,3.812124267578125,0.805448591709137,-3.660383939743042,-1.303386926651001
1782986277708198400,3.822198486328125,1.2675403356552124,-3.2075061798095703,-0.3860558271408081
1782986277718272500,3.8322724609375,1.4918432235717773,-2.6359050273895264,0.38863882422447205
1782986277728347400,3.842347412109375,1.4224427938461304,-1.9873738288879395,0.794178307056427
1782986277738421500,3.85242138671875,1.1492829322814941,-1.2442951202392578,0.818981409072876
1782986277748495400,3.862495361328125,0.8012894988059998,-0.43126484751701355,0.5221087336540222
1782986277758570500,3.872570556640625,0.4306672215461731,0.3571813106536865,0.061108894646167755
1782986277768644400,3.882644287109375,0.07634536921977997,1.0241827964782715,-0.33898499608039856
1782986277778718500,3.892718505859375,-0.2518002688884735,1.4153084754943848,-0.6347934603691101
1782986277788793300,3.90279345703125,-0.4807570278644562,1.436903476715088,-0.8410595655441284
1782986277798867500,3.912867431640625,-0.6244348287582397,1.1769222021102905,-0.978796660900116
1782986277808941300,3.92294140625,-0.7007812857627869,0.7958739399909973,-1.0159426927566528
1782986277819016400,3.933016357421875,-0.76084965467453,0.43826842308044434,-0.936732828617096
1782986277829090300,3.94309033203125,-0.8565383553504944,0.20405246317386627,-0.7667254209518433
1782986277839165400,3.95316552734375,-0.9947564601898193,0.23420476913452148,-0.5124981999397278
1782986277849239300,3.9632392578125,-1.1034948825836182,0.4429886043071747,-0.2295253425836563
1782986277859313200,3.973313232421875,-1.1414082050323486,0.5574954748153687,-0.0003616572648752481
1782986277869388300,3.98338818359375,-1.0959768295288086,0.5223734378814697,0.1473628282546997
1782986277879461400,3.99346142578125,-0.9858002066612244,0.3903040885925293,0.20154403150081635
1782986277889535500,4.003535400390625,-0.8469640612602234,0.21814751625061035,0.1428317129611969
1782986277899610400,4.0136103515625,-0.6969090104103088,0.025466211140155792,-0.011035607196390629
1782986277909684500,4.0236845703125,-0.5611101984977722,-0.16642732918262482,-0.2048463523387909
1782986277919758300,4.03375830078125,-0.47265809774398804,-0.301336407661438,-0.3902135491371155
1782986277929833500,4.04383349609375,-0.4716341197490692,-0.33066925406455994,-0.5788822770118713
1782986277939907300,4.0539072265625,-0.5505440831184387,-0.26585084199905396,-0.7605602145195007
1782986277949982500,4.063982421875,-0.6703421473503113,-0.11693327873945236,-0.9205610156059265
1782986277960056300,4.074056396484375,-0.7921737432479858,0.10901197046041489,-1.0020942687988281
1782986277970130400,4.08413037109375,-0.8799771070480347,0.39135897159576416,-0.968715250492096
1782986277980205300,4.094205322265625,-0.9255339503288269,0.6469942331314087,-0.8173350691795349
1782986277990279400,4.104279541015625,-0.9347370266914368,0.8307925462722778,-0.6101648211479187
1782986278000353300,4.114353271484375,-0.9250692129135132,0.811876118183136,-0.42919662594795227
1782986278010428400,4.124428466796875,-0.8938950896263123,0.5988144278526306,-0.3174160420894623
1782986278020502300,4.134502197265625,-0.833173394203186,0.28035256266593933,-0.2639043629169464
1782986278030576400,4.144576416015625,-0.7434645295143127,-0.08343790471553802,-0.2688581049442291
1782986278040651300,4.1546513671875,-0.6143041849136353,-0.45585647225379944,-0.3073711395263672
1782986278050725400,4.164725341796875,-0.4950249195098877,-0.8154798746109009,-0.35233592987060547
1782986278060799500,4.174799560546875,-0.45712414383888245,-0.9874809384346008,-0.37244147062301636
1782986278070874400,4.184874267578125,-0.5427269339561462,-0.6003502607345581,-0.20415419340133667
1782986278080948500,4.194948486328125,-0.6931683421134949,0.466198593378067,0.2672322392463684
1782986278091022300,4.205022216796875,-0.7718213796615601,1.7099292278289795,0.9243714809417725
1782986278101097500,4.215097412109375,-0.5753530263900757,2.4994773864746094,1.5384751558303833
1782986278111171300,4.22517138671875,0.004476773552596569,2.6592609882354736,1.982694387435913
1782986278121245400,4.235245361328125,0.7549337148666382,2.133786201477051,2.0805835723876953
1782986278131320600,4.245320556640625,1.3194626569747925,1.0234639644622803,1.7856172323226929
1782986278141394400,4.25539453125,1.4890292882919312,-0.3378414213657379,1.331521987915039
1782986278151469600,4.265469482421875,1.3228245973587036,-1.2542774677276611,0.9690907597541809
1782986278161543400,4.27554345703125,0.9453904628753662,-1.667994499206543,0.7800896763801575
1782986278171617300,4.2856171875,0.5132222771644592,-1.6938068866729736,0.79245924949646
1782986278181692400,4.2956923828125,0.09674092382192612,-1.4962570667266846,0.7963948845863342
1782986278191766300,4.305766357421875,-0.16996853053569794,-1.2645447254180908,0.6078859567642212
1782986278201840400,4.31584033203125,-0.18655097484588623,-0.9491000175476074,0.4475029408931732
1782986278211915300,4.325915283203125,-0.04457945376634598,-0.6044342517852783,0.4715174734592438
1782986278221989400,4.3359892578125,0.1272713989019394,-0.49555861949920654,0.6791710257530212
1782986278232064300,4.346064208984375,0.2536908686161041,-0.8268361687660217,1.009577989578247
1782986278242138400,4.356138427734375,0.2783333659172058,-1.6376845836639404,1.3620697259902954
1782986278252212200,4.366212158203125,0.1972760558128357,-2.4260971546173096,1.5880712270736694
1782986278262287400,4.376287353515625,0.021131383255124092,-2.6728057861328125,1.497650146484375
1782986278272361200,4.386361328125,-0.13313621282577515,-2.3607218265533447,1.082951545715332
1782986278282435300,4.396435302734375,-0.19146130979061127,-1.7031170129776,0.46624332666397095
1782986278292510200,4.40651025390625,-0.13964471220970154,-0.868366539478302,-0.20414142310619354
1782986278302584300,4.416584228515625,-0.04195171222090721,-0.002043976215645671,-0.7890978455543518
1782986278312658400,4.426658447265625,0.016457803547382355,0.726106584072113,-1.212233066558838
1782986278322733300,4.4367333984375,-0.006674680393189192,1.0717673301696777,-1.4378705024719238
1782986278332807400,4.446807373046875,-0.1179221123456955,1.0617554187774658,-1.4572476148605347
1782986278342882300,4.45688232421875,-0.3254190981388092,0.8801963329315186,-1.3233377933502197
1782986278352956400,4.466956298828125,-0.6009135246276855,0.5824626088142395,-1.1097493171691895
1782986278363030500,4.477030517578125,-0.8965973854064941,0.16927450895309448,-0.8542086482048035
1782986278373105400,4.48710546875,-1.1671191453933716,-0.18493495881557465,-0.5621147155761719
1782986278383179500,4.497179443359375,-1.3960494995117188,-0.45596274733543396,-0.28861474990844727
1782986278393253400,4.50725341796875,-1.490228533744812,-0.5185046792030334,-0.03215181082487106
1782986278403328500,4.51732861328125,-1.4053101539611816,-0.3697817921638489,0.135031059384346
1782986278413402400,4.52740234375,-1.1645569801330566,-0.13232740759849548,0.17525091767311096
1782986278423476500,4.5374765625,-0.8530323505401611,0.12281087040901184,0.14785391092300415
1782986278433551400,4.54755126953125,-0.5469397902488708,0.33617454767227173,0.10726121068000793
1782986278443625500,4.55762548828125,-0.3294175863265991,0.4161522090435028,0.05763426795601845
1782986278453699300,4.56769921875,-0.23834092915058136,0.36420246958732605,-0.012798086740076542
1782986278463774500,4.5777744140625,-0.22802011668682098,0.2317970097064972,-0.11572366952896118
1782986278473848300,4.587848388671875,-0.2580065131187439,-0.0011656655697152019,-0.22177553176879883
1782986278483922400,4.59792236328125,-0.33394336700439453,-0.24527819454669952,-0.3149070739746094
1782986278493997300,4.607997314453125,-0.43787774443626404,-0.3607427477836609,-0.35791125893592834
1782986278504071400,4.618071533203125,-0.544615626335144,-0.410270094871521,-0.3769211769104004
1782986278514146300,4.628146240234375,-0.617396354675293,-0.39032432436943054,-0.3691905438899994
1782986278524220400,4.638220458984375,-0.655410885810852,-0.37836888432502747,-0.3494671881198883
1782986278534294300,4.648294189453125,-0.665358304977417,-0.30900710821151733,-0.2504841387271881
1782986278544369400,4.658369384765625,-0.6131947040557861,0.05209915339946747,0.031094003468751907
1782986278554443300,4.668443359375,-0.5701513886451721,0.3189127445220947,0.31376272439956665
1782986278564517400,4.678517333984375,-0.5873814821243286,0.23558615148067474,0.46775946021080017
1782986278574592300,4.68859228515625,-0.6649425625801086,0.07863515615463257,0.5097516775131226
1782986278584666400,4.698666259765625,-0.7964997887611389,0.05848301574587822,0.47891491651535034
1782986278594740500,4.708740478515625,-0.9353671669960022,0.2080083191394806,0.41502195596694946
1782986278604815400,4.7188154296875,-1.0621951818466187,0.4107430577278137,0.32136017084121704
1782986278614889500,4.728889404296875,-1.1154887676239014,0.6197737455368042,0.2799307107925415
1782986278624963300,4.73896337890625,-1.025187373161316,0.7615023851394653,0.4451116919517517
1782986278635038500,4.74903857421875,-0.781017005443573,0.5556547045707703,0.8402882814407349
1782986278645112300,4.7591123046875,-0.38270264863967896,0.0010341054294258356,1.32789146900177
1782986278655186400,4.7691865234375,0.1758836805820465,-0.4959959089756012,1.8401257991790771
1782986278665261300,4.77926123046875,0.61850905418396,-0.7630443572998047,2.1429550647735596
1782986278675335400,4.78933544921875,0.7390852570533752,-0.8772431015968323,2.164904832839966
1782986278685409300,4.7994091796875,0.557832658290863,-0.9579017758369446,2.0373482704162598
1782986278695484400,4.809484375,0.2262592315673828,-1.3228366374969482,1.661105751991272
1782986278705558300,4.819558349609375,-0.09686502814292908,-1.8868200778961182,0.8681263327598572
1782986278715633400,4.82963330078125,-0.3039756119251251,-1.943315863609314,-0.19501397013664246
1782986278725707300,4.839707275390625,-0.37925463914871216,-1.2854878902435303,-1.2576711177825928
1782986278735781400,4.849781494140625,-0.43758878111839294,-0.31991034746170044,-2.1341512203216553
1782986278745856300,4.859856201171875,-0.6142961978912354,0.5461599826812744,-2.7047195434570312
1782986278755930400,4.869930419921875,-0.8157339692115784,1.020201563835144,-2.8948705196380615
1782986278766004200,4.880004150390625,-0.9330981373786926,0.9929574728012085,-2.7979156970977783
1782986278776079400,4.890079345703125,-0.9976376891136169,0.6769931316375732,-2.6517186164855957
1782986278786153200,4.9001533203125,-1.0561013221740723,0.3456796407699585,-2.6212007999420166
1782986278796227300,4.910227294921875,-1.149614691734314,0.0394829623401165,-2.92037296295166
1782986278806302200,4.92030224609375,-1.3110376596450806,0.22219018638134003,-3.445514440536499
1782986278816376300,4.930376220703125,-1.3824317455291748,1.0736315250396729,-3.7092161178588867
1782986278826450400,4.940450439453125,-1.2885997295379639,1.9574699401855469,-3.539030075073242
1782986278836525600,4.950525634765625,-1.0790345668792725,2.55877685546875,-2.957573175430298
1782986278846599400,4.960599365234375,-0.8901141881942749,2.711890697479248,-2.071378231048584
1782986278856673500,4.970673583984375,-0.7842980027198792,2.227203845977783,-0.9922962188720703
1782986278866748400,4.98074853515625,-0.7302401065826416,1.1905850172042847,0.16098728775978088
1782986278876822500,4.990822509765625,-0.6680278778076172,-0.017586451023817062,1.2825459241867065
1782986278886897400,5.0008974609375,-0.6026176810264587,-1.0334599018096924,2.2323577404022217
1782986278896971500,5.010971435546875,-0.5179568529129028,-1.7014819383621216,2.9215312004089355
1782986278907045400,5.02104541015625,-0.39776626229286194,-1.8465570211410522,3.275663375854492
1782986278917120500,5.03112060546875,-0.28156644105911255,-1.3755149841308594,3.2410759925842285
1782986278927194400,5.0411943359375,-0.2698085904121399,-0.593399703502655,2.8655714988708496
1782986278937268200,5.051268310546875,-0.4748852849006653,0.19663077592849731,2.331465482711792
1782986278947343400,5.06134326171875,-0.6290426254272461,0.9910261631011963,1.8328577280044556
1782986278957417200,5.071417236328125,-0.5950157046318054,1.5875263214111328,1.3507238626480103
1782986278967491300,5.0814912109375,-0.5046527981758118,1.7507485151290894,0.9386974573135376
1782986278977566500,5.09156640625,-0.41589948534965515,1.54985773563385,0.6543112397193909
1782986278987640300,5.101640380859375,-0.2968897223472595,1.0668940544128418,0.47007909417152405
1782986278997714200,5.111714111328125,-0.1510521024465561,0.4841347336769104,0.3795015215873718
1782986279007789300,5.121789306640625,0.008971656672656536,0.03014218993484974,0.36922118067741394
1782986279017863200,5.13186328125,0.1621825098991394,-0.2052258551120758,0.4003623127937317
1782986279027937500,5.1419375,0.2972694933414459,-0.2087947577238083,0.4440610706806183
1782986279038012200,5.15201220703125,0.39280426502227783,-0.11183732002973557,0.45230409502983093
1782986279048086500,5.16208642578125,0.4448472261428833,0.008881908841431141,0.43506303429603577
1782986279058160400,5.172160400390625,0.43634510040283203,0.1141662523150444,0.46299561858177185
1782986279068235500,5.182235595703125,0.39207109808921814,0.2109212875366211,0.5762060284614563
1782986279078309400,5.192309326171875,0.32817360758781433,0.3243058919906616,0.7391651272773743
1782986279088384500,5.202384521484375,0.26001426577568054,0.4386916160583496,0.8805925846099854
1782986279098458400,5.212458251953125,0.1928381621837616,0.5089234113693237,0.9872924089431763
1782986279108532500,5.222532470703125,0.12902748584747314,0.5344756245613098,1.0426185131072998
1782986279118607400,5.232607421875,0.053591854870319366,0.5076624155044556,0.9815104007720947
1782986279128681500,5.242681396484375,-0.01028859056532383,0.39758944511413574,0.8111248016357422
1782986279138755300,5.25275537109375,-0.03139201179146767,0.28768956661224365,0.5447461605072021
1782986279148830500,5.26283056640625,-0.008767126128077507,0.08043305575847626,0.21222969889640808
1782986279158904300,5.272904296875,0.07984156906604767,0.07607799023389816,0.03353692218661308
1782986279168978400,5.282978515625,0.15726685523986816,0.4343421161174774,-0.015109976753592491
1782986279179053300,5.29305322265625,0.1349460929632187,0.7185916900634766,-0.2011653333902359
1782986279189127400,5.30312744140625,0.0864504724740982,0.5426342487335205,-0.4957287907600403
1782986279199201300,5.313201171875,0.19383205473423004,0.15210910141468048,-0.5880848169326782
1782986279209276400,5.3232763671875,0.3705146908760071,-0.5548067688941956,-0.40510356426239014
1782986279219350300,5.333350341796875,0.46110424399375916,-1.3069918155670166,-0.059421513229608536
1782986279229424400,5.34342431640625,0.3607078492641449,-1.647794485092163,0.19296252727508545
1782986279239499300,5.353499267578125,0.15495522320270538,-1.599173903465271,0.19107061624526978
1782986279249573400,5.363573486328125,0.0011134676169604063,-1.529546856880188,-0.06842859089374542
1782986279259648300,5.373648193359375,-0.04189684987068176,-1.4725501537322998,-0.509796142578125
1782986279269722400,5.383722412109375,0.04345373436808586,-0.8484154939651489,-0.8865327835083008
1782986279279796500,5.39379638671875,0.15589426457881927,0.06850981712341309,-1.1953645944595337
1782986279289871400,5.403871337890625,0.29300710558891296,0.792667806148529,-1.3867876529693604
1782986279299945500,5.413945556640625,0.46301451325416565,0.7872123122215271,-1.3527241945266724
1782986279310019300,5.424019287109375,0.5118774175643921,-0.05367095023393631,-1.1951580047607422
1782986279320094500,5.434094482421875,0.3641979396343231,-1.2954198122024536,-1.106803297996521
1782986279330168300,5.444168212890625,0.2404797226190567,-2.279609441757202,-1.3477197885513306
1782986279340242400,5.454242431640625,0.2498907893896103,-2.703885078430176,-1.9477180242538452
1782986279350317600,5.464317626953125,0.350984126329422,-2.3863112926483154,-2.626389265060425
1782986279360391400,5.474391357421875,0.4175487756729126,-1.2466299533843994,-3.094414234161377
1782986279370465300,5.48446533203125,0.3143555521965027,0.40323615074157715,-3.149167776107788
1782986279380540400,5.49454052734375,0.04637815058231354,1.8249868154525757,-2.8085014820098877
1782986279390614300,5.5046142578125,-0.3193516135215759,2.559654951095581,-2.203259229660034
1782986279400688400,5.5146884765625,-0.6797322034835815,2.496173143386841,-1.465441346168518
1782986279410763300,5.52476318359375,-0.9094071984291077,1.797857403755188,-0.6532108187675476
1782986279420837400,5.53483740234375,-0.9230718612670898,0.8261863589286804,0.05012229084968567
1782986279430912300,5.544912353515625,-0.7116131782531738,-0.02353462018072605,0.5382818579673767
1782986279440986400,5.554986328125,-0.3262878358364105,-0.5360706448554993,0.7974945306777954
1782986279451060200,5.565060302734375,0.055025700479745865,-0.6981042623519897,0.8270183205604553
1782986279461135400,5.57513525390625,0.26577070355415344,-0.5756036639213562,0.6931132078170776
1782986279471209200,5.585209228515625,0.22935622930526733,-0.23139993846416473,0.4308296740055084
1782986279481283300,5.595283447265625,0.01985599659383297,0.20024387538433075,0.11385200172662735
1782986279491358200,5.605358154296875,-0.2236703783273697,0.589293897151947,-0.18626201152801514
1782986279501432300,5.615432373046875,-0.43797096610069275,0.8560954928398132,-0.44775059819221497
1782986279511506400,5.62550634765625,-0.6052688956260681,0.8670767545700073,-0.6465513110160828
1782986279521581300,5.635581298828125,-0.6978960037231445,0.6542025804519653,-0.7283809185028076
1782986279531655400,5.645655517578125,-0.7049486041069031,0.3485899269580841,-0.6765574216842651
1782986279541729500,5.6557294921875,-0.6496003866195679,-0.006443251855671406,-0.5482876300811768
1782986279551804400,5.665804443359375,-0.5414182543754578,-0.30336838960647583,-0.3867682218551636
1782986279561878500,5.67587841796875,-0.40905702114105225,-0.4517831802368164,-0.19464485347270966
1782986279571952400,5.685952392578125,-0.3061857521533966,-0.43377915024757385,0.02442118711769581
1782986279582027500,5.696027587890625,-0.2527022957801819,-0.3266329765319824,0.2091982215642929
1782986279592101400,5.706101318359375,-0.27083736658096313,-0.18499568104743958,0.33883053064346313
1782986279602175500,5.716175537109375,-0.35015615820884705,0.03579794615507126,0.4365810453891754
1782986279612250400,5.72625048828125,-0.45800137519836426,0.25645336508750916,0.5384858250617981
1782986279622324500,5.736324462890625,-0.575843334197998,0.436161607503891,0.6347016096115112
1782986279632399400,5.7463994140625,-0.6715296506881714,0.5144587755203247,0.758240282535553
1782986279642473500,5.756473388671875,-0.7257230877876282,0.4911747872829437,0.8955153226852417
1782986279652547300,5.76654736328125,-0.7418344616889954,0.3851380944252014,1.0322473049163818
1782986279662622500,5.77662255859375,-0.7436091899871826,0.20242314040660858,1.1353673934936523
1782986279672696600,5.786696533203125,-0.7318978905677795,0.061523813754320145,1.1309635639190674
1782986279682770400,5.7967705078125,-0.7127625942230225,0.012035624124109745,0.9603484272956848
1782986279692845600,5.806845458984375,-0.6494491100311279,0.09006943553686142,0.6247738599777222
1782986279702919400,5.81691943359375,-0.499671071767807,0.32063180208206177,0.22528478503227234
1782986279712993500,5.82699365234375,-0.2161376178264618,0.5774399042129517,-0.03438114374876022
1782986279723068400,5.837068359375,0.19483979046344757,0.7150877714157104,0.028789037838578224
1782986279733142500,5.847142578125,0.661094069480896,0.7322097420692444,0.41376522183418274
1782986279743216600,5.857216552734375,1.115363597869873,0.6623761057853699,1.0011533498764038
1782986279753291500,5.86729150390625,1.5164684057235718,0.3274969160556793,1.6847397089004517
1782986279763365600,5.87736572265625,1.7831586599349976,-0.17522267997264862,2.3989737033843994
1782986279773439700,5.887439697265625,1.7935711145401,-0.46863406896591187,3.1024327278137207
1782986279783514600,5.8975146484375,1.6036181449890137,-0.5345632433891296,3.521620988845825
1782986279793588700,5.907588623046875,1.2945293188095093,-0.7100583910942078,3.2888295650482178
1782986279803662600,5.91766259765625,0.9326520562171936,-0.8519497513771057,2.398064136505127
1782986279813737700,5.92773779296875,0.6044161319732666,-1.013007640838623,1.0617847442626953
1782986279823811600,5.9378115234375,0.3044019639492035,-1.2359232902526855,-0.48360660672187805
1782986279833886700,5.94788671875,0.051782239228487015,-1.2178210020065308,-1.731497049331665
1782986279843960600,5.957960693359375,-0.013688381761312485,-1.0403069257736206,-2.3140738010406494
1782986279854034400,5.968034423828125,0.1350017637014389,-0.9782283306121826,-2.3173739910125732
1782986279864109600,5.978109619140625,0.4192023277282715,-1.3680498600006104,-1.9168347120285034
1782986279874183400,5.988183349609375,0.5690101981163025,-1.8975590467453003,-1.3628681898117065
1782986279884257500,5.998257568359375,0.33211004734039307,-2.021746873855591,-1.0103052854537964
1782986279894332700,6.008332763671875,-0.2043701857328415,-1.578395962715149,-1.1619012355804443
1782986279904406500,6.018406494140625,-0.8251623511314392,-0.6820885539054871,-1.8449314832687378
1782986279914480400,6.02848046875,-1.3428318500518799,0.32964926958084106,-2.761814832687378
1782986279924555500,6.038555419921875,-1.5273209810256958,1.2507206201553345,-3.4108076095581055
1782986279934629400,6.04862939453125,-1.299349069595337,1.9147478342056274,-3.4974570274353027
1782986279944703500,6.058703369140625,-0.8458498120307922,1.9159965515136719,-3.0766732692718506
1782986279954778400,6.0687783203125,-0.37609240412712097,1.2746949195861816,-2.2889668941497803
1782986279964852500,6.0788525390625,-0.03068361058831215,0.3752377927303314,-1.3107903003692627
1782986279974926600,6.088926513671875,0.14036376774311066,-0.4329144060611725,-0.2923130989074707
1782986279985001500,6.09900146484375,0.14180107414722443,-0.9674241542816162,0.5382789373397827
1782986279995075600,6.10907568359375,0.028795961290597916,-1.144607663154602,1.0605990886688232
1782986280005149700,6.119149658203125,-0.14448368549346924,-0.9302986264228821,1.256224274635315
1782986280015224600,6.129224609375,-0.3374786972999573,-0.4016244113445282,1.1917222738265991
1782986280025298700,6.139298583984375,-0.47755351662635803,0.22734446823596954,0.9727755188941956
1782986280035373600,6.14937353515625,-0.5376384258270264,0.6760426163673401,0.6882140636444092
1782986280045447700,6.15944775390625,-0.5308553576469421,0.8288231492042542,0.4002581834793091
1782986280055521500,6.169521484375,-0.4895230829715729,0.7030907869338989,0.18036417663097382
1782986280065596700,6.1795966796875,-0.43729105591773987,0.35751524567604065,0.032282572239637375
1782986280075670500,6.18967041015625,-0.4023815393447876,-0.08637483417987823,-0.046590406447649
1782986280085744600,6.19974462890625,-0.37585484981536865,-0.47633111476898193,-0.07281481474637985
1782986280095819500,6.209819580078125,-0.3578111231327057,-0.705399215221405,-0.07189469784498215
1782986280105893600,6.2198935546875,-0.33344587683677673,-0.7045725584030151,-0.015749402344226837
1782986280115967500,6.229967529296875,-0.29516586661338806,-0.5220091342926025,0.1279640942811966
1782986280126042600,6.240042724609375,-0.26871562004089355,-0.2569583058357239,0.3310764729976654
1782986280136116500,6.250116455078125,-0.28566691279411316,-0.013175723142921925,0.5336791276931763
1782986280146190600,6.260190673828125,-0.33697375655174255,0.1431502401828766,0.7149940133094788
1782986280156265500,6.270265380859375,-0.40094876289367676,0.17277896404266357,0.8583261370658875
1782986280166339600,6.280339599609375,-0.44344666600227356,0.07040519267320633,0.9755481481552124
1782986280176413400,6.290413330078125,-0.46307870745658875,-0.07494108378887177,1.0501859188079834
1782986280186488600,6.300488525390625,-0.4910490810871124,-0.1398037075996399,1.0502429008483887
1782986280196562400,6.3105625,-0.5224869251251221,-0.15256504714488983,0.9974209070205688
1782986280206637600,6.320637451171875,-0.5646660327911377,-0.15548573434352875,0.8908795714378357
1782986280216711400,6.33071142578125,-0.6196209192276001,-0.21321746706962585,0.7442853450775146
1782986280226785500,6.34078564453125,-0.6999748945236206,-0.3733147382736206,0.6165462732315063
1782986280236860400,6.3508603515625,-0.7958348393440247,-0.6350437998771667,0.6128660440444946
1782986280246934500,6.3609345703125,-0.9355043172836304,-0.7974050045013428,0.746055543422699
1782986280257008600,6.371008544921875,-1.254719853401184,-0.38080379366874695,0.839371383190155
1782986280267083500,6.38108349609375,-1.6785662174224854,0.609695315361023,0.7648636102676392
1782986280277157600,6.39115771484375,-1.8684439659118652,1.5869704484939575,0.5159072875976562
1782986280287231500,6.4012314453125,-1.6251351833343506,2.007647752761841,0.22458277642726898
1782986280297306600,6.411306640625,-0.9241938591003418,1.7113525867462158,0.0935928001999855
1782986280307380500,6.42138037109375,-0.026072880253195763,0.9820576906204224,0.20877984166145325
1782986280317454600,6.43145458984375,0.7586166262626648,0.3070656657218933,0.6084191203117371
1782986280327529500,6.441529541015625,1.2008979320526123,-0.2539398670196533,1.0660537481307983
1782986280337603600,6.451603515625,1.2990790605545044,-0.7496566772460938,1.2768558263778687
1782986280347677400,6.461677490234375,1.240609884262085,-1.1788631677627563,1.183451771736145
1782986280357752600,6.471752685546875,1.0899732112884521,-2.1798317432403564,0.6852526664733887
1782986280367826400,6.481826416015625,0.7423034310340881,-3.389936685562134,-0.3396443724632263
1782986280377900500,6.491900634765625,0.22020001709461212,-3.2958898544311523,-1.5756994485855103
1782986280387975400,6.501975341796875,-0.2001381516456604,-1.778199553489685,-2.6220738887786865
1782986280398049500,6.512049560546875,-0.2617160379886627,0.17533080279827118,-3.2392287254333496
1782986280408124400,6.52212451171875,0.059170912951231,1.61510169506073,-3.3400580883026123
1782986280418198500,6.532198486328125,0.5401607155799866,1.9294990301132202,-3.0834569931030273
1782986280428272400,6.5422724609375,0.8892425298690796,1.2563302516937256,-2.629645347595215
1782986280438347500,6.552347412109375,0.7301620841026306,0.2946484088897705,-2.3676042556762695
1782986280448421400,6.56242138671875,-0.029983997344970703,-0.5659630298614502,-2.7148783206939697
1782986280458495700,6.572495849609375,-1.0322623252868652,-1.3547875881195068,-3.612969160079956
1782986280468570400,6.5825703125,-1.7139867544174194,-1.727296233177185,-4.543641567230225
1782986280478644700,6.592644775390625,-1.8459194898605347,-1.4896225929260254,-5.027004718780518
1782986280488718600,6.602718505859375,-1.5795000791549683,-1.1329009532928467,-5.067586421966553
1782986280498793700,6.612793701171875,-1.0106347799301147,-0.7251633405685425,-4.567594051361084
1782986280508867600,6.62286767578125,-0.24790167808532715,0.08015449345111847,-3.3941948413848877
1782986280518941700,6.632941650390625,0.3754332661628723,1.0521336793899536,-1.7927606105804443
1782986280529016600,6.6430166015625,0.5906696915626526,1.5291849374771118,-0.26602476835250854
1782986280539090700,6.653090576171875,0.4563848376274109,1.4235509634017944,0.9001787900924683
1782986280549164500,6.66316455078125,0.13185256719589233,1.0251116752624512,1.6429048776626587
1782986280559239700,6.67323974609375,-0.27488216757774353,0.581900417804718,1.990380048751831
1782986280569313500,6.6833134765625,-0.687400221824646,0.27090340852737427,2.0410780906677246
1782986280579387400,6.693387451171875,-1.0264861583709717,0.11485547572374344,1.8832820653915405
1782986280589462500,6.703462646484375,-1.1825979948043823,0.15171043574810028,1.5918035507202148
1782986280599536400,6.713536376953125,-1.1556856632232666,0.307870477437973,1.2107359170913696
1782986280609610500,6.723610595703125,-0.9946864247322083,0.5238893032073975,0.7592517733573914
1782986280619685400,6.733685302734375,-0.7722970247268677,0.7393278479576111,0.2916070818901062
1782986280629759500,6.743759521484375,-0.5519004464149475,0.8779041171073914,-0.12337146699428558
1782986280639834600,6.753834716796875,-0.3877248167991638,0.9083136916160583,-0.4153340756893158
1782986280649908500,6.763908447265625,-0.29988765716552734,0.8806858062744141,-0.5755466818809509
1782986280659982300,6.773982421875,-0.24961276352405548,0.8581416010856628,-0.6110247373580933
1782986280670057700,6.7840576171875,-0.17593374848365784,0.888240396976471,-0.5378842353820801
1782986280680131600,6.794131591796875,-0.07813528180122375,0.9422836303710938,-0.3723839521408081
1782986280690205700,6.804205810546875,0.01678270846605301,1.025496006011963,-0.16162005066871643
1782986280700280600,6.814280517578125,0.06258801370859146,1.1139824390411377,0.09569163620471954
1782986280710354700,6.824354736328125,0.031491346657276154,1.1824663877487183,0.36972159147262573
1782986280720428800,6.8344287109375,-0.05877703055739403,1.1983455419540405,0.6438820362091064
1782986280730503700,6.844503662109375,-0.16970834136009216,1.1617491245269775,0.9181509017944336
1782986280740577800,6.854577880859375,-0.23838354647159576,1.090211272239685,1.1761631965637207
1782986280750652000,6.86465185546875,-0.22876739501953125,0.9803852438926697,1.3584926128387451
1782986280760726800,6.874726806640625,-0.16025198996067047,0.8406262397766113,1.4529783725738525
1782986280770801000,6.88480078125,-0.05341795086860657,0.6782123446464539,1.49211585521698
1782986280780874800,6.894874755859375,0.04254825785756111,0.4804590344429016,1.4890918731689453
1782986280790950000,6.904949951171875,0.09632600098848343,0.2517145276069641,1.4327188730239868
1782986280801023700,6.915023681640625,0.12004757672548294,0.06734415143728256,1.3408970832824707
1782986280811099000,6.925098876953125,0.12001215666532516,-0.016634104773402214,1.2102943658828735
1782986280821172700,6.9351728515625,0.09644398093223572,-0.0007816377910785377,1.055464506149292
1782986280831246800,6.945246826171875,0.022650184109807014,0.07976939529180527,0.8810999393463135
1782986280841321700,6.95532177734375,-0.11510182172060013,0.1866558939218521,0.6253328323364258
1782986280851395800,6.965395751953125,-0.1729576587677002,0.23391102254390717,0.38835784792900085
1782986280861469700,6.9754697265625,-0.07818534970283508,-0.05730030685663223,0.25531113147735596
1782986280871544800,6.985544921875,0.17338882386684418,-0.5859686732292175,0.40528252720832825
1782986280881618700,6.99561865234375,0.6632623672485352,-0.7422658801078796,1.0369256734848022
1782986280891692500,7.005692626953125,1.2348284721374512,-0.7809549570083618,1.9060044288635254
1782986280901767700,7.015767578125,1.5911329984664917,-1.1389620304107666,2.5070221424102783
1782986280911841500,7.025841552734375,1.6580073833465576,-1.5725390911102295,2.6726725101470947
1782986280921915600,7.03591552734375,1.4132846593856812,-2.166658639907837,2.3364923000335693
1782986280931990500,7.045990478515625,0.8735021948814392,-2.7790863513946533,1.5640510320663452
1782986280942064600,7.056064697265625,0.2248608022928238,-2.3956797122955322,0.6607430577278137
1782986280952138800,7.066138671875,-0.3023390769958496,-1.1157732009887695,-0.22468504309654236
1782986280962213600,7.076213623046875,-0.5715010762214661,0.41034066677093506,-0.917689859867096
1782986280972287700,7.086287841796875,-0.5192713737487793,1.5626752376556396,-1.1464266777038574
1782986280982361900,7.09636181640625,-0.2799232602119446,1.6914329528808594,-0.9175466299057007
1782986280992436700,7.106436767578125,-0.08815356343984604,0.6469561457633972,-0.4577673077583313
1782986281002510800,7.1165107421875,-0.026687270030379295,-0.9588772654533386,0.11804301291704178
1782986281012585700,7.126585693359375,-0.07024487107992172,-2.488424301147461,0.615670382976532
1782986281022659800,7.136659912109375,-0.17763391137123108,-3.4448299407958984,0.7461298704147339
1782986281032733700,7.146733642578125,-0.3580537438392639,-3.4970364570617676,0.3188821077346802
1782986281042808800,7.156808837890625,-0.5954229235649109,-2.902904748916626,-0.651913046836853
1782986281052882700,7.166882568359375,-0.7742757201194763,-1.849402666091919,-1.7766155004501343
1782986281062956800,7.176956787109375,-0.781612753868103,-0.6447017788887024,-2.567446708679199
1782986281073031700,7.18703173828125,-0.6597190499305725,0.20537924766540527,-2.9412972927093506
1782986281083105800,7.197105712890625,-0.46905431151390076,0.5280872583389282,-2.8973283767700195
1782986281093179600,7.2071796875,-0.18913929164409637,0.7534282207489014,-2.290452241897583
1782986281103254800,7.2172548828125,0.057908039540052414,0.7428192496299744,-1.2394524812698364
1782986281113328600,7.22732861328125,0.10664469003677368,0.4124309718608856,-0.06028464436531067
1782986281123402800,7.23740283203125,0.023427827283740044,0.0388810858130455,0.9974201321601868
1782986281133477600,7.2474775390625,-0.10472294688224792,-0.2822740375995636,1.7253190279006958
1782986281143551700,7.2575517578125,-0.23598909378051758,-0.46172288060188293,2.07767915725708
1782986281153625600,7.26762548828125,-0.3499087393283844,-0.46270880103111267,2.1100914478302
1782986281163700700,7.27770068359375,-0.4029400050640106,-0.25223517417907715,1.8531131744384766
1782986281173774600,7.287774658203125,-0.3714369237422943,0.09693560004234314,1.3546274900436401
1782986281183848700,7.2978486328125,-0.2733441889286041,0.4669775664806366,0.7193182110786438
1782986281193923600,7.307923583984375,-0.15767617523670197,0.755845844745636,0.08981350809335709
1782986281203998000,7.317998046875,-0.06237629055976868,0.8544568419456482,-0.45391637086868286
1782986281214071800,7.32807177734375,0.002734267385676503,0.775484025478363,-0.8468202352523804
1782986281224147000,7.33814697265625,0.04981016740202904,0.6686124205589294,-1.0031245946884155
1782986281234220800,7.348220703125,0.07598771154880524,0.6076183319091797,-0.9382167458534241
1782986281244296000,7.3582958984375,0.060627128928899765,0.5324609875679016,-0.7523941397666931
1782986281254369800,7.368369873046875,0.016281235963106155,0.42452386021614075,-0.5020415186882019
1782986281264443600,7.378443603515625,-0.03796043246984482,0.3794509172439575,-0.222996324300766
1782986281274518800,7.388518798828125,-0.08652131259441376,0.45395949482917786,0.07481645047664642
1782986281284592600,7.398592529296875,-0.14702193439006805,0.6133853793144226,0.35535356402397156
1782986281294666800,7.408666748046875,-0.22973252832889557,0.8309853672981262,0.6113885641098022
1782986281304741600,7.41874169921875,-0.3060864210128784,1.0693795680999756,0.816879391670227
1782986281314815700,7.428815673828125,-0.3288585841655731,1.246436595916748,0.9989312291145325
1782986281324889600,7.4388896484375,-0.2961600124835968,1.314807415008545,1.169023036956787
1782986281334964700,7.44896484375,-0.2332705408334732,1.25974440574646,1.3187224864959717
1782986281345038600,7.45903857421875,-0.14455825090408325,1.0741010904312134,1.448334813117981
1782986281355112700,7.46911279296875,-0.05668804794549942,0.7743540406227112,1.5179283618927002
1782986281365187600,7.4791875,0.01258130557835102,0.4153098464012146,1.5140315294265747
1782986281375261700,7.48926171875,0.035769980400800705,0.13733841478824615,1.401641607284546
1782986281385335800,7.499335693359375,0.022946860641241074,0.01847807690501213,1.1961106061935425
1782986281395410700,7.50941064453125,0.007244863547384739,0.032580845057964325,0.9534356594085693
1782986281405484800,7.51948486328125,0.015014901757240295,0.11970988661050797,0.7325394749641418
1782986281415559000,7.529558837890625,0.05783000960946083,0.2535795271396637,0.5523617267608643
1782986281425633800,7.5396337890625,0.22681556642055511,0.20534808933734894,0.4266711473464966
1782986281435708000,7.5497080078125,0.5446680784225464,-0.12315016239881516,0.331930011510849
1782986281445782800,7.55978271484375,0.9022667407989502,-0.5197398662567139,0.30761879682540894
1782986281455857000,7.56985693359375,1.1050992012023926,-0.6167353987693787,0.43226778507232666
1782986281465930800,7.5799306640625,1.0153735876083374,-0.6228787302970886,0.5794380903244019
1782986281476006000,7.590005859375,0.6681767106056213,-0.8382073044776917,0.6201074719429016
1782986281486079700,7.600079833984375,0.25239497423171997,-1.0371291637420654,0.6026189923286438
1782986281496153900,7.61015380859375,-0.03474040329456329,-1.3752379417419434,0.4125518798828125
1782986281506228700,7.620228759765625,-0.19105331599712372,-1.83884859085083,-0.06998787075281143
1782986281516302800,7.630302734375,-0.28742966055870056,-1.5023887157440186,-0.6135403513908386
1782986281526376700,7.640376708984375,-0.34481731057167053,-0.32870998978614807,-1.058682918548584
1782986281536451800,7.650451904296875,-0.3174237608909607,0.8312572836875916,-1.377419352531433
1782986281546525700,7.660525634765625,-0.2109047770500183,1.2042255401611328,-1.466871738433838
1782986281556599800,7.670599853515625,-0.1399722844362259,0.6277787089347839,-1.3102526664733887
1782986281566674700,7.6806748046875,-0.1403946578502655,-0.5619624257087708,-0.930165708065033
1782986281576748800,7.690748779296875,-0.13798929750919342,-1.8971214294433594,-0.376950204372406
1782986281586822700,7.70082275390625,-0.08786913752555847,-3.021256446838379,0.1459265798330307
1782986281596897800,7.710897705078125,-0.03554787486791611,-3.6847944259643555,0.4358289837837219
1782986281606971600,7.7209716796875,-0.03935592621564865,-3.803250789642334,0.4230250120162964
1782986281617045800,7.731045654296875,-0.09138504415750504,-3.325188636779785,0.15471234917640686
1782986281627120600,7.74112060546875,-0.16874347627162933,-2.375500440597534,-0.21249282360076904
1782986281637194800,7.75119482421875,-0.23384657502174377,-1.2063379287719727,-0.4698077142238617
1782986281647269600,7.76126953125,-0.27727076411247253,-0.17816761136054993,-0.5732491612434387
1782986281657343700,7.77134375,-0.3171688914299011,0.4021964371204376,-0.642114520072937
1782986281667417900,7.78141796875,-0.3412550687789917,0.49066346883773804,-0.7422043681144714
1782986281677492500,7.791492431640625,-0.3491649031639099,0.36692020297050476,-0.810093104839325
1782986281687566600,7.801566650390625,-0.32287338376045227,0.27946385741233826,-0.7802891731262207
1782986281697640400,7.811640380859375,-0.3162730038166046,0.201775461435318,-0.6614059209823608
1782986281707715600,7.821715576171875,-0.330890029668808,0.034877289086580276,-0.5201244354248047
1782986281717789400,7.83178955078125,-0.33965930342674255,-0.24619272351264954,-0.4060777425765991
1782986281727863600,7.841863525390625,-0.29433122277259827,-0.5223609209060669,-0.33606669306755066
1782986281737938400,7.8519384765625,-0.21238310635089874,-0.6494163274765015,-0.33695194125175476
1782986281748012500,7.862012451171875,-0.09804028272628784,-0.6354118585586548,-0.3926689922809601
1782986281758086400,7.87208642578125,0.0548829548060894,-0.5468454957008362,-0.4942363500595093
1782986281768161500,7.88216162109375,0.2244328409433365,-0.36603844165802,-0.5820894837379456
1782986281778235400,7.8922353515625,0.36865872144699097,-0.08483419567346573,-0.5970178842544556
1782986281788309500,7.9023095703125,0.46610191464424133,0.2383345365524292,-0.5101050734519958
1782986281798384400,7.91238427734375,0.5099884271621704,0.5105125308036804,-0.33768776059150696
1782986281808458500,7.92245849609375,0.5092403292655945,0.6614338755607605,-0.12616485357284546
1782986281818532400,7.932532470703125,0.45336535573005676,0.691217839717865,0.09033042937517166
1782986281828607500,7.942607421875,0.34509241580963135,0.7241957783699036,0.3147275745868683
1782986281838681300,7.952681396484375,0.2219845950603485,0.8359231352806091,0.5628689527511597
1782986281848755700,7.962755615234375,0.08820789307355881,0.964982271194458,0.7953237295150757
1782986281858830300,7.972830322265625,-0.050455182790756226,1.0087388753890991,0.9799513816833496
1782986281868904700,7.98290478515625,-0.18574190139770508,0.9912735819816589,1.1360440254211426
1782986281878979300,7.992979248046875,-0.29076072573661804,1.0005285739898682,1.292465090751648
1782986281889053700,8.0030537109375,-0.3736971616744995,1.052018642425537,1.4629569053649902
1782986281899127600,8.01312744140625,-0.4609236717224121,1.1158850193023682,1.5971161127090454
1782986281909201400,8.023201416015626,-0.5570020079612732,1.1472409963607788,1.6190881729125977
1782986281919276500,8.033276611328125,-0.6390420198440552,1.1231945753097534,1.4902132749557495
1782986281929350400,8.043350341796875,-0.6459143161773682,1.117685317993164,1.2565758228302002
1782986281939424500,8.053424560546874,-0.5502372980117798,1.1785550117492676,0.9561570882797241
1782986281949499600,8.063499755859375,-0.411206990480423,1.2294807434082031,0.5751639604568481
1782986281959573500,8.073573486328126,-0.2832828462123871,1.2317761182785034,0.13544757664203644
1782986281969647400,8.0836474609375,-0.17848186194896698,1.2810842990875244,-0.23468175530433655
1782986281979722500,8.093722412109376,-0.05690722540020943,1.471787452697754,-0.40860825777053833
1782986281989796400,8.10379638671875,0.10530485212802887,1.7780972719192505,-0.375754714012146
1782986281999870500,8.113870361328125,0.2918321192264557,2.1397769451141357,-0.16031350195407867
1782986282009945300,8.1239453125,0.5231170058250427,2.251688241958618,0.14289617538452148
1782986282020019500,8.13401953125,0.827051043510437,1.6770058870315552,0.43279269337654114
1782986282030093300,8.14409326171875,1.1620264053344727,0.45508575439453125,0.7339802384376526
1782986282040168400,8.15416845703125,1.3626071214675903,-0.693310022354126,1.1373727321624756
1782986282050242300,8.1642421875,1.3143397569656372,-1.0813137292861938,1.6605091094970703
1782986282060317400,8.1743173828125,1.0325696468353271,-0.7613663077354431,2.1252596378326416
1782986282070391300,8.184391357421875,0.7419707775115967,-0.2695276141166687,2.1770401000976562
1782986282080465700,8.194465576171876,0.7345855832099915,0.10724709182977676,1.8621525764465332
1782986282090540300,8.204540283203125,1.0502407550811768,0.40897098183631897,1.4291726350784302
1782986282100614700,8.21461474609375,1.421420931816101,0.3409482538700104,0.7144017219543457
1782986282110688500,8.2246884765625,1.595151424407959,-0.3218669891357422,-0.3586340546607971
1782986282120763600,8.234763671875,1.5053789615631104,-0.7437660098075867,-1.2091888189315796
1782986282130837500,8.24483740234375,1.1524566411972046,-0.7514535188674927,-1.43398118019104
1782986282140911600,8.25491162109375,0.6031215786933899,-0.6565557718276978,-1.1352038383483887
1782986282150986500,8.264986572265625,-0.0291789248585701,-0.6531466245651245,-0.567995548248291
1782986282161060600,8.275060546875,-0.591610848903656,-0.8649172186851501,-0.06138746067881584
1782986282171134500,8.285134521484375,-0.9382867813110352,-1.1286886930465698,0.16096651554107666
1782986282181209600,8.295209716796874,-0.9551608562469482,-1.1351308822631836,0.07177644968032837
1782986282191283500,8.305283447265625,-0.6737456917762756,-0.742101788520813,-0.2533814013004303
1782986282201357600,8.315357666015625,-0.23339863121509552,-0.07902397960424423,-0.6172533631324768
1782986282211432400,8.325432373046874,0.1393938511610031,0.5712912082672119,-0.9018853306770325
1782986282221506600,8.335506591796875,0.33618679642677307,1.0551910400390625,-1.0079870223999023
1782986282231581400,8.34558154296875,0.41694876551628113,1.3276408910751343,-0.8731357455253601
1782986282241656600,8.355656494140625,0.4224119782447815,1.3162678480148315,-0.5158084630966187
1782986282251730400,8.36573046875,0.3567647933959961,1.06441330909729,-0.044206343591213226
1782986282261804500,8.375804443359375,0.23124787211418152,0.7017879486083984,0.4420218765735626
1782986282271879400,8.38587939453125,0.060444969683885574,0.33530449867248535,0.8083761930465698
1782986282281953500,8.39595361328125,-0.08270233869552612,0.007714378647506237,0.984917402267456
1782986282292027400,8.40602734375,-0.14163143932819366,-0.21230453252792358,0.9506449103355408
1782986282302102500,8.4161025390625,-0.12295415252447128,-0.3006064295768738,0.7263084650039673
1782986282312176400,8.42617626953125,-0.034682080149650574,-0.23717473447322845,0.36680328845977783
1782986282322250500,8.43625048828125,0.06309587508440018,-0.11630610376596451,-0.09268999099731445
1782986282332325400,8.446325439453124,0.06055042892694473,-0.05893069505691528,-0.5959062576293945
1782986282342399500,8.4563994140625,0.013515275903046131,0.031125161796808243,-1.049487829208374
1782986282352474400,8.466474365234374,-0.055568188428878784,0.26973026990890503,-1.3519678115844727
1782986282362548500,8.476548583984375,-0.15642821788787842,0.6386747360229492,-1.4809924364089966
1782986282372622600,8.48662255859375,-0.30489757657051086,0.9069701433181763,-1.4527010917663574
1782986282382697500,8.496697509765625,-0.48042041063308716,0.9251075983047485,-1.3273626565933228
1782986282392771600,8.506771484375,-0.6150307059288025,0.7562815546989441,-1.1450750827789307
1782986282402845400,8.516845458984376,-0.6617321372032166,0.5944681763648987,-0.9129641056060791
1782986282412920600,8.526920654296875,-0.6252346038818359,0.5301722288131714,-0.6454511880874634
1782986282422994400,8.536994384765626,-0.5316385626792908,0.5300287008285522,-0.3382861614227295
1782986282433068500,8.547068603515624,-0.4015261232852936,0.5238807797431946,-0.005858155433088541
1782986282443143700,8.557143798828125,-0.26392513513565063,0.45489588379859924,0.3307174742221832
1782986282453217500,8.567217529296874,-0.1505008190870285,0.3611108064651489,0.6094910502433777
1782986282463291400,8.57729150390625,-0.0746566578745842,0.2573396563529968,0.8193880915641785
1782986282473366500,8.587366455078126,-0.040586307644844055,0.12015650421380997,0.9878572821617126
1782986282483440400,8.5974404296875,-0.06905204057693481,-0.02034015953540802,1.0987962484359741
1782986282493514500,8.607514404296875,-0.12634995579719543,-0.1524398773908615,1.1910170316696167
1782986282503589400,8.61758935546875,-0.18384413421154022,-0.29707375168800354,1.2827563285827637
1782986282513663500,8.62766357421875,-0.27208849787712097,-0.26039963960647583,1.3284484148025513
1782986282523737300,8.6377373046875,-0.4096487760543823,0.09052564203739166,1.2959799766540527
1782986282533812500,8.6478125,-0.5371148586273193,0.5932079553604126,1.1269831657409668
1782986282543886300,8.65788623046875,-0.5750648975372314,1.011308193206787,0.8030219078063965
1782986282553961500,8.66796142578125,-0.4685019552707672,1.235734462738037,0.3890569508075714
1782986282564035300,8.678035400390625,-0.1663690060377121,1.2441960573196411,0.024990838021039963
1782986282574109400,8.688109375,0.38462942838668823,1.0263625383377075,-0.0916428342461586
1782986282584184300,8.698184326171875,1.1029002666473389,0.39286819100379944,0.01672225445508957
1782986282594258400,8.708258544921875,1.6719826459884644,-0.5924025774002075,0.20491373538970947
1782986282604332500,8.71833251953125,1.8227087259292603,-1.3989750146865845,0.3902156949043274
1782986282614407400,8.728407470703125,1.5263899564743042,-1.4766119718551636,0.5451890230178833
1782986282624481500,8.7384814453125,1.0567848682403564,-1.0309115648269653,0.5663193464279175
1782986282634555600,8.7485556640625,0.756729781627655,-0.9425022602081299,0.3009566366672516
1782986282644630500,8.758630615234376,0.7669442892074585,-1.6301968097686768,-0.4481141269207001
1782986282654704600,8.76870458984375,0.9603303074836731,-2.0227198600769043,-1.399325966835022
1782986282664778500,8.778778564453125,1.1992003917694092,-1.317708969116211,-2.0509212017059326
1782986282674853400,8.788853271484374,1.4058880805969238,-0.09302927553653717,-2.3143486976623535
1782986282684927500,8.798927490234375,1.5357621908187866,0.9222905039787292,-2.2832577228546143
1782986282695001300,8.80900146484375,1.559714674949646,1.3776673078536987,-2.086510181427002
1782986282705076500,8.819076416015625,1.3326865434646606,1.182388424873352,-1.775044560432434
1782986282715150300,8.829150390625,0.7929298281669617,0.3954967260360718,-1.4889187812805176
1782986282725224200,8.83922412109375,0.04657309502363205,-0.6881901025772095,-1.363651156425476
1782986282735299300,8.84929931640625,-0.7015642523765564,-1.5811821222305298,-1.591774821281433
1782986282745373200,8.859373291015626,-1.14138662815094,-1.9816595315933228,-2.1095948219299316
1782986282755448300,8.8694482421875,-1.0589367151260376,-1.8548389673233032,-2.648155689239502
1782986282765522400,8.8795224609375,-0.4309798777103424,-1.1603411436080933,-2.8632826805114746
1782986282775596300,8.88959619140625,0.44918394088745117,-0.1502496898174286,-2.6254005432128906
1782986282785671400,8.89967138671875,1.2386095523834229,0.7354289889335632,-2.0123891830444336
1782986282795745300,8.909745361328126,1.7237019538879395,1.236048936843872,-1.1625545024871826
1782986282805819400,8.9198193359375,1.7798144817352295,1.3774305582046509,-0.2717694640159607
1782986282815894300,8.929894287109375,1.5287621021270752,1.2051969766616821,0.5171536803245544
1782986282825968400,8.939968505859374,1.1258292198181152,0.8016341328620911,1.0858412981033325
1782986282836042500,8.95004248046875,0.6649969220161438,0.2686527669429779,1.4134373664855957
1782986282846117400,8.960117431640626,0.2548147141933441,-0.27391570806503296,1.478366494178772
1782986282856191500,8.97019140625,-0.04333681985735893,-0.6276828050613403,1.2778019905090332
1782986282866265300,8.980265380859375,-0.17653030157089233,-0.5633954405784607,0.894071638584137
1782986282876340500,8.990340576171874,-0.13942234218120575,-0.04673980921506882,0.4261915385723114
1782986282886414300,9.000414306640625,0.03488368168473244,0.6750058531761169,-0.05928516015410423
1782986282896488400,9.010488525390626,0.2874016761779785,1.3128163814544678,-0.5244256854057312
1782986282906563300,9.020563232421875,0.5708368420600891,1.7381680011749268,-0.879349946975708
1782986282916637400,9.030637451171875,0.7999022603034973,1.9434891939163208,-1.0436211824417114
1782986282926711300,9.040711181640624,0.9152927994728088,1.9395674467086792,-1.010711431503296
1782986282936786400,9.050786376953125,0.8957510590553284,1.7572764158248901,-0.8192248344421387
1782986282946860300,9.0608603515625,0.7611514329910278,1.4541059732437134,-0.5071750283241272
1782986282956935400,9.070935302734375,0.5968018770217896,1.146456241607666,-0.15109896659851074
1782986282967009300,9.08100927734375,0.4638560712337494,0.8981590867042542,0.18784314393997192
1782986282977083400,9.09108349609375,0.4004400968551636,0.792828381061554,0.48834651708602905
1782986282987158300,9.101158203125,0.39855697751045227,0.872032105922699,0.7821328639984131
1782986282997232400,9.111232421875,0.4226441979408264,1.0549465417861938,1.0715845823287964
1782986283007306200,9.12130615234375,0.45346975326538086,1.219998836517334,1.3486647605895996
1782986283017381400,9.13138134765625,0.5069329738616943,1.292848825454712,1.5482470989227295
1782986283027455200,9.141455322265625,0.5774636268615723,1.2571436166763306,1.6616239547729492
1782986283037529300,9.151529296875,0.6255552172660828,1.0844378471374512,1.6719127893447876
1782986283047604200,9.161604248046874,0.5940210223197937,0.8103296160697937,1.5741119384765625
1782986283057678300,9.17167822265625,0.47334253787994385,0.6028478145599365,1.4476184844970703
1782986283067752400,9.18175244140625,0.34701254963874817,0.5884200930595398,1.2889041900634766
1782986283077827300,9.191827392578125,0.3057734966278076,0.7879931330680847,1.0656037330627441
1782986283087901400,9.2019013671875,0.40338581800460815,1.1716758012771606,0.7870399951934814
1782986283097975300,9.211975341796874,0.5950194001197815,1.5793246030807495,0.5019278526306152
1782986283108050400,9.222050537109375,0.8693093061447144,1.8685451745986938,0.3719855546951294
1782986283118124300,9.232124267578126,1.1595560312271118,2.0461955070495605,0.49048370122909546
1782986283128198400,9.242198486328125,1.3578917980194092,1.8626090288162231,0.7922427654266357
1782986283138273500,9.2522734375,1.4007012844085693,1.0028895139694214,1.0754622220993042
1782986283148347400,9.262347412109374,1.2206308841705322,-0.2996796667575836,1.1959388256072998
1782986283158421200,9.272421142578125,0.917380690574646,-1.2587177753448486,1.2104442119598389
1782986283168496400,9.282496337890626,0.6164194941520691,-1.3431833982467651,1.136096477508545
1782986283178570200,9.2925703125,0.4974276125431061,-1.0243550539016724,0.8606896996498108
1782986283188645400,9.302645263671875,0.730514645576477,-0.9650829434394836,0.2957826554775238
1782986283198719200,9.31271923828125,1.1803460121154785,-1.3799093961715698,-0.5871870517730713
1782986283208793300,9.32279345703125,1.5906009674072266,-2.085484743118286,-1.586183786392212
1782986283218868200,9.3328681640625,1.8719470500946045,-2.55084490776062,-2.274092674255371
1782986283228942300,9.3429423828125,2.0590200424194336,-2.649318218231201,-2.406363010406494
1782986283239016200,9.35301611328125,2.2025349140167236,-2.5649960041046143,-2.111607313156128
1782986283249091300,9.36309130859375,2.2960174083709717,-2.551548480987549,-1.687110185623169
1782986283259165200,9.373165283203125,2.2863316535949707,-2.580134391784668,-1.3521422147750854
1782986283269239600,9.383239501953126,2.160989999771118,-2.5557124614715576,-1.1958926916122437
1782986283279314200,9.393314208984375,1.9194986820220947,-2.339750051498413,-1.2137593030929565
1782986283289388500,9.403388427734376,1.5506255626678467,-1.8058443069458008,-1.3355276584625244
1782986283299462400,9.41346240234375,1.1048206090927124,-0.9859232902526855,-1.431898593902588
1782986283309537500,9.42353759765625,0.6254143714904785,-0.044606082141399384,-1.4332189559936523
1782986283319611400,9.433611328125,0.20291583240032196,0.8311067819595337,-1.3649121522903442
1782986283329685500,9.443685546875,-0.0967601016163826,1.4487109184265137,-1.2717413902282715
1782986283339760400,9.453760498046876,-0.23491956293582916,1.7204662561416626,-1.1644471883773804
1782986283349834500,9.46383447265625,-0.23714730143547058,1.680863380432129,-1.0226466655731201
1782986283359908400,9.473908447265625,-0.15537254512310028,1.4727370738983154,-0.8317155838012695
1782986283369983500,9.4839833984375,-0.03708265349268913,1.1784013509750366,-0.5872350335121155
1782986283380057300,9.494057373046875,0.07518689334392548,0.8934867978096008,-0.32893049716949463
1782986283390132500,9.504132568359376,0.09971221536397934,0.6535179018974304,-0.14815351366996765
1782986283400206300,9.514206298828125,0.024322116747498512,0.4918978214263916,-0.050753723829984665
1782986283410280400,9.524280517578125,-0.11392150819301605,0.35472771525382996,-0.03585626929998398
1782986283420355300,9.534355224609374,-0.24946682155132294,0.1845296323299408,-0.08745874464511871
1782986283430429400,9.544429443359375,-0.3458647131919861,0.05369118973612785,-0.15900909900665283
1782986283440503300,9.55450341796875,-0.4055778682231903,0.032516930252313614,-0.20521840453147888
1782986283450578400,9.564578369140625,-0.44772106409072876,0.09831485152244568,-0.21152955293655396
1782986283460652300,9.57465234375,-0.4758237898349762,0.1965753734111786,-0.17529910802841187
1782986283470726100,9.58472607421875,-0.49596846103668213,0.2630620002746582,-0.10215512663125992
1782986283480801300,9.59480126953125,-0.5227748155593872,0.2472500056028366,0.007736483123153448
1782986283490875100,9.604875244140626,-0.551258385181427,0.16493569314479828,0.15913079679012299
1782986283500949500,9.614949462890625,-0.6072406768798828,0.06958972662687302,0.3053220808506012
1782986283511024400,9.6250244140625,-0.6654720306396484,0.018972625955939293,0.436646044254303
1782986283521098500,9.635098388671874,-0.6844222545623779,0.03564215078949928,0.5623389482498169
1782986283531172400,9.64517236328125,-0.6829548478126526,0.11651116609573364,0.6834238767623901
1782986283541247500,9.65524755859375,-0.7094205617904663,0.256093829870224,0.7834298014640808
1782986283551321300,9.6653212890625,-0.7380167841911316,0.48650094866752625,0.8958303928375244
1782986283561395500,9.6753955078125,-0.7367672324180603,0.7655791640281677,1.0056400299072266
1782986283571470300,9.68547021484375,-0.6726215481758118,0.9717318415641785,1.079505443572998
1782986283581544400,9.69554443359375,-0.5758457183837891,0.9689708948135376,1.1200001239776611
1782986283591618300,9.705618408203126,-0.4696039855480194,0.7880181670188904,1.1578936576843262
1782986283601693400,9.715693359375,-0.3809286952018738,0.6123994588851929,1.2208760976791382
1782986283611767300,9.725767333984376,-0.3464096188545227,0.6439318656921387,1.2562311887741089
1782986283621841400,9.73584130859375,-0.3854965567588806,0.785652756690979,1.17192804813385
1782986283631916300,9.745916259765625,-0.41712239384651184,0.7611743211746216,0.9440791606903076
1782986283641990400,9.755990478515624,-0.22489117085933685,0.51412433385849,0.7673975825309753
1782986283652065300,9.766065185546875,0.34119755029678345,0.3030994236469269,0.8161142468452454
1782986283662139400,9.776139404296876,1.1243951320648193,0.36901718378067017,1.1762628555297852
1782986283672213500,9.786213623046875,1.7975431680679321,0.6037423610687256,1.7121890783309937
1782986283682288600,9.79628857421875,2.1317806243896484,0.4712687134742737,2.1742568016052246
1782986283692362500,9.806362548828124,1.997274398803711,-0.45297306776046753,2.3283064365386963
1782986283702436600,9.8164365234375,1.48942232131958,-1.971440076828003,2.0985958576202393
1782986283712511500,9.826511474609376,0.9691240191459656,-2.953000545501709,1.6753562688827515
1782986283722585600,9.836585693359375,0.6811285018920898,-2.805992364883423,1.1261287927627563
1782986283732659500,9.846659423828125,0.5888954997062683,-2.0059990882873535,0.2894222140312195
1782986283742734600,9.856734619140624,0.5966993570327759,-1.2625913619995117,-1.033930778503418
1782986283752808400,9.866808349609375,0.7231733798980713,-0.7359158396720886,-2.457843780517578
1782986283762882800,9.8768828125,0.9492459297180176,-0.043236687779426575,-3.24417781829834
1782986283772957400,9.88695751953125,1.118958830833435,0.580330491065979,-3.1988284587860107
1782986283783031800,9.89703173828125,1.173268437385559,0.5129554271697998,-2.5001020431518555
1782986283793105700,9.907105712890624,1.0501235723495483,-0.2408221960067749,-1.5320947170257568
1782986283803180800,9.917180908203125,0.724460244178772,-1.143617033958435,-0.677312970161438
1782986283813254700,9.927254638671876,0.3427775800228119,-1.7209091186523438,-0.1278969794511795
1782986283823329800,9.937329833984375,0.06706185638904572,-1.6827630996704102,0.08800362795591354
1782986283833403600,9.947403564453126,-0.10645720362663269,-1.1569373607635498,0.08645952492952347
1782986283843477800,9.957477783203124,-0.26629960536956787,-0.45492836833000183,-0.0007131945458240807
1782986283853552600,9.967552734375,-0.2896887958049774,0.21941225230693817,-0.04663781076669693
1782986283863626800,9.977626708984374,-0.09139382839202881,0.7649996876716614,-0.022536734119057655
1782986283873700600,9.98770068359375,0.2026471197605133,1.0371710062026978,0.05524807423353195
1782986283883775700,9.997775634765626,0.4222966432571411,0.9148656129837036,0.10241398960351944
1782986283893849600,10.007849609375,0.50226229429245,0.5021664500236511,0.11429008841514587
1782986283903923700,10.017923828125,0.4225057065486908,0.08498306572437286,0.08100270479917526
1782986283913998600,10.02799853515625,0.2282712459564209,-0.11273400485515594,-0.014401310123503208
1782986283924072700,10.03807275390625,0.015281750820577145,-0.10004004836082458,-0.1558883935213089
1782986283934146600,10.048146484375,-0.1349458396434784,0.11461446434259415,-0.3218419551849365
1782986283944221700,10.0582216796875,-0.20977400243282318,0.49786704778671265,-0.4309830963611603
1782986283954295600,10.068295654296875,-0.26335015892982483,0.9896069765090942,-0.42859503626823425
1782986283964369700,10.07836962890625,-0.3097575902938843,1.4290781021118164,-0.31108251214027405
1782986283974444500,10.088444580078125,-0.36094939708709717,1.6305965185165405,-0.07460952550172806
1782986283984518700,10.0985185546875,-0.40033116936683655,1.56906259059906,0.23842774331569672
1782986283994592800,10.1085927734375,-0.4075739085674286,1.342902421951294,0.533770740032196
1782986284004667600,10.118667724609375,-0.34737393260002136,1.1387962102890015,0.7386887073516846
1782986284014741800,10.12874169921875,-0.18846897780895233,1.0192404985427856,0.8618431091308594
1782986284024815600,10.138815673828125,-0.00008362325752386823,0.9725019931793213,0.9124847650527954
1782986284034890800,10.148890869140626,0.13268667459487915,0.9977668523788452,0.8549841642379761
1782986284044964600,10.158964599609375,0.18286408483982086,1.0808625221252441,0.7377422451972961
1782986284055038700,10.169038818359375,0.15650704503059387,1.2070753574371338,0.6471508145332336
1782986284065113600,10.179113525390624,0.0345904678106308,1.374283790588379,0.6274937391281128
1782986284075187700,10.189187744140625,-0.11856712400913239,1.5680500268936157,0.7213131785392761
1782986284085262600,10.1992626953125,-0.19330580532550812,1.6361417770385742,0.8626708388328552
1782986284095336700,10.209336669921875,-0.16948649287223816,1.522588849067688,1.0146033763885498
1782986284105410600,10.21941064453125,-0.1420956254005432,1.3397564888000488,1.261082410812378
1782986284115485700,10.229485595703125,-0.08546057343482971,0.8913949131965637,1.3307632207870483
1782986284125559600,10.2395595703125,0.09176693856716156,0.43184781074523926,1.1907824277877808
1782986284135633700,10.249633544921876,0.2933969795703888,0.14016883075237274,0.9514166712760925
1782986284145708500,10.25970849609375,0.30905771255493164,0.30300381779670715,0.8452785611152649
1782986284155782700,10.26978271484375,0.09595928341150284,0.6009984612464905,0.8886957764625549
1782986284165856500,10.2798564453125,-0.15243081748485565,0.6420100927352905,0.9923766255378723
