time,seconds_elapsed,z,y,x
1782986401167140000,0.06414013671875,0.21422015130519867,0.6379919052124023,0.1905377209186554
1782986401177215000,0.074215087890625,0.18620848655700684,0.6435640454292297,0.3470546305179596
1782986401187289000,0.0842890625,0.1626507043838501,0.48601624369621277,0.4535467028617859
1782986401197363200,0.09436328125,0.1859877109527588,0.24496927857398987,0.4925633668899536
1782986401207438000,0.10443798828125,0.2401934266090393,0.009272327646613121,0.47920680046081543
1782986401217512200,0.11451220703125,0.3500176668167114,-0.06624666601419449,0.4154512584209442
1782986401227586000,0.1245859375,0.5156497955322266,-0.05157424509525299,0.33038535714149475
1782986401237661200,0.1346611328125,0.7450728416442871,-0.06543546169996262,0.29015833139419556
1782986401247735000,0.144735107421875,0.7927168011665344,-0.01756940595805645,0.17419922351837158
1782986401257809200,0.15480908203125,0.5905503630638123,0.09761018306016922,-0.18888922035694122
1782986401267884000,0.164884033203125,0.30484724044799805,0.19569972157478333,-0.7242863178253174
1782986401277958100,0.174958251953125,0.18881332874298096,0.7158132195472717,-1.319710612297058
1782986401288032000,0.185031982421875,0.45738857984542847,1.3406996726989746,-1.8336747884750366
1782986401298107100,0.195107177734375,0.7280855774879456,1.6833606958389282,-2.32560396194458
1782986401308181000,0.205180908203125,0.8181071281433105,1.4422519207000732,-2.5218193531036377
1782986401318255000,0.215255126953125,1.0325459241867065,0.9105454087257385,-2.0094504356384277
1782986401328330000,0.225330078125,1.460573673248291,0.667290449142456,-0.9226611852645874
1782986401338404000,0.235404052734375,1.607415795326233,0.3822381794452667,-0.11653833091259003
1782986401348478000,0.24547802734375,1.4057157039642334,-0.43495917320251465,-0.028384502977132797
1782986401358553000,0.255552978515625,1.2044974565505981,-1.0746906995773315,-0.46125975251197815
1782986401368627000,0.265626953125,1.2235240936279297,-0.7991530895233154,-1.1927403211593628
1782986401378701000,0.275701171875,1.4102191925048828,-0.4308757483959198,-1.977975845336914
1782986401388776000,0.28577587890625,1.8782063722610474,-0.1522981971502304,-2.5702028274536133
1782986401398850000,0.29585009765625,2.356436014175415,0.06114378198981285,-2.3441884517669678
1782986401408924200,0.305924072265625,2.5730342864990234,0.06582401692867279,-1.3780971765518188
1782986401418999300,0.315999267578125,2.3595035076141357,0.20611082017421722,0.06595771014690399
1782986401429073200,0.3260732421875,1.8779155015945435,0.30536124110221863,1.7988979816436768
1782986401439147000,0.33614697265625,1.5413899421691895,0.3172101676464081,3.2797060012817383
1782986401449222100,0.34622216796875,1.2766528129577637,0.35927852988243103,4.123219013214111
1782986401459296000,0.3562958984375,0.8090236186981201,0.017125990241765976,4.2805328369140625
1782986401469370000,0.3663701171875,-0.10793392360210419,-0.6287004351615906,3.889652729034424
1782986401479445000,0.376445068359375,-0.8807571530342102,-1.0291460752487183,3.276967763900757
1782986401489519000,0.38651904296875,-1.173890233039856,-0.6509753465652466,2.646373987197876
1782986401499593000,0.396593017578125,-1.1530590057373047,0.05059926211833954,2.0968339443206787
1782986401509668000,0.406668212890625,-0.7929122447967529,0.7059419751167297,1.466199278831482
1782986401519742000,0.416741943359375,-0.2337307333946228,0.6678768396377563,0.733116865158081
1782986401529816000,0.426816162109375,0.2746850848197937,-0.00019228023302275687,-0.010569287464022636
1782986401539891000,0.436890869140625,0.570090651512146,-0.7529235482215881,-0.30990299582481384
1782986401549965000,0.446965087890625,0.48230940103530884,-1.125632405281067,-0.17248468101024628
1782986401560039200,0.4570390625,0.10578422248363495,-1.1068603992462158,0.07123582810163498
1782986401570114000,0.467114013671875,-0.3801332116127014,-0.8261826038360596,0.22771598398685455
1782986401580188200,0.477188232421875,-0.7756155729293823,-0.3047173023223877,0.2565939724445343
1782986401590262300,0.48726220703125,-0.8878830075263977,0.002773149637505412,0.11599398404359818
1782986401600337200,0.497337158203125,-0.996734082698822,0.21708251535892487,-0.11469968408346176
1782986401610411300,0.507411376953125,-0.9336848258972168,0.18886232376098633,-0.08202642947435379
1782986401620485000,0.517485107421875,-0.7577782273292542,0.07284491509199142,-0.013050287961959839
1782986401630560300,0.527560302734375,-0.5437522530555725,-0.1199738085269928,0.12788845598697662
1782986401640634000,0.537634033203125,-0.33613139390945435,-0.22755220532417297,0.2074245661497116
1782986401650708200,0.547708251953125,-0.0858970656991005,-0.1378135234117508,0.2401912957429886
1782986401660783000,0.557783203125,0.13928598165512085,-0.40080493688583374,0.13141953945159912
1782986401670857200,0.567857177734375,0.1377996802330017,-1.027647852897644,-0.14439712464809418
1782986401680931000,0.57793115234375,-0.02756611444056034,-1.6950911283493042,-0.36689624190330505
1782986401691006200,0.588006103515625,-0.25644296407699585,-2.1279540061950684,-0.46371012926101685
1782986401701080000,0.598080078125,-0.35581082105636597,-1.7514054775238037,-0.5867271423339844
1782986401711154000,0.60815380859375,-0.23924720287322998,-0.7780523896217346,-0.7246381640434265
1782986401721229000,0.61822900390625,-0.05151725187897682,0.30859139561653137,-0.5818918943405151
1782986401731303000,0.628302978515625,-0.1251150369644165,0.8459621667861938,-0.3744108974933624
1782986401741377000,0.638376953125,-0.21821355819702148,0.491865336894989,-0.2132185399532318
1782986401751452000,0.648451904296875,-0.34674808382987976,-0.031188279390335083,-0.3356728255748749
1782986401761526000,0.658526123046875,-0.4624808132648468,-0.7650236487388611,-0.9404556751251221
1782986401771600100,0.66860009765625,-0.43054312467575073,-2.118023157119751,-1.82880437374115
1782986401781675000,0.678675048828125,-0.1353285312652588,-1.5104330778121948,-2.128509759902954
1782986401791749000,0.6887490234375,0.6984504461288452,1.057916283607483,-1.5135124921798706
1782986401801823000,0.698822998046875,0.8606220483779907,1.0069403648376465,-1.134351372718811
1782986401811898000,0.708898193359375,0.37182363867759705,0.3234582245349884,-0.6614701151847839
1782986401821972000,0.718971923828125,0.2391449362039566,-0.3782791197299957,-0.049074601382017136
1782986401832047000,0.729047119140625,0.32605454325675964,-0.3576148748397827,0.8187433481216431
1782986401842121000,0.739120849609375,0.5349145531654358,-0.5365042090415955,1.3759104013442993
1782986401852195000,0.749195068359375,0.6922799348831177,-0.9443313479423523,1.1529617309570312
1782986401862270000,0.75927001953125,0.5263450145721436,-1.415746808052063,0.19823426008224487
1782986401872344000,0.769343994140625,-0.051245078444480896,-1.2691328525543213,-0.7895691990852356
1782986401882418000,0.77941796875,-0.7443700432777405,-0.6817351579666138,-1.4005074501037598
1782986401892493000,0.7894931640625,-1.0530160665512085,-0.11347036808729172,-1.7475926876068115
1782986401902567000,0.79956689453125,-0.8485603332519531,0.1664307862520218,-2.056605100631714
1782986401912641000,0.80964111328125,-0.41200220584869385,0.05064480006694794,-2.352701425552368
1782986401922716000,0.8197158203125,0.10783884674310684,-0.084168940782547,-2.403411626815796
1782986401932790000,0.8297900390625,0.4950515627861023,-0.28712204098701477,-2.1005544662475586
1782986401942864000,0.83986376953125,0.7279292941093445,-0.21083979308605194,-1.3490804433822632
1782986401952939000,0.84993896484375,0.8664248585700989,-0.02400892972946167,-0.3249293565750122
1782986401963012900,0.860012939453125,0.8209196925163269,-0.06299521028995514,0.6938948631286621
1782986401973087000,0.8700869140625,0.6098862290382385,-0.36036109924316406,1.4660786390304565
1782986401983161900,0.880161865234375,0.49130475521087646,-0.6149241328239441,1.856658697128296
1782986401993236000,0.890236083984375,0.5143730640411377,-0.8741458654403687,1.713279128074646
1782986402003310000,0.90031005859375,0.4491250813007355,-0.9840468168258667,1.1132795810699463
1782986402013385000,0.910385009765625,0.3058089315891266,-0.8141773343086243,0.18305237591266632
1782986402023459000,0.920458984375,0.13445474207401276,-0.3379229009151459,-0.8125607967376709
1782986402033533000,0.930532958984375,-0.1407773643732071,0.012348012998700142,-1.7027878761291504
1782986402043608000,0.940608154296875,-0.4920016825199127,0.05849127471446991,-2.2900147438049316
1782986402053682000,0.950681884765625,-0.8076089024543762,0.052013132721185684,-2.434091091156006
1782986402063756000,0.960756103515625,-1.0287487506866455,-0.011404454708099365,-2.164231777191162
1782986402073831000,0.970830810546875,-1.1145504713058472,-0.06716891378164291,-1.6521159410476685
1782986402083905000,0.980905029296875,-1.10492742061615,-0.029518211260437965,-1.082593560218811
1782986402093979000,0.990978759765625,-1.0705093145370483,0.0634269118309021,-0.5601000785827637
1782986402104054000,1.001053955078125,-0.9736127853393555,0.14393480122089386,-0.1796102374792099
1782986402114128000,1.0111279296875,-0.8650655746459961,0.12699709832668304,0.010665693320333958
1782986402124202000,1.021201904296875,-0.7921457886695862,0.03668744117021561,0.01215466670691967
1782986402134276900,1.03127685546875,-0.727753758430481,-0.026706179603934288,-0.10734882950782776
1782986402144351000,1.04135107421875,-0.6700199246406555,0.0003123887872789055,-0.21736720204353333
1782986402154424800,1.0514248046875,-0.6058360934257507,0.07798507809638977,-0.251984566450119
1782986402164500000,1.0615,-0.5365891456604004,0.16415990889072418,-0.2208719253540039
1782986402174573800,1.07157373046875,-0.5149882435798645,0.27564728260040283,-0.13412851095199585
1782986402184648000,1.08164794921875,-0.5035680532455444,0.4339924454689026,0.05543502792716026
1782986402194722800,1.091722900390625,-0.46161821484565735,0.6428157091140747,0.2987605929374695
1782986402204797000,1.101796875,-0.4449457824230194,0.6752420663833618,0.5200626254081726
1782986402214871000,1.11187109375,-0.4747143089771271,0.5735450387001038,0.7171986103057861
1782986402224946000,1.12194580078125,-0.5170705914497375,0.3527660369873047,0.8733850121498108
1782986402235020000,1.13202001953125,-0.5385106205940247,0.1033940315246582,0.992164671421051
1782986402245094100,1.14209423828125,-0.5493890643119812,-0.16804546117782593,1.1137089729309082
1782986402255169000,1.1521689453125,-0.5934111475944519,-0.29555946588516235,1.1750646829605103
1782986402265243100,1.1622431640625,-0.6805391311645508,0.03797721117734909,1.0826181173324585
1782986402275317000,1.17231689453125,-0.7609127759933472,0.8924979567527771,0.9890607595443726
1782986402285392100,1.18239208984375,-0.8501198887825012,1.74136221408844,0.9087219834327698
1782986402295466000,1.192466064453125,-0.9425246715545654,2.180656671524048,0.8951156139373779
1782986402305539800,1.202539794921875,-0.991580069065094,2.005828619003296,1.022812008857727
1782986402315615000,1.212614990234375,-0.8698326349258423,1.4530627727508545,1.307401180267334
1782986402325688800,1.222688720703125,-0.5904723405838013,0.7796292304992676,1.697045087814331
1782986402335763000,1.232762939453125,-0.23280474543571472,0.21055643260478973,2.0772316455841064
1782986402345838000,1.242838134765625,0.02407710626721382,-0.28837960958480835,2.2903497219085693
1782986402355912000,1.252911865234375,0.24514983594417572,-0.768699586391449,2.0565781593322754
1782986402365985800,1.26298583984375,0.39456701278686523,-1.0132135152816772,1.4101914167404175
1782986402376061000,1.27306103515625,0.31014108657836914,-0.9149393439292908,0.7670942544937134
1782986402386134800,1.283134765625,0.05959701910614967,-0.690603494644165,0.3505132794380188
1782986402396209000,1.293208984375,-0.1445412039756775,-0.49930381774902344,0.020720191299915314
1782986402406283800,1.30328369140625,-0.014488928020000458,-0.785796582698822,-0.6575789451599121
1782986402416358000,1.31335791015625,0.2061057686805725,-1.245981216430664,-1.436508297920227
1782986402426432000,1.323431884765625,0.44675886631011963,-1.471102237701416,-1.6770374774932861
1782986402436507000,1.3335068359375,0.5863785147666931,-1.4157164096832275,-1.1343250274658203
1782986402446581000,1.3435810546875,0.6210904121398926,-1.5855909585952759,-0.2844349145889282
1782986402456655000,1.353655029296875,0.5045939087867737,-2.1717095375061035,0.11987260729074478
1782986402466730000,1.36372998046875,0.05247199535369873,-2.377126455307007,-0.3498024642467499
1782986402476804000,1.37380419921875,-0.4791828393936157,-1.4029558897018433,-1.9072630405426025
1782986402486878000,1.3838779296875,-0.7044399380683899,0.5666112303733826,-3.888331890106201
1782986402496953000,1.393953125,-0.8671793341636658,2.2797675132751465,-5.139440536499023
1782986402507027000,1.40402685546875,-1.0755703449249268,2.9957659244537354,-5.107430458068848
1782986402517101000,1.41410107421875,-1.0678091049194336,2.829827308654785,-3.9225945472717285
1782986402527176000,1.424176025390625,-0.7773359417915344,1.79351806640625,-2.374854326248169
1782986402537250000,1.43425,-0.39015576243400574,0.35771340131759644,-1.0102128982543945
1782986402547324000,1.444323974609375,0.011114702560007572,-0.8694522976875305,-0.03549274802207947
1782986402557399000,1.45439892578125,0.36401817202568054,-1.5566514730453491,0.718190610408783
1782986402567473000,1.464472900390625,0.5414560437202454,-1.7035919427871704,1.2013641595840454
1782986402577547000,1.474547119140625,0.5154228806495667,-1.3583908081054688,1.2707499265670776
1782986402587622000,1.484621826171875,0.32309815287590027,-0.7370522022247314,0.8982937932014465
1782986402597696000,1.494696044921875,0.11010919511318207,-0.05208983272314072,0.19049164652824402
1782986402607769900,1.504769775390625,-0.006779342889785767,0.44772371649742126,-0.537668764591217
1782986402617845000,1.514844970703125,0.013903564773499966,0.5735202431678772,-1.0368891954421997
1782986402627918800,1.5249189453125,0.09860087186098099,0.47811996936798096,-1.262058973312378
1782986402637993000,1.534992919921875,0.25944462418556213,0.37740668654441833,-1.171953797340393
1782986402648067800,1.54506787109375,0.4101712703704834,0.22871972620487213,-0.8753576278686523
1782986402658142000,1.555141845703125,0.47790372371673584,0.15490436553955078,-0.5304161906242371
1782986402668216000,1.565216064453125,0.49314606189727783,0.1370614469051361,-0.19570958614349365
1782986402678291000,1.575291015625,0.44939830899238586,0.20243965089321136,0.08025515824556351
1782986402688365000,1.585364990234375,0.38956135511398315,0.3591022491455078,0.1753140240907669
1782986402698439000,1.59543896484375,0.3356754779815674,0.571894645690918,0.09772789478302002
1782986402708514000,1.60551416015625,0.2913125455379486,0.8251298666000366,-0.037569478154182434
1782986402718588000,1.615587890625,0.24150210618972778,0.9689797163009644,-0.1250106394290924
1782986402728662000,1.625662109375,0.19575299322605133,0.8632678985595703,-0.13643693923950195
1782986402738737000,1.63573681640625,0.12461942434310913,0.6576495170593262,-0.09424394369125366
1782986402748811000,1.64581103515625,0.0869000107049942,0.5067644119262695,0.055100537836551666
1782986402758884900,1.655884765625,0.10684149712324142,0.3929677903652191,0.3125496506690979
1782986402768960000,1.6659599609375,0.1292213648557663,0.28024256229400635,0.6600303649902344
1782986402779033900,1.676033935546875,0.13106374442577362,0.18615815043449402,1.0119141340255737
1782986402789108500,1.6861083984375,0.1115741953253746,0.14450392127037048,1.2746176719665527
1782986402799183600,1.69618359375,0.07651261985301971,0.19949765503406525,1.431668996810913
1782986402809257500,1.706257568359375,0.005606486462056637,0.32156312465667725,1.457050085067749
1782986402819331600,1.71633154296875,-0.09924136847257614,0.4814121723175049,1.3504703044891357
1782986402829406500,1.726406494140625,-0.23721309006214142,0.5934559106826782,1.131669282913208
1782986402839480600,1.73648046875,-0.4120381474494934,0.6607822179794312,0.921349048614502
1782986402849554400,1.746554443359375,-0.5781165957450867,0.7020555734634399,0.7912270426750183
1782986402859629600,1.756629638671875,-0.774743378162384,0.7373664379119873,0.6561381816864014
1782986402869703400,1.766703369140625,-0.9616541266441345,0.7874943017959595,0.5419604778289795
1782986402879777500,1.776777587890625,-1.0688027143478394,0.8227378129959106,0.5795016884803772
1782986402889852400,1.786852294921875,-1.1142582893371582,0.7930930852890015,0.9384079575538635
1782986402899926500,1.796926513671875,-1.0342596769332886,0.8385756015777588,1.5572969913482666
1782986402910000600,1.807000732421875,-0.6449116468429565,0.9389573335647583,2.1067585945129395
1782986402920075800,1.81707568359375,-0.04334640875458717,0.903418779373169,2.1524295806884766
1782986402930149600,1.827149658203125,0.38673412799835205,0.8467674851417542,1.6241357326507568
1782986402940223500,1.837223388671875,0.537516713142395,0.6679943203926086,0.9061157703399658
1782986402950298600,1.847298583984375,0.6950576305389404,0.3275115489959717,0.5743458271026611
1782986402960372500,1.85737255859375,1.0357182025909424,-0.23588868975639343,0.7554548978805542
1782986402970446600,1.867446533203125,1.4626871347427368,-0.6183180809020996,1.0768468379974365
1782986402980521500,1.877521484375,1.893099308013916,-0.5950777530670166,1.2215046882629395
1782986402990595600,1.887595703125,2.099342107772827,-0.5618545413017273,1.2694449424743652
1782986403000670500,1.89767041015625,1.9356772899627686,-0.6761276125907898,1.1713155508041382
1782986403010744600,1.90774462890625,1.4385690689086914,-0.7161586284637451,0.6917033791542053
1782986403020818400,1.917818359375,0.8254619240760803,-0.5673577189445496,0.002027997048571706
1782986403030893600,1.9278935546875,0.3858931064605713,-0.43188056349754333,-0.6288042664527893
1782986403040967400,1.937967529296875,0.33857086300849915,-0.39243781566619873,-1.1662901639938354
1782986403051041500,1.94804150390625,0.7233438491821289,-0.36319097876548767,-1.4578250646591187
1782986403061116400,1.958116455078125,1.2417470216751099,-0.26269686222076416,-1.371640920639038
1782986403071190500,1.9681904296875,1.6206225156784058,-0.09979423880577087,-1.0646300315856934
1782986403081264400,1.978264404296875,1.8179967403411865,0.03724350780248642,-0.6053293347358704
1782986403091338800,1.9883388671875,1.703566312789917,0.008046475239098072,-0.0361044742166996
1782986403101413400,1.998413330078125,1.2754794359207153,-0.2411162108182907,0.4984244406223297
1782986403111487700,2.00848779296875,0.7425510883331299,-0.5480489730834961,0.822499692440033
1782986403121561600,2.0185615234375,0.3479915261268616,-0.6472591757774353,0.8553466200828552
1782986403131636700,2.02863671875,0.02311037853360176,-0.6307933926582336,0.7388319969177246
1782986403141710600,2.038710693359375,-0.13651390373706818,-0.7074103951454163,0.6238691806793213
1782986403151785700,2.04878564453125,-0.17569273710250854,-0.7559958100318909,0.4489208161830902
1782986403161859600,2.058859619140625,-0.21122728288173676,-0.6448013782501221,0.04306597635149956
1782986403171933700,2.06893359375,-0.2819909453392029,-0.42804187536239624,-0.609849750995636
1782986403182008600,2.079008544921875,-0.39154699444770813,-0.2331877201795578,-1.2940646409988403
1782986403192082700,2.089082763671875,-0.52959144115448,-0.14007161557674408,-1.7979274988174438
1782986403202156500,2.099156494140625,-0.6424394249916077,-0.14264050126075745,-2.0401737689971924
1782986403212230400,2.10923046875,-0.7134951949119568,-0.2109106332063675,-2.0067386627197266
1782986403222305500,2.119305419921875,-0.7430994510650635,-0.2737623155117035,-1.7397427558898926
1782986403232379400,2.12937939453125,-0.7181669473648071,-0.29128536581993103,-1.3450939655303955
1782986403242454500,2.13945458984375,-0.6781060695648193,-0.29784074425697327,-0.9413803219795227
1782986403252528400,2.1495283203125,-0.636295735836029,-0.2885330021381378,-0.6165015697479248
1782986403262602500,2.1596025390625,-0.6107177138328552,-0.263150155544281,-0.4078633785247803
1782986403272677400,2.169677490234375,-0.5955517888069153,-0.23721414804458618,-0.2687899172306061
1782986403282751500,2.17975146484375,-0.5768555998802185,-0.17918066680431366,-0.15302763879299164
1782986403292825300,2.189825439453125,-0.5387281775474548,-0.1288439929485321,-0.06569379568099976
1782986403302900500,2.199900390625,-0.5211076736450195,-0.12014371901750565,-0.0012860405258834362
1782986403312974300,2.209974365234375,-0.5337379574775696,-0.16579082608222961,0.026144783943891525
1782986403323048700,2.220048583984375,-0.5608825087547302,-0.2390269637107849,0.047511324286460876
1782986403333123300,2.230123291015625,-0.569272518157959,-0.25609996914863586,0.11128471046686172
1782986403343197700,2.24019775390625,-0.5343092083930969,-0.245728000998497,0.2225169539451599
1782986403353271600,2.250271484375,-0.4585992693901062,-0.27410104870796204,0.3675053119659424
1782986403363346700,2.2603466796875,-0.3621014952659607,-0.2957634925842285,0.5373276472091675
1782986403373420500,2.270420654296875,-0.28480058908462524,-0.299506813287735,0.7005631327629089
1782986403383494700,2.28049462890625,-0.2394368201494217,-0.25446638464927673,0.8082329034805298
1782986403393569500,2.290569580078125,-0.21727719902992249,-0.21687079966068268,0.806127667427063
1782986403403643600,2.3006435546875,-0.22341232001781464,-0.27954164147377014,0.6646685600280762
1782986403413717500,2.310717529296875,-0.2798670828342438,-0.47463467717170715,0.3651106059551239
1782986403423792600,2.320792724609375,-0.3655359148979187,-0.8457192778587341,-0.11032437533140182
1782986403433866500,2.330866455078125,-0.38670483231544495,-1.2623199224472046,-0.6544942259788513
1782986403443940600,2.340940673828125,-0.24305392801761627,-1.0315240621566772,-1.0045312643051147
1782986403454015500,2.351015380859375,-0.054558318108320236,-0.27391862869262695,-1.203530192375183
1782986403464089600,2.361089599609375,0.03377367556095123,1.4800901412963867,-0.8511718511581421
1782986403474163500,2.37116357421875,0.23316161334514618,3.4109926223754883,-0.11886966228485107
1782986403484238600,2.381238525390625,0.5421426296234131,4.194493770599365,0.38662493228912354
1782986403494312400,2.3913125,0.88629549741745,3.407966375350952,0.47820067405700684
1782986403504386300,2.40138623046875,1.2028968334197998,1.5877798795700073,0.4072900116443634
1782986403514461400,2.41146142578125,1.6143815517425537,-0.2076791524887085,0.5793717503547668
1782986403524535600,2.42153564453125,2.051527261734009,-1.4571666717529297,0.9170265197753906
1782986403534609700,2.431609619140625,2.4766433238983154,-1.6337233781814575,1.1419278383255005
1782986403544684500,2.4416845703125,2.698740005493164,-1.019806146621704,1.2753872871398926
1782986403554758700,2.451758544921875,2.4711103439331055,-0.5871047973632812,1.2818098068237305
1782986403564832500,2.46183251953125,2.069462299346924,-0.48809748888015747,1.0039526224136353
1782986403574907600,2.47190771484375,1.7473326921463013,-0.22074861824512482,0.5913271903991699
1782986403584981500,2.4819814453125,1.5353730916976929,0.2728552222251892,0.3928900361061096
1782986403595055600,2.4920556640625,1.5052908658981323,0.6037601828575134,0.535952091217041
1782986403605130500,2.502130615234375,1.6427335739135742,0.6988850831985474,1.0459463596343994
1782986403615204600,2.51220458984375,1.7901686429977417,0.526390016078949,1.703258752822876
1782986403625278500,2.522278564453125,1.9272758960723877,0.38098248839378357,2.2486214637756348
1782986403635353600,2.532353515625,1.8624510765075684,0.12011788785457611,2.4936416149139404
1782986403645427500,2.542427490234375,1.560225486755371,-0.2110176980495453,2.455780506134033
1782986403655501600,2.55250146484375,1.212672472000122,-0.5660482048988342,2.2069692611694336
1782986403665576400,2.562576416015625,0.9376409649848938,-0.881151020526886,1.86007821559906
1782986403675650600,2.572650634765625,0.7017450928688049,-1.1299552917480469,1.3319171667099
1782986403685724400,2.582724365234375,0.49223873019218445,-1.2557059526443481,0.6018909215927124
1782986403695799600,2.592799560546875,0.2787346839904785,-1.348132610321045,-0.2082035392522812
1782986403705873400,2.602873291015625,0.018208831548690796,-1.3905740976333618,-1.0265785455703735
1782986403715947500,2.612947509765625,-0.29368382692337036,-1.2803655862808228,-1.7509839534759521
1782986403726022400,2.6230224609375,-0.6106290221214294,-1.0468298196792603,-2.30900239944458
1782986403736096500,2.633096435546875,-0.9088561534881592,-0.805753231048584,-2.574145555496216
1782986403746170600,2.643170654296875,-1.119775652885437,-0.5089346170425415,-2.4484455585479736
1782986403756245500,2.65324560546875,-1.2156158685684204,-0.3727988600730896,-2.0436043739318848
1782986403766319600,2.663319580078125,-1.1237788200378418,-0.31247401237487793,-1.4895880222320557
1782986403776393700,2.673393798828125,-0.8781920075416565,-0.30173295736312866,-0.9668102860450745
1782986403786468000,2.683468017578125,-0.6322038173675537,-0.21954646706581116,-0.5653422474861145
1782986403796542000,2.6935419921875,-0.41493433713912964,-0.03802434727549553,-0.320839524269104
1782986403806615800,2.70361572265625,-0.29245156049728394,0.12916357815265656,-0.23751908540725708
1782986403816691000,2.71369091796875,-0.29159456491470337,0.19633568823337555,-0.25881317257881165
1782986403826764800,2.723764892578125,-0.3881048560142517,0.1997421383857727,-0.37925225496292114
1782986403836839000,2.7338388671875,-0.5056706666946411,0.24983566999435425,-0.5140867829322815
1782986403846913800,2.743913818359375,-0.5951499342918396,0.35898107290267944,-0.5808599591255188
1782986403856988000,2.75398779296875,-0.6412652134895325,0.4925098419189453,-0.570389986038208
1782986403867061800,2.764061767578125,-0.6523759365081787,0.6028139591217041,-0.5231865048408508
1782986403877137000,2.774136962890625,-0.6369021534919739,0.6436002850532532,-0.45664238929748535
1782986403887210800,2.784210693359375,-0.5248584747314453,0.6760588884353638,-0.3445379436016083
1782986403897284900,2.794284912109375,-0.3002170920372009,0.680894136428833,-0.18875500559806824
1782986403907359700,2.80435986328125,-0.04602501541376114,0.6264881491661072,-0.04146195575594902
1782986403917433900,2.814433837890625,0.12273284047842026,0.5048671364784241,0.09935960918664932
1782986403927508000,2.824508056640625,0.16072523593902588,0.2781890034675598,0.22523897886276245
1782986403937582800,2.834582763671875,0.09398215264081955,-0.0757988914847374,0.3123355209827423
1782986403947657000,2.844656982421875,-0.06897054612636566,-0.545368492603302,0.33676019310951233
1782986403957731000,2.85473095703125,-0.27109062671661377,-0.9681730270385742,0.33268553018569946
1782986403967806000,2.864805908203125,-0.3804700970649719,-1.0341241359710693,0.3456119894981384
1782986403977880000,2.874880126953125,-0.3554888665676117,-0.7522263526916504,0.30281099677085876
1782986403987954000,2.884953857421875,-0.2875926196575165,-0.3164842128753662,0.1762820929288864
1782986403998029000,2.895029052734375,-0.23305082321166992,0.1357908546924591,0.07551899552345276
1782986404008103000,2.90510302734375,-0.23854120075702667,0.6241490840911865,0.23761895298957825
1782986404018176800,2.9151767578125,-0.21665401756763458,1.046480655670166,0.5245010256767273
1782986404028252000,2.925251953125,-0.0728430449962616,1.1087610721588135,0.4229685664176941
1782986404038326000,2.935325927734375,0.24722497165203094,0.45907145738601685,-0.3753829300403595
1782986404048400000,2.94539990234375,0.653857946395874,-0.5528472065925598,-1.6584914922714233
1782986404058475000,2.95547509765625,1.1465682983398438,-0.9375847578048706,-2.6139745712280273
1782986404068548900,2.965548828125,1.8268605470657349,-0.1841360181570053,-2.976710796356201
1782986404078622700,2.975622802734375,2.207937002182007,0.5367180109024048,-2.573702335357666
1782986404088697900,2.98569775390625,1.9495681524276733,1.1890689134597778,-1.0172630548477173
1782986404098771700,2.995771728515625,1.720534086227417,1.3749661445617676,-0.11497665196657181
1782986404108845800,3.005845703125,1.4778437614440918,2.167860746383667,-0.00637880340218544
1782986404118920700,3.015920654296875,1.1647197008132935,2.487205743789673,-0.13703641295433044
1782986404128994800,3.025994873046875,1.161791443824768,2.502406597137451,-0.04683168604969978
1782986404139069000,3.03606884765625,1.1301987171173096,2.40737247467041,0.5645161271095276
1782986404149143800,3.046143798828125,1.2447210550308228,2.045975685119629,1.4966459274291992
1782986404159218000,3.056218017578125,1.3196690082550049,1.8685654401779175,2.4549174308776855
1782986404169292000,3.0662919921875,1.2351586818695068,1.7644110918045044,3.310124158859253
1782986404179367000,3.076366943359375,1.0634303092956543,1.4756489992141724,3.7776272296905518
1782986404189441000,3.08644091796875,0.9230335354804993,1.0654606819152832,3.975243330001831
1782986404199515000,3.096514892578125,0.9162115454673767,0.46796905994415283,3.8899385929107666
1782986404209590000,3.106590087890625,1.1134297847747803,-0.25985607504844666,3.5239574909210205
1782986404219664000,3.116663818359375,1.311069130897522,-0.9190044403076172,2.751932382583618
1782986404229738000,3.126738037109375,1.2287652492523193,-1.5667304992675781,1.6654903888702393
1782986404239812900,3.136812744140625,0.9187018871307373,-2.0872511863708496,0.3394736647605896
1782986404249887000,3.146886962890625,0.5463986396789551,-2.258805751800537,-1.1460727453231812
1782986404259960800,3.1569609375,0.14596092700958252,-2.0398759841918945,-2.6615047454833984
1782986404270036000,3.167035888671875,-0.24348989129066467,-1.5980743169784546,-3.9464235305786133
1782986404280109800,3.17710986328125,-0.49279266595840454,-1.0988913774490356,-4.609352111816406
1782986404290184000,3.187183837890625,-0.6404550671577454,-0.48444417119026184,-4.373619556427002
1782986404300258800,3.1972587890625,-0.775716245174408,0.19890430569648743,-3.3832592964172363
1782986404310333000,3.2073330078125,-0.9399986267089844,0.21086803078651428,-1.9954328536987305
1782986404320407000,3.217406982421875,-1.204599142074585,0.16132764518260956,-0.4507994055747986
1782986404330482000,3.22748193359375,-1.4195899963378906,-0.10204167664051056,0.5932230949401855
1782986404340556000,3.23755615234375,-1.5254884958267212,-0.17608314752578735,1.0443841218948364
1782986404350630000,3.2476298828125,-1.4822771549224854,-0.17264021933078766,1.0444401502609253
1782986404360705000,3.257705078125,-1.3124899864196777,-0.1739789843559265,0.8130478858947754
1782986404370779000,3.26777880859375,-1.013005256652832,-0.19871975481510162,0.5208650231361389
1782986404380853000,3.27785302734375,-0.6087607741355896,-0.22522114217281342,0.2039262354373932
1782986404390928100,3.28792822265625,-0.2749394178390503,-0.24900954961776733,-0.08485870063304901
1782986404401002000,3.298001953125,-0.06816387176513672,-0.21469472348690033,-0.22242455184459686
1782986404411075800,3.308075927734375,-0.014902782626450062,-0.17772285640239716,-0.17021779716014862
1782986404421151000,3.31815087890625,-0.08776340633630753,-0.12889353930950165,0.00845500361174345
1782986404431224800,3.328224853515625,-0.207151859998703,-0.06619979441165924,0.20530974864959717
1782986404441299000,3.338298828125,-0.3401501178741455,0.011888617649674416,0.35226961970329285
1782986404451373800,3.348373779296875,-0.4115199148654938,0.08128073811531067,0.3897506892681122
1782986404461448000,3.358447998046875,-0.3512728214263916,0.1469407081604004,0.3470165431499481
1782986404471521800,3.368521728515625,-0.2055632770061493,0.1723930686712265,0.2317243069410324
1782986404481597000,3.378596923828125,-0.06336219608783722,0.02930462546646595,0.011184210889041424
1782986404491670800,3.3886708984375,0.027303526178002357,-0.13645558059215546,-0.22441712021827698
1782986404501745000,3.398744873046875,0.04806100204586983,-0.15662316977977753,-0.35128986835479736
1782986404511819800,3.40881982421875,-0.027001524344086647,-0.06278162449598312,-0.4486968219280243
1782986404521894000,3.418893798828125,-0.14185141026973724,0.23874865472316742,-0.6052278280258179
1782986404531968000,3.428968017578125,-0.14184235036373138,0.5655022859573364,-0.7598286271095276
1782986404542043000,3.43904296875,-0.06980784237384796,0.6982589960098267,-0.868740439414978
1782986404552117000,3.449116943359375,-0.021764684468507767,0.7357834577560425,-0.8425431847572327
1782986404562191000,3.459191162109375,0.07604336738586426,0.7113878726959229,-0.5942657589912415
1782986404572266000,3.469265869140625,0.17458698153495789,0.43719518184661865,-0.3834557831287384
1782986404582340000,3.479340087890625,0.22926780581474304,-0.23313897848129272,-0.6028163433074951
1782986404592414000,3.4894140625,0.293865442276001,-1.150891661643982,-1.411876916885376
1782986404602489000,3.499489013671875,0.3396345376968384,-1.4948797225952148,-2.1730775833129883
1782986404612563000,3.50956298828125,0.634502112865448,0.6199900507926941,-1.6038717031478882
1782986404622636800,3.51963671875,0.7094647884368896,1.8430196046829224,-0.7117748260498047
1782986404632712000,3.5297119140625,0.7799256443977356,1.2271358966827393,0.2026047706604004
1782986404642786000,3.5397861328125,1.1379426717758179,0.14612925052642822,0.7402210831642151
1782986404652861000,3.54986083984375,1.2935268878936768,-0.4784821569919586,0.8282058238983154
1782986404662935000,3.55993505859375,1.3408877849578857,-0.5785965323448181,0.815400242805481
1782986404673009000,3.5700087890625,1.2478976249694824,-0.22888298332691193,1.0268813371658325
1782986404683082800,3.580082763671875,1.0603564977645874,0.45379704236984253,1.5780500173568726
1782986404693158000,3.590157958984375,1.2023706436157227,1.298642873764038,2.2756669521331787
1782986404703231700,3.600231689453125,1.3534533977508545,1.7437885999679565,2.9409289360046387
1782986404713305900,3.610305908203125,1.3224210739135742,1.706843614578247,3.346087694168091
1782986404723380700,3.620380615234375,1.3973147869110107,1.6798583269119263,3.3100106716156006
1782986404733454800,3.630454833984375,1.4983521699905396,1.775203824043274,2.8596384525299072
1782986404743529700,3.64052978515625,1.230730652809143,1.8951424360275269,2.2657687664031982
1782986404753603800,3.650603759765625,0.5678402781486511,1.7884628772735596,1.8332082033157349
1782986404763678000,3.660677978515625,-0.11735032498836517,1.2595585584640503,1.3678061962127686
1782986404773752800,3.6707529296875,-0.39506131410598755,0.5208128094673157,0.6108444333076477
1782986404783827000,3.680826904296875,-0.3921304941177368,-0.14639556407928467,-0.08674953877925873
1782986404793901800,3.69090185546875,-0.3282282054424286,-0.6788206100463867,-0.7338888645172119
1782986404803976700,3.700976806640625,-0.29341137409210205,-1.1539745330810547,-1.3054070472717285
1782986404814050800,3.71105078125,-0.35049331188201904,-1.5606235265731812,-1.7781130075454712
1782986404824125000,3.721125,-0.5166295170783997,-1.8698445558547974,-2.032982349395752
1782986404834199800,3.73119970703125,-0.7683824300765991,-1.9181777238845825,-1.9965119361877441
1782986404844274000,3.74127392578125,-0.9644075632095337,-1.7597332000732422,-1.7839453220367432
1782986404854348000,3.75134814453125,-1.0781786441802979,-1.50190007686615,-1.5361946821212769
1782986404864423000,3.7614228515625,-1.0465924739837646,-1.196840524673462,-1.3409799337387085
1782986404874497000,3.7714970703125,-0.9677647948265076,-0.8733253479003906,-1.2551997900009155
1782986404884571000,3.78157080078125,-0.9131779670715332,-0.6833778023719788,-1.2563718557357788
1782986404894646000,3.79164599609375,-0.8796956539154053,-0.5516722202301025,-1.2648701667785645
1782986404904720000,3.801719970703125,-0.8216837048530579,-0.3939718008041382,-1.1645233631134033
1782986404914793700,3.811793701171875,-0.7817232608795166,-0.27887558937072754,-0.9990063309669495
1782986404924868900,3.821868896484375,-0.7568948864936829,-0.2654673457145691,-0.8304684162139893
1782986404934942700,3.831942626953125,-0.7367699146270752,-0.3265352249145508,-0.6939646601676941
1782986404945016800,3.842016845703125,-0.7369930744171143,-0.4015128016471863,-0.583991527557373
1782986404955091700,3.852091796875,-0.7372066378593445,-0.46019184589385986,-0.5152100920677185
1782986404965165800,3.862165771484375,-0.720721423625946,-0.46804070472717285,-0.476214200258255
1782986404975239700,3.87223974609375,-0.673941433429718,-0.41459932923316956,-0.4434160590171814
1782986404985314800,3.882314697265625,-0.6005162000656128,-0.31064069271087646,-0.40140336751937866
1782986404995388700,3.892388671875,-0.5325611233711243,-0.15659813582897186,-0.3479694128036499
1782986405005462800,3.902462890625,-0.48077327013015747,0.01290487963706255,-0.29304254055023193
1782986405015537700,3.91253759765625,-0.4812326729297638,0.17811141908168793,-0.1959761679172516
1782986405025611800,3.92261181640625,-0.5213305354118347,0.3153712749481201,-0.03795643523335457
1782986405035686000,3.932685791015625,-0.5274859070777893,0.44560012221336365,0.13731391727924347
1782986405045760800,3.9427607421875,-0.5139456391334534,0.5378589630126953,0.24218760430812836
1782986405055835000,3.9528349609375,-0.459176629781723,0.5795107483863831,0.23528176546096802
1782986405065909000,3.962908935546875,-0.32682710886001587,0.5357425212860107,0.11972666531801224
1782986405075984000,3.97298388671875,-0.14412760734558105,0.42289161682128906,-0.016443422064185143
1782986405086058000,3.98305810546875,0.0035451999865472317,0.1964464783668518,-0.0562070794403553
1782986405096131800,3.9931318359375,0.08066661655902863,0.06978067755699158,0.10385342687368393
1782986405106207000,4.00320703125,-0.004677043296396732,0.2935123145580292,0.47977006435394287
1782986405116280800,4.01328076171875,-0.12701760232448578,0.5604010224342346,0.80560702085495
1782986405126355000,4.02335498046875,-0.039802275598049164,0.5865833163261414,0.5869609713554382
1782986405136429800,4.033429931640625,0.40437543392181396,0.7661605477333069,-0.5625922679901123
1782986405146504000,4.04350390625,0.7821370959281921,1.5411816835403442,-1.9424034357070923
1782986405156577800,4.053577880859375,0.7980471253395081,2.4424450397491455,-2.299999475479126
1782986405166653000,4.06365283203125,0.6458045840263367,1.928981065750122,-1.0619934797286987
1782986405176726800,4.073726806640625,0.42780619859695435,0.6556848883628845,0.7437124848365784
1782986405186800600,4.083800537109375,0.32806894183158875,-0.18650569021701813,1.7342334985733032
1782986405196875800,4.093875732421875,0.31828609108924866,-0.36800864338874817,1.782922387123108
1782986405206949600,4.10394970703125,0.3271839916706085,-0.45040977001190186,1.682992935180664
1782986405217023700,4.114023681640625,0.3289307653903961,-0.6224851608276367,2.0422725677490234
1782986405227099000,4.124098876953125,0.3415251076221466,-0.4592679738998413,2.707973003387451
1782986405237172700,4.1341728515625,0.41147729754447937,0.05302593484520912,3.2346091270446777
1782986405247246800,4.144246826171875,0.44266316294670105,0.6686928272247314,3.491546630859375
1782986405257321700,4.15432177734375,0.37443217635154724,1.2148760557174683,3.553492784500122
1782986405267395800,4.164395751953125,0.30645740032196045,1.7112280130386353,3.4407873153686523
1782986405277470000,4.174469970703125,0.3908761441707611,1.9881703853607178,3.2512123584747314
1782986405287544800,4.184544921875,0.4692162275314331,1.970362901687622,3.0680856704711914
1782986405297619000,4.194618896484375,0.6085740923881531,1.7315130233764648,2.971675395965576
1782986405307692800,4.20469287109375,0.7602185010910034,1.1128873825073242,2.788652181625366
1782986405317768000,4.214767822265625,0.7378058433532715,0.3937116265296936,2.2670137882232666
1782986405327841800,4.224841796875,0.6213727593421936,-0.3447616398334503,1.4056286811828613
1782986405337916000,4.234916015625,0.3939358592033386,-0.8764913082122803,0.5288585424423218
1782986405347990800,4.24499072265625,0.17534226179122925,-1.3533915281295776,-0.15673795342445374
1782986405358065000,4.25506494140625,-0.018576614558696747,-1.75234055519104,-0.6330200433731079
1782986405368138800,4.265138671875,-0.18010371923446655,-1.8921812772750854,-0.9475125074386597
1782986405378214000,4.2752138671875,-0.3591903746128082,-1.9329789876937866,-1.2083719968795776
1782986405388287700,4.285287841796875,-0.5615530610084534,-1.9386742115020752,-1.38937246799469
1782986405398361900,4.29536181640625,-0.7164412140846252,-1.7970528602600098,-1.5679906606674194
1782986405408436700,4.305436767578125,-0.8422238826751709,-1.5788886547088623,-1.8347991704940796
1782986405418510800,4.3155107421875,-0.926562488079071,-1.3996778726577759,-2.082987070083618
1782986405428584700,4.325584716796875,-0.9298970103263855,-1.2762986421585083,-2.1925511360168457
1782986405438659800,4.335659912109375,-0.8424438834190369,-1.0728992223739624,-2.063131332397461
1782986405448733700,4.345733642578125,-0.7138411402702332,-0.8794468641281128,-1.8381627798080444
1782986405458808000,4.35580810546875,-0.5658516883850098,-0.7047176957130432,-1.6215136051177979
1782986405468882700,4.365882568359375,-0.3677668273448944,-0.5154116749763489,-1.4218579530715942
1782986405478957000,4.37595703125,-0.1592429131269455,-0.23185932636260986,-1.2715011835098267
1782986405489031000,4.386031005859375,-0.04067659005522728,-0.03461842983961105,-1.1370518207550049
1782986405499106000,4.39610595703125,0.014666028320789337,-0.01709589548408985,-0.9905864596366882
1782986405509180000,4.406179931640625,0.005711948033422232,-0.12748152017593384,-0.9093049168586731
1782986405519253800,4.416253662109375,-0.03983210027217865,-0.186514213681221,-0.8459432721138
1782986405529329000,4.426328857421875,-0.12978090345859528,-0.1882958710193634,-0.7731918096542358
1782986405539402800,4.43640283203125,-0.20263619720935822,-0.14924301207065582,-0.6759033799171448
1782986405549476900,4.446476806640625,-0.2260645627975464,-0.131821408867836,-0.5333041548728943
1782986405559551700,4.4565517578125,-0.20016318559646606,-0.19671200215816498,-0.3842989504337311
1782986405569625900,4.4666259765625,-0.14135099947452545,-0.26939311623573303,-0.2371094822883606
1782986405579699700,4.47669970703125,-0.02287096157670021,-0.30627578496932983,-0.08643156290054321
1782986405589774800,4.48677490234375,0.09983498603105545,-0.3282577693462372,0.015794942155480385
1782986405599848700,4.4968486328125,0.20207853615283966,-0.366487979888916,0.01944746822118759
1782986405609922800,4.5069228515625,0.28397658467292786,-0.46682628989219666,-0.0740787535905838
1782986405619997700,4.516997802734375,0.33851441740989685,-0.6171002388000488,-0.24435009062290192
1782986405630071800,4.52707177734375,0.35061952471733093,-0.8051561713218689,-0.4137577712535858
1782986405640145700,4.537145751953125,0.31972500681877136,-0.9379085898399353,-0.5346540808677673
1782986405650220800,4.547220703125,0.22426000237464905,-0.98245769739151,-0.6326290965080261
1782986405660294700,4.557294677734375,0.0012841762509196997,-0.9271619319915771,-0.6215567588806152
1782986405670369000,4.567369140625,-0.1957457959651947,-0.698383092880249,-0.5669851303100586
1782986405680443600,4.577443603515625,-0.2694788873195648,-0.5550326108932495,-0.7189403176307678
1782986405690518000,4.58751806640625,-0.19866515696048737,-0.48399224877357483,-1.0865150690078735
1782986405700591900,4.597591796875,-0.10487741231918335,-0.39416995644569397,-1.6754319667816162
1782986405710667000,4.6076669921875,-0.05573064088821411,0.09054215252399445,-2.467738389968872
1782986405720740900,4.617740966796875,0.005516471806913614,1.2136999368667603,-2.7768442630767822
1782986405730815000,4.62781494140625,0.150217205286026,2.14347767829895,-2.429203510284424
1782986405740889900,4.637889892578125,0.2936353385448456,2.5379977226257324,-1.7477506399154663
1782986405750964000,4.6479638671875,0.4554316997528076,2.7313315868377686,-1.276998519897461
1782986405761037800,4.658037841796875,0.6217069625854492,2.6986074447631836,-1.1486530303955078
1782986405771113000,4.668113037109375,0.7105603814125061,2.3537793159484863,-1.0692319869995117
1782986405781186800,4.678186767578125,0.8330641984939575,1.6165459156036377,-0.8261293172836304
1782986405791259600,4.688259765625,1.122929334640503,0.5725839138031006,-0.40156981348991394
1782986405801334500,4.69833447265625,1.5636262893676758,-0.5787962675094604,0.20030087232589722
1782986405811408600,4.70840869140625,1.882202386856079,-1.2434501647949219,0.8085663318634033
1782986405821482800,4.718482666015625,2.1144049167633057,-1.0958857536315918,1.2228498458862305
1782986405831557600,4.7285576171875,2.2440686225891113,-0.42889195680618286,1.3575897216796875
1782986405841631700,4.7386318359375,2.0959200859069824,0.4033551812171936,1.358517050743103
1782986405851705600,4.74870556640625,1.9036816358566284,1.5403958559036255,1.5043363571166992
1782986405861780700,4.75878076171875,1.4725360870361328,2.1833481788635254,1.9360427856445312
1782986405871854600,4.7688544921875,0.6509969234466553,2.0072009563446045,2.326864719390869
1782986405881928700,4.7789287109375,0.01173362135887146,1.3402187824249268,2.534637451171875
1782986405892003600,4.789003662109375,-0.2844349145889282,0.5632492303848267,2.37585711479187
1782986405902077700,4.79907763671875,-0.42479708790779114,-0.07123210281133652,1.8417096138000488
1782986405912151600,4.809151611328125,-0.5296105742454529,-0.4918690621852875,1.2240437269210815
1782986405922226700,4.819226806640625,-0.5036469101905823,-0.7606930732727051,0.7638217806816101
1782986405932300500,4.829300537109375,-0.43822181224823,-0.7588344812393188,0.4867155849933624
1782986405942374400,4.83937451171875,-0.3974999487400055,-0.5613828897476196,0.4561566114425659
1782986405952449500,4.849449462890625,-0.45697101950645447,-0.1925622522830963,0.687245786190033
1782986405962523600,4.859523681640625,-0.6237677335739136,-0.18021105229854584,0.9856662750244141
1782986405972597500,4.869597412109375,-0.902664303779602,-0.40661221742630005,1.1676390171051025
1782986405982672600,4.879672607421875,-0.9098178744316101,-0.32064858078956604,1.0546107292175293
1782986405992746500,4.88974658203125,-0.5868344902992249,0.022792130708694458,0.7432331442832947
1782986406002820600,4.899820556640625,-0.7236274480819702,-0.3993827998638153,0.6752732396125793
1782986406012895500,4.9098955078125,-0.9121595621109009,-1.040579080581665,0.6550689339637756
1782986406022969600,4.919969482421875,-0.8639952540397644,-1.2686519622802734,0.5251705646514893
1782986406033043700,4.930043701171875,-0.6335551142692566,-1.1833335161209106,0.2652148902416229
1782986406043118600,4.94011865234375,-0.42126813530921936,-1.0098549127578735,0.05673651769757271
1782986406053192700,4.950192626953125,-0.34297385811805725,-0.8013781905174255,-0.16427043080329895
1782986406063266600,4.9602666015625,-0.4016936421394348,-0.8009403944015503,-0.37495389580726624
1782986406073341700,4.970341796875,-0.44836366176605225,-0.8314412832260132,-0.49873602390289307
1782986406083415600,4.98041552734375,-0.408331036567688,-0.8744257688522339,-0.5299679636955261
1782986406093489700,4.99048974609375,-0.31192514300346375,-0.8567208051681519,-0.5306068658828735
1782986406103564500,5.000564453125,-0.2768726050853729,-0.7436475157737732,-0.36073848605155945
1782986406113638700,5.010638671875,-0.22426053881645203,-1.0262424945831299,-0.23376987874507904
1782986406123713500,5.020713623046875,-0.07825752347707748,-1.259214162826538,-0.14823020994663239
1782986406133787600,5.03078759765625,0.10909879207611084,-1.3164277076721191,-0.11485068500041962
1782986406143861500,5.040861572265625,0.19949819147586823,-1.2258554697036743,-0.17248442769050598
1782986406153936600,5.0509365234375,0.14103195071220398,-1.1130080223083496,-0.37860721349716187
1782986406164010500,5.061010498046875,0.05668671429157257,-1.1432065963745117,-0.4932405948638916
1782986406174084600,5.071084716796875,0.007951133884489536,-1.1794564723968506,-0.41160354018211365
1782986406184159500,5.081159423828125,0.054854992777109146,-1.0575863122940063,-0.11761744320392609
1782986406194233600,5.091233642578125,0.1471090167760849,-0.5157067775726318,0.22673115134239197
1782986406204307500,5.101307373046875,0.03729037940502167,0.13110795617103577,0.2852621078491211
1782986406214382600,5.111382568359375,-0.06760460883378983,0.3902399241924286,0.20134243369102478
1782986406224456400,5.12145654296875,0.08730987459421158,0.16285710036754608,0.03310761973261833
1782986406234530600,5.131530517578125,0.38682761788368225,-0.059901151806116104,-0.5276398658752441
1782986406244605400,5.14160546875,0.5687801241874695,0.2943804860115051,-1.1616053581237793
1782986406254679600,5.151679443359375,0.5694778561592102,0.5742307901382446,-1.1759374141693115
1782986406264753700,5.161753662109375,0.3932969570159912,0.10996032506227493,-0.59250408411026
1782986406274828800,5.171828857421875,0.17488020658493042,-0.4573209583759308,-0.10143101960420609
1782986406284902700,5.181902587890625,-0.0427732951939106,-0.36323174834251404,-0.22546720504760742
1782986406294976500,5.1919765625,-0.15224306285381317,0.3145531415939331,-0.7795791625976562
1782986406305051600,5.2020517578125,-0.18118922412395477,1.1143372058868408,-0.9698106050491333
1782986406315125500,5.21212548828125,-0.13194285333156586,1.726652979850769,-0.49226081371307373
1782986406325199600,5.22219970703125,0.018920959904789925,2.0265817642211914,0.13793416321277618
1782986406335274800,5.232274658203125,0.28749462962150574,2.254789352416992,0.44685712456703186
1782986406345348600,5.2423486328125,0.520566999912262,2.3929243087768555,0.4784856140613556
1782986406355422500,5.25242236328125,0.610062301158905,2.142306327819824,0.4999791979789734
1782986406365497600,5.26249755859375,0.6179015636444092,1.6108084917068481,0.507488489151001
1782986406375571500,5.272571533203125,0.4512212574481964,1.0272024869918823,0.547904372215271
1782986406385645600,5.2826455078125,0.28149160742759705,0.5648394227027893,0.7805903553962708
1782986406395720400,5.292720458984375,0.1352078914642334,0.11587147414684296,1.0842617750167847
1782986406405794600,5.302794677734375,0.01913880743086338,-0.2954404354095459,1.1857112646102905
1782986406415867600,5.31286767578125,-0.0800226628780365,-0.569275438785553,0.9294973015785217
1782986406425942800,5.32294287109375,-0.1898069530725479,-0.6492437720298767,0.3504578769207001
1782986406436016600,5.3330166015625,-0.3126865327358246,-0.6123313307762146,-0.3492472171783447
1782986406446090800,5.3430908203125,-0.48065105080604553,-0.6287797689437866,-0.9793756008148193
1782986406456165600,5.35316552734375,-0.6526694297790527,-0.7617149353027344,-1.3349350690841675
1782986406466239700,5.36323974609375,-0.8074523210525513,-0.9352720975875854,-1.31934654712677
1782986406476313600,5.373313720703125,-0.9255536794662476,-0.9541198015213013,-1.0496399402618408
1782986406486388700,5.383388671875,-0.9699611067771912,-0.8139427304267883,-0.7676652073860168
1782986406496462600,5.393462646484375,-0.979245126247406,-0.5931304693222046,-0.6138131022453308
1782986406506536400,5.403536376953125,-0.9788352847099304,-0.3507036864757538,-0.5887125134468079
1782986406516611600,5.413611572265625,-0.956836462020874,-0.11617640405893326,-0.641668438911438
1782986406526685400,5.423685546875,-0.9283326864242554,0.09783495217561722,-0.7324888706207275
1782986406536759600,5.433759521484375,-0.8926311135292053,0.3050009310245514,-0.8164567351341248
1782986406546834400,5.44383447265625,-0.8363921046257019,0.45081377029418945,-0.8333339691162109
1782986406556908500,5.453908447265625,-0.7712727785110474,0.5583130717277527,-0.7393201589584351
1782986406566982400,5.463982421875,-0.710117757320404,0.6500406265258789,-0.5813161134719849
1782986406577057500,5.4740576171875,-0.6647322177886963,0.7044039964675903,-0.4311724305152893
1782986406587131400,5.48413134765625,-0.6325178146362305,0.736269474029541,-0.32828572392463684
1782986406597205800,5.494205810546875,-0.6313108801841736,0.7355387210845947,-0.2810729444026947
1782986406607280400,5.5042802734375,-0.6314975619316101,0.7234240174293518,-0.27460917830467224
1782986406617354800,5.514354736328125,-0.6201815009117126,0.6689288020133972,-0.30629414319992065
1782986406627428600,5.5244287109375,-0.5583328008651733,0.5511718392372131,-0.35195431113243103
1782986406637503700,5.534503662109375,-0.4825783669948578,0.43725669384002686,-0.3701176047325134
1782986406647577600,5.54457763671875,-0.39135685563087463,0.3528278172016144,-0.3374118506908417
1782986406657651700,5.554651611328125,-0.30539318919181824,0.3035188615322113,-0.24995310604572296
1782986406667726600,5.5647265625,-0.2270163744688034,0.28007665276527405,-0.14154008030891418
1782986406677800700,5.57480078125,-0.12371448427438736,0.3271291255950928,-0.020501280203461647
1782986406687874600,5.58487451171875,-0.043237484991550446,0.41854265332221985,0.12278717011213303
1782986406697949700,5.59494970703125,0.04647376015782356,0.49539029598236084,0.26228249073028564
1782986406708023600,5.6050234375,0.13764414191246033,0.6105411052703857,0.3616974949836731
1782986406718097700,5.61509765625,0.22160562872886658,0.6287944316864014,0.48244333267211914
1782986406728172500,5.625172607421875,0.299428254365921,0.4890868663787842,0.6455430388450623
1782986406738246700,5.63524658203125,0.4059147536754608,0.32144567370414734,0.8220483064651489
1782986406748320500,5.645320556640625,0.46973127126693726,0.31391265988349915,0.9446759819984436
1782986406758395600,5.655395751953125,0.4185836613178253,0.6575033068656921,1.0988564491271973
1782986406768470500,5.665470458984375,0.3223109245300293,0.8566675186157227,1.4261544942855835
1782986406778544600,5.675544677734375,0.276868611574173,0.22840973734855652,1.577589988708496
1782986406788619000,5.685618896484375,0.38489869236946106,-0.5073103308677673,0.9157098531723022
1782986406798694100,5.695694091796875,0.5469701290130615,-0.7228397130966187,-0.3881615996360779
1782986406808768000,5.70576806640625,0.5541455149650574,-0.15088191628456116,-1.2351051568984985
1782986406818841900,5.715841796875,0.4697009325027466,0.2744467258453369,-1.2390516996383667
1782986406828917000,5.7259169921875,0.3984600305557251,0.18762928247451782,-0.7803213596343994
1782986406838990800,5.735990966796875,0.26523327827453613,-0.28600725531578064,-0.4372766613960266
1782986406849066000,5.74606591796875,0.02478604018688202,-0.5616034269332886,-0.2460601031780243
1782986406859139800,5.756139892578125,-0.11637268215417862,-1.0827001333236694,0.1364089697599411
1782986406869214000,5.7662138671875,-0.07737654447555542,-1.7381893396377563,0.7266567945480347
1782986406879288000,5.7762880859375,0.12563328444957733,-1.8858850002288818,0.9782996773719788
1782986406889363000,5.786363037109375,0.3577951490879059,-1.416037917137146,0.8284295201301575
1782986406899437000,5.79643701171875,0.4780118465423584,-0.5175802707672119,0.5264701843261719
1782986406909512000,5.806511962890625,0.5117173194885254,0.39855828881263733,0.2869289815425873
1782986406919586000,5.8165859375,0.5086315274238586,1.0877569913864136,0.21490298211574554
1782986406929660200,5.82666015625,0.4974377453327179,1.3567311763763428,0.24575330317020416
1782986406939734000,5.836734130859375,0.4476017355918884,1.2768824100494385,0.36635294556617737
1782986406949809200,5.84680908203125,0.3305496871471405,1.0427314043045044,0.6330932974815369
1782986406959883000,5.856883056640625,0.18466785550117493,0.47580835223197937,0.9971340894699097
1782986406969958100,5.866958251953125,0.048477254807949066,0.033667415380477905,1.1806869506835938
1782986406980032000,5.877031982421875,-0.1414135843515396,-0.3118750751018524,0.9641801714897156
1782986406990106000,5.887106201171875,-0.3877756893634796,-0.6351279616355896,0.33484670519828796
1782986407000181000,5.897180908203125,-0.6546627879142761,-0.868367612361908,-0.5251982808113098
1782986407010255000,5.907255126953125,-0.8866289258003235,-0.9813516736030579,-1.3856555223464966
1782986407020329000,5.917328857421875,-1.032828688621521,-1.0530421733856201,-2.0310556888580322
1782986407030404000,5.927404052734375,-1.1102516651153564,-1.0361989736557007,-2.3016302585601807
1782986407040478000,5.93747802734375,-1.1269177198410034,-0.9792680144309998,-2.305861234664917
1782986407050552000,5.947552001953125,-1.1409144401550293,-0.831533670425415,-2.1910488605499268
1782986407060627000,5.957626953125,-1.1293656826019287,-0.6703831553459167,-2.0271103382110596
1782986407070701000,5.967701171875,-1.184425711631775,-0.2860586643218994,-1.820478081703186
1782986407080775000,5.97777490234375,-1.2022491693496704,-0.04103744775056839,-1.4398868083953857
1782986407090850000,5.98785009765625,-1.2336515188217163,0.10343318432569504,-1.0518639087677002
1782986407100924000,5.997923828125,-1.2459732294082642,0.17703203856945038,-0.7856349349021912
1782986407110998300,6.007998291015625,-1.2001186609268188,0.16868728399276733,-0.6735523343086243
1782986407121073000,6.018072998046875,-1.1126657724380493,0.0861910805106163,-0.6799678802490234
1782986407131147300,6.028147216796875,-0.9821463823318481,-0.035402730107307434,-0.7031592130661011
1782986407141221000,6.03822119140625,-0.8239575624465942,-0.1516353338956833,-0.6824898719787598
1782986407151296300,6.048296142578125,-0.6623079180717468,-0.21268697082996368,-0.608357310295105
1782986407161370000,6.0583701171875,-0.522642970085144,-0.26286011934280396,-0.5330868363380432
1782986407171444000,6.06844384765625,-0.42844536900520325,-0.3570723831653595,-0.4524415135383606
1782986407181519000,6.07851904296875,-0.4005628526210785,-0.43581274151802063,-0.3587336540222168
1782986407191593000,6.088593017578125,-0.4437335133552551,-0.446176677942276,-0.22934263944625854
1782986407201667000,6.0986669921875,-0.5018567442893982,-0.37425294518470764,-0.0659816786646843
1782986407211742000,6.108741943359375,-0.5625634789466858,-0.3157864511013031,0.12317200005054474
1782986407221816000,6.118816162109375,-0.6124609708786011,-0.29874861240386963,0.2657102346420288
1782986407231890000,6.128889892578125,-0.6044970750808716,-0.3389652669429779,0.3419474959373474
1782986407241965000,6.138965087890625,-0.5558709502220154,-0.38292235136032104,0.363647997379303
1782986407252039000,6.149038818359375,-0.44754528999328613,-0.40192827582359314,0.36606428027153015
1782986407262113000,6.159113037109375,-0.3249650299549103,-0.505756676197052,0.3938447833061218
1782986407272188000,6.16918798828125,-0.2410791963338852,-0.7542461156845093,0.5112201571464539
1782986407282262000,6.179261962890625,-0.13735492527484894,-1.1670626401901245,0.7626398205757141
1782986407292335900,6.1893359375,-0.05992591753602028,-1.3174916505813599,1.0598065853118896
1782986407302411000,6.199410888671875,0.002241050126031041,-1.18800950050354,1.2945327758789062
1782986407312484900,6.20948486328125,-0.036194488406181335,-1.1934127807617188,1.324360966682434
1782986407322559200,6.219559326171875,0.03894926235079765,-1.4780017137527466,1.2533302307128906
1782986407332633900,6.2296337890625,0.07299511134624481,-1.6404832601547241,0.8607829213142395
1782986407342708200,6.239708251953125,0.010890197940170765,-0.6752647161483765,0.06459949910640717
1782986407352782000,6.249781982421875,-0.1019577905535698,1.1103131771087646,-0.7783468961715698
1782986407362857200,6.259857177734375,-0.12415896356105804,2.5390853881835938,-1.0644601583480835
1782986407372931000,6.26993115234375,-0.24036146700382233,2.5333950519561768,-0.5062232613563538
1782986407383005200,6.280005126953125,-0.44748455286026,1.3822096586227417,0.4747673273086548
1782986407393080000,6.290080078125,-0.41296467185020447,0.3783624768257141,1.123360276222229
1782986407403154200,6.300154296875,-0.21974647045135498,-0.05903402343392372,1.1846784353256226
1782986407413228000,6.31022802734375,-0.07097430527210236,-0.00583871454000473,1.0867668390274048
1782986407423303200,6.32030322265625,-0.021036576479673386,0.1362374722957611,1.2405110597610474
1782986407433377000,6.330376953125,-0.06814922392368317,0.634505033493042,1.582974910736084
1782986407443451000,6.340450927734375,0.004599012900143862,1.457903265953064,1.7894114255905151
1782986407453526000,6.350526123046875,0.16254018247127533,2.212130308151245,1.7680529356002808
1782986407463599900,6.360599853515625,0.4892040491104126,2.3391001224517822,1.8043019771575928
1782986407473674000,6.370674072265625,1.0069060325622559,1.7802232503890991,1.9610868692398071
1782986407483749000,6.3807490234375,1.3355283737182617,1.5047168731689453,2.0655500888824463
1782986407493823000,6.390822998046875,1.0743556022644043,1.5668023824691772,1.9896849393844604
1782986407503898000,6.400898193359375,0.41434311866760254,1.4941585063934326,1.9057074785232544
1782986407513972000,6.410971923828125,-0.13068583607673645,1.1846001148223877,1.6914113759994507
1782986407524045800,6.4210458984375,-0.3711400032043457,0.5872320532798767,1.2602605819702148
1782986407534121000,6.431120849609375,-0.3569365441799164,-0.10366567224264145,0.7575106024742126
1782986407544194800,6.44119482421875,-0.21343983709812164,-0.7385257482528687,0.2717151343822479
1782986407554269200,6.451269287109375,-0.21088507771492004,-1.3701242208480835,-0.15849004685878754
1782986407564343800,6.46134375,-0.4866969585418701,-1.8667502403259277,-0.5209372043609619
1782986407574418200,6.471418212890625,-0.8080896139144897,-2.0208542346954346,-0.9347996115684509
1782986407584492000,6.481491943359375,-1.0732322931289673,-1.709848165512085,-1.3132236003875732
1782986407594567200,6.491567138671875,-1.3031609058380127,-1.290013074874878,-1.6365503072738647
1782986407604641000,6.50164111328125,-1.4442367553710938,-0.9372867345809937,-1.9447768926620483
1782986407614715100,6.511715087890625,-1.4771465063095093,-0.645922839641571,-2.1285042762756348
1782986407624790000,6.5217900390625,-1.4507018327713013,-0.4018254578113556,-2.1495487689971924
1782986407634864000,6.531864013671875,-1.3522506952285767,-0.18219749629497528,-1.9350805282592773
1782986407644938000,6.54193798828125,-1.2262051105499268,-0.06560191512107849,-1.5588946342468262
1782986407655013000,6.55201318359375,-1.0896706581115723,-0.17530657351016998,-1.2160483598709106
1782986407665087000,6.5620869140625,-0.9821370244026184,-0.4135169982910156,-0.965642511844635
1782986407675161000,6.5721611328125,-0.8614457845687866,-0.6466437578201294,-0.8737940788269043
1782986407685236000,6.582236083984375,-0.7643871307373047,-0.8137243390083313,-0.9247294068336487
1782986407695310000,6.59231005859375,-0.6968719959259033,-0.8763698935508728,-1.0104602575302124
1782986407705384000,6.602384033203125,-0.6565227508544922,-0.8635179996490479,-1.090358853340149
1782986407715459000,6.612458984375,-0.6534571647644043,-0.7245859503746033,-1.1141070127487183
1782986407725533000,6.622532958984375,-0.6231716871261597,-0.5548357963562012,-1.0558216571807861
1782986407735607000,6.63260693359375,-0.557915985584259,-0.4717502295970917,-0.9283624887466431
1782986407745682000,6.642681884765625,-0.4611891806125641,-0.48233628273010254,-0.7416863441467285
1782986407755756000,6.652756103515625,-0.3415011465549469,-0.5304595828056335,-0.5274779200553894
1782986407765830100,6.662830078125,-0.24643640220165253,-0.6029388904571533,-0.31784480810165405
1782986407775905000,6.672905029296875,-0.17759981751441956,-0.6702041625976562,-0.15904584527015686
1782986407785979100,6.682979248046875,-0.1334741711616516,-0.7236216068267822,-0.10489818453788757
1782986407796053200,6.69305322265625,-0.10926470160484314,-0.7442174553871155,-0.11600968986749649
1782986407806128000,6.703128173828125,-0.1115422397851944,-0.7637554407119751,-0.12224841117858887
1782986407816202200,6.7132021484375,-0.09687434881925583,-0.7892405390739441,-0.06964538991451263
1782986407826276000,6.723276123046875,-0.12027607858181,-0.7835608720779419,0.07652140408754349
1782986407836351200,6.733351318359375,-0.15522021055221558,-0.8228546977043152,0.3134697675704956
1782986407846425000,6.743425048828125,-0.1406545788049698,-0.7284989356994629,0.6544132232666016
1782986407856499200,6.753499267578125,-0.12369344383478165,-0.3867490589618683,1.0494381189346313
1782986407866574000,6.763573974609375,-0.1383267194032669,0.08839191496372223,1.4574825763702393
1782986407876648200,6.773648193359375,-0.09825360029935837,0.30596923828125,1.735020637512207
1782986407886722000,6.78372216796875,0.026675818488001823,0.18709105253219604,1.630927562713623
1782986407896797200,6.793797119140625,0.13081127405166626,0.35516050457954407,0.9961588382720947
1782986407906871000,6.80387109375,0.11189857125282288,1.0210120677947998,0.3850502073764801
1782986407916945000,6.81394482421875,0.0856134369969368,1.2239151000976562,0.5600566267967224
1782986407927020000,6.82402001953125,-0.06384289264678955,0.7183858156204224,1.3607618808746338
1782986407937094000,6.834093994140625,-0.2537001669406891,0.04472459480166435,1.8188778162002563
1782986407947168000,6.84416796875,-0.4300437867641449,-0.6067993640899658,1.400290846824646
1782986407957243000,6.854242919921875,-0.5731133222579956,-1.0101090669631958,0.4116775691509247
1782986407967317000,6.86431689453125,-0.6529759168624878,-0.8770508170127869,-0.39984434843063354
1782986407977392000,6.87439208984375,-0.556280791759491,-0.3706393241882324,-0.41555139422416687
1782986407987466000,6.884466064453125,-0.4038068652153015,0.2598177194595337,0.24183419346809387
1782986407997540000,6.8945400390625,-0.30298730731010437,0.7493810057640076,1.022887110710144
1782986408007615000,6.904614990234375,-0.14038507640361786,1.0443331003189087,1.48508882522583
1782986408017689000,6.914689208984375,0.12406735122203827,1.1095213890075684,1.6688416004180908
1782986408027763200,6.92476318359375,0.5267884135246277,0.8989609479904175,1.5024806261062622
1782986408037838000,6.934838134765625,0.8038040399551392,0.8479571342468262,1.052404522895813
1782986408047912200,6.944912109375,0.9340888261795044,1.0274549722671509,0.5883975028991699
1782986408057986000,6.954986083984375,0.9184437990188599,1.0824402570724487,0.3218552768230438
1782986408068061200,6.965061279296875,0.8306223750114441,0.9249171614646912,0.27772802114486694
1782986408078135000,6.975135009765625,0.634353518486023,0.5389606952667236,0.33060163259506226
1782986408088209200,6.985209228515625,0.3433150053024292,-0.14092569053173065,0.3587930500507355
1782986408098284000,6.995283935546875,0.060137905180454254,-0.9180683493614197,0.2649264633655548
1782986408108358100,7.005358154296875,-0.1406330168247223,-1.4324719905853271,0.03013446554541588
1782986408118432000,7.015431884765625,-0.3945281505584717,-1.663881540298462,-0.3495670557022095
1782986408128507100,7.025507080078125,-0.6960222125053406,-1.6887136697769165,-0.8048240542411804
1782986408138581000,7.0355810546875,-0.9303374886512756,-1.5764906406402588,-1.2585968971252441
1782986408148655000,7.045655029296875,-1.0723713636398315,-1.33048415184021,-1.618741512298584
1782986408158730000,7.05572998046875,-1.1772311925888062,-1.078609585762024,-1.8324869871139526
1782986408168804000,7.06580419921875,-1.2240879535675049,-0.8409005403518677,-1.7946085929870605
1782986408178878000,7.0758779296875,-1.217427372932434,-0.5900260210037231,-1.5410234928131104
1782986408188953000,7.085953125,-1.1860036849975586,-0.4062098264694214,-1.1589120626449585
1782986408199027000,7.09602685546875,-1.1243455410003662,-0.32853659987449646,-0.7716314792633057
1782986408209101000,7.10610107421875,-1.0223188400268555,-0.3759653866291046,-0.44454044103622437
1782986408219176000,7.116176025390625,-0.8983028531074524,-0.5308364629745483,-0.21633416414260864
1782986408229250300,7.126250244140625,-0.7505530714988708,-0.6990992426872253,-0.10435223579406738
1782986408239324200,7.13632421875,-0.5994197726249695,-0.7809099555015564,-0.14077575504779816
1782986408249399300,7.1463994140625,-0.4779133200645447,-0.7335410714149475,-0.25513723492622375
1782986408259473200,7.15647314453125,-0.36770984530448914,-0.6648815870285034,-0.31418749690055847
1782986408269547000,7.166547119140625,-0.28734761476516724,-0.6113254427909851,-0.29343003034591675
1782986408279622100,7.1766220703125,-0.2487698644399643,-0.5922819375991821,-0.23050618171691895
1782986408289696000,7.186696044921875,-0.24259613454341888,-0.6167231202125549,-0.16272392868995667
1782986408299770000,7.19677001953125,-0.2736762762069702,-0.6883754730224609,-0.119949571788311
1782986408309845000,7.206844970703125,-0.3225897550582886,-0.7973003387451172,-0.08275027573108673
1782986408319919000,7.216919189453125,-0.3858686089515686,-0.9580966830253601,-0.0371103510260582
1782986408329993000,7.226992919921875,-0.431861937046051,-1.0990573167800903,0.00006205165118444711
1782986408340068000,7.237068115234375,-0.4465479254722595,-1.1302649974822998,-0.007600928191095591
1782986408350142000,7.247141845703125,-0.41972431540489197,-1.0807198286056519,-0.051411259919404984
1782986408360216000,7.257216064453125,-0.36259737610816956,-0.9693528413772583,-0.09731989353895187
1782986408370291000,7.267291015625,-0.2959802448749542,-0.8177182674407959,-0.16741137206554413
1782986408380365000,7.277364990234375,-0.3010093867778778,-0.6357218623161316,-0.3236244022846222
1782986408390439000,7.28743896484375,-0.3491577208042145,-0.7568871378898621,-0.3041047751903534
1782986408400514000,7.29751416015625,-0.42800194025039673,-0.9606541395187378,-0.03530659154057503
1782986408410588000,7.307587890625,-0.5291416049003601,-0.9162283539772034,0.42547833919525146
1782986408420662300,7.317662353515625,-0.5371971130371094,-0.718186616897583,0.9278149604797363
1782986408430737000,7.32773681640625,-0.43406835198402405,-0.4513453543186188,1.0448704957962036
1782986408440811300,7.337811279296875,-0.3370581865310669,-0.25174543261528015,0.5394107699394226
1782986408450885000,7.347885009765625,-0.26781705021858215,0.1016099825501442,-0.43074846267700195
1782986408460960300,7.357960205078125,-0.2908046841621399,0.6545791625976562,-1.496375560760498
1782986408471034000,7.3680341796875,-0.2074594497680664,1.3639259338378906,-1.9066723585128784
1782986408481109200,7.378109130859375,-0.002639192622154951,2.17976450920105,-1.34909188747406
1782986408491183000,7.38818310546875,0.06494597345590591,2.03566837310791,-0.10800609737634659
1782986408501257200,7.39825732421875,0.2231776863336563,0.9106972217559814,1.004265546798706
1782986408511332000,7.40833203125,0.27542439103126526,0.26321032643318176,1.5125268697738647
1782986408521406200,7.41840625,0.25146418809890747,0.2931826114654541,1.3440345525741577
1782986408531480000,7.42847998046875,0.2785879671573639,0.5770175457000732,0.9350878000259399
1782986408541555200,7.43855517578125,0.30826330184936523,0.823601484298706,0.6884545683860779
1782986408551629000,7.448629150390625,0.3188522756099701,0.9549038410186768,0.7372466325759888
1782986408561703000,7.458702880859375,0.335589200258255,1.0379893779754639,0.8562337160110474
1782986408571778000,7.468778076171875,0.3365572392940521,1.179332971572876,0.7093915343284607
1782986408581852200,7.47885205078125,0.34401464462280273,1.3558053970336914,0.2571553587913513
1782986408591926000,7.488926025390625,0.35283130407333374,1.4603896141052246,-0.22257262468338013
1782986408602001200,7.499001220703125,0.4145766794681549,1.4173578023910522,-0.4214303195476532
1782986408612075000,7.509074951171875,0.5702871680259705,1.202591896057129,-0.19761081039905548
1782986408622148900,7.51914892578125,0.7006257176399231,0.9193426370620728,0.3256995379924774
1782986408632224000,7.52922412109375,0.7730259299278259,0.6326144933700562,0.9382420182228088
1782986408642297900,7.5392978515625,0.6871299147605896,0.28518006205558777,1.3967230319976807
1782986408652372200,7.549372314453125,0.5030444860458374,-0.03798599913716316,1.624814510345459
1782986408662446800,7.55944677734375,0.2827360928058624,-0.3096848726272583,1.442265272140503
1782986408672521200,7.569521240234375,0.10141903162002563,-0.5010111927986145,0.8414936661720276
1782986408682595000,7.579594970703125,-0.008184692822396755,-0.51555335521698,0.060500361025333405
1782986408692670200,7.589670166015625,-0.056279249489307404,-0.4312209188938141,-0.6374371647834778
1782986408702744000,7.599744140625,-0.08317158371210098,-0.3840419352054596,-1.1267824172973633
1782986408712818200,7.609818115234375,-0.12354004383087158,-0.3061878979206085,-1.3310284614562988
1782986408722893000,7.61989306640625,-0.20605862140655518,-0.11387117207050323,-1.3003871440887451
1782986408732967200,7.62996728515625,-0.3170594573020935,0.13260091841220856,-1.1833654642105103
1782986408743041000,7.640041015625,-0.4935404658317566,0.2967861294746399,-1.0733505487442017
1782986408753116200,7.6501162109375,-0.6765086650848389,0.3369002640247345,-0.9369453191757202
1782986408763190000,7.66018994140625,-0.7982519268989563,0.31520721316337585,-0.8078861832618713
1782986408773264100,7.67026416015625,-0.8578148484230042,0.12165453284978867,-0.7123407125473022
1782986408783339000,7.680339111328125,-0.8528671860694885,-0.16652239859104156,-0.6342435479164124
1782986408793413400,7.690413330078125,-0.7691220045089722,-0.406981885433197,-0.564187228679657
1782986408803487200,7.7004873046875,-0.6547719836235046,-0.6138242483139038,-0.4960592985153198
1782986408813562400,7.710562255859375,-0.4976246953010559,-0.7491642236709595,-0.36382243037223816
1782986408823636500,7.720636474609375,-0.2834452986717224,-0.71355140209198,-0.1537346988916397
1782986408833710300,7.73071044921875,-0.09183458238840103,-0.5766923427581787,0.03879186883568764
1782986408843785500,7.740785400390625,0.0603613443672657,-0.4019213318824768,0.16959835588932037
1782986408853859300,7.750859375,0.14565306901931763,-0.2361171990633011,0.20688314735889435
1782986408863933400,7.760933349609375,0.17838332056999207,-0.12249688804149628,0.20971886813640594
1782986408874008300,7.77100830078125,0.1790989190340042,-0.0748332291841507,0.2047715187072754
1782986408884082400,7.78108251953125,0.1566503345966339,-0.05974002927541733,0.2080719769001007
1782986408894156500,7.791156494140625,0.12933428585529327,-0.025543177500367165,0.21263690292835236
1782986408904231400,7.8012314453125,0.11718548089265823,-0.056112803518772125,0.2146204262971878
1782986408914305500,7.811305419921875,0.11494309455156326,-0.12325828522443771,0.19851602613925934
1782986408924379400,7.82137939453125,0.138284370303154,-0.17185164988040924,0.14619795978069305
1782986408934454500,7.83145458984375,0.18906579911708832,-0.22750213742256165,0.12302818894386292
1782986408944528400,7.8415283203125,0.2788790464401245,-0.3441227674484253,0.15218554437160492
1782986408954603500,7.851603515625,0.3585118055343628,-0.46307072043418884,0.1440221518278122
1782986408964677400,7.861677490234375,0.434962660074234,-0.41224613785743713,0.12918753921985626
1782986408974751500,7.87175146484375,0.6057109236717224,-0.23489107191562653,0.24333089590072632
1782986408984826400,7.881826416015625,0.87232905626297,0.004768123384565115,0.4015471637248993
1782986408994900500,7.891900390625,1.0764819383621216,0.38672348856925964,0.4988787770271301
1782986409004974300,7.901974365234375,1.3358360528945923,0.8675017952919006,0.4599883556365967
1782986409015049500,7.912049560546875,1.694502592086792,0.8644666075706482,0.4216090142726898
1782986409025123300,7.922123291015625,1.9825143814086914,0.1941276639699936,0.5692973136901855
1782986409035197400,7.932197509765625,1.9080613851547241,-0.08724728971719742,0.7341035604476929
1782986409045272300,7.942272216796875,1.5444576740264893,0.43429526686668396,0.9427635669708252
1782986409055346400,7.952346435546875,0.8731091022491455,0.8179553151130676,1.380039930343628
1782986409065420300,7.962420166015625,0.17448365688323975,0.9407113194465637,1.2631458044052124
1782986409075495400,7.972495361328125,-0.3360549807548523,0.9375945925712585,0.42288386821746826
1782986409085569300,7.9825693359375,-0.3003457188606262,0.6595630049705505,-0.18564923107624054
1782986409095643600,7.9926435546875,0.35672909021377563,0.3686986565589905,0.06654839962720871
1782986409105718300,8.00271826171875,1.041500210762024,0.2876339256763458,0.89996337890625
1782986409115792600,8.012792724609374,1.4287134408950806,0.7359203696250916,1.6330431699752808
1782986409125866500,8.022866455078125,1.582291603088379,1.243451714515686,2.0479581356048584
1782986409135941600,8.032941650390624,1.4665732383728027,1.4720792770385742,2.27480149269104
1782986409146015500,8.043015380859375,1.2968686819076538,1.556870937347412,2.350201368331909
1782986409156089300,8.05308935546875,1.1626181602478027,1.4657716751098633,2.317194938659668
1782986409166164500,8.06316455078125,1.0239322185516357,1.1069754362106323,2.1640090942382812
1782986409176238300,8.07323828125,0.8015499711036682,0.6260186433792114,1.782317042350769
1782986409186312400,8.0833125,0.5776958465576172,0.13221237063407898,1.0703614950180054
1782986409196387600,8.0933876953125,0.33694392442703247,-0.20165029168128967,0.10474878549575806
1782986409206461400,8.10346142578125,0.06978733837604523,-0.3941856622695923,-0.9213152527809143
1782986409216535300,8.113535400390624,-0.1489844173192978,-0.3962051272392273,-1.6155613660812378
1782986409226610400,8.1236103515625,-0.3783600926399231,-0.3855617940425873,-1.9298039674758911
1782986409236684300,8.133684326171876,-0.5509627461433411,-0.35335832834243774,-1.9219626188278198
1782986409246758400,8.14375830078125,-0.5971478223800659,-0.2805054187774658,-1.6084460020065308
1782986409256833300,8.153833251953126,-0.5928681492805481,-0.2994365096092224,-1.1177403926849365
1782986409266907400,8.163907470703125,-0.5280795693397522,-0.3906252682209015,-0.5818690061569214
1782986409276981200,8.173981201171875,-0.44566774368286133,-0.5040881633758545,-0.19259528815746307
1782986409287056400,8.184056396484374,-0.3925861716270447,-0.5292830467224121,-0.01619654707610607
1782986409297130200,8.194130126953125,-0.3879314959049225,-0.43495064973831177,-0.04205743968486786
1782986409307204600,8.20420458984375,-0.4157436788082123,-0.4119899570941925,-0.2075372189283371
1782986409317279200,8.214279296875,-0.4580397307872772,-0.42601123452186584,-0.4784392714500427
1782986409327353600,8.224353515625,-0.5435115098953247,-0.344077467918396,-0.7530884146690369
1782986409337427500,8.234427490234374,-0.606559693813324,-0.22566747665405273,-0.9857525825500488
1782986409347502600,8.244502685546875,-0.6149707436561584,-0.10605239868164062,-1.09945547580719
1782986409357576400,8.254576416015626,-0.5694277882575989,-0.058932825922966,-1.077208161354065
1782986409367650600,8.264650634765625,-0.49424728751182556,-0.04044489562511444,-0.9820036292076111
1782986409377725400,8.274725341796875,-0.41355109214782715,0.012139753438532352,-0.8704643249511719
1782986409387799600,8.284799560546874,-0.3414683938026428,0.049980875104665756,-0.8425623774528503
1782986409397873400,8.294873291015625,-0.2775975167751312,0.044428449124097824,-0.8743724822998047
1782986409407948500,8.304948486328126,-0.2428150475025177,0.029862292110919952,-0.9120876789093018
1782986409418022400,8.3150224609375,-0.22913624346256256,-0.012818593531847,-0.9253089427947998
1782986409428097500,8.32509765625,-0.23088806867599487,-0.0767805278301239,-0.9182353019714355
1782986409438171400,8.33517138671875,-0.24224671721458435,-0.14816762506961823,-0.8589213490486145
1782986409448245500,8.34524560546875,-0.24741165339946747,-0.1720186322927475,-0.719752311706543
1782986409458320400,8.3553203125,-0.2351965308189392,-0.14338113367557526,-0.46726492047309875
1782986409468394500,8.36539453125,-0.18757842481136322,-0.19156117737293243,-0.21185339987277985
1782986409478468400,8.37546826171875,-0.12207051366567612,-0.2678189277648926,-0.0456543043255806
1782986409488543500,8.38554345703125,0.01471716072410345,-0.23271021246910095,0.12561412155628204
1782986409498617300,8.395617431640625,0.16161605715751648,-0.17404556274414062,0.21930678188800812
1782986409508691200,8.405691162109376,0.2539744973182678,-0.2699265480041504,0.2228091061115265
1782986409518766300,8.415766357421875,0.28694015741348267,-0.4466818869113922,0.21356500685214996
1782986409528840200,8.425840087890625,0.2186332792043686,-0.4039570689201355,0.2860144376754761
1782986409538914600,8.43591455078125,0.09275496751070023,-0.23582957684993744,0.48261937499046326
1782986409548989200,8.4459892578125,0.038729287683963776,-0.10998722165822983,0.5306625366210938
1782986409559063600,8.4560634765625,0.041968222707509995,-0.004792091902345419,-0.055994559079408646
1782986409569137400,8.466137451171875,0.07678106427192688,0.48909565806388855,-0.7303516864776611
1782986409579212500,8.476212646484376,0.05551731958985329,0.9052904844284058,-0.7875510454177856
1782986409589286400,8.486286376953124,0.06027878820896149,0.8374989032745361,-0.46052980422973633
1782986409599360500,8.496360595703125,0.12839339673519135,0.5982477068901062,-0.44241923093795776
1782986409609435400,8.506435302734374,0.12616007030010223,0.3832680284976959,-0.6983306407928467
1782986409619509500,8.516509521484375,0.18720583617687225,0.31616756319999695,-0.7348005175590515
1782986409629583400,8.526583251953125,0.33545178174972534,0.48479971289634705,-0.39936578273773193
1782986409639658500,8.536658447265625,0.42519256472587585,0.798423171043396,0.04514004662632942
1782986409649732400,8.546732421875,0.4251376986503601,1.1875003576278687,0.34168994426727295
1782986409659806500,8.556806396484374,0.3860422372817993,1.5772409439086914,0.5537098050117493
1782986409669881300,8.56688134765625,0.33960577845573425,1.7630254030227661,0.891233503818512
1782986409679955500,8.57695556640625,0.27697888016700745,1.8222637176513672,1.2286179065704346
1782986409690029300,8.587029296875,0.23981977999210358,1.7271240949630737,1.4710079431533813
1782986409700104400,8.5971044921875,0.27502918243408203,1.3924294710159302,1.6897386312484741
1782986409710178300,8.60717822265625,0.35475942492485046,0.8847974538803101,1.8825725317001343
1782986409720252400,8.61725244140625,0.39289721846580505,0.36284956336021423,1.8873928785324097
1782986409730327300,8.627327392578126,0.3541357219219208,-0.03735616058111191,1.555753469467163
1782986409740401400,8.6374013671875,0.2176220715045929,-0.3379362225532532,0.8143496513366699
1782986409750475500,8.6474755859375,0.09729485958814621,-0.6212579607963562,-0.1926051378250122
1782986409760550400,8.65755029296875,0.007413441315293312,-0.8334982991218567,-1.1944218873977661
1782986409770624500,8.66762451171875,-0.014914234168827534,-1.0426321029663086,-2.0218474864959717
1782986409780699400,8.677699462890626,-0.024824123829603195,-1.1448684930801392,-2.4985599517822266
1782986409790772700,8.687772705078125,-0.07069174945354462,-0.9693112373352051,-2.4125306606292725
1782986409800846800,8.697846923828125,-0.11848989129066467,-0.6993647217750549,-1.7650911808013916
1782986409810920700,8.707920654296874,-0.1865198165178299,-0.5733498334884644,-0.8361175060272217
1782986409820995800,8.717995849609375,-0.23967064917087555,-0.6206571459770203,-0.013655357994139194
1782986409831069700,8.728069580078126,-0.25850293040275574,-0.6595180034637451,0.4625481963157654
1782986409841144800,8.738144775390625,-0.2192830890417099,-0.6307612061500549,0.6212347745895386
1782986409851218700,8.74821875,-0.17064684629440308,-0.5957446098327637,0.5407194495201111
1782986409861292800,8.758292724609374,-0.12587058544158936,-0.504856526851654,0.3293110430240631
1782986409871367700,8.76836767578125,-0.08749149739742279,-0.38975095748901367,0.10034045577049255
1782986409881441800,8.77844189453125,-0.0687582939863205,-0.344892680644989,-0.07212772220373154
1782986409891515600,8.788515625,-0.0716233178973198,-0.3268044888973236,-0.15396639704704285
1782986409901590800,8.7985908203125,-0.08891362696886063,-0.337795615196228,-0.15070189535617828
1782986409911664600,8.80866455078125,-0.1208590418100357,-0.3713197410106659,-0.09619124978780746
1782986409921738800,8.81873876953125,-0.16291993856430054,-0.4036550521850586,-0.013634852133691311
1782986409931813600,8.828813720703126,-0.20444129407405853,-0.43594855070114136,0.06999319791793823
1782986409941887700,8.8388876953125,-0.2335003763437271,-0.432804673910141,0.1254900097846985
1782986409951961900,8.8489619140625,-0.2337658852338791,-0.3964376151561737,0.16379240155220032
1782986409962036700,8.85903662109375,-0.22903397679328918,-0.3640541136264801,0.179845929145813
1782986409972110800,8.86911083984375,-0.21082435548305511,-0.33523258566856384,0.18352028727531433
1782986409982185000,8.87918505859375,-0.18715603649616241,-0.3220888376235962,0.15514244139194489
1782986409992259800,8.889259765625,-0.15015248954296112,-0.2670316994190216,0.09192859381437302
1782986410002334000,8.899333984375,-0.10096283257007599,-0.26856887340545654,0.012516857124865055
1782986410012407800,8.90940771484375,-0.05670242756605148,-0.3615129292011261,-0.07900853455066681
1782986410022483000,8.91948291015625,-0.015032478608191013,-0.48050323128700256,-0.17981956899166107
1782986410032556800,8.929556884765624,0.001237571006640792,-0.4615790843963623,-0.2686503529548645
1782986410042630700,8.939630615234375,0.02712962217628956,-0.28021249175071716,-0.1783473640680313
1782986410052705800,8.949705810546876,0.060446031391620636,0.23733611404895782,0.18048961460590363
1782986410062780000,8.95977978515625,0.06622376292943954,0.7460430264472961,0.6460839509963989
1782986410072853800,8.969853759765625,0.0990472212433815,0.9962984323501587,0.9882948398590088
1782986410082929000,8.979928955078124,0.16367335617542267,0.682607889175415,0.9674675464630127
1782986410093002800,8.990002685546875,0.1603425294160843,-0.1242590993642807,0.3055891990661621
1782986410103076600,9.00007666015625,0.09409480541944504,-1.0474950075149536,-0.7910799980163574
1782986410113151700,9.01015185546875,-0.07216527312994003,-1.1050877571105957,-1.6893812417984009
1782986410123225600,9.0202255859375,-0.2430611252784729,-0.5458561182022095,-1.9058654308319092
1782986410133299700,9.0302998046875,-0.1793188899755478,0.13794028759002686,-1.6693860292434692
1782986410143374600,9.04037451171875,-0.03166978061199188,0.6370710134506226,-1.3767075538635254
1782986410153448700,9.05044873046875,0.008023837581276894,0.7958428263664246,-1.0545110702514648
1782986410163522800,9.060522705078125,0.051714591681957245,0.614928126335144,-0.6518169045448303
1782986410173597700,9.07059765625,0.11780226975679398,0.28549113869667053,-0.14997485280036926
1782986410183671800,9.080671875,0.1838659644126892,-0.060745373368263245,0.3672557771205902
1782986410193746000,9.090745849609375,0.40896353125572205,-0.22289618849754333,0.8982391953468323
1782986410203820800,9.10082080078125,0.951377272605896,-0.110292948782444,1.3646165132522583
1782986410213895000,9.11089501953125,1.348050832748413,0.21388192474842072,1.4407930374145508
1782986410223968800,9.12096875,1.4401823282241821,0.6721022129058838,1.09617018699646
1782986410234044000,9.1310439453125,1.3090111017227173,1.1786458492279053,0.6315092444419861
1782986410244117800,9.14111767578125,1.0330814123153687,1.5901175737380981,0.26190832257270813
1782986410254193000,9.15119287109375,0.7602195739746094,1.7425917387008667,0.0733485147356987
1782986410264266800,9.161266845703125,0.5537515878677368,1.4970488548278809,0.003209375310689211
1782986410274340900,9.1713408203125,0.3738636076450348,0.9797434210777283,-0.059067849069833755
1782986410284415700,9.181415771484374,0.20653825998306274,0.2888781428337097,-0.24681563675403595
1782986410294489900,9.19148974609375,0.07204409688711166,-0.34197384119033813,-0.5545462965965271
1782986410304563700,9.201563720703126,0.04045234993100166,-0.699574887752533,-0.8422001600265503
1782986410314638800,9.211638916015625,0.07953903079032898,-0.8935981392860413,-1.0149213075637817
1782986410324712700,9.221712646484375,0.1222342997789383,-0.9849488139152527,-1.0009455680847168
1782986410334786800,9.231786865234374,0.13554397225379944,-0.9600003361701965,-0.7537635564804077
1782986410344861700,9.24186181640625,0.09363327920436859,-0.8169822096824646,-0.31965363025665283
1782986410354935800,9.251935791015624,-0.026037460193037987,-0.6355167627334595,0.08985185623168945
1782986410365009700,9.262009765625,-0.18714165687561035,-0.4233318269252777,0.2954428195953369
1782986410375084800,9.272084716796876,-0.3381415605545044,-0.14178110659122467,0.29433974623680115
1782986410385158700,9.28215869140625,-0.4424213469028473,0.15246251225471497,0.14209961891174316
1782986410395232800,9.292232666015625,-0.5064520239830017,0.2983297109603882,-0.03922037407755852
1782986410405307600,9.3023076171875,-0.5288028717041016,0.2450435757637024,-0.18798108398914337
1782986410415380700,9.312380615234375,-0.4837970435619354,0.08218222111463547,-0.26662635803222656
1782986410425455900,9.322455810546876,-0.3970903754234314,-0.10244514793157578,-0.27005916833877563
1782986410435529700,9.33252978515625,-0.32931292057037354,-0.23818859457969666,-0.17700514197349548
1782986410445603800,9.342603759765625,-0.24751952290534973,-0.33763155341148376,-0.03664323315024376
1782986410455678700,9.3526787109375,-0.17744483053684235,-0.4005146622657776,0.11487651616334915
1782986410465752800,9.3627529296875,-0.1348840445280075,-0.443295955657959,0.246789813041687
1782986410475826700,9.37282666015625,-0.12123561650514603,-0.49566566944122314,0.32826149463653564
1782986410485901800,9.38290185546875,-0.14460298418998718,-0.49427735805511475,0.3733903765678406
1782986410495975700,9.3929755859375,-0.16415324807167053,-0.44385600090026855,0.4138115644454956
1782986410506049800,9.4030498046875,-0.1688273698091507,-0.4030691683292389,0.4315388798713684
1782986410516124700,9.413124755859375,-0.16820178925991058,-0.34421196579933167,0.41724568605422974
1782986410526198800,9.42319873046875,-0.15454217791557312,-0.2644404470920563,0.33568131923675537
1782986410536272600,9.433272705078124,-0.1477966457605362,-0.2734246253967285,0.21572883427143097
1782986410546347800,9.44334765625,-0.11955169588327408,-0.3796980679035187,0.16096624732017517
1782986410556421600,9.453421630859374,-0.028494758531451225,-0.46054816246032715,0.18660131096839905
1782986410566496800,9.463496826171875,0.10320894420146942,-0.39902782440185547,0.3068166673183441
1782986410576570600,9.473570556640626,0.22196994721889496,-0.3742303252220154,0.4549211859703064
1782986410586645000,9.48364501953125,0.3759334087371826,-0.42414116859436035,0.7184968590736389
1782986410596719600,9.4937197265625,0.5164796113967896,-0.3929555416107178,1.1782524585723877
1782986410606794000,9.5037939453125,0.558885931968689,-0.09061431884765625,1.7033793926239014
1782986410616867800,9.513867919921875,0.5311978459358215,0.38568511605262756,1.7890479564666748
1782986410626943000,9.52394287109375,0.6093584299087524,1.0939791202545166,1.208321452140808
1782986410637016800,9.534016845703125,0.7187256813049316,1.4951598644256592,0.006164152640849352
1782986410647090700,9.544090576171875,0.8325318694114685,1.24068284034729,-1.2411640882492065
1782986410657165800,9.554165771484374,0.8282905220985413,0.6044906973838806,-1.9803729057312012
1782986410667240000,9.564239990234375,0.6187135577201843,0.019303390756249428,-1.947748064994812
1782986410677313800,9.574313720703126,0.38224270939826965,-0.2817704379558563,-1.501523733139038
1782986410687389000,9.584388916015625,0.2853965759277344,-0.27717435359954834,-1.0193264484405518
1782986410697462800,9.594462890625,0.2831805646419525,-0.08208315074443817,-0.5917959213256836
1782986410707536600,9.60453662109375,0.44989684224128723,0.17371107637882233,-0.0805334597826004
1782986410717611800,9.61461181640625,0.6916146874427795,0.43622392416000366,0.5372551679611206
1782986410727685600,9.624685546875,0.924471914768219,0.6524150967597961,1.0282057523727417
1782986410737759700,9.634759765625,1.0898557901382446,0.8791230320930481,1.2363560199737549
1782986410747834600,9.644834716796876,1.1185028553009033,0.9989650249481201,1.2198715209960938
1782986410757908700,9.65490869140625,0.983647346496582,0.9712303280830383,1.1171371936798096
1782986410767983600,9.664983642578125,0.7320963144302368,0.7488614320755005,1.143477439880371
1782986410778057700,9.6750576171875,0.4154033362865448,0.36326101422309875,1.2261006832122803
1782986410788131800,9.6851318359375,0.11516200751066208,-0.03171585127711296,1.130756139755249
1782986410798206700,9.695206787109376,-0.18217885494232178,-0.27073270082473755,0.7294326424598694
1782986410808280800,9.70528076171875,-0.38345444202423096,-0.4556037485599518,0.06396353989839554
1782986410818355000,9.71535498046875,-0.4875622093677521,-0.6023196578025818,-0.6675383448600769
1782986410828429800,9.725429931640624,-0.4998050332069397,-0.7458866834640503,-1.2852662801742554
1782986410838504000,9.73550390625,-0.45097729563713074,-0.7805504202842712,-1.6295371055603027
1782986410848577800,9.745577880859376,-0.4106898009777069,-0.6217247843742371,-1.651623249053955
1782986410858653000,9.75565283203125,-0.4034065902233124,-0.4455881118774414,-1.423007607460022
1782986410868726800,9.765726806640625,-0.42497846484184265,-0.3066613972187042,-1.0364285707473755
1782986410878801000,9.77580078125,-0.47806882858276367,-0.22144344449043274,-0.6281813979148865
1782986410888875800,9.785875732421875,-0.5415844321250916,-0.1439337432384491,-0.29861652851104736
1782986410898950000,9.795949951171876,-0.5885477066040039,-0.08319422602653503,-0.0955081433057785
1782986410909023700,9.806023681640625,-0.6144139170646667,-0.03705761954188347,0.028118986636400223
1782986410919099000,9.816098876953125,-0.6054467558860779,0.0001411475386703387,0.06660379469394684
1782986410929172700,9.8261728515625,-0.5856642723083496,0.011607653461396694,0.05841643735766411
1782986410939246800,9.836246826171875,-0.5550158023834229,-0.014671354554593563,0.045341115444898605
1782986410949321700,9.84632177734375,-0.5428041815757751,-0.09481066465377808,0.03044339269399643
1782986410959395800,9.856395751953125,-0.5239511132240295,-0.174522265791893,0.0510336235165596
1782986410969469700,9.8664697265625,-0.49093058705329895,-0.20983952283859253,0.08140058070421219
1782986410979544800,9.876544921875,-0.46783724427223206,-0.2245316356420517,0.11554443836212158
1782986410989618700,9.88661865234375,-0.432917058467865,-0.18015539646148682,0.16311754286289215
1782986410999692800,9.89669287109375,-0.3717367947101593,-0.0949653908610344,0.18159669637680054
1782986411009767700,9.906767578125,-0.3092159032821655,-0.08798551559448242,0.17186443507671356
1782986411019841800,9.916841796875,-0.27739566564559937,-0.16506245732307434,0.1657860428094864
1782986411029916700,9.926916748046875,-0.2722235321998596,-0.2528333067893982,0.17078639566898346
1782986411039990800,9.93699072265625,-0.2826777696609497,-0.3062185049057007,0.21536238491535187
1782986411050065000,9.94706494140625,-0.29601433873176575,-0.3528991937637329,0.29648759961128235
1782986411060139800,9.957139892578125,-0.3119909167289734,-0.3433469831943512,0.37650999426841736
1782986411070214000,9.9672138671875,-0.3376568555831909,-0.22779880464076996,0.4586021900177002
1782986411080288000,9.9772880859375,-0.3188067376613617,-0.0023406522814184427,0.5968942642211914
1782986411090363000,9.98736279296875,-0.28360775113105774,0.18861651420593262,0.7057917714118958
1782986411100437000,9.99743701171875,-0.22751279175281525,0.31164470314979553,0.7429633736610413
1782986411110510800,10.0075107421875,-0.14031316339969635,0.3262942135334015,0.7382639050483704
1782986411120586000,10.0175859375,-0.023388413712382317,0.058582618832588196,0.8048208355903625
1782986411130659800,10.027659912109375,0.1694638580083847,-0.2636135220527649,1.0999566316604614
1782986411140733700,10.037733642578125,0.3735717236995697,-0.34036290645599365,1.331400990486145
1782986411150808800,10.047808837890624,0.44414281845092773,0.0038477350026369095,1.1056792736053467
1782986411160882700,10.057882568359375,0.34094107151031494,0.4654606282711029,0.6079501509666443
1782986411170956800,10.067956787109376,0.09850846230983734,0.7455615401268005,0.1450386792421341
1782986411181032000,10.078031982421875,-0.12272485345602036,0.7865180373191833,-0.02238386869430542
1782986411191105800,10.088105712890625,-0.1515413224697113,0.6031516790390015,0.0811542421579361
1782986411201179600,10.0981796875,-0.013456686399877071,0.3039233982563019,0.04988500103354454
1782986411211254800,10.1082548828125,0.12418879568576813,-0.010939200408756733,-0.3496916890144348
1782986411221328600,10.11832861328125,0.11838017404079437,-0.38088369369506836,-0.648919403553009
1782986411231402800,10.12840283203125,0.06742537766695023,-0.7094796895980835,-0.2552088499069214
1782986411241477600,10.1384775390625,-0.041913360357284546,-0.7009844779968262,0.41259050369262695
1782986411251551700,10.1485517578125,-0.07544735074043274,-0.20084922015666962,0.755686342716217
1782986411261625900,10.1586259765625,-0.007704258430749178,0.5418728590011597,0.601252555847168
1782986411271700700,10.16870068359375,0.1800999939441681,1.2362295389175415,0.0790623277425766
1782986411281774800,10.17877490234375,0.36848482489585876,1.537459135055542,-0.3725876808166504
1782986411291849000,10.188848876953125,0.5277908444404602,1.484349012374878,-0.35873177647590637
1782986411301923800,10.198923828125,0.6147036552429199,1.1436675786972046,0.0970328077673912
1782986411311998000,10.208998046875,0.538179874420166,0.48188620805740356,0.7679051756858826
1782986411322071800,10.21907177734375,0.41818153858184814,-0.08973094820976257,1.4443795680999756
1782986411332147000,10.22914697265625,0.2675877809524536,-0.36178138852119446,1.6443579196929932
1782986411342220800,10.239220703125,0.09428122639656067,-0.4766938388347626,1.2544474601745605
1782986411352296000,10.2492958984375,0.025292040780186653,-0.4656081795692444,0.47471752762794495
1782986411362369800,10.259369873046875,-0.028121650218963623,-0.3527226448059082,-0.36854925751686096
1782986411372444000,10.26944384765625,-0.09926853328943253,-0.1907728761434555,-0.91103595495224
1782986411382518800,10.279518798828125,-0.155768021941185,-0.0570656843483448,-0.994269073009491
1782986411392593000,10.289593017578126,-0.22482086718082428,0.07533682882785797,-0.6671119928359985
1782986411402666800,10.299666748046874,-0.2842370569705963,0.10060357302427292,-0.19870483875274658
1782986411412742000,10.309741943359375,-0.3300063908100128,0.09596940875053406,0.18352802097797394
1782986411422815700,10.319815673828124,-0.3464184105396271,0.08255133777856827,0.363241583108902
1782986411432889900,10.329889892578125,-0.35933926701545715,-0.04391499236226082,0.33185064792633057
1782986411442964700,10.33996484375,-0.3541538119316101,-0.1643010526895523,0.17838944494724274
1782986411453038800,10.350038818359375,-0.3544475734233856,-0.2558530867099762,0.00862997304648161
1782986411463112700,10.36011279296875,-0.3616311848163605,-0.29810652136802673,-0.07362202554941177
1782986411473187800,10.370187744140624,-0.35675811767578125,-0.28632497787475586,-0.08059391379356384
1782986411483261700,10.38026171875,-0.3316037654876709,-0.1881754994392395,-0.0305163636803627
1782986411493335800,10.390335693359376,-0.3013417422771454,-0.10896323621273041,0.01883201114833355
1782986411503411000,10.400410888671875,-0.24872486293315887,-0.08097553998231888,0.030002107843756676
1782986411513484800,10.41048486328125,-0.22963398694992065,-0.14100639522075653,0.01884506084024906
1782986411523559000,10.420558837890624,-0.22628186643123627,-0.2513597905635834,0.028904885053634644
1782986411533634000,10.430634033203125,-0.24082805216312408,-0.3447650969028473,0.060378920286893845
1782986411543708000,10.4407080078125,-0.251494824886322,-0.41381821036338806,0.08510690182447433
1782986411553781800,10.45078173828125,-0.2654077112674713,-0.4562154710292816,0.13367630541324615
1782986411563857000,10.46085693359375,-0.2742603123188019,-0.48878487944602966,0.3814972937107086
1782986411573930800,10.4709306640625,-0.2429569959640503,-0.38545021414756775,0.6503660082817078
1782986411584004900,10.4810048828125,-0.1785668134689331,-0.07746203243732452,0.6876236796379089
1782986411594079700,10.491079833984376,-0.11133158206939697,0.2319544106721878,0.6916109323501587
1782986411604153900,10.50115380859375,-0.04496081545948982,0.312582403421402,0.6258372664451599
1782986411614227700,10.511227783203125,0.013835654594004154,0.33601289987564087,0.482561856508255
1782986411624302800,10.521302734375,0.07138922810554504,0.3572300374507904,0.4395185112953186
1782986411634376700,10.531376708984375,0.13775627315044403,0.307461678981781,0.5119500756263733
1782986411644450800,10.541450927734376,0.13444383442401886,0.260692834854126,0.7257228493690491
1782986411654525700,10.551525634765625,0.07933663576841354,-0.01781095564365387,1.0411087274551392
