time,seconds_elapsed,z,y,x
1782986401183511000,0.080510986328125,0.16712063550949097,0.553348183631897,0.4221893548965454
1782986401193585200,0.090585205078125,0.172402486205101,0.338946133852005,0.4875185787677765
1782986401203660000,0.100659912109375,0.21809709072113037,0.0827864557504654,0.49199602007865906
1782986401213734100,0.110734130859375,0.30092063546180725,-0.06833221763372421,0.4420311152935028
1782986401223808000,0.12080810546875,0.44432058930397034,-0.07171625643968582,0.35991793870925903
1782986401233883100,0.130883056640625,0.6469730138778687,-0.022866424173116684,0.2898181974887848
1782986401243957000,0.14095703125,0.8145877122879028,-0.06525210291147232,0.24663172662258148
1782986401254031000,0.151031005859375,0.6750574707984924,0.07194995880126953,-0.026685312390327454
1782986401264106000,0.16110595703125,0.41423240303993225,0.1264503002166748,-0.5108258724212646
1782986401274180000,0.17118017578125,0.17876343429088593,0.46335697174072266,-1.103387713432312
1782986401284254000,0.18125390625,0.3327130079269409,1.1262494325637817,-1.6482837200164795
1782986401294329000,0.1913291015625,0.6422697901725769,1.5972976684570312,-2.152968645095825
1782986401304403000,0.20140283203125,0.7954156398773193,1.613507866859436,-2.51053786277771
1782986401314477000,0.21147705078125,0.9075557589530945,1.0780553817749023,-2.300398349761963
1782986401324552000,0.221552001953125,1.3008559942245483,0.7383570075035095,-1.347328543663025
1782986401334626300,0.231626220703125,1.6076679229736328,0.5129073858261108,-0.33042553067207336
1782986401344700200,0.2417001953125,1.494262933731079,-0.038495223969221115,-0.010342677123844624
1782986401354775300,0.251775390625,1.256443738937378,-0.9815120100975037,-0.2325240820646286
1782986401364849200,0.26184912109375,1.1890761852264404,-0.9564025402069092,-0.9016716480255127
1782986401374923000,0.271923095703125,1.3139262199401855,-0.5478864312171936,-1.6875799894332886
1782986401384998100,0.281998046875,1.6813780069351196,-0.26778507232666016,-2.4023427963256836
1782986401395072000,0.292072021484375,2.1868252754211426,0.014190171845257282,-2.5555601119995117
1782986401405146000,0.30214599609375,2.5438225269317627,0.056374192237854004,-1.7871266603469849
1782986401415221000,0.312220947265625,2.4904117584228516,0.12910592555999756,-0.5333572626113892
1782986401425295000,0.322295166015625,2.0511422157287598,0.28749725222587585,1.145896077156067
1782986401435369000,0.332368896484375,1.6452940702438354,0.305608868598938,2.7893097400665283
1782986401445444000,0.342444091796875,1.3837441205978394,0.3549098074436188,3.886741876602173
1782986401455518000,0.35251806640625,1.0311168432235718,0.22645223140716553,4.301151275634766
1782986401465592000,0.362592041015625,0.2631385326385498,-0.3974001407623291,4.074682235717773
1782986401475667000,0.3726669921875,-0.6486788392066956,-0.9618203639984131,3.518543004989624
1782986401485741000,0.382740966796875,-1.1052968502044678,-0.872695803642273,2.877117395401001
1782986401495815000,0.39281494140625,-1.2017887830734253,-0.23685726523399353,2.297267198562622
1782986401505890000,0.40289013671875,-0.9647634625434875,0.5510685443878174,1.7248210906982422
1782986401515964000,0.4129638671875,-0.44860875606536865,0.7477651238441467,1.0180504322052002
1782986401526038300,0.423038330078125,0.09966230392456055,0.3027082681655884,0.2401694655418396
1782986401536113000,0.43311279296875,0.49632471799850464,-0.5035980939865112,-0.26488813757896423
1782986401546187300,0.443187255859375,0.5608037710189819,-1.0477817058563232,-0.25599685311317444
1782986401556261000,0.45326123046875,0.2664717137813568,-1.1457839012145996,-0.011282979510724545
1782986401566336300,0.463336181640625,-0.19484135508537292,-0.9760040640830994,0.17946983873844147
1782986401576410000,0.47341015625,-0.6576095223426819,-0.4973008632659912,0.2593880891799927
1782986401586484200,0.483484130859375,-0.845592200756073,-0.1328752338886261,0.21360203623771667
1782986401596559000,0.49355908203125,-0.9640727639198303,0.16196812689304352,-0.07306435704231262
1782986401606633200,0.50363330078125,-0.9818904399871826,0.2321556657552719,-0.1027112826704979
1782986401616707000,0.51370703125,-0.8303149938583374,0.1158176064491272,-0.04986564442515373
1782986401626782200,0.5237822265625,-0.6246316432952881,-0.045645155012607574,0.07694195955991745
1782986401636856000,0.53385595703125,-0.416588693857193,-0.22364552319049835,0.1883411854505539
1782986401646930000,0.543929931640625,-0.1868371069431305,-0.17009074985980988,0.23354753851890564
1782986401657005000,0.554005126953125,0.07524778693914413,-0.23989646136760712,0.19511225819587708
1782986401667079000,0.564078857421875,0.16320432722568512,-0.7705188393592834,-0.03314998745918274
1782986401677153000,0.574153076171875,0.046800483018159866,-1.4624933004379272,-0.30153271555900574
1782986401687228000,0.584227783203125,-0.17443542182445526,-2.018620252609253,-0.4355374276638031
1782986401697302000,0.594302001953125,-0.362866073846817,-2.104836940765381,-0.5099834203720093
1782986401707376000,0.604376220703125,-0.29579654335975647,-1.1131596565246582,-0.7091554403305054
1782986401717451000,0.614450927734375,-0.0907648354768753,-0.08802133053541183,-0.6428041458129883
1782986401727525000,0.624525146484375,-0.08615458011627197,0.7627614736557007,-0.46562904119491577
1782986401737599200,0.63459912109375,-0.1880873441696167,0.6907530426979065,-0.2458503246307373
1782986401747674000,0.644674072265625,-0.28895723819732666,0.1193770244717598,-0.24880528450012207
1782986401757748200,0.654748291015625,-0.4363754689693451,-0.3593306839466095,-0.6393283009529114
1782986401767822000,0.664822021484375,-0.4579829275608063,-1.7216572761535645,-1.5084530115127563
1782986401777897200,0.674897216796875,-0.3417836129665375,-2.2040417194366455,-2.2294607162475586
1782986401787971000,0.68497119140625,0.38167816400527954,0.5550993084907532,-1.6968268156051636
1782986401798045000,0.695044921875,0.9468467831611633,1.0971628427505493,-1.288690447807312
1782986401808120000,0.7051201171875,0.535718560218811,0.6714461445808411,-0.8367552757263184
1782986401818194000,0.71519384765625,0.2488574981689453,-0.23051194846630096,-0.3218264877796173
1782986401828268000,0.72526806640625,0.2795703113079071,-0.355150043964386,0.5010506510734558
1782986401838343000,0.735343017578125,0.4446679353713989,-0.462484210729599,1.232807993888855
1782986401848417000,0.7454169921875,0.6619052886962891,-0.7472639083862305,1.344333291053772
1782986401858491000,0.755490966796875,0.636891782283783,-1.2945607900619507,0.6007768511772156
1782986401868566000,0.76556591796875,0.19945818185806274,-1.4001719951629639,-0.45550939440727234
1782986401878639900,0.775639892578125,-0.5103475451469421,-0.9192086458206177,-1.2184033393859863
1782986401888713700,0.785713623046875,-1.0105493068695068,-0.31259721517562866,-1.635724425315857
1782986401898788900,0.795788818359375,-0.9666286110877991,0.11699648946523666,-1.9303799867630005
1782986401908863000,0.805863037109375,-0.5908907651901245,0.11523820459842682,-2.259620189666748
1782986401918937000,0.81593701171875,-0.08347174525260925,-0.0332130491733551,-2.4134299755096436
1782986401929012000,0.826011962890625,0.37003567814826965,-0.22435060143470764,-2.2721309661865234
1782986401939086000,0.836086181640625,0.660243034362793,-0.27317139506340027,-1.6658400297164917
1782986401949160000,0.846159912109375,0.8219652771949768,-0.08881483227014542,-0.7299391627311707
1782986401959235000,0.856235107421875,0.863183856010437,-0.01825464516878128,0.3273531198501587
1782986401969309000,0.866308837890625,0.6953391432762146,-0.25001847743988037,1.211047887802124
1782986401979383000,0.876383056640625,0.5097730159759521,-0.5231860876083374,1.7677953243255615
1782986401989458000,0.8864580078125,0.5056480765342712,-0.7859871983528137,1.833304762840271
1782986401999532000,0.896531982421875,0.4848799407482147,-0.9832121133804321,1.3830366134643555
1782986402009606000,0.90660595703125,0.36097410321235657,-0.9222467541694641,0.5496818423271179
1782986402019681000,0.916680908203125,0.20757734775543213,-0.5332350730895996,-0.4418380558490753
1782986402029755000,0.9267548828125,-0.02350180596113205,-0.08430034667253494,-1.3908945322036743
1782986402039829000,0.9368291015625,-0.36022549867630005,0.06062914431095123,-2.1194043159484863
1782986402049903900,0.94690380859375,-0.6959071159362793,0.052953749895095825,-2.432997941970825
1782986402059978000,0.95697802734375,-0.9584058523178101,0.016496406868100166,-2.3080432415008545
1782986402070051800,0.9670517578125,-1.0982720851898193,-0.06227923929691315,-1.8555842638015747
1782986402080127000,0.977126953125,-1.113921880722046,-0.05929543450474739,-1.2947471141815186
1782986402090200800,0.987200927734375,-1.0887138843536377,0.02088060975074768,-0.7443020343780518
1782986402100275000,0.99727490234375,-1.014357089996338,0.11833712458610535,-0.298825740814209
1782986402110349800,1.007349853515625,-0.901913046836853,0.14308184385299683,-0.036014217883348465
1782986402120424000,1.017423828125,-0.8201747536659241,0.06945875287055969,0.027098704129457474
1782986402130498000,1.027498046875,-0.7546142339706421,-0.017625316977500916,-0.057353537529706955
1782986402140573000,1.037572998046875,-0.6889215111732483,-0.02029646933078766,-0.1838579624891281
1782986402150647000,1.04764697265625,-0.630341649055481,0.04934150353074074,-0.24678099155426025
1782986402160721200,1.05772119140625,-0.5588131546974182,0.11952724307775497,-0.2386128008365631
1782986402170796000,1.067796142578125,-0.517185628414154,0.23575396835803986,-0.17465649545192719
1782986402180870100,1.0778701171875,-0.5120353102684021,0.3532902002334595,-0.029687581583857536
1782986402190944000,1.087944091796875,-0.48049312829971313,0.5777192711830139,0.20981661975383759
1782986402201019100,1.09801904296875,-0.44573941826820374,0.6878691911697388,0.44102081656455994
1782986402211093000,1.108093017578125,-0.45918941497802734,0.6188448071479797,0.6446468234062195
1782986402221166800,1.118166748046875,-0.5056511759757996,0.4401240348815918,0.8191877603530884
1782986402231242000,1.128241943359375,-0.5330488085746765,0.2001623660326004,0.9500035643577576
1782986402241315800,1.13831591796875,-0.5454532504081726,-0.07372219115495682,1.069783329963684
1782986402251390000,1.148389892578125,-0.5689892172813416,-0.29561418294906616,1.1694446802139282
1782986402261465000,1.158465087890625,-0.648971676826477,-0.14917071163654327,1.1265147924423218
1782986402271539000,1.1685390625,-0.7333924174308777,0.5379871726036072,1.0217362642288208
1782986402281612800,1.17861279296875,-0.8139250874519348,1.4453458786010742,0.9364953637123108
1782986402291688000,1.18868798828125,-0.9097139835357666,2.086104393005371,0.890614926815033
1782986402301761800,1.19876171875,-0.9865230321884155,2.126387119293213,0.9558184146881104
1782986402311836000,1.2088359375,-0.9398684501647949,1.6844193935394287,1.1817681789398193
1782986402321910800,1.218910888671875,-0.7128826975822449,1.0214203596115112,1.5425080060958862
1782986402331985000,1.22898486328125,-0.3609013855457306,0.41126739978790283,1.9452192783355713
1782986402342059000,1.23905908203125,-0.05696972832083702,-0.11026503890752792,2.246134042739868
1782986402352134000,1.2491337890625,0.15168844163417816,-0.6074577569961548,2.209500312805176
1782986402362208000,1.2592080078125,0.36824843287467957,-0.9548088312149048,1.679874300956726
1782986402372283000,1.269282958984375,0.3624905049800873,-0.9808925986289978,0.9812424778938293
1782986402382357000,1.27935693359375,0.17080442607402802,-0.7896251678466797,0.47394809126853943
1782986402392431000,1.28943115234375,-0.10086645931005478,-0.5399557948112488,0.16622968018054962
1782986402402505000,1.2995048828125,-0.09220639616250992,-0.622870922088623,-0.3527793884277344
1782986402412580000,1.309580078125,0.12373983860015869,-1.0955629348754883,-1.177976369857788
1782986402422654000,1.319654052734375,0.35456106066703796,-1.422795295715332,-1.6702295541763306
1782986402432729000,1.32972900390625,0.5342697501182556,-1.440179467201233,-1.4246340990066528
1782986402442803000,1.339802978515625,0.6276625394821167,-1.4781135320663452,-0.5920441746711731
1782986402452877000,1.349876953125,0.5733509063720703,-1.924845814704895,0.05826772004365921
1782986402462952000,1.359951904296875,0.2603113055229187,-2.417297601699829,-0.05017859488725662
1782986402473026000,1.370026123046875,-0.3077312707901001,-1.9163743257522583,-1.2069799900054932
1782986402483100000,1.380099853515625,-0.6516838669776917,-0.23185740411281586,-3.177161693572998
1782986402493175000,1.390175048828125,-0.7991493940353394,1.754267930984497,-4.805610656738281
1782986402503249000,1.400248779296875,-1.001747727394104,2.821594476699829,-5.283392429351807
1782986402513323000,1.410322998046875,-1.1128225326538086,2.999537944793701,-4.451704978942871
1782986402523398000,1.42039794921875,-0.9108606576919556,2.2627174854278564,-2.9564361572265625
1782986402533472000,1.430471923828125,-0.5383754372596741,0.9030691981315613,-1.476217269897461
1782986402543545900,1.4405458984375,-0.1398080438375473,-0.47030165791511536,-0.3654266595840454
1782986402553621000,1.45062109375,0.24583113193511963,-1.3637382984161377,0.4603913128376007
1782986402563694800,1.46069482421875,0.49962133169174194,-1.7223047018051147,1.060705304145813
1782986402573769000,1.47076904296875,0.5495971441268921,-1.5342803001403809,1.2959864139556885
1782986402583843800,1.48084375,0.40297731757164,-0.9933896064758301,1.0870424509048462
1782986402593918000,1.49091796875,0.1858551800251007,-0.29385116696357727,0.4821449816226959
1782986402603992000,1.500991943359375,0.009671890176832676,0.2852787673473358,-0.2883754074573517
1782986402614067000,1.51106689453125,0.0036004679277539253,0.5647146701812744,-0.8820931315422058
1782986402624141000,1.52114111328125,0.0551036074757576,0.5295308232307434,-1.210838794708252
1782986402634215000,1.53121484375,0.19078104197978973,0.41223353147506714,-1.2449110746383667
1782986402644290000,1.5412900390625,0.36515524983406067,0.27756544947624207,-0.992594838142395
1782986402654364000,1.551364013671875,0.4579695165157318,0.17381605505943298,-0.6572689414024353
1782986402664438000,1.56143798828125,0.49324148893356323,0.13508383929729462,-0.3214653432369232
1782986402674513000,1.571512939453125,0.468791127204895,0.1645445078611374,-0.004975372925400734
1782986402684587000,1.5815869140625,0.41287484765052795,0.2939022183418274,0.16279152035713196
1782986402694660900,1.591660888671875,0.35350489616394043,0.4791831374168396,0.13868547976016998
1782986402704736000,1.601736083984375,0.3074322044849396,0.7326012849807739,0.01621282659471035
1782986402714809900,1.611809814453125,0.2568788230419159,0.9350115060806274,-0.10820488631725311
1782986402724884000,1.621884033203125,0.21758149564266205,0.931612491607666,-0.13501812517642975
1782986402734958800,1.631958740234375,0.15137940645217896,0.7262362241744995,-0.12309352308511734
1782986402745033000,1.642032958984375,0.09450946748256683,0.5579209923744202,-0.013395251706242561
1782986402755106800,1.65210693359375,0.09237754344940186,0.4315415620803833,0.19992530345916748
1782986402765182000,1.662181884765625,0.12246087938547134,0.3218856453895569,0.5228429436683655
1782986402775255800,1.672255859375,0.1298367977142334,0.21401219069957733,0.8889961838722229
1782986402785330400,1.682330322265625,0.1220308169722557,0.15020523965358734,1.1873866319656372
1782986402795405600,1.692405517578125,0.09207668900489807,0.1654968112707138,1.3819639682769775
1782986402805479400,1.7024794921875,0.033624302595853806,0.26629799604415894,1.4647544622421265
1782986402815553500,1.712553466796875,-0.055090997368097305,0.41445085406303406,1.4055531024932861
1782986402825628400,1.72262841796875,-0.18313871324062347,0.5639042258262634,1.2213115692138672
1782986402835702500,1.73270263671875,-0.34467369318008423,0.6287222504615784,0.9891332983970642
1782986402845776600,1.742776611328125,-0.5170377492904663,0.6905994415283203,0.8367621302604675
1782986402855851800,1.752851806640625,-0.7000617980957031,0.7145861387252808,0.7080100178718567
1782986402865925600,1.762925537109375,-0.9023041129112244,0.7649103403091431,0.5811229348182678
1782986402875999500,1.77299951171875,-1.0379936695098877,0.8152424693107605,0.535909116268158
1782986402886074600,1.78307470703125,-1.1082947254180908,0.8054686784744263,0.7585456371307373
1782986402896148500,1.7931484375,-1.0888378620147705,0.807274580001831,1.3119659423828125
1782986402906222600,1.80322265625,-0.8333024978637695,0.912567675113678,1.9371472597122192
1782986402916297500,1.81329736328125,-0.2668280005455017,0.9307153820991516,2.213294744491577
1782986402926371600,1.82337158203125,0.2655077874660492,0.8732858896255493,1.8724379539489746
1782986402936445400,1.833445556640625,0.4962563216686249,0.7473791241645813,1.1593984365463257
1782986402946520600,1.8435205078125,0.6120505332946777,0.482380747795105,0.6278377771377563
1782986402956594400,1.853594482421875,0.8908857703208923,-0.014719996601343155,0.6468020081520081
1782986402966668500,1.86366845703125,1.2917207479476929,-0.5293505787849426,0.9714046120643616
1782986402976743400,1.873743408203125,1.7426553964614868,-0.6392107605934143,1.1866809129714966
1782986402986817500,1.883817626953125,2.0614163875579834,-0.5512828230857849,1.2578872442245483
1782986402996891400,1.893891357421875,2.0433027744293213,-0.6269887685775757,1.2480236291885376
1782986403006966500,1.903966552734375,1.6503524780273438,-0.733299732208252,0.9149165153503418
1782986403017040400,1.914040283203125,1.0474289655685425,-0.6285706162452698,0.26374271512031555
1782986403027114800,1.92411474609375,0.5144364237785339,-0.47932764887809753,-0.40141186118125916
1782986403037189400,1.934189453125,0.29799047112464905,-0.39872226119041443,-0.9819883704185486
1782986403047263700,1.944263671875,0.5415613055229187,-0.3854067027568817,-1.3907580375671387
1782986403057337600,1.954337646484375,1.0520082712173462,-0.3136824667453766,-1.4454222917556763
1782986403067412700,1.964412841796875,1.4978253841400146,-0.16356274485588074,-1.1924374103546143
1782986403077486600,1.974486572265625,1.7673298120498657,-0.012034730985760689,-0.7999346852302551
1782986403087560700,1.984560791015625,1.7852596044540405,0.04191878065466881,-0.2562633752822876
1782986403097635600,1.994635498046875,1.4619731903076172,-0.12437399476766586,0.3147948086261749
1782986403107709700,2.004709716796875,0.9317519664764404,-0.4490141272544861,0.7310884594917297
1782986403117783600,2.014783447265625,0.48485612869262695,-0.6417539715766907,0.8724343776702881
1782986403127858700,2.024858642578125,0.13036543130874634,-0.6257222890853882,0.782931387424469
1782986403137932500,2.0349326171875,-0.09693034738302231,-0.6796278357505798,0.6696795225143433
1782986403148006400,2.04500634765625,-0.16722474992275238,-0.753646969795227,0.5298981666564941
1782986403158081500,2.05508154296875,-0.19624897837638855,-0.7104470729827881,0.22773423790931702
1782986403168155400,2.0651552734375,-0.2502530813217163,-0.5145640969276428,-0.3495306968688965
1782986403178229500,2.0752294921875,-0.3464857339859009,-0.2994484305381775,-1.0462201833724976
1782986403188304400,2.085304443359375,-0.4758929908275604,-0.1639241725206375,-1.6354714632034302
1782986403198378500,2.09537841796875,-0.6080825328826904,-0.13675568997859955,-1.9865416288375854
1782986403208452400,2.105452392578125,-0.6906572580337524,-0.1843346655368805,-2.0483474731445312
1782986403218527500,2.115527587890625,-0.74174964427948,-0.25751644372940063,-1.864668369293213
1782986403228601300,2.125601318359375,-0.731425404548645,-0.29100650548934937,-1.5003957748413086
1782986403238675700,2.13567578125,-0.6926005482673645,-0.29813826084136963,-1.085612416267395
1782986403248750300,2.145750244140625,-0.6504213809967041,-0.2962780296802521,-0.7243732810020447
1782986403258824700,2.15582470703125,-0.6185994744300842,-0.27243003249168396,-0.47382494807243347
1782986403268898600,2.165898681640625,-0.6010047197341919,-0.25405582785606384,-0.3172651529312134
1782986403278973700,2.1759736328125,-0.5902872085571289,-0.20833437144756317,-0.1951642483472824
1782986403289047600,2.186047607421875,-0.5551300644874573,-0.14224164187908173,-0.094381183385849
1782986403299121700,2.19612158203125,-0.5263872742652893,-0.12022265791893005,-0.021615898236632347
1782986403309196500,2.206196533203125,-0.5244538187980652,-0.14599992334842682,0.01880795881152153
1782986403319270700,2.216270751953125,-0.5527365803718567,-0.21600341796875,0.03200853615999222
1782986403329344500,2.226344482421875,-0.5704964399337769,-0.26046913862228394,0.08331859856843948
1782986403339419600,2.236419677734375,-0.5541988611221313,-0.2504658102989197,0.17225110530853271
1782986403349493500,2.246493408203125,-0.49307072162628174,-0.26144734025001526,0.310233473777771
1782986403359567600,2.256567626953125,-0.3987240791320801,-0.28725332021713257,0.4741193354129791
1782986403369642500,2.266642578125,-0.31036731600761414,-0.3114979565143585,0.6424862742424011
1782986403379716600,2.276716552734375,-0.25469183921813965,-0.276474267244339,0.7768011093139648
1782986403389790500,2.28679052734375,-0.22023850679397583,-0.22693146765232086,0.8220716714859009
1782986403399865600,2.296865478515625,-0.21565033495426178,-0.24599505960941315,0.7330988049507141
1782986403409939500,2.306939453125,-0.2560185194015503,-0.37895816564559937,0.4953879714012146
1782986403420013300,2.317013427734375,-0.33598268032073975,-0.6949259042739868,0.08552028983831406
1782986403430088400,2.32708837890625,-0.3932960629463196,-1.1182446479797363,-0.4544276297092438
1782986403440162300,2.337162353515625,-0.31860917806625366,-1.22938871383667,-0.8893400430679321
1782986403450236700,2.347236572265625,-0.11090206354856491,-0.6599845886230469,-1.1765570640563965
1782986403460311600,2.3573115234375,-0.0006804362637922168,0.7321606278419495,-1.0514702796936035
1782986403470385700,2.3673857421875,0.1400282233953476,2.733398675918579,-0.40151864290237427
1782986403480459500,2.37745947265625,0.41832730174064636,4.10345458984375,0.2541467249393463
1782986403490534700,2.38753466796875,0.7571746110916138,3.8558363914489746,0.47742506861686707
1782986403500608500,2.3976083984375,1.0826164484024048,2.315047025680542,0.42701342701911926
1782986403510682600,2.4076826171875,1.4479087591171265,0.42924463748931885,0.4778100550174713
1782986403520757500,2.417757568359375,1.8899174928665161,-1.0981980562210083,0.7937538027763367
1782986403530831600,2.42783154296875,2.3175370693206787,-1.709029197692871,1.0672037601470947
1782986403540905500,2.437905517578125,2.667581796646118,-1.2727669477462769,1.2333844900131226
1782986403550980600,2.447980712890625,2.597660779953003,-0.6974283456802368,1.306593418121338
1782986403561054500,2.458054443359375,2.218003511428833,-0.5169989466667175,1.142812967300415
1782986403571128600,2.468128662109375,1.8580849170684814,-0.36831122636795044,0.7395237684249878
1782986403581203500,2.478203369140625,1.5954028367996216,0.08544349670410156,0.429853618144989
1782986403591277600,2.488277587890625,1.4926804304122925,0.5060863494873047,0.440428227186203
1782986403601351400,2.498351318359375,1.5758678913116455,0.6990097165107727,0.8229407072067261
1782986403611426600,2.508426513671875,1.741519808769226,0.6019667983055115,1.4568716287612915
1782986403621500400,2.51850048828125,1.8806114196777344,0.45191124081611633,2.0781192779541016
1782986403631574500,2.528574462890625,1.916812539100647,0.21986550092697144,2.4373676776885986
1782986403641649400,2.5386494140625,1.6911460161209106,-0.08353612571954727,2.496793270111084
1782986403651723500,2.5487236328125,1.3329294919967651,-0.4313279092311859,2.317744731903076
1782986403661797600,2.558797607421875,1.036576509475708,-0.7822374105453491,1.9970693588256836
1782986403671872500,2.56887255859375,0.7865472435951233,-1.0537644624710083,1.5583149194717407
1782986403681946600,2.578946533203125,0.5715965032577515,-1.2163679599761963,0.8895213007926941
1782986403692020700,2.589020751953125,0.35996681451797485,-1.3170051574707031,0.1026698648929596
1782986403702095600,2.599095703125,0.12234953045845032,-1.3893243074417114,-0.7276318669319153
1782986403712169700,2.609169677734375,-0.17426615953445435,-1.3521736860275269,-1.4937529563903809
1782986403722243600,2.61924365234375,-0.4967356324195862,-1.1315381526947021,-2.1270041465759277
1782986403732318700,2.629318603515625,-0.8050252795219421,-0.9074676632881165,-2.5193397998809814
1782986403742392600,2.639392578125,-1.0568901300430298,-0.6091698408126831,-2.5338704586029053
1782986403752466400,2.649466552734375,-1.1947263479232788,-0.4127212166786194,-2.220505952835083
1782986403762541600,2.65954150390625,-1.187412977218628,-0.3307849168777466,-1.7055720090866089
1782986403772615400,2.669615478515625,-0.9757217168807983,-0.30904421210289,-1.1509373188018799
1782986403782689500,2.679689453125,-0.7249494194984436,-0.26895034313201904,-0.697754979133606
1782986403792764000,2.689763916015625,-0.4936429560184479,-0.1181669682264328,-0.39587637782096863
1782986403802837800,2.699837646484375,-0.3222748339176178,0.07053836435079575,-0.24864281713962555
1782986403812911900,2.709911865234375,-0.27581650018692017,0.18450142443180084,-0.2449687123298645
1782986403822986800,2.71998681640625,-0.34701043367385864,0.1953379362821579,-0.325588583946228
1782986403833060900,2.730060791015625,-0.46144434809684753,0.21770210564136505,-0.46986934542655945
1782986403843135000,2.740135009765625,-0.568112850189209,0.30997225642204285,-0.5630463361740112
1782986403853209900,2.7502099609375,-0.6304100751876831,0.4387768507003784,-0.5809313058853149
1782986403863284000,2.760283935546875,-0.6492450833320618,0.5648399591445923,-0.5423821210861206
1782986403873358000,2.770358154296875,-0.6474612951278687,0.6311494708061218,-0.4877969026565552
1782986403883433000,2.780432861328125,-0.5859227776527405,0.6612668037414551,-0.3933976888656616
1782986403893507000,2.790507080078125,-0.390762597322464,0.6799904108047485,-0.25016942620277405
1782986403903581000,2.800580810546875,-0.13900674879550934,0.6518946886062622,-0.0942668691277504
1782986403913656000,2.810656005859375,0.07400379329919815,0.5580408573150635,0.04399380087852478
1782986403923730000,2.82072998046875,0.15941011905670166,0.37716856598854065,0.18191199004650116
1782986403933803800,2.8308037109375,0.12873156368732452,0.06934601813554764,0.290130615234375
1782986403943879000,2.84087890625,0.001812235452234745,-0.3635767996311188,0.3321514129638672
1782986403953953000,2.850953125,-0.20105619728565216,-0.8346104025840759,0.33470457792282104
1782986403964028000,2.86102783203125,-0.3578082025051117,-1.073921799659729,0.3421935737133026
1782986403974102000,2.87110205078125,-0.3728034198284149,-0.8804453015327454,0.33452045917510986
1782986403984175900,2.88117578125,-0.31468725204467773,-0.497918039560318,0.22918516397476196
1782986403994251000,2.8912509765625,-0.24815699458122253,-0.028110837563872337,0.09434612840414047
1782986404004324900,2.901324951171875,-0.23464086651802063,0.4340800940990448,0.13945800065994263
1782986404014398700,2.911398681640625,-0.23369304835796356,0.9047034978866577,0.43714961409568787
1782986404024473900,2.921473876953125,-0.14503046870231628,1.158593773841858,0.5374612808227539
1782986404034547700,2.931547607421875,0.10480307042598724,0.7778363823890686,0.004159832838922739
1782986404044621800,2.941621826171875,0.5020613074302673,-0.18599244952201843,-1.1576992273330688
1782986404054696700,2.95169677734375,0.9401412010192871,-0.9098705649375916,-2.348511219024658
1782986404064770800,2.961770751953125,1.5351146459579468,-0.7530313730239868,-2.8171095848083496
1782986404074845000,2.971844970703125,2.1661930084228516,0.3073056936264038,-2.9415063858032227
1782986404084919800,2.981919921875,2.0212416648864746,1.7349361181259155,-1.547680377960205
1782986404094994000,2.991993896484375,1.822191596031189,0.8331453800201416,-0.4584595263004303
1782986404105068000,3.002068115234375,1.5951694250106812,2.202176809310913,0.0108494246378541
1782986404115143000,3.012142822265625,1.2473511695861816,2.3703341484069824,-0.034877583384513855
1782986404125217000,3.022217041015625,1.153018832206726,2.47883939743042,-0.1886337399482727
1782986404135291000,3.032290771484375,1.1307857036590576,2.4852781295776367,0.3024776875972748
1782986404145366000,3.042365966796875,1.1916967630386353,2.1674234867095947,1.1337519884109497
1782986404155439900,3.05243994140625,1.3014754056930542,1.9218870401382446,2.0963282585144043
1782986404165514000,3.062513916015625,1.2842845916748047,1.7875115871429443,3.0197136402130127
1782986404175588900,3.0725888671875,1.1366722583770752,1.607602596282959,3.6426029205322266
1782986404185663000,3.0826630859375,0.9568221569061279,1.2279375791549683,3.9330036640167236
1782986404195736800,3.09273681640625,0.9041818380355835,0.6882815361022949,3.9490108489990234
1782986404205812000,3.10281201171875,1.0226141214370728,0.004765266552567482,3.7100160121917725
1782986404215885800,3.1128857421875,1.259455919265747,-0.6798980236053467,3.0807316303253174
1782986404225960000,3.1229599609375,1.2915878295898438,-1.3412717580795288,2.1090705394744873
1782986404236034800,3.133034912109375,1.047461986541748,-1.9114550352096558,0.859295129776001
1782986404246109000,3.14310888671875,0.6860054135322571,-2.2595908641815186,-0.5787375569343567
1782986404256182800,3.153182861328125,0.2975364625453949,-2.152556896209717,-2.1038784980773926
1782986404266258000,3.1632578125,-0.10889486223459244,-1.7852307558059692,-3.517307758331299
1782986404276331800,3.173331787109375,-0.4212189316749573,-1.2834416627883911,-4.450772762298584
1782986404286406000,3.183406005859375,-0.5925814509391785,-0.7513290047645569,-4.5682268142700195
1782986404296480800,3.193480712890625,-0.7202981114387512,-0.01536073163151741,-3.8146896362304688
1782986404306555000,3.203554931640625,-0.8635578155517578,0.17354165017604828,-2.56856107711792
1782986404316629000,3.21362890625,-1.1083351373672485,0.23560795187950134,-0.9943501353263855
1782986404326704000,3.2237041015625,-1.3498671054840088,-0.02420523390173912,0.27510398626327515
1782986404336778000,3.233778076171875,-1.5027190446853638,-0.1696939766407013,0.9393661022186279
1782986404346851800,3.243851806640625,-1.5156965255737305,-0.17882287502288818,1.0849751234054565
1782986404356927000,3.253927001953125,-1.3855388164520264,-0.17006932199001312,0.91330486536026
1782986404367000800,3.264000732421875,-1.1449753046035767,-0.19438356161117554,0.6365503668785095
1782986404377075000,3.274074951171875,-0.757331907749176,-0.21849875152111053,0.3228400945663452
1782986404387149800,3.28414990234375,-0.38923951983451843,-0.24429340660572052,0.011580169200897217
1782986404397224000,3.294223876953125,-0.12620335817337036,-0.23672257363796234,-0.19429682195186615
1782986404407297800,3.3042978515625,-0.01831119693815708,-0.1925637274980545,-0.20817700028419495
1782986404417373000,3.314373046875,-0.052451059222221375,-0.15723955631256104,-0.066633440554142
1782986404427446800,3.32444677734375,-0.15991735458374023,-0.09093218296766281,0.13508658111095428
1782986404437521000,3.33452099609375,-0.29117897152900696,-0.01951339840888977,0.3073635399341583
1782986404447595800,3.344595703125,-0.40515103936195374,0.03761136159300804,0.3958350121974945
1782986404457670000,3.354669921875,-0.3836984634399414,0.11141633987426758,0.3726423382759094
1782986404467744000,3.364743896484375,-0.2651880979537964,0.18035423755645752,0.2838878035545349
1782986404477819000,3.37481884765625,-0.11022194474935532,0.09370855987071991,0.10194888710975647
1782986404487893000,3.38489306640625,-0.0012564449571073055,-0.08672350645065308,-0.14367809891700745
1782986404497967000,3.394967041015625,0.04990927129983902,-0.16891823709011078,-0.31577929854393005
1782986404508042000,3.4050419921875,0.012198962271213531,-0.12069761008024216,-0.40936216711997986
1782986404518116000,3.4151162109375,-0.11048434674739838,0.11451517790555954,-0.5465914011001587
1782986404528190000,3.42518994140625,-0.15323498845100403,0.460414320230484,-0.7056305408477783
1782986404538265000,3.43526513671875,-0.09914778172969818,0.6683360934257507,-0.8358945250511169
1782986404548339000,3.4453388671875,-0.041324369609355927,0.7277198433876038,-0.8793351054191589
1782986404558413000,3.4554130859375,0.030848361551761627,0.7320163249969482,-0.7053500413894653
1782986404568488000,3.465488037109375,0.1473880410194397,0.5883838534355164,-0.4252065122127533
1782986404578562000,3.47556201171875,0.2029532939195633,0.06033388152718544,-0.4515502452850342
1782986404588636000,3.485635986328125,0.2741360366344452,-0.8171653747558594,-1.0528950691223145
1782986404598711000,3.4957109375,0.31330767273902893,-1.5490293502807617,-1.9836269617080688
1782986404608785000,3.505784912109375,0.4631494879722595,-0.30074623227119446,-1.8900502920150757
1782986404618858800,3.515858642578125,0.763633668422699,1.660062313079834,-1.0687116384506226
1782986404628934000,3.525933837890625,0.6869823336601257,1.5874994993209839,-0.1146051362156868
1782986404639007700,3.5360078125,1.0161575078964233,0.5270566344261169,0.6012789011001587
1782986404649081900,3.546081787109375,1.254592776298523,-0.32278525829315186,0.8326766490936279
1782986404659156700,3.55615673828125,1.3294342756271362,-0.6082764267921448,0.8107812404632568
1782986404669230800,3.56623095703125,1.3041306734085083,-0.39728808403015137,0.8974982500076294
1782986404679305000,3.576304931640625,1.1148643493652344,0.15963377058506012,1.3404535055160522
1782986404689379800,3.5863798828125,1.106202244758606,1.0034942626953125,2.009794235229492
1782986404699454000,3.596453857421875,1.3266059160232544,1.6432454586029053,2.710106611251831
1782986404709528000,3.606528076171875,1.3337501287460327,1.747753620147705,3.239122152328491
1782986404719603000,3.61660302734375,1.340181589126587,1.6438109874725342,3.3758697509765625
1782986404729677000,3.626677001953125,1.4987434148788452,1.7224334478378296,3.068131923675537
1782986404739751000,3.6367509765625,1.381821870803833,1.8684742450714111,2.479659080505371
1782986404749826000,3.646825927734375,0.8513857126235962,1.8640758991241455,1.9767789840698242
1782986404759900000,3.65689990234375,0.10262520611286163,1.5087902545928955,1.5744619369506836
1782986404769974000,3.66697412109375,-0.33534038066864014,0.7910856008529663,0.9022600650787354
1782986404780049000,3.677048828125,-0.40434741973876953,0.07476051151752472,0.16020220518112183
1782986404790124000,3.6871240234375,-0.3558977246284485,-0.4848645031452179,-0.4926113486289978
1782986404800198000,3.697197998046875,-0.3001686930656433,-0.9836942553520203,-1.1074018478393555
1782986404810273000,3.70727294921875,-0.317636102437973,-1.4209712743759155,-1.6139546632766724
1782986404820347000,3.717346923828125,-0.44762179255485535,-1.7752071619033813,-1.977260947227478
1782986404830420700,3.727420654296875,-0.674095869064331,-1.9316695928573608,-2.0376429557800293
1782986404840495900,3.737495849609375,-0.9023202061653137,-1.8372727632522583,-1.8779581785202026
1782986404850569700,3.74756982421875,-1.0541437864303589,-1.605193018913269,-1.628082036972046
1782986404860643800,3.757643798828125,-1.074664831161499,-1.3161762952804565,-1.404788613319397
1782986404870718700,3.76771875,-0.9989899396896362,-0.9939022064208984,-1.2765663862228394
1782986404880792800,3.777792724609375,-0.929682731628418,-0.7397945523262024,-1.2534699440002441
1782986404890866700,3.78786669921875,-0.8945538401603699,-0.6047074794769287,-1.268601894378662
1782986404900941800,3.79794189453125,-0.8480412364006042,-0.4565414488315582,-1.2127524614334106
1782986404911015700,3.808015625,-0.7911307215690613,-0.31377512216567993,-1.062957525253296
1782986404921089800,3.81808984375,-0.7693769931793213,-0.26456549763679504,-0.890072762966156
1782986404931164700,3.82816455078125,-0.7420597076416016,-0.29772984981536865,-0.7407200932502747
1782986404941238800,3.83823876953125,-0.7382862567901611,-0.376791387796402,-0.6242328882217407
1782986404951313000,3.84831298828125,-0.7396285533905029,-0.44092729687690735,-0.5347627401351929
1782986404961387800,3.8583876953125,-0.7308696508407593,-0.4866231381893158,-0.48234879970550537
1782986404971462000,3.8684619140625,-0.6976451873779297,-0.43948477506637573,-0.4603034555912018
1782986404981536000,3.878535888671875,-0.6298943758010864,-0.3634198307991028,-0.42025724053382874
1782986404991611000,3.88861083984375,-0.5606890320777893,-0.22080665826797485,-0.37150779366493225
1782986405001685000,3.89868505859375,-0.4976367950439453,-0.05092042684555054,-0.316045343875885
1782986405011758800,3.9087587890625,-0.47353458404541016,0.11594777554273605,-0.24058453738689423
1782986405021834000,3.918833984375,-0.5089048147201538,0.2667010724544525,-0.09906470775604248
1782986405031907800,3.928907958984375,-0.5322158336639404,0.3982412815093994,0.07629122585058212
1782986405041982000,3.93898193359375,-0.5196971297264099,0.5052833557128906,0.21548639237880707
1782986405052056800,3.949056884765625,-0.4913272261619568,0.5713022947311401,0.2528127133846283
1782986405062131000,3.959130859375,-0.38370275497436523,0.5541115403175354,0.17563216388225555
1782986405072204800,3.969204833984375,-0.21387265622615814,0.48088937997817993,0.028563443571329117
1782986405082280000,3.979280029296875,-0.04404526576399803,0.2825853228569031,-0.05770619958639145
1782986405092353800,3.989353759765625,0.06338801234960556,0.08707911521196365,0.01596633531153202
1782986405102427600,3.999427734375,0.05044850707054138,0.14452163875102997,0.3307109773159027
1782986405112502800,4.009502685546875,-0.10115857422351837,0.5471132397651672,0.6919769048690796
1782986405122576600,4.01957666015625,-0.11612474173307419,0.5506706833839417,0.7878382205963135
1782986405132650800,4.029650634765625,0.217321515083313,0.6608609557151794,-0.045955028384923935
1782986405142726000,4.039725830078125,0.6722453236579895,1.139615535736084,-1.4776962995529175
1782986405152799700,4.0497998046875,0.8267439007759094,2.2397620677948,-2.3604178428649902
1782986405162873900,4.059873779296875,0.7195314168930054,2.278830051422119,-1.6737651824951172
1782986405172948700,4.06994873046875,0.4968608319759369,1.1249600648880005,0.09943317621946335
1782986405183022800,4.08002294921875,0.3460060656070709,0.041730206459760666,1.4911998510360718
1782986405193097000,4.090096923828125,0.31057408452033997,-0.3563265800476074,1.832187294960022
1782986405203171800,4.100171875,0.324648380279541,-0.39294901490211487,1.6862611770629883
1782986405213246000,4.110245849609375,0.3293038308620453,-0.5853965282440186,1.8511848449707031
1782986405223319800,4.12031982421875,0.32969796657562256,-0.5673437714576721,2.4571454524993896
1782986405233395000,4.13039501953125,0.3889046609401703,-0.17501799762248993,3.0702226161956787
1782986405243468800,4.14046875,0.4433543086051941,0.44222790002822876,3.420525312423706
1782986405253543000,4.15054296875,0.4028221368789673,1.010929822921753,3.557143449783325
1782986405263617800,4.16061767578125,0.31739988923072815,1.5441443920135498,3.496623992919922
1782986405273692000,4.17069189453125,0.3409970998764038,1.906092882156372,3.3233320713043213
1782986405283765800,4.180765869140625,0.45782172679901123,2.0098490715026855,3.13396954536438
1782986405293841000,4.1908408203125,0.5410125255584717,1.8748204708099365,3.0125021934509277
1782986405303914800,4.200914794921875,0.7173769474029541,1.356605052947998,2.891023635864258
1782986405313988900,4.21098876953125,0.7546607255935669,0.681398332118988,2.5113742351531982
1782986405324063700,4.221063720703125,0.6785145401954651,-0.10861671715974808,1.7574973106384277
1782986405334137900,4.231137939453125,0.4832928776741028,-0.7040430307388306,0.8348643183708191
1782986405344212700,4.241212646484375,0.25184234976768494,-1.175462245941162,0.0806269720196724
1782986405354286800,4.251286865234375,0.04806588217616081,-1.633265495300293,-0.4823426306247711
1782986405364360700,4.261360595703125,-0.11604396253824234,-1.8670214414596558,-0.8386568427085876
1782986405374435000,4.27143505859375,-0.28887414932250977,-1.9168578386306763,-1.1193432807922363
1782986405384509700,4.281509765625,-0.4897289574146271,-1.952460527420044,-1.3304537534713745
1782986405394584000,4.291583984375,-0.6649393439292908,-1.8684051036834717,-1.4902360439300537
1782986405404658000,4.301657958984375,-0.8014484643936157,-1.6702454090118408,-1.7270346879959106
1782986405414733000,4.311733154296875,-0.9015390872955322,-1.455444574356079,-1.99701726436615
1782986405424807000,4.321806884765625,-0.9414744973182678,-1.3302032947540283,-2.179818868637085
1782986405434882000,4.331882080078125,-0.883025586605072,-1.159911870956421,-2.1306986808776855
1782986405444956000,4.341955810546875,-0.7661988139152527,-0.9522795677185059,-1.9221879243850708
1782986405455029800,4.35202978515625,-0.6258854269981384,-0.7712021470069885,-1.6991641521453857
1782986405465105000,4.36210498046875,-0.45096370577812195,-0.5924915075302124,-1.4914557933807373
1782986405475178800,4.3721787109375,-0.23074494302272797,-0.3471718728542328,-1.3198914527893066
1782986405485252900,4.3822529296875,-0.0786568820476532,-0.09433028101921082,-1.1946574449539185
1782986405495327700,4.39232763671875,-0.0017835403559729457,-0.005295665934681892,-1.0375217199325562
1782986405505401900,4.40240185546875,0.013773847371339798,-0.08911999315023422,-0.9367040395736694
1782986405515475700,4.412475830078125,-0.01685495488345623,-0.17385613918304443,-0.8705204725265503
1782986405525550800,4.42255078125,-0.09230896085500717,-0.19254407286643982,-0.804431676864624
1782986405535624700,4.432624755859375,-0.18123368918895721,-0.1685471087694168,-0.717827558517456
1782986405545698800,4.44269873046875,-0.22517798840999603,-0.1344330757856369,-0.591844379901886
1782986405555772700,4.452772705078125,-0.2132992297410965,-0.1675531268119812,-0.43663305044174194
1782986405565847800,4.462847900390625,-0.17080555856227875,-0.248956099152565,-0.2918343245983124
1782986405575921700,4.472921630859375,-0.07599896192550659,-0.29690873622894287,-0.14193350076675415
1782986405585996800,4.482996826171875,0.054435741156339645,-0.31692424416542053,-0.01439603976905346
1782986405596070700,4.493070556640625,0.1652899980545044,-0.35179442167282104,0.027882827445864677
1782986405606145000,4.50314501953125,0.2550310790538788,-0.4273562729358673,-0.0279410220682621
1782986405616219600,4.5132197265625,0.3220323622226715,-0.5524904727935791,-0.17641694843769073
1782986405626294000,4.5232939453125,0.34975665807724,-0.7390505075454712,-0.35981234908103943
1782986405636368000,4.533367919921875,0.3373080790042877,-0.8956290483474731,-0.4867406189441681
1782986405646443000,4.543443115234375,0.27058202028274536,-0.9868074059486389,-0.6049700975418091
1782986405656516900,4.553516845703125,0.08994638174772263,-0.9768338799476624,-0.6449699401855469
1782986405666591000,4.563591064453125,-0.13751500844955444,-0.7887347936630249,-0.5745357275009155
1782986405676665900,4.573665771484375,-0.2639748454093933,-0.5910528898239136,-0.6269517540931702
1782986405686740000,4.583739990234375,-0.23840555548667908,-0.5237875580787659,-0.9326256513595581
1782986405696813800,4.593813720703125,-0.1361268311738968,-0.4282483458518982,-1.4149527549743652
1782986405706889000,4.603888916015625,-0.06375196576118469,-0.201518252491951,-2.173929452896118
1782986405716962800,4.613962890625,-0.03325892984867096,0.7621391415596008,-2.7559874057769775
1782986405727036700,4.62403662109375,0.09850815683603287,1.8637980222702026,-2.615957021713257
1782986405737111800,4.63411181640625,0.23942317068576813,2.428539991378784,-2.013798236846924
1782986405747186000,4.64418603515625,0.3896603286266327,2.6744933128356934,-1.3982514142990112
1782986405757259800,4.654259765625,0.5515876412391663,2.7570559978485107,-1.1699297428131104
1782986405767335000,4.6643349609375,0.6917722225189209,2.526547908782959,-1.110958218574524
1782986405777408800,4.67440869140625,0.7627695798873901,1.9356454610824585,-0.9417397379875183
1782986405787481600,4.684481689453125,0.9918853044509888,0.9907774925231934,-0.5857595205307007
1782986405797556700,4.694556640625,1.3956284523010254,-0.15894903242588043,-0.04377401992678642
1782986405807630600,4.704630615234375,1.7835776805877686,-1.0958874225616455,0.5929529070854187
1782986405817704700,4.71470458984375,2.0264689922332764,-1.239467978477478,1.1035752296447754
1782986405827779600,4.724779541015625,2.2206063270568848,-0.711668074131012,1.3314690589904785
1782986405837853700,4.734853759765625,2.172910690307617,0.0627545714378357,1.3597488403320312
1782986405847927600,4.744927490234375,1.976836085319519,1.1046857833862305,1.4225267171859741
1782986405858002700,4.755002685546875,1.6943731307983398,2.061598777770996,1.7653779983520508
1782986405868076500,4.76507666015625,0.9648351073265076,2.1559009552001953,2.1897621154785156
1782986405878150400,4.775150390625,0.20389582216739655,1.617139220237732,2.4947941303253174
1782986405888225500,4.7852255859375,-0.20781849324703217,0.8426322340965271,2.479903221130371
1782986405898299600,4.795299560546875,-0.3750968873500824,0.13964782655239105,2.076317071914673
1782986405908373500,4.80537353515625,-0.5026753544807434,-0.35585859417915344,1.4394270181655884
1782986405918448600,4.81544873046875,-0.5227898955345154,-0.6974833011627197,0.918371319770813
1782986405928522500,4.8255224609375,-0.4665846526622772,-0.784508228302002,0.565032422542572
1782986405938596600,4.8355966796875,-0.4083138108253479,-0.6551278829574585,0.4320727288722992
1782986405948671500,4.84567138671875,-0.4247466027736664,-0.32637476921081543,0.5698591470718384
1782986405958745600,4.85574560546875,-0.5510757565498352,-0.11931204050779343,0.8869668245315552
1782986405968819700,4.86581982421875,-0.7898420095443726,-0.3312397301197052,1.1127272844314575
1782986405978894600,4.87589453125,-0.994518518447876,-0.4322687089443207,1.1624162197113037
1782986405988968700,4.88596875,-0.6624622941017151,-0.05333203822374344,0.8366487622261047
1782986405999042600,4.89604248046875,-0.630536675453186,-0.16347020864486694,0.680381715297699
1782986406009117700,4.90611767578125,-0.8725719451904297,-0.8429995179176331,0.6680041551589966
1782986406019191600,4.916191650390625,-0.90181565284729,-1.2298020124435425,0.5978359580039978
1782986406029265700,4.926265625,-0.7376456260681152,-1.2280312776565552,0.36085909605026245
1782986406039340500,4.936340576171875,-0.49404293298721313,-1.0894365310668945,0.12773722410202026
1782986406049414700,4.94641455078125,-0.3537233769893646,-0.8641142249107361,-0.08018801361322403
1782986406059488500,4.956488525390625,-0.376111775636673,-0.791933536529541,-0.3032437264919281
1782986406069563600,4.966563720703125,-0.4371410310268402,-0.8168865442276001,-0.4699815809726715
1782986406079637500,4.976637451171875,-0.43330511450767517,-0.8741342425346375,-0.5202182531356812
1782986406089711600,4.986711669921875,-0.352321058511734,-0.8676435947418213,-0.5388151407241821
1782986406099786500,4.996786376953125,-0.280322790145874,-0.7438075542449951,-0.44024404883384705
1782986406109860600,5.006860595703125,-0.25502464175224304,-0.9086167812347412,-0.27129310369491577
1782986406119934500,5.0169345703125,-0.14574992656707764,-1.1884690523147583,-0.18097306787967682
1782986406130009600,5.027009521484375,0.04830130562186241,-1.3299130201339722,-0.12191347032785416
1782986406140083500,5.03708349609375,0.18157248198986053,-1.2680686712265015,-0.13383252918720245
1782986406150157600,5.047157470703125,0.1734410524368286,-1.1212738752365112,-0.2931806445121765
1782986406160232400,5.057232421875,0.08185500651597977,-1.1394295692443848,-0.4781690537929535
1782986406170306600,5.067306640625,0.01634071208536625,-1.166355013847351,-0.4654862880706787
1782986406180380700,5.077380615234375,0.0247014369815588,-1.1560968160629272,-0.25303035974502563
1782986406190455600,5.08745556640625,0.11966709792613983,-0.7546998858451843,0.12172806262969971
1782986406200529700,5.09752978515625,0.1068318635225296,-0.110993392765522,0.2972407042980194
1782986406210603500,5.107603515625,-0.0661817267537117,0.3819529414176941,0.22877323627471924
1782986406220678700,5.1176787109375,0.007318316958844662,0.2595989406108856,0.13633637130260468
1782986406230752500,5.12775244140625,0.2752397954463959,-0.007319566328078508,-0.26726970076560974
1782986406240826600,5.13782666015625,0.5220918655395508,0.07793071866035461,-0.9688114523887634
1782986406250901500,5.147901611328125,0.5900253653526306,0.5620558857917786,-1.2620400190353394
1782986406260975600,5.1579755859375,0.465089350938797,0.34613609313964844,-0.8442484736442566
1782986406271049500,5.168049560546875,0.2620592713356018,-0.29335200786590576,-0.22186850011348724
1782986406281124600,5.17812451171875,0.029976334422826767,-0.490896999835968,-0.10179080814123154
1782986406291198500,5.188198486328125,-0.12442069500684738,0.019106842577457428,-0.5684746503829956
1782986406301272600,5.1982724609375,-0.181876078248024,0.8176863193511963,-0.9796800017356873
1782986406311347500,5.208347412109375,-0.1587180346250534,1.5319362878799438,-0.7263215184211731
1782986406321421600,5.218421630859375,-0.0569392554461956,1.9344213008880615,-0.07247919589281082
1782986406331495400,5.228495361328125,0.18152950704097748,2.1606931686401367,0.37676623463630676
1782986406341570600,5.238570556640625,0.443263441324234,2.375192403793335,0.4780805706977844
1782986406351644400,5.24864453125,0.5892409086227417,2.2505221366882324,0.48541730642318726
1782986406361718500,5.258718505859375,0.6406535506248474,1.8401633501052856,0.5178691148757935
1782986406371793400,5.26879345703125,0.5175225734710693,1.2180774211883545,0.5129409432411194
1782986406381867500,5.278867431640625,0.3430243730545044,0.7350783944129944,0.6748931407928467
1782986406391941600,5.288941650390625,0.18645340204238892,0.27909305691719055,0.9826924800872803
1782986406402016500,5.2990166015625,0.06115427985787392,-0.1549690216779709,1.1859731674194336
1782986406412090600,5.309090576171875,-0.0464898906648159,-0.4862436056137085,1.069862723350525
1782986406422164700,5.319164794921875,-0.14781589806079865,-0.6455584168434143,0.593392550945282
1782986406432238600,5.329238525390625,-0.2643478512763977,-0.6288878321647644,-0.08260054141283035
1782986406442313700,5.339313720703125,-0.4124181270599365,-0.6160509586334229,-0.7699007391929626
1782986406452387600,5.3493876953125,-0.5892879366874695,-0.700320303440094,-1.2401177883148193
1782986406462461400,5.35946142578125,-0.7548777461051941,-0.885438859462738,-1.3697787523269653
1782986406472536600,5.36953662109375,-0.8915796279907227,-0.9662434458732605,-1.163217306137085
1782986406482610400,5.3796103515625,-0.9621465802192688,-0.8828366994857788,-0.8604786992073059
1782986406492684500,5.3896845703125,-0.9771924018859863,-0.6860264539718628,-0.6548032760620117
1782986406502759700,5.399759765625,-0.9821747541427612,-0.44272348284721375,-0.584861159324646
1782986406512833500,5.40983349609375,-0.9670706391334534,-0.20595964789390564,-0.6146851181983948
1782986406522907400,5.419907470703125,-0.9432424902915955,0.013720454648137093,-0.6966434121131897
1782986406532982500,5.429982421875,-0.9113274812698364,0.23142960667610168,-0.7891901135444641
1782986406543056400,5.440056396484375,-0.8574906587600708,0.39754718542099,-0.8366522192955017
1782986406553130800,5.450130859375,-0.797916054725647,0.519489049911499,-0.78815096616745
1782986406563205400,5.460205322265625,-0.7319192886352539,0.6150310039520264,-0.6443822383880615
1782986406573279700,5.47027978515625,-0.6806430220603943,0.6873288750648499,-0.48486632108688354
1782986406583353600,5.480353515625,-0.6407164931297302,0.7232891321182251,-0.3630680739879608
1782986406593428700,5.4904287109375,-0.6289881467819214,0.7347380518913269,-0.2946764826774597
1782986406603502600,5.500502685546875,-0.6320135593414307,0.7264858484268188,-0.26908156275749207
1782986406613576700,5.51057666015625,-0.6245154142379761,0.6988941431045532,-0.28759318590164185
1782986406623651600,5.520651611328125,-0.5872129201889038,0.597929060459137,-0.3382037281990051
1782986406633725700,5.5307255859375,-0.5144026279449463,0.4733375906944275,-0.370082825422287
1782986406643799600,5.540799560546875,-0.4296383857727051,0.3801550567150116,-0.3570433259010315
1782986406653874700,5.550874755859375,-0.33672869205474854,0.31595903635025024,-0.28619152307510376
1782986406663948500,5.560948486328125,-0.2578132152557373,0.2810859680175781,-0.18396799266338348
1782986406674022700,5.571022705078125,-0.1639208048582077,0.2933011054992676,-0.06576145440340042
1782986406684097500,5.58109765625,-0.07501383870840073,0.38327136635780334,0.0654376894235611
1782986406694171600,5.591171630859375,0.007614993490278721,0.4608913064002991,0.21329320967197418
1782986406704245500,5.60124560546875,0.10273166000843048,0.5684860348701477,0.32453465461730957
1782986406714320600,5.611320556640625,0.19153715670108795,0.6414409875869751,0.4348718225955963
1782986406724394500,5.62139453125,0.26540863513946533,0.552665114402771,0.57642662525177
1782986406734468600,5.631468505859375,0.3624001443386078,0.3678542375564575,0.7571852207183838
1782986406744543500,5.64154345703125,0.46233925223350525,0.28894761204719543,0.9058789610862732
1782986406754617600,5.65161767578125,0.4555599093437195,0.484224408864975,1.0260783433914185
1782986406764692500,5.6616923828125,0.34772607684135437,0.8705429434776306,1.2876825332641602
1782986406774766600,5.6717666015625,0.28957223892211914,0.5259946584701538,1.587158441543579
1782986406784840700,5.6818408203125,0.31471696496009827,-0.26702940464019775,1.2805542945861816
1782986406794916000,5.691916015625,0.5027260184288025,-0.7513255476951599,0.10590099543333054
1782986406804990000,5.701989990234375,0.5637387037277222,-0.39290139079093933,-1.0204955339431763
1782986406815064000,5.71206396484375,0.50838702917099,0.1514524519443512,-1.32477867603302
1782986406825139000,5.722138916015625,0.42333951592445374,0.27652600407600403,-0.9634172916412354
1782986406835213000,5.732213134765625,0.3303762674331665,-0.11612354218959808,-0.5404735207557678
1782986406845287200,5.742287109375,0.11722353845834732,-0.46923112869262695,-0.3152189254760742
1782986406855362000,5.752362060546875,-0.08209702372550964,-0.8363490104675293,-0.05144904553890228
1782986406865436200,5.762436279296875,-0.12083538621664047,-1.5276633501052856,0.5177443027496338
1782986406875510000,5.772510009765625,0.03678087517619133,-1.907362461090088,0.9440032243728638
1782986406885585200,5.782585205078125,0.2797554135322571,-1.664284110069275,0.918029248714447
1782986406895659000,5.792658935546875,0.4487702548503876,-0.875847578048706,0.6366297602653503
1782986406905733000,5.802733154296875,0.5042927265167236,0.060180723667144775,0.36512306332588196
1782986406915808000,5.81280810546875,0.5091655254364014,0.8730844855308533,0.22028493881225586
1782986406925882000,5.822882080078125,0.5053776502609253,1.3016005754470825,0.2297445684671402
1782986406935956000,5.8329560546875,0.46832913160324097,1.321592926979065,0.302212655544281
1782986406946031000,5.843031005859375,0.3786815404891968,1.153407096862793,0.5131410360336304
1782986406956105000,5.85310498046875,0.22412285208702087,0.7268620729446411,0.8438470363616943
1782986406966179000,5.863178955078125,0.11188814043998718,0.18999937176704407,1.1571462154388428
1782986406976254000,5.87325390625,-0.06562352925539017,-0.20432370901107788,1.1037346124649048
1782986406986328000,5.883328125,-0.29327628016471863,-0.5098558068275452,0.6066020131111145
1782986406996402000,5.89340185546875,-0.5537384748458862,-0.797091007232666,-0.1861107349395752
1782986407006477000,5.90347705078125,-0.8117058873176575,-0.9552435874938965,-1.0759419202804565
1782986407016551000,5.913551025390625,-0.9900271892547607,-1.0309338569641113,-1.8305991888046265
1782986407026625300,5.923625244140625,-1.091909408569336,-1.0497580766677856,-2.2407467365264893
1782986407036700000,5.933699951171875,-1.1265939474105835,-1.0196644067764282,-2.324561595916748
1782986407046774300,5.943774169921875,-1.13926100730896,-0.8940709233283997,-2.239467144012451
1782986407056848100,5.95384814453125,-1.1392543315887451,-0.7481603622436523,-2.0899035930633545
1782986407066923300,5.96392333984375,-1.1666134595870972,-0.42980071902275085,-1.9163724184036255
1782986407076997000,5.9739970703125,-1.1976046562194824,-0.12020638585090637,-1.5943459272384644
1782986407087071000,5.984071044921875,-1.2215173244476318,0.054747290909290314,-1.1827967166900635
1782986407097146000,5.99414599609375,-1.246894121170044,0.15700310468673706,-0.8715941309928894
1782986407107220000,6.004219970703125,-1.2239558696746826,0.17357896268367767,-0.698219895362854
1782986407117294000,6.014294189453125,-1.1545288562774658,0.1255911886692047,-0.6658286452293396
1782986407127369000,6.024368896484375,-1.035462737083435,0.006909586489200592,-0.698308527469635
1782986407137443000,6.034443115234375,-0.888498842716217,-0.11582139134407043,-0.6995782852172852
1782986407147517000,6.044516845703125,-0.72212815284729,-0.20064327120780945,-0.6409415602684021
1782986407157592000,6.054592041015625,-0.5712891221046448,-0.24046099185943604,-0.5632986426353455
1782986407167666000,6.064666015625,-0.4568997323513031,-0.3201974332332611,-0.4851301610469818
1782986407177740000,6.074739990234375,-0.4043230712413788,-0.4137774705886841,-0.3983824849128723
1782986407187815000,6.08481494140625,-0.4231213629245758,-0.459860235452652,-0.2812609374523163
1782986407197889000,6.094888916015625,-0.4830925464630127,-0.4103933572769165,-0.1295158863067627
1782986407207964000,6.1049638671875,-0.540401816368103,-0.33356180787086487,0.04872993379831314
1782986407218038000,6.1150380859375,-0.6015085577964783,-0.30547797679901123,0.21837303042411804
1782986407228112000,6.12511181640625,-0.6177903413772583,-0.31747376918792725,0.3200686275959015
1782986407238186200,6.135186279296875,-0.5801175236701965,-0.37882474064826965,0.35818296670913696
1782986407248260900,6.1452607421875,-0.4985373020172119,-0.3859585225582123,0.36228135228157043
1782986407258335200,6.155335205078125,-0.36149105429649353,-0.45335328578948975,0.37890294194221497
1782986407268409900,6.165409912109375,-0.27950531244277954,-0.6524550914764404,0.45159587264060974
1782986407278484200,6.175484130859375,-0.1706313043832779,-1.017977237701416,0.6553050875663757
1782986407288558000,6.18555810546875,-0.09501390904188156,-1.3253082036972046,0.9465027451515198
1782986407298633200,6.19563330078125,-0.006441699806600809,-1.2405507564544678,1.224421739578247
1782986407308707000,6.20570703125,-0.025971485301852226,-1.1684285402297974,1.333587884902954
1782986407318781200,6.21578125,-0.00022404396440833807,-1.3431910276412964,1.2972458600997925
1782986407328856000,6.22585595703125,0.07475285977125168,-1.6653891801834106,1.0634771585464478
1782986407338930200,6.23593017578125,0.041942186653614044,-1.1831090450286865,0.3944839537143707
1782986407349004000,6.246004150390625,-0.05883236229419708,0.4049709439277649,-0.49286535382270813
1782986407359079200,6.2560791015625,-0.12552456557750702,2.1247894763946533,-1.0514357089996338
1782986407369153000,6.266153076171875,-0.17093811929225922,2.737950563430786,-0.8065347075462341
1782986407379227000,6.276226806640625,-0.38695165514945984,1.849453091621399,0.10629303008317947
1782986407389302000,6.286302001953125,-0.4602656662464142,0.6918395161628723,0.9561793208122253
1782986407399376100,6.296376220703125,-0.2936505675315857,0.023179437965154648,1.2124263048171997
1782986407409450000,6.306449951171875,-0.11745471507310867,-0.04853367432951927,1.1074683666229248
1782986407419525000,6.316525146484375,-0.02584943175315857,0.05636584386229515,1.14616060256958
1782986407429599000,6.326598876953125,-0.045618318021297455,0.3915556073188782,1.4525996446609497
1782986407439672800,6.3366728515625,-0.050490036606788635,1.1446565389633179,1.7400588989257812
1782986407449748000,6.346748046875,0.09619929641485214,1.963680386543274,1.795719027519226
1782986407459821800,6.35682177734375,0.3360675275325775,2.398336887359619,1.7612742185592651
1782986407469896200,6.366896240234375,0.8092870116233826,2.003558397293091,1.9047737121582031
1782986407479970800,6.376970703125,1.260497808456421,1.5399889945983887,2.051600933074951
1782986407490045200,6.387045166015625,1.2518738508224487,1.53611159324646,2.0160510540008545
1782986407500119000,6.397119140625,0.6681435108184814,1.553309679031372,1.944871187210083
1782986407510194200,6.407194091796875,0.04174947738647461,1.3226542472839355,1.7961307764053345
1782986407520268000,6.41726806640625,-0.32094645500183105,0.8411126732826233,1.4391958713531494
1782986407530342100,6.427342041015625,-0.38357189297676086,0.14994025230407715,0.9474272727966309
1782986407540417000,6.4374169921875,-0.2699662446975708,-0.507487416267395,0.44632023572921753
1782986407550491100,6.4474912109375,-0.1771441400051117,-1.1393235921859741,-0.005721063353121281
1782986407560565000,6.45756494140625,-0.36668291687965393,-1.711146593093872,-0.3900096118450165
1782986407570640100,6.46764013671875,-0.6935999393463135,-2.012113571166992,-0.7740923166275024
1782986407580714000,6.4777138671875,-0.9775539040565491,-1.8768155574798584,-1.187022089958191
1782986407590788000,6.4877880859375,-1.2268517017364502,-1.428698182106018,-1.515462040901184
1782986407600863000,6.497863037109375,-1.4017233848571777,-1.076319932937622,-1.8340519666671753
1782986407610937000,6.50793701171875,-1.4747685194015503,-0.7469358444213867,-2.076484441757202
1782986407621011000,6.518010986328125,-1.4701685905456543,-0.496986985206604,-2.1672520637512207
1782986407631086000,6.528086181640625,-1.3948204517364502,-0.2596740424633026,-2.0411081314086914
1782986407641160000,6.538159912109375,-1.2778874635696411,-0.08981361985206604,-1.7097656726837158
1782986407651234000,6.548234130859375,-1.1388543844223022,-0.11567146331071854,-1.3311336040496826
1782986407661309000,6.558308837890625,-1.025313377380371,-0.3212725818157196,-1.0460443496704102
1782986407671383000,6.568383056640625,-0.9059330224990845,-0.5660654306411743,-0.8867430686950684
1782986407681457200,6.57845703125,-0.7981136441230774,-0.7639700174331665,-0.8971073031425476
1782986407691532000,6.588531982421875,-0.7239068746566772,-0.8636040687561035,-0.9761749505996704
1782986407701606100,6.598606201171875,-0.6673807501792908,-0.8842640519142151,-1.0631847381591797
1782986407711680000,6.608679931640625,-0.6564870476722717,-0.7899421453475952,-1.1142061948776245
1782986407721755100,6.618755126953125,-0.6378952264785767,-0.6161420941352844,-1.0832048654556274
1782986407731829000,6.6288291015625,-0.5922065377235413,-0.49329477548599243,-0.9819518327713013
1782986407741903000,6.638903076171875,-0.5009450316429138,-0.4746262729167938,-0.8205288052558899
1782986407751978000,6.64897802734375,-0.3871729373931885,-0.5135730504989624,-0.6092149019241333
1782986407762052000,6.659052001953125,-0.2791878879070282,-0.5760933756828308,-0.39317578077316284
1782986407772126000,6.6691259765625,-0.20077183842658997,-0.6499248743057251,-0.20825506746768951
1782986407782201000,6.679201171875,-0.1496356874704361,-0.7089208364486694,-0.11456773430109024
1782986407792275200,6.689275146484375,-0.11666698008775711,-0.7451716661453247,-0.10603399574756622
1782986407802350000,6.69935009765625,-0.11260752379894257,-0.7595484852790833,-0.12512032687664032
1782986407812424200,6.709424072265625,-0.10309740155935287,-0.7825892567634583,-0.0996396541595459
1782986407822498000,6.719498046875,-0.10459516197443008,-0.7857996821403503,0.009370451793074608
1782986407832573200,6.7295732421875,-0.1492091864347458,-0.8072102069854736,0.21490463614463806
1782986407842647000,6.73964697265625,-0.14859053492546082,-0.7975338697433472,0.5191803574562073
1782986407852721000,6.749720947265625,-0.12950240075588226,-0.5362556576728821,0.8940410614013672
1782986407862796000,6.759796142578125,-0.13425853848457336,-0.08710101246833801,1.310394048690796
1782986407872870000,6.769869873046875,-0.12451627850532532,0.2781188488006592,1.6617003679275513
1782986407882944000,6.779944091796875,-0.028332483023405075,0.22719310224056244,1.730330228805542
1782986407893019000,6.790018798828125,0.10596825927495956,0.22086237370967865,1.2839446067810059
1782986407903093000,6.800093017578125,0.12170274555683136,0.769871175289154,0.5514253973960876
1782986407913167000,6.8101669921875,0.10253410041332245,1.2458654642105103,0.38849547505378723
1782986407923242000,6.820241943359375,0.005533255636692047,0.9452601075172424,1.0483099222183228
1782986407933316000,6.830316162109375,-0.18529663980007172,0.29325664043426514,1.7438932657241821
1782986407943390200,6.84039013671875,-0.36529916524887085,-0.369329571723938,1.6582505702972412
1782986407953465000,6.850465087890625,-0.5289362668991089,-0.9157882928848267,0.8078689575195312
1782986407963539200,6.860539306640625,-0.6365092992782593,-0.9928966760635376,-0.17139370739459991
1782986407973613000,6.870613037109375,-0.6136963963508606,-0.587336003780365,-0.5095890164375305
1782986407983688200,6.880688232421875,-0.4469574987888336,0.025408349931240082,-0.048807837069034576
1782986407993762000,6.890761962890625,-0.34752002358436584,0.5898111462593079,0.748495876789093
1782986408003836200,6.900836181640625,-0.21009373664855957,0.9455373287200928,1.3507479429244995
1782986408013911000,6.9109111328125,0.005857414100319147,1.1286265850067139,1.631337285041809
1782986408023985200,6.920985107421875,0.3789236545562744,0.9790327548980713,1.6053866147994995
1782986408034059000,6.93105908203125,0.7170095443725586,0.8335774540901184,1.2385380268096924
1782986408044134100,6.941134033203125,0.9018118977546692,0.960476815700531,0.7508828639984131
1782986408054208000,6.9512080078125,0.9387673735618591,1.0841466188430786,0.3933878242969513
1782986408064282000,6.9612822265625,0.8704162836074829,1.0066124200820923,0.27384331822395325
1782986408074357000,6.97135693359375,0.7199730277061462,0.7071147561073303,0.3044613301753998
1782986408084431000,6.98143115234375,0.45520126819610596,0.14963653683662415,0.36005985736846924
1782986408094505000,6.9915048828125,0.15664491057395935,-0.6477360725402832,0.31730836629867554
1782986408104580000,7.001580078125,-0.06935466825962067,-1.271646499633789,0.1342780888080597
1782986408114654000,7.011654052734375,-0.28858157992362976,-1.612554669380188,-0.19496214389801025
1782986408124728000,7.02172802734375,-0.5820260047912598,-1.7011975049972534,-0.6291258335113525
1782986408134803000,7.031802978515625,-0.8581080436706543,-1.6403932571411133,-1.0950950384140015
1782986408144877300,7.041877197265625,-1.0286027193069458,-1.4331004619598389,-1.4980120658874512
1782986408154951200,7.051951171875,-1.1404551267623901,-1.1751606464385986,-1.7733656167984009
1782986408165026300,7.0620263671875,-1.2155890464782715,-0.9325659871101379,-1.8398982286453247
1782986408175100200,7.07210009765625,-1.2264690399169922,-0.6809494495391846,-1.6561787128448486
1782986408185174000,7.082174072265625,-1.2015708684921265,-0.46978819370269775,-1.3097320795059204
1782986408195249200,7.092249267578125,-1.154652714729309,-0.3469713628292084,-0.9125710725784302
1782986408205323000,7.102322998046875,-1.064541220664978,-0.34590956568717957,-0.5558401346206665
1782986408215398100,7.112398193359375,-0.9502846598625183,-0.46412134170532227,-0.2924950122833252
1782986408225472000,7.122471923828125,-0.8101001381874084,-0.6436793804168701,-0.12869462370872498
1782986408235546000,7.132546142578125,-0.6573588848114014,-0.7676098346710205,-0.11241202801465988
1782986408245620000,7.142619873046875,-0.5226471424102783,-0.765174388885498,-0.21460683643817902
1782986408255695000,7.152695068359375,-0.41116204857826233,-0.6898471117019653,-0.3064866065979004
1782986408265769000,7.16276904296875,-0.3156523108482361,-0.6316293478012085,-0.3114563226699829
1782986408275844000,7.172843994140625,-0.26222842931747437,-0.5998992323875427,-0.25612401962280273
1782986408285918000,7.18291796875,-0.24102061986923218,-0.6071299910545349,-0.18516916036605835
1782986408295992000,7.192991943359375,-0.2606904208660126,-0.6584903597831726,-0.1337735950946808
1782986408306067000,7.20306689453125,-0.30202534794807434,-0.7531651854515076,-0.09991230070590973
1782986408316141000,7.21314111328125,-0.36557894945144653,-0.898086428642273,-0.05430247262120247
1782986408326215000,7.22321484375,-0.4201255440711975,-1.0596133470535278,-0.008588513359427452
1782986408336290000,7.2332900390625,-0.4429234564304352,-1.1339870691299438,0.0041434322483837605
1782986408346364000,7.243364013671875,-0.4376562535762787,-1.1111315488815308,-0.03421913832426071
1782986408356438300,7.253438232421875,-0.3857235312461853,-1.0236822366714478,-0.07418160885572433
1782986408366513000,7.263512939453125,-0.3231235444545746,-0.8718926310539246,-0.1378767043352127
1782986408376587300,7.273587158203125,-0.2808699905872345,-0.7118651866912842,-0.26528072357177734
1782986408386661000,7.2836611328125,-0.33081063628196716,-0.6602922677993774,-0.34468019008636475
1782986408396736300,7.293736328125,-0.39064809679985046,-0.9205988049507141,-0.15778107941150665
1782986408406810000,7.30381005859375,-0.4949028789997101,-0.9603073596954346,0.23266923427581787
1782986408416884200,7.31388427734375,-0.5499948859214783,-0.8131662607192993,0.7567791938781738
1782986408426959000,7.323958984375,-0.4763909876346588,-0.5420815348625183,1.075079083442688
1782986408437033200,7.334033203125,-0.3764362931251526,-0.34555813670158386,0.7884776592254639
1782986408447107000,7.344107177734375,-0.28562596440315247,-0.043046995997428894,-0.018093718215823174
1782986408457182200,7.35418212890625,-0.2780766189098358,0.4130624234676361,-1.1381183862686157
1782986408467256000,7.364256103515625,-0.2656494975090027,1.091564416885376,-1.8587814569473267
1782986408477330000,7.374329833984375,-0.07193897664546967,1.8794610500335693,-1.6696218252182007
1782986408487405000,7.384405029296875,0.044444091618061066,2.278590679168701,-0.5953856706619263
1782986408497479000,7.39447900390625,0.16014783084392548,1.3362277746200562,0.6428357362747192
1782986408507553000,7.404552978515625,0.2755170464515686,0.40640369057655334,1.4085805416107178
1782986408517628200,7.414628173828125,0.25727635622024536,0.22835300862789154,1.467676043510437
1782986408527702000,7.424701904296875,0.26405462622642517,0.4575057625770569,1.0888149738311768
1782986408537775900,7.43477587890625,0.3004906475543976,0.7421742677688599,0.7455042600631714
1782986408547851000,7.44485107421875,0.3132258951663971,0.9088814854621887,0.6940240263938904
1782986408557924900,7.4549248046875,0.33441418409347534,1.0097559690475464,0.8292092084884644
1782986408567999200,7.464999267578125,0.3323153555393219,1.1103206872940063,0.8115873336791992
1782986408578073900,7.475073974609375,0.342397004365921,1.2902508974075317,0.4467857778072357
1782986408588148200,7.485148193359375,0.35197827219963074,1.4358179569244385,-0.05325333774089813
1782986408598222000,7.49522216796875,0.3725995123386383,1.4535051584243774,-0.3975971043109894
1782986408608297200,7.505297119140625,0.5147203803062439,1.2951213121414185,-0.329405277967453
1782986408618371000,7.51537109375,0.6477254033088684,1.0232208967208862,0.10770977288484573
1782986408628445200,7.525445068359375,0.7656751871109009,0.740574836730957,0.7155719995498657
1782986408638520000,7.53552001953125,0.7328251600265503,0.4182809889316559,1.2525198459625244
1782986408648594200,7.54559423828125,0.5789685249328613,0.07250230014324188,1.5737727880477905
1782986408658668000,7.55566796875,0.3650754690170288,-0.2131597399711609,1.5674012899398804
1782986408668743200,7.5657431640625,0.15765517950057983,-0.44680845737457275,1.1055964231491089
1782986408678817000,7.575817138671875,0.024723568931221962,-0.5326710343360901,0.35471025109291077
1782986408688892200,7.58589208984375,-0.042534030973911285,-0.46139606833457947,-0.3946497440338135
1782986408698966000,7.595966064453125,-0.07528792321681976,-0.4030058979988098,-0.9743468761444092
1782986408709040000,7.6060400390625,-0.10491639375686646,-0.35158905386924744,-1.283606767654419
1782986408719115000,7.616114990234375,-0.17319512367248535,-0.20231203734874725,-1.3314871788024902
1782986408729189000,7.626189208984375,-0.26753735542297363,0.04116985946893692,-1.2281757593154907
1782986408739263000,7.636262939453125,-0.42171257734298706,0.24732957780361176,-1.1194485425949097
1782986408749338000,7.646338134765625,-0.616280734539032,0.32496604323387146,-0.9924451112747192
1782986408759412000,7.656411865234375,-0.7584642171859741,0.3355919420719147,-0.8518995642662048
1782986408769486000,7.666486083984375,-0.8438563346862793,0.21126839518547058,-0.7446932196617126
1782986408779561000,7.67656103515625,-0.8644158840179443,-0.059736721217632294,-0.6661584377288818
1782986408789635300,7.68663525390625,-0.8102322816848755,-0.32446396350860596,-0.5869898796081543
1782986408799709400,7.69670947265625,-0.6977936625480652,-0.5399561524391174,-0.5195388197898865
1782986408809784300,7.706784423828125,-0.5672854781150818,-0.7190910577774048,-0.42186519503593445
1782986408819858400,7.7168583984375,-0.36637061834335327,-0.7482455372810364,-0.23327991366386414
1782986408829932500,7.7269326171875,-0.160993754863739,-0.6343935132026672,-0.027024483308196068
1782986408840007400,7.73700732421875,0.00971995573490858,-0.4745972156524658,0.13172154128551483
1782986408850081500,7.74708154296875,0.12340790778398514,-0.2957528829574585,0.20028889179229736
1782986408860155400,7.7571552734375,0.16910839080810547,-0.16501958668231964,0.2119934856891632
1782986408870230500,7.76723046875,0.18378905951976776,-0.08897861838340759,0.20947733521461487
1782986408880304400,7.777304443359375,0.16549955308437347,-0.07444562762975693,0.20595943927764893
1782986408890378500,7.78737841796875,0.13581036031246185,-0.03251336142420769,0.21224211156368256
1782986408900453400,7.797453369140625,0.12161562591791153,-0.03986966609954834,0.21543565392494202
1782986408910527500,7.807527587890625,0.1151028648018837,-0.10096471756696701,0.21386732161045074
1782986408920601300,7.817601318359375,0.12611053884029388,-0.15770012140274048,0.16498501598834991
1782986408930676500,7.827676513671875,0.16567791998386383,-0.20337653160095215,0.12397526949644089
1782986408940750300,7.837750244140625,0.24461960792541504,-0.29657623171806335,0.1389893740415573
1782986408950824400,7.847824462890625,0.3283105194568634,-0.43087679147720337,0.15765680372714996
1782986408960899300,7.8578994140625,0.40049266815185547,-0.4590829312801361,0.1263670027256012
1782986408970973400,7.867973388671875,0.5209709405899048,-0.3098207414150238,0.18632540106773376
1782986408981047300,7.87804736328125,0.7755396962165833,-0.10264530777931213,0.347285658121109
1782986408991122400,7.888122314453125,0.9978545308113098,0.22169707715511322,0.473259299993515
1782986409001196300,7.8981962890625,1.2262736558914185,0.6941927075386047,0.49345195293426514
1782986409011270400,7.9082705078125,1.55222749710083,0.9760153293609619,0.4160996377468109
1782986409021345300,7.91834521484375,1.9076659679412842,0.44372814893722534,0.49789658188819885
1782986409031419400,7.92841943359375,1.970818281173706,-0.061964333057403564,0.6916037201881409
1782986409041493500,7.938493408203125,1.7191458940505981,0.1636192798614502,0.8234981298446655
1782986409051568400,7.948568359375,1.1391950845718384,0.7322528958320618,1.2320579290390015
1782986409061642500,7.958642578125,0.4316927492618561,0.8823797702789307,1.4158231019973755
1782986409071716400,7.96871630859375,-0.1881854236125946,0.975529670715332,0.7660563588142395
1782986409081791500,7.97879150390625,-0.3984893560409546,0.7703031897544861,-0.04078401252627373
1782986409091865300,7.988865234375,0.0667523741722107,0.47119319438934326,-0.12308420985937119
1782986409101940500,7.9989404296875,0.8153107166290283,0.26132312417030334,0.559197187423706
1782986409112014600,8.0090146484375,1.311688780784607,0.5229867100715637,1.3987482786178589
1782986409122088400,8.01908837890625,1.5581187009811401,1.0829801559448242,1.9173102378845215
1782986409132163600,8.02916357421875,1.5231492519378662,1.4005836248397827,2.2063138484954834
1782986409142237400,8.039237548828124,1.354772925376892,1.541187047958374,2.331599712371826
1782986409152311300,8.049311279296875,1.2094449996948242,1.5282020568847656,2.3449203968048096
1782986409162386400,8.059386474609376,1.0897678136825562,1.2604888677597046,2.238656759262085
1782986409172460300,8.069460205078125,0.8912370800971985,0.8197826147079468,1.9664186239242554
1782986409182534400,8.079534423828125,0.6537865400314331,0.2973130941390991,1.3736690282821655
1782986409192609300,8.089609375,0.4359290301799774,-0.10071657598018646,0.4901939034461975
1782986409202683400,8.099683349609375,0.16085147857666016,-0.34244412183761597,-0.5578355193138123
1782986409212757200,8.10975732421875,-0.06947334110736847,-0.4133766293525696,-1.4015244245529175
1782986409222832400,8.119832275390625,-0.29572024941444397,-0.3856686055660248,-1.8527898788452148
1782986409232906200,8.12990625,-0.5010156035423279,-0.37957873940467834,-1.9648925065994263
1782986409242980600,8.139980712890624,-0.5918192267417908,-0.3042895793914795,-1.7558526992797852
1782986409253055200,8.15005517578125,-0.601373553276062,-0.2833070755004883,-1.3119782209396362
1782986409263129600,8.160129638671876,-0.5590970516204834,-0.3547646403312683,-0.7719807624816895
1782986409273203500,8.170203369140625,-0.47510576248168945,-0.46558329463005066,-0.3137522339820862
1782986409283278600,8.180278564453126,-0.4123736023902893,-0.5460101366043091,-0.05527958646416664
1782986409293352400,8.1903525390625,-0.3828636705875397,-0.47510087490081787,-0.011726516298949718
1782986409303426600,8.200426513671875,-0.4091430902481079,-0.41255420446395874,-0.12777307629585266
1782986409313501400,8.21050146484375,-0.4385172426700592,-0.4310908615589142,-0.3719828128814697
1782986409323575600,8.220575439453125,-0.5111481547355652,-0.38628098368644714,-0.6567305326461792
1782986409333649400,8.2306494140625,-0.5908264517784119,-0.2726614773273468,-0.9049030542373657
1782986409343724500,8.240724609375,-0.6195558905601501,-0.1440039426088333,-1.076865792274475
1782986409353798400,8.25079833984375,-0.5935242772102356,-0.07237502187490463,-1.1017487049102783
1782986409363872500,8.26087255859375,-0.525249183177948,-0.05165783688426018,-1.0231754779815674
1782986409373947400,8.270947509765625,-0.445405513048172,-0.009663514792919159,-0.9112582206726074
1782986409384021500,8.281021484375,-0.3702642023563385,0.04113662987947464,-0.8439438939094543
1782986409394095400,8.291095458984374,-0.29935887455940247,0.042194172739982605,-0.8593217730522156
1782986409404170500,8.30117041015625,-0.24962003529071808,0.03446681424975395,-0.901756227016449
1782986409414244400,8.311244384765626,-0.2341851443052292,0.0034351269714534283,-0.9247031211853027
1782986409424318200,8.321318115234375,-0.22947633266448975,-0.054586127400398254,-0.9246383905410767
1782986409434393300,8.331393310546876,-0.23946984112262726,-0.12643501162528992,-0.8903027772903442
1782986409444467200,8.34146728515625,-0.2472183257341385,-0.1752110868692398,-0.7816639542579651
1782986409454541600,8.35154150390625,-0.24612590670585632,-0.15618494153022766,-0.5732377767562866
1782986409464616200,8.3616162109375,-0.2076088786125183,-0.15614856779575348,-0.2959679961204529
1782986409474690600,8.371690673828125,-0.15341036021709442,-0.2623210549354553,-0.10393331199884415
1782986409484764400,8.381764404296876,-0.047124333679676056,-0.25282806158065796,0.05963640660047531
1782986409494839600,8.391839599609375,0.10954383760690689,-0.19542787969112396,0.20028778910636902
1782986409504913400,8.401913330078125,0.22476708889007568,-0.20451922714710236,0.23043596744537354
1782986409514987500,8.411987548828124,0.28612020611763,-0.40503740310668945,0.20898421108722687
1782986409525062400,8.4220625,0.252984881401062,-0.4471662938594818,0.24131840467453003
1782986409535136500,8.432136474609376,0.13762259483337402,-0.3060576319694519,0.40024334192276
1782986409545210400,8.44221044921875,0.04740648344159126,-0.14697277545928955,0.571914553642273
1782986409555285500,8.452285400390625,0.034903742372989655,-0.07529059797525406,0.2301228642463684
1782986409565359400,8.462359375,0.06863659620285034,0.25596949458122253,-0.5273431539535522
1782986409575433500,8.47243359375,0.06553880870342255,0.8070971369743347,-0.8487610816955566
1782986409585508400,8.48250830078125,0.05036533623933792,0.9085494875907898,-0.5726516246795654
1782986409595582500,8.49258251953125,0.10116806626319885,0.6782047152519226,-0.3952672481536865
1782986409605657300,8.5026572265625,0.13135071098804474,0.45843759179115295,-0.5997449159622192
1782986409615731500,8.5127314453125,0.14261934161186218,0.30406370759010315,-0.7697927951812744
1782986409625805300,8.522805419921875,0.2826613783836365,0.39486774802207947,-0.5536647439002991
1782986409635880400,8.53288037109375,0.39956164360046387,0.6701238751411438,-0.1167246624827385
1782986409645954300,8.542954345703125,0.43316057324409485,1.029207468032837,0.2506883442401886
1782986409656028400,8.5530283203125,0.40187856554985046,1.4422829151153564,0.46495720744132996
1782986409666103300,8.563103271484374,0.3557110130786896,1.7121230363845825,0.7542077302932739
1782986409676177400,8.573177490234375,0.30119210481643677,1.810267686843872,1.113504409790039
1782986409686251500,8.58325146484375,0.24319753050804138,1.7914739847183228,1.3848533630371094
1782986409696326400,8.593326416015625,0.25297534465789795,1.540544867515564,1.6117095947265625
1782986409706400500,8.603400390625,0.32409361004829407,1.0843679904937744,1.8190252780914307
1782986409716474400,8.613474365234374,0.3859947919845581,0.5486159324645996,1.9197041988372803
1782986409726549500,8.623549560546875,0.37639498710632324,0.08583613485097885,1.718628168106079
1782986409736623600,8.63362353515625,0.272704541683197,-0.2186417430639267,1.1386090517044067
1782986409746697500,8.643697509765625,0.13636662065982819,-0.5292857885360718,0.19354911148548126
1782986409756772600,8.653772705078126,0.030772274360060692,-0.7578593492507935,-0.8312480449676514
1782986409766846500,8.663846435546875,-0.011859980411827564,-0.9682586789131165,-1.7461289167404175
1782986409776920300,8.67392041015625,-0.016278430819511414,-1.1395961046218872,-2.3747241497039795
1782986409786995500,8.683995361328124,-0.05441559478640556,-1.059375286102295,-2.5137581825256348
1782986409797068800,8.69406884765625,-0.10095885396003723,-0.7969996929168701,-2.0568788051605225
1782986409807142700,8.704142578125,-0.16419368982315063,-0.5955635905265808,-1.1952805519104004
1782986409817217800,8.7142177734375,-0.2231835126876831,-0.5977628231048584,-0.2870219647884369
1782986409827291600,8.724291748046875,-0.2583518922328949,-0.6617878675460815,0.3273940682411194
1782986409837365800,8.73436572265625,-0.2419137954711914,-0.6450461745262146,0.5982990860939026
1782986409847440600,8.744440673828125,-0.18769234418869019,-0.6179202198982239,0.5925090909004211
1782986409857514800,8.7545146484375,-0.14309477806091309,-0.5501233339309692,0.4184100329875946
1782986409867588900,8.7645888671875,-0.10020919889211655,-0.42785710096359253,0.1826411634683609
1782986409877663700,8.774663818359375,-0.07349396497011185,-0.3559376299381256,-0.01902644708752632
1782986409887737900,8.78473779296875,-0.06987958401441574,-0.3359124958515167,-0.13373832404613495
1782986409897812000,8.79481201171875,-0.07918466627597809,-0.331033855676651,-0.1612144261598587
1782986409907886800,8.804886962890626,-0.10519173741340637,-0.360110342502594,-0.12341919541358948
1782986409917961000,8.8149609375,-0.146294966340065,-0.39558231830596924,-0.04676409810781479
1782986409928034800,8.825034912109375,-0.19103334844112396,-0.42945778369903564,0.038748081773519516
1782986409938110000,8.83510986328125,-0.22752505540847778,-0.4421490728855133,0.10301361978054047
1782986409948183800,8.845183837890625,-0.23761963844299316,-0.41000476479530334,0.15212197601795197
1782986409958257700,8.855257568359375,-0.23026052117347717,-0.381894588470459,0.17463554441928864
1782986409968332800,8.865332763671875,-0.21879324316978455,-0.34680137038230896,0.18307960033416748
1782986409978407000,8.875406982421875,-0.199184387922287,-0.3348315358161926,0.17078590393066406
1782986409988481800,8.885481689453124,-0.16731423139572144,-0.2932065427303314,0.11874724179506302
1782986409998556000,8.895555908203125,-0.1248655766248703,-0.25713270902633667,0.041406646370887756
1782986410008629800,8.905629638671876,-0.07555744051933289,-0.3203444480895996,-0.044352516531944275
1782986410018703600,8.91570361328125,-0.02960406243801117,-0.4498949944972992,-0.1411115527153015
1782986410028778800,8.92577880859375,-0.006233174353837967,-0.48706331849098206,-0.2444775253534317
1782986410038852600,8.9358525390625,0.013054769486188889,-0.37923485040664673,-0.24798065423965454
1782986410048926700,8.9459267578125,0.053705018013715744,0.010547053068876266,0.01745637319982052
1782986410059001600,8.956001708984376,0.05935092270374298,0.5753020644187927,0.4727432131767273
1782986410069075700,8.96607568359375,0.07972133159637451,0.9588603377342224,0.8907254934310913
1782986410079150600,8.976150634765625,0.13914312422275543,0.8569944500923157,1.031956434249878
1782986410089224700,8.986224609375,0.17241376638412476,0.22900407016277313,0.6360565423965454
1782986410099298800,8.996298828125,0.11657287925481796,-0.7592409253120422,-0.3701341450214386
1782986410109373700,9.006373779296876,0.00542068388313055,-1.1934210062026978,-1.4227644205093384
1782986410119447800,9.01644775390625,-0.20167043805122375,-0.7930512428283691,-1.9058141708374023
1782986410129522000,9.02652197265625,-0.22408033907413483,-0.10802674293518066,-1.7721595764160156
1782986410139596800,9.0365966796875,-0.08467850089073181,0.47347554564476013,-1.4853259325027466
1782986410149671000,9.0466708984375,0.006570026278495789,0.7766819596290588,-1.1814544200897217
1782986410159744800,9.056744873046876,0.020875461399555206,0.7095586061477661,-0.8182314038276672
1782986410169820000,9.06681982421875,0.09608767926692963,0.4153882563114166,-0.34519219398498535
1782986410179893800,9.076893798828126,0.15340156853199005,0.05830521136522293,0.17211753129959106
1782986410189968000,9.0869677734375,0.28047117590904236,-0.2031034231185913,0.6915085911750793
1782986410200042800,9.097042724609375,0.7319331765174866,-0.18123221397399902,1.2208648920059204
1782986410210116900,9.107116943359374,1.2420791387557983,0.06966960430145264,1.4701964855194092
1782986410220190700,9.117190673828125,1.4295134544372559,0.49299532175064087,1.2546138763427734
1782986410230265900,9.127265869140626,1.387759804725647,0.9712111353874207,0.8064901828765869
1782986410240339700,9.137339599609374,1.1458102464675903,1.4642077684402466,0.3773209750652313
1782986410250413800,9.147413818359375,0.8540951013565063,1.7181057929992676,0.12781262397766113
1782986410260488700,9.15748876953125,0.630643367767334,1.6350635290145874,0.02590729482471943
1782986410270562800,9.167562744140625,0.43505215644836426,1.1932557821273804,-0.02703709527850151
1782986410280636700,9.17763671875,0.26631879806518555,0.5556656718254089,-0.1571892350912094
1782986410290711800,9.1877119140625,0.10967619717121124,-0.12925754487514496,-0.4324128329753876
1782986410300785700,9.19778564453125,0.039946381002664566,-0.5993840098381042,-0.7439941763877869
1782986410310859800,9.20785986328125,0.06327375769615173,-0.8341687321662903,-0.9673781991004944
1782986410320934700,9.2179345703125,0.10566382855176926,-0.9645491242408752,-1.0354560613632202
1782986410331008800,9.2280087890625,0.13871994614601135,-0.9839734435081482,-0.8708061575889587
1782986410341083000,9.238082763671875,0.11734860390424728,-0.8855293989181519,-0.49576354026794434
1782986410351158000,9.248157958984375,0.03137923404574394,-0.707248330116272,-0.04616515710949898
1782986410361232000,9.25823193359375,-0.12765781581401825,-0.5129643678665161,0.24414388835430145
1782986410371305700,9.2683056640625,-0.28659752011299133,-0.25909242033958435,0.3159690499305725
1782986410381380900,9.278380859375,-0.41055887937545776,0.04513591527938843,0.2082521766424179
1782986410391454700,9.288454833984375,-0.49010100960731506,0.26538172364234924,0.028080256655812263
1782986410401528800,9.29852880859375,-0.529144823551178,0.28133219480514526,-0.14092206954956055
1782986410411603700,9.308603759765624,-0.5082083940505981,0.1492796391248703,-0.24379386007785797
1782986410421677800,9.318677734375,-0.43001851439476013,-0.03647211939096451,-0.2779467701911926
1782986410431751700,9.328751708984376,-0.352539986371994,-0.19555716216564178,-0.22089897096157074
1782986410441826800,9.338826904296875,-0.2795267701148987,-0.29974615573883057,-0.09068530797958374
1782986410451900700,9.348900634765625,-0.20411375164985657,-0.3809472918510437,0.05809446796774864
1782986410461974800,9.358974853515624,-0.1471250206232071,-0.43003949522972107,0.20225243270397186
1782986410472049700,9.369049560546875,-0.12404768913984299,-0.47871163487434387,0.3035368323326111
1782986410482123800,9.379123779296876,-0.13290616869926453,-0.5062508583068848,0.35771244764328003
1782986410492197600,9.38919775390625,-0.15896806120872498,-0.46647101640701294,0.40060847997665405
1782986410502272800,9.399272705078126,-0.16999702155590057,-0.4189615547657013,0.4308566451072693
1782986410512346600,9.4093466796875,-0.17026661336421967,-0.3753736913204193,0.42864346504211426
1782986410522421000,9.4194208984375,-0.15995939075946808,-0.2928066551685333,0.3799592852592468
1782986410532495600,9.42949560546875,-0.14925357699394226,-0.2614269256591797,0.2568668723106384
1782986410542570000,9.439570068359375,-0.13758200407028198,-0.33293572068214417,0.17432564496994019
1782986410552643800,9.449643798828125,-0.07131736725568771,-0.449820876121521,0.16328278183937073
1782986410562719000,9.459718994140625,0.05685285106301308,-0.4352230131626129,0.2577754557132721
1782986410572792800,9.469792724609375,0.17874965071678162,-0.37598592042922974,0.39411401748657227
1782986410582867000,9.479866943359376,0.3088279962539673,-0.3990398347377777,0.5981156229972839
1782986410592941800,9.48994189453125,0.4739345908164978,-0.43944865465164185,0.9811134338378906
1782986410603016000,9.500015869140626,0.5532480478286743,-0.22674916684627533,1.5313162803649902
1782986410613089800,9.51008984375,0.5385187864303589,0.17926809191703796,1.8271485567092896
1782986410623165000,9.5201650390625,0.5631841421127319,0.8034421801567078,1.5120537281036377
1782986410633238800,9.53023876953125,0.6710370779037476,1.409847617149353,0.4999289810657501
1782986410643312600,9.540312744140625,0.7888795733451843,1.4036725759506226,-0.8132457137107849
1782986410653387800,9.5503876953125,0.8552865982055664,0.8490052819252014,-1.7885481119155884
1782986410663461600,9.560461669921875,0.7134066820144653,0.2245265543460846,-2.0381765365600586
1782986410673535700,9.57053564453125,0.4587441384792328,-0.22178231179714203,-1.6843644380569458
1782986410683610600,9.580610595703124,0.3086419999599457,-0.30586203932762146,-1.1936535835266113
1782986410693684700,9.590684814453125,0.26602208614349365,-0.16981829702854156,-0.7511770725250244
1782986410703758600,9.600758544921876,0.3704547584056854,0.06863448023796082,-0.28527194261550903
1782986410713833700,9.610833740234375,0.5935912132263184,0.3426908850669861,0.30696114897727966
1782986410723907600,9.620907470703125,0.8443523049354553,0.5683223605155945,0.8738360404968262
1782986410733982000,9.63098193359375,1.038508653640747,0.7948336601257324,1.1889451742172241
1782986410744056600,9.641056640625,1.1262153387069702,0.9662855267524719,1.2522668838500977
1782986410754131000,9.651130859375,1.0517033338546753,1.000890851020813,1.1517282724380493
1782986410764205600,9.66120556640625,0.835583508014679,0.8544370532035828,1.1190779209136963
1782986410774280000,9.671280029296875,0.5347816348075867,0.5196737051010132,1.204870581626892
1782986410784353800,9.681353759765624,0.23003265261650085,0.10973382741212845,1.202016830444336
1782986410794429000,9.691428955078125,-0.08090067654848099,-0.20452135801315308,0.9150963425636292
1782986410804502800,9.701502685546876,-0.32196226716041565,-0.39345425367355347,0.3365272581577301
1782986410814577000,9.711576904296875,-0.4606584906578064,-0.5541077256202698,-0.4037746787071228
1782986410824650800,9.721650634765625,-0.5055996179580688,-0.6942179799079895,-1.078214406967163
1782986410834726000,9.731725830078124,-0.47187894582748413,-0.8011768460273743,-1.5410470962524414
1782986410844799700,9.7417998046875,-0.4210570454597473,-0.6915706992149353,-1.6771475076675415
1782986410854875000,9.751875,-0.4048619270324707,-0.5077620148658752,-1.5298832654953003
1782986410864948700,9.76194873046875,-0.41461068391799927,-0.35235539078712463,-1.1921107769012451
1782986410875022800,9.77202294921875,-0.4575260281562805,-0.25281110405921936,-0.774860143661499
1782986410885097700,9.78209765625,-0.5235404372215271,-0.1744430661201477,-0.4103167653083801
1782986410895171800,9.792171875,-0.5737729668617249,-0.1042066216468811,-0.15963949263095856
1782986410905245700,9.80224560546875,-0.6081064343452454,-0.05622711405158043,-0.0096076475456357
1782986410915320800,9.81232080078125,-0.6095414161682129,-0.016517693176865578,0.06338651478290558
1782986410925394700,9.822394775390626,-0.5963150858879089,0.012105163186788559,0.06655700504779816
1782986410935468800,9.83246875,-0.5673924088478088,-0.002661115024238825,0.05403708294034004
1782986410945543700,9.842543701171875,-0.5459030866622925,-0.06237770989537239,0.037801384925842285
1782986410955617800,9.85261767578125,-0.5331329703330994,-0.15323591232299805,0.038363076746463776
1782986410965692000,9.86269189453125,-0.5045852065086365,-0.20085696876049042,0.06625303626060486
1782986410975766800,9.872766845703126,-0.4737752676010132,-0.22629579901695251,0.10078831017017365
1782986410985841000,9.8828408203125,-0.4474613666534424,-0.2099013775587082,0.14633235335350037
1782986410995915000,9.8929150390625,-0.3972809612751007,-0.12465483695268631,0.17871147394180298
1782986411005990000,9.902989990234374,-0.33095332980155945,-0.08280938863754272,0.17492713034152985
1782986411016064000,9.91306396484375,-0.2838486135005951,-0.13440269231796265,0.1671324372291565
1782986411026137900,9.923137939453126,-0.2731051445007324,-0.2259073108434677,0.1666267067193985
1782986411036213000,9.933212890625,-0.2791973650455475,-0.2919858694076538,0.19649435579776764
1782986411046286800,9.943286865234375,-0.2913227379322052,-0.3466786742210388,0.2606951892375946
1782986411056360700,9.953360595703124,-0.306627482175827,-0.3596234619617462,0.3475091755390167
1782986411066435800,9.963435791015625,-0.3301604986190796,-0.2880973517894745,0.4181913435459137
1782986411076509700,9.973509765625,-0.33045321702957153,-0.09465807676315308,0.5475584268569946
1782986411086583800,9.983583740234375,-0.30078214406967163,0.12092161923646927,0.6715685129165649
1782986411096659000,9.993658935546875,-0.25642290711402893,0.26727578043937683,0.7353578209877014
1782986411106732800,10.00373291015625,-0.17842558026313782,0.3521512746810913,0.7449982166290283
1782986411116806700,10.013806640625,-0.07512028515338898,0.18320411443710327,0.7548836469650269
1782986411126881800,10.0238818359375,0.0834275484085083,-0.16178736090660095,0.9711863994598389
1782986411136955600,10.03395556640625,0.3071080446243286,-0.36861032247543335,1.2897217273712158
1782986411147029800,10.04402978515625,0.4373858869075775,-0.15965870022773743,1.2434216737747192
1782986411157104600,10.054104736328124,0.40073859691619873,0.30164825916290283,0.8062188029289246
1782986411167178800,10.0641787109375,0.19339554011821747,0.6683570146560669,0.29534751176834106
1782986411177253600,10.074253662109374,-0.06192876771092415,0.791795551776886,-0.0048637851141393185
1782986411187327700,10.08432763671875,-0.1641360968351364,0.6944812536239624,0.034564048051834106
1782986411197401900,10.09440185546875,-0.07900514453649521,0.41428300738334656,0.1003279983997345
1782986411207476700,10.104476806640625,0.08413264900445938,0.11297561973333359,-0.16207006573677063
1782986411217550800,10.11455078125,0.1340707242488861,-0.24162670969963074,-0.6010759472846985
1782986411227625000,10.124625,0.08888301253318787,-0.6116396188735962,-0.4747810959815979
1782986411237699800,10.134699951171875,0.0016665341099724174,-0.7630913257598877,0.17711320519447327
1782986411247774000,10.14477392578125,-0.07848183065652847,-0.44037002325057983,0.684954047203064
1782986411257847800,10.154847900390624,-0.04713086038827896,0.2457776665687561,0.7138306498527527
1782986411267923000,10.1649228515625,0.10161680728197098,1.002825379371643,0.29690906405448914
1782986411277996800,10.174996826171874,0.29828888177871704,1.4743269681930542,-0.24679972231388092
1782986411288071000,10.18507080078125,0.46892693638801575,1.5317577123641968,-0.4226500988006592
1782986411298145800,10.195145751953126,0.6035973429679871,1.3056230545043945,-0.1088603138923645
1782986411308220000,10.205219970703125,0.5762724876403809,0.7457166314125061,0.5001319050788879
1782986411318293800,10.215293701171875,0.46494314074516296,0.08266060799360275,1.220941424369812
1782986411328369000,10.225368896484374,0.329033225774765,-0.2834281623363495,1.6427465677261353
1782986411338442800,10.23544287109375,0.15161770582199097,-0.4513365924358368,1.4589816331863403
1782986411348516900,10.245516845703126,0.03973671421408653,-0.4854402244091034,0.797917366027832
1782986411358591700,10.255591796875,-0.002396757248789072,-0.415211945772171,-0.07746904343366623
1782986411368665900,10.265665771484375,-0.07840017974376678,-0.24378879368305206,-0.7529465556144714
1782986411378739700,10.27573974609375,-0.1328994333744049,-0.11640933901071548,-1.0221893787384033
1782986411388814800,10.28581494140625,-0.2012356072664261,0.03217693790793419,-0.819761335849762
1782986411398888700,10.295888671875,-0.26242953538894653,0.10289625823497772,-0.3733528256416321
1782986411408962800,10.305962890625,-0.32123640179634094,0.0916324183344841,0.061585042625665665
1782986411419037700,10.31603759765625,-0.3424556255340576,0.10114097595214844,0.32158949971199036
1782986411429111800,10.32611181640625,-0.359905481338501,0.009014517068862915,0.3648189902305603
1782986411439186000,10.33618603515625,-0.3582942485809326,-0.12610815465450287,0.24259670078754425
1782986411449260800,10.3462607421875,-0.3543597161769867,-0.2249969094991684,0.06417076289653778
1782986411459335000,10.3563349609375,-0.35967332124710083,-0.29490339756011963,-0.057116106152534485
1782986411469408800,10.36640869140625,-0.35953962802886963,-0.3000132143497467,-0.07892339676618576
1782986411479484000,10.37648388671875,-0.34824690222740173,-0.23617228865623474,-0.05538037046790123
1782986411489557800,10.386557861328125,-0.3101796805858612,-0.13374844193458557,0.003421159228309989
1782986411499631900,10.3966318359375,-0.2681516110897064,-0.08812232315540314,0.032526370137929916
1782986411509706800,10.406706787109375,-0.23435530066490173,-0.11153577268123627,0.024878306314349174
1782986411519780900,10.41678076171875,-0.22840136289596558,-0.2101161628961563,0.021548526361584663
1782986411529854700,10.426854736328124,-0.23606620728969574,-0.31326571106910706,0.049060579389333725
1782986411539929900,10.436929931640625,-0.2484101951122284,-0.396554559469223,0.0757157951593399
1782986411550003700,10.447003662109376,-0.26038193702697754,-0.44066157937049866,0.10583721101284027
1782986411560078800,10.457078857421875,-0.2738749384880066,-0.4920405447483063,0.2572305500507355
1782986411570152700,10.467152587890626,-0.2673161029815674,-0.45315253734588623,0.5716182589530945
1782986411580226800,10.477226806640624,-0.2059813141822815,-0.21849530935287476,0.6886187195777893
1782986411590301700,10.4873017578125,-0.13325650990009308,0.137963205575943,0.6896741390228271
1782986411600375800,10.497375732421874,-0.06904111057519913,0.30244314670562744,0.6681851744651794
1782986411610449700,10.50744970703125,-0.008904805406928062,0.31592991948127747,0.5312255024909973
1782986411620524800,10.51752490234375,0.04227321594953537,0.3530619144439697,0.4438440203666687
1782986411630598700,10.5275986328125,0.12145618349313736,0.3282513916492462,0.4720540940761566
1782986411640673000,10.537673095703125,0.13870225846767426,0.2900379002094269,0.6244537234306335
1782986411650748000,10.547747802734374,0.09985259175300598,0.10682225972414017,0.9242034554481506
