time,seconds_elapsed,z,y,x
1782987459735046400,0.05004638671875,0.0005843968829140067,-0.0007555817719548941,0.0005779257626272738
1782987459745120300,0.060120361328125,-0.0012759099481627345,-0.00039954320527613163,-0.00018243743397761136
1782987459755195400,0.0701953125,-0.00002981687430292368,-0.0017188731580972672,0.0024708700366318226
1782987459765269500,0.08026953125,0.00044786534272134304,0.0016565639525651932,-0.00023714994313195348
1782987459775344400,0.090344482421875,0.0004318864084780216,0.0010206010192632675,-0.00026697732391767204
1782987459785418500,0.10041845703125,0.000289140734821558,0.0015498476568609476,0.00016081896319519728
1782987459795493400,0.110493408203125,0.000768509809859097,-0.0010746974730864167,0.0003573602298274636
1782987459805567500,0.1205673828125,-0.00006479443982243538,-0.0010005863150581717,-0.0025067755486816168
1782987459815642400,0.130642333984375,-0.0018973156111314893,0.00030249846167862415,-0.0008484251447953284
1782987459825716500,0.140716552734375,0.000457275309599936,-0.00020442763343453407,-0.0004198120441287756
1782987459835791400,0.150791259765625,-0.0006551270489580929,-0.00005715480074286461,0.0024867618922144175
1782987459845865500,0.160865478515625,-0.0014439565129578114,-0.001394046121276915,-0.001308779581449926
1782987459855940400,0.1709404296875,-0.002284982707351446,-0.0002885679714381695,0.0010819401359185576
1782987459866014500,0.181014404296875,0.0023801662027835846,0.0024605453945696354,-0.00027260062051936984
1782987459876089300,0.19108935546875,0.00015269825235009193,-0.001243378734216094,-0.001076609012670815
1782987459886163500,0.20116357421875,-0.00034256104845553637,-0.0004547135904431343,-0.0008836727938614786
1782987459896238300,0.21123828125,0.0005237652221694589,-0.001959932269528508,-0.0003363931900821626
1782987459906312400,0.2213125,0.00018687557894736528,0.0020400588400661945,-0.0004049290728289634
1782987459916387300,0.23138720703125,0.0009325607679784298,-0.0017469560261815786,-0.0003460732114035636
1782987459926461400,0.24146142578125,0.0018202799838036299,-0.0008369475835934281,0.00011841991363326088
1782987459936535300,0.251535400390625,-0.0007568610599264503,-0.0011565269669517875,0.0016606564167886972
1782987459946610400,0.2616103515625,0.00036912469659000635,-0.0013844743371009827,-0.00137854996137321
1782987459956684300,0.271684326171875,-0.0016879008617252111,0.0013308848720043898,-0.002767921192571521
1782987459966759400,0.281759521484375,0.0011181831359863281,-0.0015108287334442139,0.001674114027991891
1782987459976833300,0.291833251953125,-0.00048104499001055956,-0.0006484971381723881,-0.0025075816083699465
1782987459986908400,0.301908447265625,0.0008639394072815776,0.0026047509163618088,-0.001537980162538588
1782987459996982300,0.311982177734375,-0.001693760510534048,-0.0038491536397486925,0.0020213345997035503
1782987460007057400,0.322057373046875,-0.0006594771984964609,0.0011588956695050001,-0.0014392081648111343
1782987460017131300,0.33213134765625,0.0005746316164731979,0.0010861915070563555,0.0036410377360880375
1782987460027206400,0.342206298828125,-0.0012046260526403785,0.0028792209923267365,-0.00214051129296422
1782987460037280300,0.3522802734375,0.0003040547017008066,-0.0004369470989331603,0.001906428369693458
1782987460047355400,0.36235546875,-0.00205426337197423,0.00024159974418580532,0.0006392657523974776
1782987460057429200,0.37242919921875,-0.00008405675180256367,0.00017182505689561367,-0.0014704904751852155
1782987460067504400,0.38250439453125,-0.00025947089307010174,0.0013055403251200914,0.00006698937067994848
1782987460077578200,0.392578125,0.0010164495324715972,-0.0035587232559919357,0.0022084370721131563
1782987460087653400,0.4026533203125,0.0007424108916893601,0.0030255052261054516,-0.00013958560884930193
1782987460097727200,0.412727294921875,0.0003762261476367712,-0.0003593724686652422,0.0004942467203363776
1782987460107802400,0.42280224609375,0.000909123569726944,0.0006945156492292881,-0.001258552074432373
1782987460117876200,0.432876220703125,0.00033547868952155113,-0.00016408739611506462,-0.0004558752407319844
1782987460127951400,0.442951416015625,0.000335301854647696,0.0022255168296396732,-0.003444537054747343
1782987460138025200,0.453025146484375,-0.0000021206215023994446,0.0009461343288421631,0.00044527591671794653
1782987460148100400,0.463100341796875,0.0000992573332041502,-0.0012935923878103495,0.001009829225949943
1782987460158174500,0.473174560546875,-0.0006948973168618977,0.000840664841234684,-0.0009904711041599512
1782987460168248300,0.483248291015625,0.000029392424039542675,0.0020613959059119225,0.0030457978136837482
1782987460178323500,0.493323486328125,0.000262152636423707,-0.004052422940731049,-0.0003545260988175869
1782987460188397300,0.503397216796875,0.000567707815207541,0.0005651053506880999,-0.001047902973368764
1782987460198472400,0.513472412109375,-0.001752704381942749,-0.0010602218098938465,-0.0017669564113020897
1782987460208546300,0.52354638671875,0.0012750424211844802,-0.00048170704394578934,0.0029882106464356184
1782987460218621400,0.533621337890625,0.0007064576493576169,0.001390761462971568,0.00011679048475343734
1782987460228695300,0.5436953125,0.0005535929230973125,-0.00022522592917084694,0.0028182948008179665
1782987460238770400,0.5537705078125,-0.0002861018292605877,-0.0009376213420182467,0.0015271942829713225
1782987460248844300,0.56384423828125,0.0001775519922375679,0.003252437338232994,0.0001887732360046357
1782987460258919400,0.57391943359375,-0.003597212489694357,0.00008700392208993435,0.0017813435988500714
1782987460268993300,0.5839931640625,0.0013623923296108842,0.0002976600080728531,-0.001965457806363702
1782987460279068400,0.594068359375,0.0009645161917433143,0.00137730548158288,-0.0002186904166592285
1782987460289142300,0.604142333984375,-0.0022010032553225756,-0.0005388004938140512,0.0010620884131640196
1782987460299217400,0.614217529296875,0.00015349732711911201,0.002487349323928356,0.0004943024832755327
1782987460309291300,0.624291259765625,0.00014275533612817526,0.00030804076232016087,-0.00020240484445821494
1782987460319366400,0.634366455078125,0.00022957439068704844,-0.00036360835656523705,0.0014711256371811032
1782987460329440300,0.644440185546875,-0.0007025325903669,0.00020727794617414474,-0.000663484213873744
1782987460339515400,0.654515380859375,0.0011401085648685694,0.00023231166414916515,-0.00142488197889179
1782987460349589200,0.66458935546875,0.00011461484245955944,-0.0010199565440416336,0.0013399492017924786
1782987460359664400,0.674664306640625,0.001225152867846191,0.0030144662596285343,0.0007726958720013499
1782987460369738200,0.68473828125,0.00017338187899440527,-0.001097197295166552,0.002474152948707342
1782987460379813400,0.6948134765625,0.0011877798242494464,0.0011928549502044916,0.0007044824305921793
1782987460389887200,0.70488720703125,0.0003881261218339205,0.0008262358605861664,-0.0009746287832967937
1782987460399962400,0.71496240234375,0.0002331300638616085,0.0006254334002733231,0.002148460131138563
1782987460410036200,0.7250361328125,-0.0005528170149773359,0.00022496422752738,0.00001656097811064683
1782987460420110600,0.735110595703125,-0.0007139382651075721,-0.0014347177930176258,0.0010533296735957265
1782987460430185200,0.745185302734375,0.000620085746049881,-0.0017667748034000397,0.0031251769978553057
1782987460440259600,0.755259521484375,0.0006669573485851288,-0.00011561508290469646,-0.00016702267748769373
1782987460450334200,0.765334228515625,-0.0002219097805209458,0.001895697321742773,-0.005180199630558491
1782987460460408600,0.77540869140625,-0.0007665262091904879,0.0004956733901053667,0.00275841704569757
1782987460470483200,0.785483154296875,-0.000493434548843652,-0.00007744133472442627,-0.0008801447693258524
1782987460480557600,0.7955576171875,0.0005603783065453172,0.0006429438944905996,-0.00015922708553262055
1782987460490632200,0.805632080078125,0.0010003673378378153,0.0009253877215087414,-0.0004159423988312483
1782987460500706600,0.81570654296875,0.0005822511157020926,0.000751749612390995,-0.001021811505779624
1782987460510781200,0.82578125,0.0010159839875996113,0.000013770535588264465,0.0026658978313207626
1782987460520855600,0.83585546875,-0.0008050855249166489,0.0019877057056874037,-0.0007205778383649886
1782987460530930200,0.84593017578125,-0.001388974953442812,0.00024648476392030716,0.0022637655492872
1782987460541004500,0.856004638671875,0.0011548764305189252,-0.00044007820542901754,0.002677354495972395
1782987460551079400,0.866079345703125,-0.0006841864669695497,-0.000726116937585175,-0.0013677019160240889
1782987460561153000,0.876153076171875,0.0020205199252814054,-0.001131183817051351,0.0003878538846038282
1782987460571228000,0.886227783203125,0.00012098520528525114,-0.0005235078278928995,-0.0013291742652654648
1782987460581302000,0.896302001953125,-0.001256668008863926,-0.00028542126528918743,-0.00019440143660176545
1782987460591377000,0.906376953125,0.0027217655442655087,-0.0010936771286651492,-0.000132467393996194
1782987460601451000,0.916450927734375,0.00043517560698091984,0.00011007161810994148,-0.0009122409392148256
1782987460611526000,0.92652587890625,-0.002702875528484583,0.0017441906966269016,0.000825416820589453
1782987460621600000,0.93660009765625,0.00041408801916986704,0.0005194027908146381,-0.0003575593000277877
1782987460631675000,0.9466748046875,-0.0017919354140758514,-0.0003804934676736593,-0.000859782681800425
1782987460641749200,0.956749267578125,0.0029567470774054527,0.0006410952191799879,0.001841994235292077
1782987460651823900,0.966823974609375,-0.0010191819164901972,0.0005259555764496326,-0.0009044515318237245
1782987460661898200,0.976898193359375,0.0007576791103929281,-0.000255948631092906,0.000030850649636704475
1782987460671972000,0.98697216796875,0.002206461038440466,-0.0014857291243970394,-0.00019337233970873058
1782987460682047200,0.997047119140625,-0.001366702257655561,0.0009489327203482389,-0.0013129652943462133
1782987460692121000,1.00712109375,0.00012533843982964754,0.0002851414028555155,-0.0026387865655124187
1782987460702196200,1.0171962890625,0.0015397433890029788,0.000018825288861989975,-0.0016331770457327366
1782987460712270000,1.02727001953125,0.0018191252602264285,-0.001488586189225316,0.0036535824183374643
1782987460722345200,1.03734521484375,-0.0015428492333739996,0.001325842458754778,0.0015092049725353718
1782987460732419000,1.047419189453125,-0.0006181575008668005,-0.000900019658729434,0.0004861367342527956
1782987460742494200,1.057494140625,0.00032247102353721857,-0.0018049618229269981,0.0005460578249767423
1782987460752568000,1.067568115234375,0.0002444288693368435,-0.00015237252227962017,0.0006202505901455879
1782987460762643200,1.077643310546875,-0.001446944777853787,0.0021376796066761017,0.000572846329305321
1782987460772717000,1.087717041015625,-0.002310141921043396,0.00018365145660936832,0.00040946417720988393
1782987460782792200,1.097792236328125,0.0010837906738743186,0.00023957784287631512,-0.0010345017071813345
1782987460792866000,1.107865966796875,-0.0008208140498027205,0.00019946624524891376,0.0006045151967555285
1782987460802941200,1.117941162109375,0.0021579316817224026,-0.001650365418754518,0.00008226932550314814
1782987460813015000,1.12801513671875,-0.0010453552240505815,0.000546453520655632,0.0010889862896874547
1782987460823090200,1.138090087890625,0.00019993889145553112,0.00009478139691054821,0.0015012435615062714
1782987460833164000,1.1481640625,0.0016283821314573288,-0.0006543311756104231,0.001786495908163488
1782987460843239200,1.1582392578125,0.0019548856653273106,0.0013313216622918844,-0.0007245987071655691
1782987460853313000,1.16831298828125,0.0018163721542805433,-0.0027067996561527252,0.001443738117814064
1782987460863388200,1.17838818359375,0.0018182361964136362,0.002162790624424815,-0.00011474371422082186
1782987460873462000,1.1884619140625,0.00019472185522317886,-0.00048401509411633015,0.0006495000561699271
1782987460883537200,1.198537109375,-0.0006332549382932484,-0.0014185183681547642,-0.0011036588111892343
1782987460893611000,1.208611083984375,-0.0005092912469990551,-0.00014838599599897861,0.0001656555396039039
1782987460903685000,1.21868505859375,0.002481705043464899,-0.0014986087335273623,-0.001959813293069601
1782987460913760000,1.228760009765625,-0.0012105837231501937,0.0013239153195172548,0.00008306498784804717
1782987460923834000,1.238834228515625,0.0011782718356698751,-0.00015493808314204216,-0.0028522710781544447
1782987460933909000,1.248908935546875,-0.0005594052490778267,0.00039194850251078606,0.0005331268184818327
1782987460943983000,1.258983154296875,0.00026404415257275105,0.00018555345013737679,-0.00003412650403333828
1782987460954058000,1.26905810546875,-0.00009874079842120409,-0.001544465310871601,0.0002440423850202933
1782987460964132000,1.279132080078125,-0.0005094001535326242,-0.001463505206629634,-0.0000020336992747616023
1782987460974207000,1.28920703125,-0.0001053947489708662,-0.00020047160796821117,-0.0007905281381681561
1782987460984281000,1.299281005859375,0.0022970428690314293,-0.00039914343506097794,-0.0003889234212692827
1782987460994356000,1.30935595703125,0.0004904199158772826,0.001098116161301732,0.0023582654539495707
1782987461004430000,1.31943017578125,0.0023362566716969013,0.000008616829290986061,-0.0014327443204820156
1782987461014505000,1.3295048828125,-0.0003631089930422604,-0.00035562319681048393,0.000166895188158378
1782987461024579000,1.3395791015625,0.0014734069118276238,-0.0007204762659966946,0.0021035459358245134
1782987461034654200,1.349654296875,0.001124921953305602,0.0012043695896863937,-0.0001501071674283594
1782987461044728000,1.35972802734375,0.0009981554467231035,-0.0003751511685550213,-0.00046915386337786913
1782987461054803200,1.36980322265625,-0.0006749455351382494,-0.0003483190666884184,-0.001486553461290896
1782987461064877000,1.379876953125,-0.0003931831452064216,0.0003883112221956253,-0.000585073372349143
1782987461074952200,1.3899521484375,0.001073106424883008,-0.00022046314552426338,-0.00012216990580782294
1782987461085026000,1.400026123046875,-0.000944504514336586,-0.00019622850231826305,0.001933524152263999
1782987461095101200,1.41010107421875,-0.0016293453518301249,0.0033180564641952515,0.003938794136047363
1782987461105175000,1.420175048828125,-0.0008003032999113202,-0.002749423496425152,-0.0014506449224427342
1782987461115250200,1.430250244140625,0.0017600806895643473,0.0005008801817893982,0.0015301876701414585
1782987461125324000,1.440323974609375,-0.00016378681175410748,-0.0008333635050803423,-0.0019497647881507874
1782987461135398000,1.45039794921875,0.00036338972859084606,0.0027739896904677153,0.000598817365244031
1782987461145473000,1.46047314453125,-0.000013980199582874775,-0.0013709543272852898,-0.002236383967101574
1782987461155547100,1.470547119140625,0.0006619831547141075,0.0005293781869113445,0.0014868173748254776
1782987461165622000,1.4806220703125,0.0002475953660905361,-0.0016709256451576948,0.0006841406575404108
1782987461175696100,1.490696044921875,-0.0007954987813718617,0.00011031958274543285,0.00018409889889881015
1782987461185771000,1.50077099609375,-0.00008629902731627226,0.0029758810997009277,0.0025420617312192917
1782987461195845000,1.51084521484375,0.00015525042545050383,0.0010752431116998196,-0.0019679092802107334
1782987461205920000,1.520919921875,0.0007946754340082407,-0.00047445017844438553,0.0012316126376390457
1782987461215994000,1.530994140625,-0.001569097046740353,-0.000016559148207306862,0.000009256422345060855
1782987461226069000,1.541069091796875,-0.0016239581163972616,-0.0016011400148272514,-0.0009915594710037112
1782987461236143000,1.55114306640625,-0.0012332065962255,0.0003323433920741081,-0.002403089078143239
1782987461246218000,1.561218017578125,-0.00007339997682720423,0.0007501933723688126,-0.000051517934480216354
1782987461256292000,1.5712919921875,0.0022230942267924547,-0.00032866024412214756,0.0009510797099210322
1782987461266367000,1.581366943359375,0.00004249787889420986,0.00006282445974647999,0.0013691961066797376
1782987461276441000,1.591441162109375,-0.0008630093652755022,0.0013197893276810646,-0.0013853894779458642
1782987461286516000,1.601515869140625,0.0011953478679060936,0.0009658553171902895,0.0012846958125010133
1782987461296590000,1.611590087890625,-0.0019905634690076113,-0.0007165465503931046,0.00047305907355621457
1782987461306665000,1.6216650390625,-0.0022382372990250587,0.0010083827655762434,-0.0023608107585459948
1782987461316739000,1.631739013671875,0.0007570394081994891,-0.0008036840008571744,0.0027576605789363384
1782987461326814000,1.64181396484375,-0.0025463455822318792,0.0013979512732475996,-0.0002722178178373724
1782987461336888000,1.65188818359375,-0.0008382955566048622,-0.0013203925918787718,-0.0009158878237940371
1782987461346963000,1.661962890625,-0.0006505426717922091,-0.00021890923380851746,0.0026506176218390465
1782987461357037000,1.672037109375,0.0004265052266418934,-0.0011653387919068336,0.0005234710988588631
1782987461367111000,1.68211083984375,-0.0011149323545396328,0.0004991369787603617,0.0006542322807945311
1782987461377186000,1.69218603515625,0.0003359445836395025,-0.002643812447786331,-0.0013792789541184902
1782987461387260000,1.702260009765625,0.000047790585085749626,-0.0017471262253820896,-0.0002879156090784818
1782987461397335000,1.7123349609375,0.0007305647013708949,0.000002425629645586014,-0.00015988237282726914
1782987461407409000,1.722408935546875,-0.002238327171653509,0.0007334633264690638,-0.0018848119070753455
1782987461417484000,1.732484130859375,0.00020817515905946493,-0.0011939796386286616,-0.0006343231652863324
1782987461427558000,1.742557861328125,-0.0001271168002858758,0.002726459875702858,-0.002834893064573407
1782987461437633000,1.752633056640625,0.0003820143174380064,0.0009790074545890093,0.0011358159827068448
1782987461447707000,1.762706787109375,-0.00013570417650043964,-0.0007421935442835093,-0.0002998941345140338
1782987461457782000,1.772781982421875,0.0012475524563342333,-0.0011209532385692,-0.0014139639679342508
1782987461467856000,1.78285595703125,-0.0004150589229539037,0.0013075831811875105,-0.00024829834001138806
1782987461477931000,1.792930908203125,-0.00019622384570538998,0.00046483101323246956,0.0014333033468574286
1782987461488004900,1.8030048828125,0.0006424055900424719,0.0024257164914160967,-0.0008444982813671231
1782987461498080000,1.813080078125,0.0007830422837287188,-0.00013313326053321362,0.0003465513582341373
1782987461508153900,1.82315380859375,-0.001667598495259881,-0.0014567244797945023,-0.00019140716176480055
1782987461518229000,1.83322900390625,0.002633239608258009,-0.0015310535673052073,-0.0011820506770163774
1782987461528302800,1.843302734375,-0.0006368558970279992,-0.0011369057465344667,0.0015096062561497092
1782987461538378000,1.8533779296875,-0.0005261210026219487,-0.0015080886660143733,-0.00002424517151666805
1782987461548452000,1.8634521484375,0.0005167728522792459,0.0020466989371925592,-0.004196885973215103
1782987461558527000,1.87352685546875,0.00005962688010185957,-0.0009503390174359083,0.0027518928982317448
1782987461568600800,1.883600830078125,-0.0014679624000564218,0.0008222609758377075,-0.000686514307744801
1782987461578676000,1.893676025390625,0.001301692915149033,0.0007057820912450552,0.0023046734277158976
1782987461588749800,1.903749755859375,0.0024037091061472893,0.002213930245488882,0.00014058862871024758
1782987461598824000,1.913823974609375,0.0014093591598793864,-0.0008948370814323425,0.0003760454128496349
1782987461608898800,1.92389892578125,-0.0006146432715468109,-0.0014543673023581505,0.001530525740236044
1782987461618973000,1.933972900390625,0.002530670491978526,-0.0010670284973457456,-0.0009712857427075505
1782987461629047800,1.9440478515625,-0.00040812778752297163,-0.000223605427891016,-0.0008692867122590542
1782987461639122000,1.954121826171875,0.0019529634155333042,0.0007405313663184643,-0.0009034603135660291
1782987461649197000,1.964197021484375,0.00019847287330776453,-0.0008179504657164216,-0.0016635265201330185
1782987461659271000,1.97427099609375,-0.0003738363739103079,0.0007589042652398348,-0.0017896733479574323
1782987461669346000,1.984345947265625,0.0012134076096117496,0.0006060388404875994,-0.0007845962536521256
1782987461679420000,1.994419921875,0.0015573088312521577,0.0012731179594993591,0.0007010765257291496
1782987461689495000,2.0044951171875,0.0006699436344206333,0.0007583289407193661,0.0009050747030414641
1782987461699569000,2.01456884765625,-0.0014676852151751518,0.0011361909564584494,0.0002567951160017401
1782987461709644000,2.02464404296875,0.0022668656893074512,0.0009132842533290386,-0.00012563480413518846
1782987461719718000,2.0347177734375,-0.0006166839739307761,0.0006915086414664984,-0.0034481044858694077
1782987461729793000,2.04479296875,0.0024448861368000507,0.0001378373708575964,-0.0009769572643563151
1782987461739867000,2.054866943359375,0.0012938090367242694,-0.0007562586106359959,0.0036674572620540857
1782987461749942000,2.06494189453125,-0.00013977044727653265,0.00012870971113443375,-0.0009446049807593226
1782987461760016000,2.075015869140625,-0.00014729856047779322,-0.00029305252246558666,-0.0001446973328711465
1782987461770091000,2.085091064453125,-0.0010439848992973566,-0.0018097227439284325,0.0015863573644310236
1782987461780164900,2.095164794921875,0.00028285058215260506,0.0013389522209763527,-0.0026075292844325304
1782987461790240000,2.105239990234375,-0.0027366415597498417,0.0010955394245684147,-0.0034581429790705442
1782987461800313900,2.11531396484375,0.0007560348603874445,-0.0002109904307872057,0.0014068642631173134
1782987461810388000,2.125387939453125,0.00016720988787710667,0.0032151665072888136,-0.0000014152974472381175
1782987461820462800,2.135462890625,-0.0003189045819453895,-0.00041110790334641933,0.001986502902582288
1782987461830537000,2.145536865234375,-0.00009679701179265976,0.000709017738699913,0.0015454832464456558
1782987461840611800,2.15561181640625,-0.00021214032312855124,-0.00048463919665664434,0.0013275329256430268
1782987461850686000,2.16568603515625,-0.00017379078781232238,0.0012533396948128939,0.0037744452711194754
1782987461860760800,2.1757607421875,0.0014668279327452183,-0.00017971615307033062,0.002520437818020582
1782987461870835000,2.1858349609375,0.0014998512342572212,0.00037581915967166424,0.0015891303773969412
1782987461880909800,2.195909912109375,0.001207407913170755,0.0012578575406223536,0.0013272755313664675
1782987461890984000,2.20598388671875,0.0009562718914821744,0.0002013815101236105,-0.002497290028259158
1782987461901058800,2.216058837890625,0.0008951154304668307,-0.0005571480141952634,-0.001224683364853263
1782987461911133000,2.2261328125,0.0010349313961341977,-0.0020868678111582994,-0.0011503811692819
1782987461921207800,2.236207763671875,-0.00011777924373745918,0.0010025270748883486,-0.0024352872278541327
1782987461931282000,2.246281982421875,-0.0001244371524080634,-0.0015261443331837654,0.0014268290251493454
1782987461941356800,2.256356689453125,0.0010531289735808969,0.0018250783905386925,0.0005714264698326588
1782987461951431000,2.266430908203125,-0.0006086835055612028,-0.00035897991620004177,-0.0009492384851910174
1782987461961505800,2.276505859375,0.0012258434435352683,-0.0005945698358118534,0.0019066425738856196
1782987461971580000,2.286579833984375,0.0007217070087790489,0.00031889439560472965,0.001672550686635077
1782987461981654800,2.29665478515625,-0.000025454326532781124,0.00014198641292750835,-0.0014697255101054907
1782987461991729000,2.30672900390625,-0.000034775352105498314,-0.00008890964090824127,0.0019100921927019954
1782987462001803800,2.3168037109375,-0.00008359772618860006,0.0021988051012158394,0.0021878343541175127
1782987462011878000,2.3268779296875,-0.00020184210734441876,-0.0001668811310082674,0.0009228329290635884
1782987462021952800,2.336952880859375,-0.0005844499683007598,0.000015648547559976578,0.0014784920495003462
1782987462032027000,2.34702685546875,0.00017481727991253138,-0.001801159931346774,-0.0020038574002683163
1782987462042101000,2.35710107421875,0.0005180962616577744,0.001432162243872881,0.00014425675908569247
1782987462052176000,2.36717578125,0.0005101067945361137,-0.00015428289771080017,-0.0004048870468977839
1782987462062250000,2.37725,0.0004585130373016,0.002170621883124113,-0.001848702086135745
1782987462072324900,2.387324951171875,0.0020556107629090548,-0.0012281043455004692,-0.0007842365885153413
1782987462082399000,2.39739892578125,-0.0005059845861978829,-0.0010047613177448511,-0.0009335897048003972
1782987462092473900,2.407473876953125,-0.0016378280706703663,0.0021801129914820194,-0.0008473032503388822
1782987462102548000,2.4175478515625,0.0008630754891782999,0.0002894722856581211,-0.0000034327240427955985
1782987462112623000,2.427623046875,0.0009411061182618141,0.001241552410647273,-0.0014580512652173638
1782987462122697000,2.437697021484375,0.0015600873157382011,0.0002922140993177891,0.001694557722657919
1782987462132772000,2.447772216796875,0.001988323638215661,-0.0013301834696903825,0.0012950835516676307
1782987462142846000,2.457845947265625,0.00039566436316818,-0.0009101612959057093,0.0038331658579409122
1782987462152921000,2.467921142578125,-0.0001257825642824173,0.00016628834418952465,0.00251756445504725
1782987462162995200,2.4779951171875,-0.0014837763737887144,0.0005996944382786751,-0.0029809053521603346
1782987462173070000,2.488070068359375,-0.0005812310264445841,-0.0009145790245383978,0.0013283553998917341
1782987462183144200,2.498144287109375,0.0011247472139075398,0.0031133675947785378,-0.000713191635441035
1782987462193219000,2.508218994140625,0.0025098570622503757,-0.00016045616939663887,0.0007289100904017687
1782987462203293200,2.518293212890625,-0.0029204771853983402,0.0008429691661149263,-0.002418638439849019
1782987462213368000,2.5283681640625,0.0005682639311999083,-0.0007517316844314337,-0.0006771974731236696
1782987462223442200,2.538442138671875,0.00033228518441319466,0.0033734410535544157,0.00013886652595829219
1782987462233517000,2.54851708984375,0.00024280301295220852,-0.00013261032290756702,-0.0003506224893499166
1782987462243591200,2.558591064453125,0.0014264973578974605,0.00136404181830585,0.002138970885425806
1782987462253665000,2.5686650390625,-0.0008542337454855442,0.0010870732367038727,-0.0014416490448638797
1782987462263740200,2.578740234375,-0.0004944318206980824,0.0012305777054280043,0.0018987749936059117
1782987462273814000,2.58881396484375,0.000509579898789525,-0.0014403065433725715,-0.002038708422333002
1782987462283889200,2.59888916015625,-0.0016717691905796528,0.0004320803564041853,-0.0022156289778649807
1782987462293963000,2.608962890625,-0.0016408765222877264,-0.0005069503095000982,-0.0014236049028113484
1782987462304038100,2.6190380859375,0.001135684666223824,-0.00010959221981465816,-0.00003250647569075227
1782987462314112000,2.629112060546875,-0.0011607591295614839,0.00015406077727675438,0.0016599324299022555
1782987462324187100,2.639187255859375,-0.00034617725759744644,0.0008755067829042673,-0.00006091177783673629
1782987462334261000,2.649260986328125,0.003566272556781769,-0.000051539624109864235,-0.0000734286368242465
1782987462344336100,2.659336181640625,0.0012228069826960564,0.00016019376926124096,-0.0005528962938115001
1782987462354410000,2.669409912109375,0.0032199115958064795,0.0012691339943557978,0.001092138234525919
1782987462364485000,2.679485107421875,-0.0004414482391439378,-0.00047379930038005114,-0.0008660785388201475
1782987462374559000,2.68955908203125,0.000940998550504446,-0.0013824698980897665,0.0013680472038686275
1782987462384634000,2.699634033203125,0.0003814935917034745,-0.0004698587581515312,-0.002173429587855935
1782987462394708000,2.7097080078125,0.0013926959363743663,-0.0017468445003032684,-0.0008194784168154001
1782987462404783000,2.719783203125,-0.0002780100330710411,0.0014250173699110746,0.0006034599500708282
1782987462414857000,2.72985693359375,0.0025313585065305233,-0.0015033944509923458,-0.0002050757611868903
1782987462424932000,2.73993212890625,0.00051665841601789,0.00004354771226644516,0.001491774688474834
1782987462435006000,2.750005859375,0.00012091267853975296,0.00035274052061140537,-0.0014369034906849265
1782987462445081000,2.7600810546875,0.0015401305863633752,0.00012909946963191032,-0.0014946614392101765
1782987462455155000,2.770155029296875,-0.0004777465364895761,-0.0011617346899583936,-0.00029863574309274554
1782987462465229000,2.78022900390625,-0.003678823122754693,0.0011631427332758904,0.000022143925889395177
1782987462475304000,2.790303955078125,-0.00019594118930399418,-0.0008595280814915895,-0.00012273203174117953
1782987462485378000,2.8003779296875,-0.00014650716912001371,0.0021345624700188637,0.00020033377222716808
1782987462495453000,2.810452880859375,-0.00009351025801151991,0.0021265726536512375,-0.0003530711110215634
1782987462505527000,2.820527099609375,0.000301103456877172,0.0002682316116988659,-0.0007494326564483345
1782987462515602000,2.830601806640625,0.0013517204206436872,0.0013428169768303633,-0.00009296346252085641
1782987462525676000,2.840676025390625,-0.0017571051139384508,-0.0000611466821283102,0.0010655878577381372
1782987462535751000,2.8507509765625,0.00039739208295941353,-0.001182337524369359,-0.0013248655013740063
1782987462545825000,2.860824951171875,0.0004336526617407799,-0.0023651178926229477,-0.0014885782729834318
1782987462555900200,2.870900146484375,0.00033191987313330173,-0.00023165973834693432,-0.0004174548084847629
1782987462565974000,2.88097412109375,-0.0005315684829838574,-0.0009683618554845452,0.00011243097833357751
1782987462576049200,2.891049072265625,0.0003818958066403866,0.0006292685866355896,0.0035311307292431593
1782987462586123000,2.901123046875,0.00026995677035301924,-0.00029353611171245575,-0.0006140014156699181
1782987462596198100,2.9111982421875,0.000726955127902329,0.00026253191754221916,0.001210263930261135
1782987462606272000,2.92127197265625,-0.00045891309855505824,0.001858480740338564,0.002477845875546336
1782987462616347100,2.93134716796875,0.0018050401704385877,0.0007676500827074051,0.00010177365766139701
1782987462626421000,2.9414208984375,-0.00034748093457892537,0.00023620203137397766,0.004714644979685545
1782987462636496100,2.95149609375,0.0023873192258179188,-0.0010109562426805496,0.003800381440669298
1782987462646570000,2.961570068359375,-0.0005282352212816477,0.0013447306118905544,0.000002568958734627813
1782987462656645000,2.97164501953125,0.00033169949892908335,0.0012909346260130405,-0.00010315853432985023
1782987462666719000,2.981718994140625,-0.0000035349512472748756,0.003218247788026929,0.0005508614704012871
1782987462676793000,2.99179296875,0.00030086433980613947,-0.002734716283157468,0.00360071356408298
1782987462686868000,3.001867919921875,-0.0004200195544399321,0.000935667660087347,0.0006669348804280162
1782987462696942000,3.011942138671875,0.00022366654593497515,-0.0014673025580123067,-0.002213806379586458
1782987462707017000,3.022016845703125,0.0010797630529850721,-0.00045450369361788034,0.0021156813018023968
1782987462717091000,3.032091064453125,-0.0016904569929465652,0.0023287658113986254,0.0006000765133649111
1782987462727166000,3.042166015625,0.001377455540932715,0.0011877098586410284,0.0008993419469334185
1782987462737240000,3.052239990234375,0.0014251259854063392,0.0004635963123291731,-0.0018029676284641027
1782987462747315000,3.06231494140625,-0.002214562613517046,0.0016182726249098778,-0.00031900196336209774
1782987462757389000,3.07238916015625,-0.00005713582504540682,-0.00082065025344491,-0.0008558952249586582
1782987462767464000,3.0824638671875,-0.00004749756772071123,0.002687767380848527,-0.0011355571914464235
1782987462777538000,3.0925380859375,-0.0010392587864771485,-0.002310187090188265,-0.0012364909052848816
1782987462787613000,3.102613037109375,-0.002788710407912731,0.0007524117827415466,-0.0010087508708238602
1782987462797687000,3.11268701171875,-0.00031090539414435625,-0.00009394087828695774,0.0024863816797733307
1782987462807762000,3.122761962890625,-0.0008236542344093323,-0.0014797283802181482,-0.0019802574533969164
1782987462817836000,3.1328359375,-0.0008798469207249582,0.00037782639265060425,0.00028928840765729547
1782987462827911200,3.1429111328125,-0.00006675964687019587,0.00001849047839641571,-0.0008570020436309278
1782987462837985000,3.152985107421875,-0.0012643832014873624,0.00009359163232147694,-0.001396025880239904
1782987462848060200,3.16306005859375,0.00019830185920000076,-0.00031674548517912626,-0.001338353380560875
1782987462858134000,3.173134033203125,0.0011490503093227744,-0.0025961450301110744,-0.001207592198625207
1782987462868207900,3.183207763671875,0.0019948515109717846,0.0006325130816549063,0.0016398500883951783
1782987462878283000,3.193282958984375,-0.0005439399392344058,-0.0025347843766212463,-0.00024247224791906774
1782987462888356900,3.20335693359375,-0.00024296168703585863,0.003389161778613925,0.0026135891675949097
1782987462898432000,3.213431884765625,0.00007209030445665121,0.00030815089121460915,-0.0021055324468761683
1782987462908505900,3.223505859375,-0.0009772686753422022,-0.001507436390966177,-0.0007119802758097649
1782987462918581000,3.2335810546875,0.00022248539607971907,0.0018500108271837234,0.0003681978560052812
1782987462928654800,3.24365478515625,0.0008182547753676772,-0.002250839490443468,-0.00017253836267627776
1782987462938730000,3.25372998046875,-0.0009780474938452244,0.00031085521914064884,-0.00357792223803699
1782987462948804000,3.26380419921875,-0.0005865981220267713,-0.0006925148190930486,0.0018481503939256072
1782987462958879000,3.27387890625,0.0031743180006742477,-0.0004893156001344323,-0.00010660976840881631
1782987462968953000,3.283953125,0.0004041397478431463,0.0008877839427441359,0.0006272323662415147
1782987462979028000,3.294028076171875,-0.0003996022860519588,-0.0009167740354314446,-0.00034215825144201517
1782987462989102000,3.30410205078125,0.0017828363925218582,0.0005254426505416632,-0.0005173027166165411
1782987462999177000,3.314177001953125,0.001205729553475976,-0.00020559504628181458,0.0016792725073173642
1782987463009251000,3.3242509765625,0.00038660934660583735,0.0005666096694767475,0.00011766533134505153
1782987463019326000,3.334325927734375,0.0012547998921945691,-0.0012392799835652113,0.0006428406923078001
1782987463029400000,3.344400146484375,0.0014102860586717725,-0.0007302991580218077,-0.00044566072756424546
1782987463039475000,3.354474853515625,-0.00011437374632805586,-0.00016171438619494438,0.0015437204856425524
1782987463049549000,3.364549072265625,-0.0011295824078842998,-0.00009568827226758003,0.00031488953391090035
1782987463059624000,3.3746240234375,-0.0013285204768180847,-0.0007433691062033176,-0.001637473818846047
1782987463069698000,3.384697998046875,-0.0006048778304830194,0.00015495973639190197,-0.0015470031648874283
1782987463079772000,3.39477197265625,-0.0006299115484580398,0.0036359773948788643,-0.0008370045106858015
1782987463089847000,3.404846923828125,-0.0012744134292006493,-0.00006379070691764355,-0.001155453734099865
1782987463099921000,3.4149208984375,0.0004321400774642825,0.0015157300513237715,0.0015018483391031623
1782987463109996000,3.42499609375,-0.0012664501555263996,0.0004930095747113228,0.0005959455738775432
1782987463120070000,3.43506982421875,-0.0010813605040311813,0.0008722436614334583,-0.0011244564084336162
1782987463130145000,3.44514501953125,0.0019451174885034561,0.0019907744135707617,-0.000015282741514965892
1782987463140219000,3.455218994140625,-0.00190528086386621,-0.00012510712258517742,-0.00028479465981945395
1782987463150294000,3.4652939453125,0.00039552943781018257,-0.00032490945886820555,-0.001373973092995584
1782987463160367900,3.475367919921875,0.0014738434692844748,-0.0003659221110865474,0.0007309894426725805
1782987463170443000,3.485443115234375,-0.001409728778526187,-0.0013794924598187208,0.0013352131936699152
1782987463180516900,3.495516845703125,0.0008148095803335309,0.0031334999948740005,0.0006851355428807437
1782987463190592000,3.505592041015625,0.0011837612837553024,-0.00250426703132689,-0.0008289556135423481
1782987463200665900,3.515665771484375,0.00008600635919719934,-0.0012688265414908528,0.0035399601329118013
1782987463210741000,3.525740966796875,-0.0009969830280169845,0.0027397836092859507,-0.000948574801441282
1782987463220814800,3.53581494140625,0.0008885351708158851,0.00043188827112317085,0.00010523801029194146
1782987463230890000,3.545889892578125,-0.002333615440875292,-0.0004756610142067075,0.0006713123293593526
1782987463240963800,3.5559638671875,0.0006083785556256771,0.0009816207457333803,0.0005125879542902112
1782987463251039000,3.5660390625,-0.0005667343502864242,-0.0021613736171275377,-0.0014441967941820621
1782987463261112800,3.57611279296875,0.00033208250533789396,-0.00019116699695587158,-0.000043640320654958487
1782987463271188000,3.58618798828125,-0.0014973314246162772,0.00011747260577976704,-0.0031879425514489412
1782987463281261800,3.59626171875,0.0013943290105089545,0.0034698599483817816,-0.0006371669587679207
1782987463291336000,3.6063359375,0.0011214616242796183,-0.0005611492088064551,-0.00041739398147910833
1782987463301410800,3.616410888671875,0.00017310993280261755,0.0004907993134111166,0.003696923376992345
1782987463311485000,3.62648486328125,0.0008035383652895689,0.002873752498999238,-0.0008623983012512326
1782987463321559800,3.636559814453125,0.00232979585416615,0.00013043032959103584,-0.0009249825961887836
1782987463331634000,3.646634033203125,0.0020682918839156628,-0.0003477658610790968,-0.00021826110605616122
1782987463341709000,3.656708984375,0.0004493562737479806,-0.001615430461242795,0.00033194798743352294
1782987463351783000,3.666782958984375,-0.00042857398511841893,-0.0008410393493250012,0.00012145295477239415
1782987463361858000,3.676858154296875,0.000016972888261079788,-0.0016357266576960683,0.0009038896532729268
1782987463371932000,3.686931884765625,0.002134366426616907,0.0008436045609414577,0.002433252753689885
1782987463382007000,3.697007080078125,0.0007947963895276189,-0.0006957025034353137,-0.0003920947783626616
1782987463392081000,3.707080810546875,0.0004388833185657859,0.0001891767606139183,-0.0017226292984560132
1782987463402156000,3.717156005859375,0.0006290329620242119,-0.0012116460129618645,0.000040649632865097374
1782987463412230000,3.72722998046875,-0.001288375467993319,0.0004906014073640108,-0.0006443855818361044
1782987463422305000,3.737304931640625,-0.0006172588909976184,-0.0012385891750454903,-0.0000867196504259482
1782987463432379000,3.74737890625,0.00004201638512313366,-0.0011425996199250221,-0.0015639959601685405
1782987463442454000,3.7574541015625,-0.00036038720281794667,-0.0013817514991387725,3.448803909122944e-7
1782987463452527900,3.76752783203125,0.00014491251204162836,0.0031622766982764006,-0.0004504204262048006
1782987463462603000,3.77760302734375,0.0005316035822033882,-0.0025342246517539024,0.0006502640899270773
1782987463472677000,3.787677001953125,0.0011007682187482715,-0.000906630652025342,0.0016635335050523281
1782987463482751200,3.797751220703125,-0.0014140547718852758,0.0012883467134088278,-0.0023668943904340267
1782987463492826000,3.807826171875,-0.001404760405421257,-0.0004817293956875801,0.0012721779057756066
1782987463502900200,3.817900146484375,-0.0013118160422891378,0.001348128542304039,0.0006825540913268924
1782987463512975000,3.82797509765625,-0.0014673519181087613,0.0013877716846764088,-0.000798164342995733
1782987463523049200,3.83804931640625,-0.003847152693197131,-0.00035287044011056423,-0.0000554087309865281
1782987463533124000,3.8481240234375,0.0012454334646463394,0.0014306341763585806,-0.00016944060917012393
1782987463543198200,3.8581982421875,0.000794027466326952,-0.00164185487665236,-0.0007143233669921756
1782987463553273000,3.868273193359375,0.0014961917186155915,0.00008846004493534565,-0.0014577691908925772
1782987463563347500,3.878347412109375,0.0007297338452190161,0.0007369397208094597,0.0015249712159857154
1782987463573422300,3.88842236328125,0.0010669808834791183,0.0033944237511605024,0.003306992119178176
1782987463583496400,3.898496337890625,0.001401740126311779,-0.0015510661760345101,0.00015221134526655078
1782987463593571300,3.9085712890625,0.00021787802688777447,0.001346325734630227,-0.0014296710724011064
1782987463603645400,3.9186455078125,0.0010362674947828054,-0.000037186313420534134,0.0017743780044838786
1782987463613720300,3.92872021484375,0.00010910502169281244,0.0008351663127541542,-0.001649101497605443
1782987463623794400,3.93879443359375,0.0012103220215067267,0.00042637111619114876,0.00016504383529536426
1782987463633869300,3.948869384765625,0.0001980422530323267,0.0005157915875315666,0.0007163627888076007
1782987463643943400,3.958943359375,-0.0002754677552729845,-0.0011241828324273229,0.0011701653711497784
1782987463654018300,3.969018310546875,-0.0026003404054790735,0.001592762302607298,-0.001022531185299158
1782987463664092400,3.979092529296875,0.0004196842201054096,0.00015225866809487343,-0.0012275946792215109
1782987463674167300,3.989167236328125,-0.0022257957607507706,-0.0011947378516197205,-0.0018611561972647905
1782987463684241400,3.999241455078125,0.0014602855080738664,-0.0013641149271279573,0.0005806962726637721
1782987463694315500,4.0093154296875,-0.0021196482703089714,0.0008372985757887363,-0.001080723712220788
1782987463704390400,4.019390380859375,-0.000001369975507259369,0.0028916611336171627,0.0011968116741627455
1782987463714464500,4.029464599609375,0.00016402360051870346,0.0005768830887973309,0.00131170020904392
1782987463724539400,4.039539306640625,-0.0005837920471094549,-0.00008943979628384113,0.0005188771756365895
1782987463734613500,4.049613525390625,0.00004707823973149061,-0.00048017140943557024,0.0004671944770962
1782987463744688400,4.0596884765625,-0.0005718403263017535,-0.0018085561459884048,-0.000002054512151516974
1782987463754762500,4.069762451171875,0.001469479058869183,-0.0003242320381104946,0.0003115723957307637
1782987463764837400,4.07983740234375,-0.0006000634166412055,-0.001441161846742034,-0.002132676774635911
1782987463774911500,4.089911376953125,0.001920187845826149,0.00200500525534153,-0.0025274537038058043
1782987463784986400,4.099986328125,-0.0015962498728185892,0.0021357666701078415,-0.0011633825488388538
1782987463795060500,4.110060546875,-0.00005615968257188797,-0.00042553339153528214,-0.00003855809336528182
1782987463805135400,4.12013525390625,0.0006892590317875147,0.0009289502631872892,-0.0027003875002264977
1782987463815209500,4.13020947265625,-0.0006679453072138131,0.00038198125548660755,-0.0013033298309892416
1782987463825284400,4.140284423828125,0.001352328690700233,-0.0010276298271492124,0.0015057723503559828
1782987463835358500,4.1503583984375,0.0015444634482264519,-0.0009551607072353363,-0.0014256206341087818
1782987463845433600,4.16043359375,0.00029357674065977335,-0.00014955434016883373,-0.00010362747707404196
1782987463855507500,4.170507568359375,-0.0011508726747706532,-0.0017100286204367876,0.0010444902582094073
1782987463865582600,4.18058251953125,0.00251283822581172,-0.0009504950139671564,0.00026817875914275646
1782987463875656400,4.190656494140625,-0.0006554852006956935,-0.00130375730805099,0.0001972594764083624
1782987463885730300,4.200730224609375,0.0003567823441699147,-0.0008803147356957197,0.0008292276179417968
1782987463895805400,4.210805419921875,-0.0003400526475161314,-0.00044938584323972464,-0.0018453372176736593
1782987463905879300,4.22087939453125,0.0006493116961792111,-0.0021356993820518255,0.0008148943888954818
1782987463915954400,4.230954345703125,0.0004412238486111164,0.00009541912004351616,0.0012102402979508042
1782987463926028300,4.2410283203125,-0.0021518960129469633,0.0014293964486569166,-0.001009504427202046
1782987463936103400,4.251103515625,0.0004525040276348591,-0.002005136338993907,-0.0014080461114645004
1782987463946177300,4.26117724609375,-0.0003693474573083222,-0.0002320037456229329,-0.0014594451058655977
1782987463956252400,4.27125244140625,-0.0007253416115418077,0.000017858808860182762,-0.00036656553857028484
1782987463966326500,4.281326416015625,0.0011796175967901945,0.0006447669584304094,-0.0005668352823704481
1782987463976401400,4.2914013671875,0.0023426231928169727,0.0014680682215839624,0.0007265375461429358
1782987463986475500,4.3014755859375,-0.0003580884076654911,0.0016294559463858604,0.0024064595345407724
1782987463996550400,4.31155029296875,0.0009860371937975287,0.0025722780264914036,0.000029227696359157562
1782987464006624500,4.32162451171875,-0.00007043872028589249,0.00038289325311779976,-0.0014024877455085516
1782987464016699400,4.331699462890625,-0.0011635440168902278,0.0035711778327822685,-0.0012959926389157772
1782987464026773500,4.3417734375,0.00041464518290013075,-0.001244083745405078,-0.0008895941427908838
1782987464036848400,4.351848388671875,0.0007369318045675755,-0.00008557247929275036,0.0003817961842287332
1782987464046922500,4.361922607421875,-0.0021555274724960327,0.00139088393189013,-0.0015790893230587244
1782987464056997400,4.371997314453125,-0.0015427196631208062,0.00047754193656146526,0.0011592289665713906
1782987464067071500,4.382071533203125,0.0009308243170380592,-0.0010873314458876848,-0.0014480057870969176
1782987464077146400,4.392146484375,-0.00006958236917853355,-0.0008761350763961673,0.002575948601588607
1782987464087220500,4.402220458984375,-0.0016698758117854595,0.00016516074538230896,-0.001249415916390717
1782987464097294300,4.41229443359375,-0.00006114912685006857,-0.001176476594991982,0.0009922311874106526
1782987464107369500,4.422369384765625,0.0004302040906623006,-0.0006118863821029663,-0.0014919654931873083
1782987464117443300,4.432443359375,-0.00170278234872967,0.002159333089366555,0.00022051144333090633
1782987464127518500,4.4425185546875,-0.0006521653267554939,0.001500999554991722,-0.0011012154864147305
1782987464137592300,4.45259228515625,-0.0002929766778834164,-0.0015307333087548614,0.0011679817689582705
1782987464147667500,4.46266748046875,0.000015683704987168312,-0.0009259294020012021,-0.0013577602803707123
1782987464157741300,4.4727412109375,-0.0012395016383379698,0.001585913822054863,-0.0013655120274052024
1782987464167816400,4.48281640625,-0.001314070075750351,-0.0009092018008232117,0.0024031272623687983
1782987464177890300,4.492890380859375,0.0008103880099952221,0.0026907017454504967,-0.002202799543738365
1782987464187965400,4.50296533203125,0.0010277018882334232,0.0012350177858024836,-0.000542052264790982
1782987464198039300,4.513039306640625,-0.0006705406703986228,-0.0017863127868622541,0.002595925237983465
1782987464208114400,4.523114501953125,-0.0009048988576978445,0.0001013358123600483,0.0013793931575492024
1782987464218188300,4.533188232421875,-0.0017037137877196074,-0.0005062621785327792,0.0026839571073651314
1782987464228263400,4.543263427734375,0.00037701393011957407,0.0011757903266698122,-0.0018705809488892555
1782987464238337300,4.553337158203125,-0.0007213610806502402,-0.0013640974648296833,-0.000660761259496212
1782987464248412400,4.563412353515625,0.0005652119871228933,-0.00035076471976935863,-0.0006240096408873796
1782987464258486300,4.573486328125,0.0034284540452063084,0.0014638963621109724,-0.0003391024365555495
1782987464268561400,4.5835615234375,-0.0005236769211478531,0.00002978416159749031,0.000014032688341103494
1782987464278635300,4.59363525390625,-0.0006248448044061661,0.0005387805867940187,-0.00044735142728313804
1782987464288709400,4.60370947265625,-0.0005654563428834081,0.000023991568014025688,0.0011588010238483548
1782987464298784300,4.6137841796875,0.0011892381589859724,-0.000613026088103652,-0.002427184022963047
1782987464308858400,4.6238583984375,-0.0005460775573737919,-0.00005669170059263706,-0.0016977443592622876
1782987464318933200,4.633933349609375,0.0006191655993461609,0.0012299427762627602,0.0005825200350955129
1782987464329007400,4.64400732421875,0.00014645454939454794,-0.0005035088397562504,-0.0019024754874408245
1782987464339082200,4.654082275390625,-0.00024519802536815405,-0.0015859473496675491,-0.0012050000950694084
1782987464349156400,4.66415625,0.0008842485258355737,-0.00012520351447165012,0.001980140572413802
1782987464359231500,4.6742314453125,-0.0009106742800213397,0.0003661427181214094,-0.0009077379363588989
1782987464369305300,4.684305419921875,0.0005258348537608981,-0.0019188494188711047,0.0003948141820728779
1782987464379380500,4.69438037109375,0.0006102703046053648,0.0044662682339549065,-0.001066751079633832
1782987464389454300,4.704454345703125,0.0012409067712724209,-0.0010653838980942965,0.0007372741820290685
1782987464399529500,4.714529541015625,0.00025264767464250326,0.0014860215596854687,-0.0007124849362298846
1782987464409603300,4.724603271484375,0.0008095145458355546,0.0000164892990142107,-0.0004981004749424756
1782987464419678500,4.734678466796875,-0.000195944681763649,0.0016632766928523779,0.0007053827866911888
1782987464429752300,4.74475244140625,-0.00012670247815549374,0.0021671466529369354,0.00021163270866964012
1782987464439827500,4.754827392578125,0.000004195375367999077,-0.0009649320272728801,0.00047739080036990345
1782987464449901300,4.7649013671875,0.0005935529479756951,-0.0010994217591360211,0.00018923678726423532
1782987464459976400,4.7749765625,-0.0011337343603372574,-0.00040855712722986937,0.00029181287391111255
1782987464470050300,4.78505029296875,-0.00030735554173588753,-0.0015190953854471445,0.0007791713578626513
1782987464480124400,4.79512451171875,-0.00018531212117522955,0.0033982640597969294,0.00002038295497186482
1782987464490199300,4.80519921875,-0.00012379302643239498,-0.00048435828648507595,-0.0015375663060694933
1782987464500273400,4.8152734375,-0.001459288876503706,-0.0005914377979934216,0.0003782986314035952
1782987464510348300,4.825348388671875,-0.0016342585440725088,-0.00027665216475725174,-0.0009612713474780321
1782987464520422400,4.83542236328125,-0.0003687868593260646,-0.00009884056635200977,0.0004219094989821315
1782987464530497300,4.845497314453125,0.00043655303306877613,-0.0019127196865156293,0.0025846625212579966
1782987464540571400,4.8555712890625,-0.0014998555416241288,-0.00019432418048381805,0.0028683412820100784
1782987464550646300,4.865646240234375,-0.0004625543369911611,0.0002970290370285511,0.001992960227653384
1782987464560720400,4.875720458984375,-0.002410999732092023,0.0023875762708485126,-0.002045671921223402
1782987464570795500,4.88579541015625,-0.003143102629110217,-0.000581049476750195,-0.00026854462339542806
1782987464580869400,4.895869384765625,-0.0014067714801058173,-0.0005237240111455321,-0.0012758226366713643
1782987464590944500,4.905944580078125,0.00007607659790664911,0.0004291550721973181,-0.001138137187808752
1782987464601018400,4.916018310546875,-0.0006624298985116184,-0.0013011458795517683,-0.0012072372483089566
1782987464611093500,4.926093505859375,0.0003013680689036846,-0.00007049902342259884,0.0012298214714974165
1782987464621167400,4.93616748046875,-0.0016792508540675044,0.0010927021503448486,-0.00016775648691691458
1782987464631242500,4.946242431640625,0.001517607714049518,-0.0014309091493487358,0.002341207582503557
1782987464641316400,4.95631640625,-0.00010188762098550797,-0.0007065891986712813,-0.0004434324218891561
1782987464651391500,4.9663916015625,-0.0003468983923085034,-0.00020058848895132542,0.0006439362186938524
1782987464661465300,4.97646533203125,0.00031085393857210875,0.0010285871103405952,0.0008540661074221134
1782987464671539500,4.98653955078125,-0.0006380303530022502,0.002530343597754836,-0.0018176172161474824
1782987464681614600,4.996614501953125,-0.0005735838203690946,-0.0037426273338496685,-0.0023644701577723026
1782987464691688400,5.0066884765625,-0.0002058013342320919,-0.00025122310034930706,0.0022124384995549917
1782987464701763600,5.016763671875,0.000778021989390254,-0.0013084271922707558,-0.0006980124744586647
1782987464711837400,5.02683740234375,-0.002464642748236656,0.0011462082620710135,-0.0006652555894106627
1782987464721912600,5.03691259765625,-0.00007471744902431965,0.0017129150219261646,-0.0006038920255377889
1782987464731986400,5.046986328125,0.0008637806167826056,0.0004074331372976303,0.0038569027092307806
1782987464742061600,5.0570615234375,0.0002298456383869052,-0.000034285010769963264,0.0014990163035690784
1782987464752135400,5.067135498046875,0.0006809851620346308,0.0006783767603337765,-0.0002826384734362364
1782987464762210600,5.07721044921875,-0.0006926528876647353,0.00015237554907798767,0.000446208578068763
1782987464772284400,5.087284423828125,0.000620551872998476,0.0004575739149004221,0.0015133372507989407
1782987464782359600,5.097359619140625,0.0007475443417206407,0.0008255902212113142,0.0007394831627607346
1782987464792433400,5.107433349609375,-0.0015803247224539518,0.0013105517718940973,0.00022176469792611897
1782987464802508500,5.117508544921875,0.0000323933782055974,-0.0012330861063674092,0.0025852371472865343
1782987464812582400,5.12758251953125,0.0007770131342113018,-0.0027220593765378,-0.00046381604624912143
1782987464822657500,5.137657470703125,-0.0006724306149408221,0.00044756336137652397,-0.0001240014098584652
1782987464832731400,5.1477314453125,0.0005046866135671735,-0.001303997589275241,-0.0008917908417060971
1782987464842806500,5.157806640625,-0.0009081835160031915,-0.0006145621882751584,-0.001101669273339212
1782987464852880400,5.16788037109375,0.00016080925706773996,0.00025842199102044106,0.0021439252886921167
1782987464862954500,5.17795458984375,0.000182556570507586,0.0016345353797078133,-0.00006695777119603008
1782987464873029400,5.188029296875,-0.0014345147646963596,0.00036980025470256805,0.000490441860165447
1782987464883103500,5.198103515625,-0.00018161837942898273,-0.0013929676497355103,-0.0003141675260849297
1782987464893178400,5.208178466796875,-0.0017741885967552662,0.0016891085542738438,0.0016262115677818656
1782987464903252500,5.21825244140625,-0.0007050309213809669,0.0008500050753355026,-0.0004905511159449816
1782987464913327400,5.228327392578125,0.00019937858451157808,0.00040152878500521183,-0.0010122644016519189
1782987464923401500,5.2384013671875,-0.0006372702191583812,0.000007106689736247063,0.001812805887311697
1782987464933476400,5.248476318359375,0.0009771380573511124,-0.0002586767077445984,-0.0007845751824788749
1782987464943550500,5.258550537109375,-0.001156869693659246,0.0002755182795226574,0.0002667057269718498
1782987464953625300,5.268625244140625,-0.0004644478322006762,-0.0001210265327244997,0.0006411462090909481
1782987464963699500,5.278699462890625,-0.00014909764286130667,0.001812368631362915,-0.0003660074435174465
1782987464973774300,5.2887744140625,0.0007848730310797691,-0.00028833281248807907,0.000798592867795378
1782987464983848400,5.298848388671875,-0.0003459372674115002,-0.001420531771145761,0.0006163648213259876
1782987464993923300,5.30892333984375,-0.00006257696077227592,0.0020415775943547487,-0.0020683680195361376
1782987465003997400,5.31899755859375,-0.0018934663385152817,-0.0010263329604640603,-0.0006168760592117906
1782987465014072300,5.329072265625,0.0003470510710030794,0.0006418710108846426,-0.00325633492320776
1782987465024146400,5.339146484375,0.0003261297242715955,0.002310713054612279,-0.0029933748301118612
1782987465034221300,5.34922119140625,-0.0022150585427880287,0.0013181529939174652,-0.0004852097190450877
1782987465044295400,5.35929541015625,-0.00047430972335860133,-0.00021759863011538982,0.00014013111649546772
1782987465054369500,5.36936962890625,-0.0013494244776666164,0.0004050484858453274,-0.0009347206796519458
1782987465064444400,5.3794443359375,0.0003749881871044636,-0.0002759296912699938,-0.0032828613184392452
1782987465074518500,5.3895185546875,0.00037019443698227406,-0.00046101934276521206,0.0016911248676478863
1782987465084593400,5.399593505859375,-0.0014446611749008298,-0.000404770253226161,0.0018520727753639221
1782987465094667500,5.40966748046875,-0.0021866178140044212,-0.0004987798165529966,-0.00011094319052062929
1782987465104742400,5.419742431640625,0.00036707427352666855,-0.0022718117106705904,-0.00018211733549833298
1782987465114816500,5.42981640625,-0.0004912625881843269,0.001990311546251178,-0.00034510280238464475
1782987465124891400,5.439891357421875,-0.001962963491678238,-0.0010676932288333774,-0.0006450345390476286
1782987465134965500,5.449965576171875,-0.001537390286102891,-0.0009917931165546179,-0.0033630565740168095
1782987465145040600,5.46004052734375,-0.001444786787033081,0.0007091658189892769,0.0018712979508563876
1782987465155114500,5.470114501953125,0.0004705587634816766,-0.0007449202239513397,-0.00027520995354279876
1782987465165188600,5.480188720703125,0.001963801449164748,0.0009713179897516966,0.0027713458985090256
1782987465175262500,5.490262451171875,-0.0005009541055187583,-0.000548281823284924,-0.002409301232546568
1782987465185337600,5.500337646484375,-0.0019411116372793913,0.0013240552507340908,-0.0005840569501742721
1782987465195411500,5.510411376953125,-0.0005032708868384361,-0.000044276705011725426,0.002617595251649618
1782987465205486600,5.520486572265625,0.00010040320921689272,0.0005691710393875837,-0.0011687139049172401
1782987465215560400,5.530560546875,-0.00004367379005998373,0.00021896534599363804,-0.0010235715890303254
1782987465225635600,5.540635498046875,0.00015272526070475578,-0.001399219036102295,-0.0005988165503367782
1782987465235709400,5.55070947265625,0.0003505981294438243,0.0009534175042062998,-0.0009002864244394004
1782987465245784600,5.56078466796875,-0.0005312898429110646,0.00026192469522356987,0.00014274628483690321
1782987465255858400,5.5708583984375,0.0006647357949987054,0.0009159969631582499,0.0008894966449588537
1782987465265932500,5.5809326171875,0.000511097488924861,-0.0011379170464351773,0.001780643593519926
1782987465276007400,5.59100732421875,-0.00047906581312417984,-0.0012622866779565811,-0.0020772116258740425
1782987465286081500,5.60108154296875,0.0007335564587265253,-0.002236592583358288,0.0011257887817919254
1782987465296156400,5.611156494140625,0.002205219119787216,-0.001517006428912282,0.0008903653942979872
1782987465306230500,5.62123046875,-0.0019904167857021093,-0.0000686165876686573,-0.0006786308949813247
1782987465316305700,5.6313056640625,-0.000079332385212183,-0.0006590393604710698,0.000005801513907499611
1782987465326379500,5.641379638671875,-0.0016212877817451954,-0.0012773362686857581,0.001347013982012868
1782987465336454700,5.65145458984375,-0.0015403276775032282,0.0016963491216301918,-0.0004120039229746908
1782987465346528500,5.661528564453125,0.001396218896843493,-0.002086134860292077,0.0012617337051779032
1782987465356603600,5.671603759765625,0.00022975436877459288,0.000932824332267046,0.000791153113823384
1782987465366677500,5.681677490234375,0.0007317165145650506,0.0004754774272441864,0.0012701548403128982
1782987465376752600,5.691752685546875,-0.001510398811660707,0.0006810734048485756,-0.0015986021608114243
1782987465386826500,5.701826416015625,0.0024892399087548256,0.0011286863591521978,0.0011827440466731787
1782987465396901600,5.711901611328125,-0.000011734431609511375,-0.0024372863117605448,-0.00017626702901907265
1782987465406975500,5.7219755859375,-0.0005735442973673344,0.0012770295143127441,-0.0019444730132818222
1782987465417050600,5.732050537109375,-0.0004907199763692915,0.0016490733250975609,0.0015080490848049521
1782987465427124500,5.74212451171875,0.0009812344796955585,0.0002600192092359066,0.0011947676539421082
1782987465437199600,5.75219970703125,0.0007910848362371325,0.0017460628878325224,-0.0010081992950290442
1782987465447273500,5.7622734375,0.001354289473965764,-0.0007434635190293193,-0.0010805667843669653
1782987465457348600,5.7723486328125,-0.0004968738066963851,-0.0004590378375723958,-0.0014355662278831005
1782987465467422500,5.78242236328125,-0.00011163880117237568,0.0001450781710445881,0.0005875922506675124
1782987465477496600,5.79249658203125,0.0006971632828935981,-0.000036815647035837173,0.001225951942615211
1782987465487571500,5.802571533203125,0.0005499526159837842,-0.0007669002516195178,0.00013040377234574407
1782987465497645600,5.8126455078125,-0.0011448829900473356,0.001223013736307621,0.0007535835029557347
1782987465507720400,5.822720458984375,-0.00020716438302770257,0.0004763875622302294,-0.002787183504551649
1782987465517794600,5.832794677734375,0.000672477763146162,-0.0026978340465575457,0.001360423513688147
1782987465527869400,5.842869384765625,0.0033530425280332565,0.00035601528361439705,0.00009872102964436635
1782987465537943600,5.852943603515625,-0.0004278473788872361,0.0006092819385230541,-0.001131393015384674
1782987465548018400,5.863018310546875,-0.0010259775444865227,0.0019742173608392477,0.0005247450899332762
1782987465558093600,5.873093505859375,0.001808957546018064,-0.0006971993716433644,-0.0010236167581751943
1782987465568167000,5.8831669921875,0.0004881880013272166,0.0019825652707368135,-0.0017361216014251113
1782987465578240800,5.89324072265625,-0.00016828119987621903,0.0014712382107973099,-0.000569390831515193
1782987465588316000,5.90331591796875,0.001080016023479402,0.0005141135770827532,0.000350634305505082
1782987465598389800,5.9133896484375,0.00029704661574214697,0.001364194555208087,0.00121216697152704
1782987465608465000,5.92346484375,0.0003283151891082525,-0.00046548969112336636,0.0016569836298003793
1782987465618539000,5.9335390625,0.0007520241197198629,-0.00011475151404738426,0.0006761414697393775
1782987465628614000,5.94361376953125,-0.001272242283448577,0.0006566811352968216,-0.00255764601752162
1782987465638688000,5.95368798828125,-0.0015350963221862912,0.0008649404626339674,-0.002637807046994567
1782987465648763000,5.963762939453125,-0.000877869373653084,0.0014911550097167492,0.0018034980166703463
1782987465658837000,5.9738369140625,0.0008494569920003414,0.0002589102368801832,0.0026533128693699837
1782987465668911900,5.983911865234375,0.001402153866365552,0.0007187312003225088,-0.002591250231489539
1782987465678986000,5.993986083984375,0.0011877692304551601,-0.0011201816378161311,-0.0011334357550367713
1782987465689060900,6.004060791015625,0.000009854906238615513,0.0001636706292629242,-0.00013043454964645207
1782987465699135000,6.014135009765625,-0.0010077388724312186,0.0014845984987914562,-0.002464429009705782
1782987465709209900,6.0242099609375,-0.0013344278559088707,-0.001393327140249312,-0.0005772006115876138
1782987465719284000,6.034283935546875,-0.00031363830203190446,0.0015734343323856592,-0.0010115621844306588
1782987465729358800,6.04435888671875,-0.001320802140980959,0.00023406371474266052,-0.0020820805802941322
1782987465739433000,6.054432861328125,0.0015080076409503818,0.0026780464686453342,0.0012106519425287843
1782987465749507800,6.0645078125,0.0001550090964883566,0.00022023310884833336,0.001876031281426549
1782987465759582000,6.07458203125,0.00047059368807822466,-0.0014080236433073878,-0.0023208442144095898
1782987465769656800,6.08465673828125,-0.0005953297368250787,0.0030286822002381086,-0.0008874119375832379
1782987465779731000,6.09473095703125,-0.001297871582210064,-0.0014243891928344965,-0.0001473194861318916
1782987465789805000,6.10480517578125,-0.0015799548709765077,0.00035735988058149815,0.0008969883201643825
1782987465799880000,6.1148798828125,-0.0012276186607778072,-0.000001634238287806511,0.0005545057938434184
1782987465809954000,6.1249541015625,-0.0015943810576573014,-0.0022625261917710304,-0.001284670433960855
1782987465820029000,6.13502880859375,-0.0003991544363088906,0.0005175475962460041,-0.003324917983263731
1782987465830103000,6.14510302734375,-0.0007268521003425121,-0.000266482587903738,0.0006675811600871384
1782987465840178000,6.155177978515625,0.0007245707092806697,0.0005865278653800488,-0.002529277466237545
1782987465850252000,6.165251953125,-0.00016951211728155613,-0.0007521165534853935,0.0003333353088237345
1782987465860327000,6.175326904296875,-0.0004898904007859528,-0.00032867398113012314,-0.0006741385441273451
1782987465870401000,6.185401123046875,0.0013033109717071056,0.0012811224441975355,0.0008679059683345258
1782987465880476000,6.195475830078125,0.00002019992098212242,0.00002277875319123268,0.0025068153627216816
1782987465890550000,6.205550048828125,0.0012328610755503178,-0.0010789078660309315,-0.00044537559733726084
1782987465900625000,6.215625,-0.0000387983163818717,0.0000561312772333622,0.00023799152404535562
1782987465910699000,6.225698974609375,-0.00026410899590700865,0.00071699358522892,-0.0009019559365697205
1782987465920774000,6.23577392578125,-0.0007509348215535283,0.0009004853200167418,0.0024925093166530132
1782987465930848000,6.245847900390625,0.00039940839633345604,-0.0025793048553168774,-0.0006385032902471721
1782987465940923000,6.2559228515625,-0.0018581533804535866,0.0007318032439798117,-0.0007455623708665371
1782987465950997000,6.2659970703125,-0.0012861675349995494,0.00013441918417811394,-0.0021003379952162504
1782987465961071900,6.27607177734375,-0.0007873574504628778,0.00010485807433724403,0.0004978421493433416
1782987465971146000,6.28614599609375,-0.00101907504722476,0.00009218137711286545,0.0014923007693141699
1782987465981220000,6.29622021484375,0.000026215682737529278,0.0009683612734079361,0.0019271951168775558
1782987465991295000,6.306294921875,0.0001757933059707284,0.003019483759999275,0.0008237289730459452
1782987466001369000,6.316369140625,-0.0009254238102585077,0.0005038618110120296,0.0021664947271347046
1782987466011444000,6.32644384765625,0.0002987631596624851,-0.0009490065276622772,-0.0008372511947527528
1782987466021518000,6.33651806640625,0.00003084912896156311,0.00047072465531527996,0.0011119164992123842
1782987466031593000,6.346593017578125,0.0003462139284238219,0.0008666147477924824,0.00012034226529067382
1782987466041667000,6.3566669921875,-0.0007536715711466968,0.0005467692390084267,0.0007480493513867259
1782987466051742000,6.366741943359375,0.0002510842168703675,-0.0004925434477627277,0.0011410998413339257
1782987466061816000,6.376816162109375,-0.0008498665993101895,-0.002143969526514411,0.0010465576779097319
1782987466071891000,6.386890869140625,0.0023105100262910128,-0.0005610244115814567,0.001382982125505805
1782987466081965000,6.396965087890625,0.000885186018422246,0.0014336833264678717,-0.0013816454447805882
1782987466092040000,6.4070400390625,0.0011839839862659574,-0.0011945179430767894,0.0019010297255590558
1782987466102114000,6.417114013671875,-0.00047383387573063374,0.0003045755438506603,-0.0015224638627842069
1782987466112189000,6.42718896484375,-0.0003320187679491937,0.00002059643156826496,-0.0003317140508443117
1782987466122263000,6.437262939453125,-0.0006209717248566449,-0.0008838130161166191,0.002615606412291527
1782987466132338000,6.447337890625,-0.00019412231631577015,0.0013324129395186901,0.0007865582592785358
1782987466142412000,6.457412109375,0.0004820543108507991,-0.001539007294923067,-0.0003364967415109277
1782987466152486100,6.467486083984375,-0.00002375792246311903,0.0007604563143104315,-0.0006274349289014935
1782987466162561000,6.47756103515625,0.0014042290858924389,0.00048215617425739765,-0.0025433129630982876
1782987466172635100,6.48763525390625,-0.0005697904271073639,0.000006243586540222168,-0.0012518356088548899
1782987466182710000,6.4977099609375,0.0006685794796794653,0.0022179989609867334,-0.0034223119728267193
1782987466192784100,6.5077841796875,0.0007191855693235993,-0.0017041480168700218,-0.0001950152509380132
1782987466202859000,6.51785888671875,0.0010800439631566405,0.0010868448298424482,0.000512054015416652
1782987466212933000,6.52793310546875,0.002127009443938732,0.0007902840152382851,0.0013379176380112767
1782987466223008000,6.538008056640625,-0.0012634609593078494,-0.0006574104772880673,-0.0009260356309823692
1782987466233082000,6.54808203125,-0.0011787794064730406,0.0007343229372054338,0.00008138888370012864
1782987466243157000,6.558156982421875,0.00005905795842409134,-0.0020340331830084324,-0.0009716249769553542
1782987466253231000,6.568231201171875,0.0011209796648472548,0.0006302031688392162,-0.00011453531624283642
1782987466263306000,6.578305908203125,-0.0003173936274833977,0.0017330183181911707,-0.0003062829200644046
1782987466273380000,6.588380126953125,0.0004678004188463092,-0.0018613787833601236,0.0006087651127018034
1782987466283455000,6.598455078125,-0.0009082548785954714,0.000520818866789341,0.002972320420667529
1782987466293529000,6.608529052734375,-0.0016494938172399998,-0.0014386652037501335,-0.0000549218020751141
1782987466303604000,6.61860400390625,0.0011574779637157917,-0.0001472984440624714,-0.0004112527531106025
1782987466313678000,6.628677978515625,-0.0014183957828208804,0.001008346676826477,-0.0002082514693029225
1782987466323753000,6.6387529296875,0.00010653026401996613,-0.00018448312766849995,-0.001128906267695129
1782987466333827000,6.6488271484375,0.0010788306826725602,-0.0007470386335626245,0.000164284574566409
1782987466343901000,6.65890087890625,0.0013749742647632957,-0.00035155913792550564,-0.0005025709979236126
1782987466353976000,6.66897607421875,-0.0016624683048576117,0.0008575692772865295,-0.0002502697170712054
1782987466364050000,6.6790498046875,-0.0008051968179643154,0.0004863245412707329,0.0007715852116234601
1782987466374125000,6.689125,-0.0003281844547018409,-0.00018455344252288342,-0.0024160391185432673
1782987466384199000,6.699198974609375,0.001120308879762888,-0.0006532697007060051,-0.0018700910732150078
1782987466394274000,6.709274169921875,0.00034149736166000366,0.0005816102493554354,0.0002469142200425267
1782987466404348000,6.719347900390625,-0.0014401572989299893,0.0012620477937161922,0.001482621068134904
1782987466414423000,6.729423095703125,0.0017288192175328732,0.0007916276808828115,0.0021883652079850435
1782987466424497000,6.739496826171875,0.0010009773541241884,-0.0011697905138134956,-0.0008958415710367262
1782987466434572000,6.749572021484375,0.0016156802885234356,-0.0007390032988041639,0.00037842660094611347
1782987466444646000,6.75964599609375,0.0005208548391237855,0.0009393207728862762,0.001616263878531754
1782987466454721000,6.769720947265625,-0.0008812810992822051,0.0033575629349797964,-0.00042453978676348925
1782987466464795000,6.779794921875,-0.0011987298494204879,-0.00031440332531929016,0.0009528471273370087
1782987466474870000,6.7898701171875,-0.0016260016709566116,0.0004850262776017189,-0.003403829177841544
1782987466484944000,6.79994384765625,0.0005623177858069539,0.0006333643104881048,0.0011435183696448803
1782987466495019000,6.81001904296875,0.0004965208936482668,-0.0006880884757265449,0.0001716193073661998
1782987466505093000,6.820093017578125,0.00011462357360869646,0.00046878866851329803,-0.000054483069106936455
1782987466515168000,6.83016796875,0.00046237825881689787,-0.0007708368357270956,-0.0014922254486009479
1782987466525242000,6.8402421875,0.0014978153631091118,-0.0005769586423411965,0.0004510832077357918
1782987466535316000,6.85031591796875,0.00022806134074926376,-0.0016663232818245888,-0.000046742956328671426
1782987466545391000,6.86039111328125,-0.0007224208675324917,0.0017060376703739166,0.002411088440567255
1782987466555465000,6.87046484375,-0.0013786356430500746,-0.0009980277391150594,-0.002328599337488413
1782987466565540000,6.8805400390625,0.00017132400535047054,0.00014073983766138554,-0.0029200874269008636
1782987466575614000,6.890614013671875,0.0008277855813503265,-0.0005139454733580351,-0.0008361300569958985
1782987466585689000,6.900689208984375,-0.000028953305445611477,-0.001457237172871828,0.0013492598664015532
1782987466595763000,6.910762939453125,0.001040948904119432,-0.00005385326221585274,0.0019509335979819298
1782987466605838000,6.920838134765625,-0.002215298358350992,0.0014249999076128006,0.0018582555931061506
1782987466615912000,6.930911865234375,-0.0002639554440975189,-0.00024069566279649734,0.00007310821092687547
1782987466625987000,6.940987060546875,-0.0004975146730430424,0.0006679750513285398,0.0017285291105508804
1782987466636061000,6.95106103515625,-0.0009507430950179696,-0.00016791000962257385,-0.0018796318909153342
1782987466646136000,6.961135986328125,-0.0026892544701695442,-0.0016843138728290796,0.0008346620015799999
1782987466656210000,6.9712099609375,0.0007863270584493876,0.001968434313312173,0.004850688390433788
1782987466666285000,6.98128515625,-0.0002640236052684486,0.0003724019043147564,0.001512948889285326
1782987466676359000,6.99135888671875,0.0008507412858307362,-0.00009406660683453083,-0.0001321294403169304
1782987466686434000,7.00143408203125,0.0011735162697732449,-0.001701817032881081,-0.0005593004752881825
1782987466696508000,7.0115078125,-0.002750835381448269,-0.0013076851610094309,0.0004473234585020691
1782987466706582000,7.02158203125,0.00003749411553144455,-0.0008594751125201583,-0.0034235811326652765
1782987466716657000,7.031656982421875,-0.0013620632234960794,0.0035084467381238937,0.0013600242091342807
1782987466726731000,7.04173095703125,0.002301381202414632,-0.0016863152850419283,-0.0032789360266178846
1782987466736806000,7.051805908203125,0.00002305489033460617,0.00039866124279797077,0.00015878186968620867
1782987466746880000,7.0618798828125,-0.001964462222531438,0.001776314340531826,-0.000653215975034982
1782987466756955000,7.071954833984375,-0.0007069014245644212,0.0008701614569872618,-0.0008014948107302189
1782987466767029000,7.082029052734375,0.0007988498546183109,-0.0015573097625747323,0.0020699254237115383
1782987466777104000,7.092103759765625,0.0014501961413770914,-0.0005114437080919743,0.001003844547085464
1782987466787178000,7.102177978515625,-0.00016687519382685423,-0.000918108387850225,-0.001007108367048204
1782987466797252900,7.1122529296875,0.0028436719439923763,-0.000389587483368814,-0.000241142202867195
1782987466807327000,7.122326904296875,-0.001578507130034268,-0.0005464475834742188,-0.001575385918840766
1782987466817401900,7.13240185546875,-0.0014547485625371337,0.0006485581398010254,-0.0006233864696696401
1782987466827476000,7.14247607421875,-0.0007277055410668254,0.0007718626875430346,-0.0006505507626570761
1782987466837550800,7.15255078125,-0.0011254105484113097,-0.001012997585348785,-0.002786618657410145
1782987466847625000,7.162625,0.0005915293004363775,0.0008631993550807238,-0.0016265457961708307
1782987466857699800,7.172699951171875,-0.00011801323853433132,-0.00017337314784526825,0.0013661653501912951
1782987466867774000,7.18277392578125,0.0014266201760619879,0.0010042767971754074,-0.0013390736421570182
1782987466877849000,7.19284912109375,-0.002254561986774206,0.00065805041231215,-0.0020759920589625835
1782987466887923000,7.2029228515625,0.0015694709727540612,-0.00027432222850620747,-0.0006107209483161569
1782987466897996800,7.212996826171875,-0.0011475617066025734,-0.00010904297232627869,-0.0018618566682562232
1782987466908072000,7.223072021484375,-0.0003083996125496924,-0.0014078665990382433,-0.0034965048544108868
1782987466918145800,7.233145751953125,0.00018404342699795961,0.0013610809110105038,0.0006015280960127711
1782987466928221000,7.243220947265625,0.00006819586269557476,-0.0015606731176376343,0.0010705108288675547
1782987466938294800,7.253294677734375,-0.001782708801329136,0.0004662808496505022,0.00045344000682234764
1782987466948370000,7.263369873046875,-0.0018383688293397427,0.00030409451574087143,-0.0015079781878739595
1782987466958443800,7.27344384765625,0.0020927083678543568,-0.0020630820654332638,-0.00042270691483281553
1782987466968519000,7.283518798828125,-0.001553691690787673,-0.0003770347684621811,0.0004143246042076498
1782987466978592800,7.2935927734375,0.0013489017728716135,-0.0011098363902419806,-0.00033065382740460336
1782987466988668000,7.30366796875,0.00011479307431727648,-0.000876543577760458,0.0016227748710662127
1782987466998741800,7.31374169921875,-0.0013893393334001303,0.0003729274030774832,-0.003123275935649872
1782987467008817000,7.32381689453125,0.0005238755838945508,-0.0012553292326629162,0.0008677372825331986
1782987467018891000,7.33389111328125,-0.0000997504685074091,0.0033544343896210194,0.002048186957836151
1782987467028966000,7.3439658203125,-0.0008318533655256033,-0.001724479952827096,0.0007086170953698456
1782987467039040000,7.3540400390625,-0.0005760101485066116,0.0020314373541623354,-0.0010557156056165695
1782987467049115000,7.364114990234375,0.0013289488852024078,-0.0006423762533813715,0.0019398080185055733
1782987467059189000,7.37418896484375,-0.0008882082183845341,-0.001906118937768042,-0.00011504003487061709
1782987467069264000,7.384263916015625,0.002081482671201229,-0.00038385612424463034,-0.00006417365511879325
1782987467079338000,7.394337890625,-0.0016467275563627481,-0.0008883102564141154,-0.0002955582458525896
1782987467089412000,7.404412109375,-0.00036388292210176587,0.0003402060829102993,0.0016924914671108127
1782987467099487000,7.414487060546875,0.00016204186249524355,0.00002126721665263176,0.0022690948098897934
1782987467109561000,7.42456103515625,0.00037402950692921877,0.0006673501338809729,0.0027591162361204624
1782987467119636000,7.434635986328125,0.0009521523024886847,0.0010314087849110365,-0.0013226508162915707
1782987467129710000,7.4447099609375,0.0008786490652710199,-0.0006586333038285375,-0.0006081246538087726
1782987467139785000,7.454784912109375,0.0004434575093910098,-0.0025883475318551064,-0.0011657116701826453
1782987467149859000,7.464859130859375,0.0005712892161682248,-0.0016285441815853119,0.0009933129185810685
1782987467159934000,7.474933837890625,-0.0008732992573641241,0.0015876877587288618,-0.0009713814361020923
1782987467170008000,7.485008056640625,-0.002607549773529172,-0.0022725642193108797,-0.0002057226374745369
1782987467180083000,7.4950830078125,-0.0004578958614729345,0.0011807694099843502,0.0003148338000755757
1782987467190157000,7.505156982421875,0.0002097586402669549,0.0017799807246774435,0.0009422745788469911
1782987467200232000,7.51523193359375,0.0013037873432040215,0.00035235402174293995,-0.0015529550146311522
1782987467210306000,7.52530615234375,0.0020185797475278378,0.0014708817470818758,-0.001377186388708651
1782987467220381000,7.535380859375,-0.0008697759476490319,0.00013259402476251125,0.003293485613539815
1782987467230455000,7.545455078125,0.001070070662535727,-0.0005369246937334538,-0.0013193758204579353
1782987467240530000,7.555530029296875,0.0018605912337079644,0.0001624254509806633,0.000008341929060406983
1782987467250604000,7.56560400390625,0.0014464695705100894,-0.00031161727383732796,0.00045468771713785827
1782987467260678100,7.57567822265625,0.0009791122283786535,0.0004467794205993414,-0.0011905269930139184
1782987467270753000,7.5857529296875,0.00028402707539498806,-0.0016648408491164446,0.000542125606443733
1782987467280827100,7.5958271484375,-0.00016543117817491293,0.0007064752280712128,-0.001345715019851923
1782987467290902000,7.605902099609375,0.00033923774026334286,0.00020899693481624126,0.002438104245811701
1782987467300976000,7.61597607421875,-0.000845945964101702,0.00025001191534101963,0.001564053469337523
1782987467311051000,7.626051025390625,-0.0005673793493770063,0.0008383044041693211,-0.0002112096844939515
1782987467321125000,7.636125,0.001279722317121923,0.0002544757444411516,-0.002369769150391221
1782987467331200000,7.646199951171875,-0.0007807654328644276,0.0017024367116391659,0.0007866093656048179
1782987467341274000,7.656274169921875,0.0010550941806286573,-0.000818106229417026,-0.001079716719686985
1782987467351349000,7.666348876953125,-0.0026160734705626965,0.0012575616128742695,0.0007927518454380333
1782987467361423000,7.676423095703125,0.0009031547233462334,0.00034596584737300873,-0.0000827345356810838
1782987467371498000,7.686498046875,-0.0010606603464111686,-0.003838392673060298,0.0006552273989655077
1782987467381572000,7.696572021484375,0.0008541808929294348,0.0013270326890051365,-0.00034429997322149575
1782987467391647000,7.70664697265625,-0.0006441135192289948,-0.0005382454255595803,0.0001670269703026861
1782987467401721000,7.71672119140625,-0.0018894424429163337,0.0003631270956248045,-0.00301387719810009
1782987467411796000,7.7267958984375,-0.0014071440091356635,-0.00011997041292488575,-0.0006133037968538702
1782987467421870000,7.7368701171875,-0.001279353629797697,-0.00016539962962269783,0.0009370699408464134
1782987467431945000,7.746945068359375,-0.00006894697435200214,-0.00005940580740571022,-0.002417714102193713
1782987467442019000,7.75701904296875,-0.0014771393034607172,-0.0004910466959699988,0.0015850383788347244
1782987467452093000,7.767093017578125,-0.0012659506173804402,0.0010416025761514902,0.0010526725091040134
1782987467462168000,7.77716796875,-0.0007576427306048572,0.000015725847333669662,0.0028026055078953505
1782987467472242000,7.787241943359375,-0.0005142298177815974,0.0011132145300507545,-0.0019141192315146327
1782987467482317000,7.797317138671875,0.001103465212509036,0.0012757740914821625,-0.0005941353738307953
1782987467492391000,7.807390869140625,-0.0006443674792535603,0.0005977333057671785,0.0010008318349719048
1782987467502466000,7.817466064453125,0.0006588953547179699,-0.0006179474294185638,-0.0029978430829942226
1782987467512540200,7.8275400390625,0.00043465709313750267,-0.0008690835675224662,-0.0013498789630830288
1782987467522615000,7.837614990234375,0.0019368575885891914,-0.0012795972870662808,0.0011416564229875803
1782987467532689200,7.847689208984375,0.0002593323588371277,-0.0014066300354897976,0.0014969221083447337
1782987467542764000,7.857763916015625,-0.0007689996273256838,-0.0008914601057767868,0.00010418568854220212
1782987467552838100,7.867838134765625,-0.0010893779108300805,0.0022875552531331778,0.002131650224328041
1782987467562913000,7.8779130859375,0.0013624454149976373,0.0006106183864176273,-0.0009013077360577881
1782987467572987100,7.887987060546875,-0.002789156511425972,0.001484135165810585,0.00033999161678366363
1782987467583062000,7.89806201171875,0.000712656183168292,0.000274015124887228,0.00043815828394144773
1782987467593136000,7.90813623046875,0.0007488750852644444,-0.0019731600768864155,0.0014032878680154681
1782987467603211000,7.9182109375,0.00011413684114813805,-0.0005821799859404564,-0.002325301058590412
1782987467613285000,7.92828515625,0.000917079858481884,-0.0008990961359813809,-0.00005362462252378464
1782987467623360000,7.938360107421875,0.0006182159995660186,-0.0006778461392968893,-0.0005704044597223401
1782987467633434000,7.94843408203125,-0.0039666821248829365,-0.0008333746809512377,0.000007235132216010243
1782987467643508000,7.958508056640625,-0.0012638531625270844,-0.0017388849519193172,0.0017041318351402879
1782987467653583000,7.9685830078125,0.0003918340662494302,0.0004891157150268555,0.0008694972493685782
1782987467663657000,7.978656982421875,-0.00031540298368781805,0.001146609429270029,-0.002286844654008746
1782987467673732000,7.988732177734375,0.001424706424586475,-0.0003852408844977617,0.001619746326468885
1782987467683806000,7.998805908203125,-0.0017824037931859493,0.0016991323791444302,0.0005951595958322287
1782987467693881000,8.008881103515625,-0.002063633408397436,0.0007068386767059565,-0.0023183387238532305
1782987467703955000,8.018954833984376,-0.0015363836428150535,0.0004054228775203228,-0.002580462023615837
1782987467714030000,8.029030029296875,-0.00034967903047800064,0.000060809776186943054,-0.0003905447665601969
1782987467724104000,8.03910400390625,-0.0006560631445609033,-0.0015433533117175102,0.0007099058129824698
1782987467734179000,8.049178955078125,-0.0015458252746611834,0.0019858677405864,0.0027112714014947414
1782987467744253000,8.0592529296875,-0.000035480246879160404,0.0001594172790646553,-0.0009823859436437488
1782987467754328000,8.069328125,-0.0016669327160343528,-0.0006680268561467528,-0.0014242044417187572
1782987467764402000,8.07940185546875,-0.0005874803173355758,0.0014357618056237698,-0.0035869183484464884
1782987467774477000,8.08947705078125,-0.0007049257401376963,0.0017683904152363539,0.0005668139783665538
1782987467784551000,8.099551025390625,-0.0017667332431301475,0.0011907259467989206,0.0005227891379036009
1782987467794626000,8.1096259765625,-0.00012516079004853964,0.0007118897046893835,0.002106837462633848
1782987467804700000,8.119699951171874,-0.003512056078761816,-0.00048231391701847315,-0.0023333823774009943
1782987467814775000,8.129775146484375,0.00238977512344718,0.00022635329514741898,0.0011356511386111379
1782987467824849000,8.139848876953126,0.0022206809371709824,0.0009477278217673302,0.0027026368770748377
1782987467834923000,8.149923095703125,-0.0008528733160346746,-0.0015934603288769722,0.003720763372257352
1782987467844998000,8.159997802734376,0.001807639142498374,0.0034092054702341557,-0.0011694664135575294
1782987467855072000,8.170072021484375,-0.0002517834072932601,-0.001633223844692111,-0.0018634861335158348
1782987467865147000,8.18014697265625,-0.00029754999559372663,0.0016935276798903942,0.000010950043360935524
1782987467875221000,8.190220947265624,0.0021466990001499653,0.00081867934204638,-0.00077281822450459
1782987467885295900,8.2002958984375,-0.001359020359814167,0.00031991652213037014,0.001180682796984911
1782987467895370000,8.210369873046876,-0.00013556412886828184,0.0004485473036766052,0.0008864034898579121
1782987467905445000,8.220445068359375,-0.0000770313199609518,-0.0019665060099214315,0.0015993437264114618
1782987467915519000,8.23051904296875,0.0007565381238237023,-0.0013960568467155099,0.0006587151437997818
1782987467925594000,8.240593994140625,-0.0002470663748681545,0.0012337462976574898,-0.0003567519597709179
1782987467935668000,8.25066796875,-0.0013149939477443695,0.0014878117945045233,-0.0007253334624692798
1782987467945743000,8.2607431640625,0.00039001519326120615,-0.00023235869593918324,0.0009584437357261777
1782987467955817000,8.27081689453125,0.0013008163077756763,-0.000761528848670423,0.001614380395039916
1782987467965892000,8.28089208984375,-0.00005497317761182785,0.0011915406212210655,0.0005752097931690514
1782987467975966000,8.290966064453125,0.0005737991305068135,-0.0020937349181622267,0.002560862572863698
1782987467986041000,8.301041015625,-0.0013164995471015573,0.0018655399326235056,-0.00011761288624256849
1782987467996115000,8.311114990234374,0.0002869897289201617,0.0006956134457141161,-0.00011734657164197415
1782987468006190000,8.321190185546875,0.0008811282459646463,0.000817685155197978,0.002442999742925167
1782987468016264000,8.331263916015626,-0.0010435382137075067,0.0008102282881736755,-0.002063867636024952
1782987468026338000,8.341338134765625,-0.00013818731531500816,-0.0006856393301859498,0.0003407140029594302
1782987468036413000,8.351412841796876,-0.001473496318794787,-0.00018629664555191994,0.0023713745176792145
1782987468046487000,8.361487060546875,0.001038685324601829,-0.0020315770525485277,0.0005933709908276796
1782987468056562000,8.37156201171875,0.0004634425276890397,0.0013309300411492586,0.00044529925798997283
1782987468066636000,8.381635986328124,0.00025189132429659367,0.0009665784891694784,-0.0024033868685364723
1782987468076711000,8.3917109375,0.002666845917701721,0.0004842798225581646,0.0005529883201234043
1782987468086785000,8.401784912109376,-0.0006784258293919265,0.001170832198113203,-0.0005884271231479943
1782987468096860000,8.41185986328125,-0.0016898943576961756,0.0002768088597804308,0.001564206089824438
1782987468106934000,8.42193408203125,0.0010243223514407873,0.000804221024736762,0.001286738901399076
1782987468117009000,8.4320087890625,-0.00013601698447018862,-0.0024376451037824154,0.0013847432564944029
1782987468127083000,8.4420830078125,-0.0003705041017383337,-0.000917337485589087,-0.0003592415014281869
1782987468137158000,8.452157958984374,-0.0007452108548022807,-0.00018044072203338146,0.0007584872073493898
1782987468147232000,8.46223193359375,0.0011153421364724636,-0.0006196823669597507,-0.0003408559423405677
1782987468157307000,8.472306884765626,-0.0016801779856905341,0.0010666311718523502,0.0008868613513186574
1782987468167381000,8.482381103515625,0.0011444503907114267,-0.00043948262464255095,0.00021102107712067664
1782987468177455900,8.492455810546875,0.00003923848271369934,-0.0014642670284956694,0.0013290161732584238
1782987468187530000,8.502530029296874,-0.0005178303108550608,-0.00020685489289462566,-0.001799794496037066
1782987468197603800,8.512603759765625,-0.000007302267476916313,-0.00022096955217421055,0.00037787234759889543
1782987468207679000,8.522678955078124,-0.000011002644896507263,-0.0007194647332653403,-0.00041437539039179683
1782987468217752800,8.5327529296875,-0.001346311648376286,-0.0008014901541173458,-0.003258631331846118
1782987468227828000,8.542827880859376,-0.0002955957315862179,0.0011303985957056284,0.0021785299759358168
1782987468237901800,8.55290185546875,0.0005475610960274935,-0.0010406102519482374,-0.0008050093310885131
1782987468247977000,8.56297705078125,0.000028496142476797104,-0.001045031938701868,0.0019458120223134756
1782987468258050800,8.57305078125,-0.00016644725110381842,0.0008119901176542044,0.001580426236614585
1782987468268126000,8.5831259765625,-0.0007288664928637445,0.00011617504060268402,-0.0005762324435636401
1782987468278199800,8.59319970703125,0.0021928874775767326,-0.0017925123684108257,-0.0015530799282714725
1782987468288275000,8.60327490234375,0.0012446452165022492,0.0037144136149436235,-0.0027770139276981354
1782987468298348800,8.613348876953125,0.00013703643344342709,-0.002369045279920101,0.0017591482028365135
1782987468308424000,8.623423828125,-0.0019441278418526053,0.0006094186101108789,-0.000489481957629323
1782987468318497800,8.633497802734375,-0.000524130358826369,-0.0009051209781318903,-0.0004346208297647536
1782987468328573000,8.643572998046874,0.00010261253919452429,0.003124615643173456,-0.0005837623029947281
1782987468338646800,8.653646728515625,-0.00012961507309228182,0.000892353942617774,0.0006894950056448579
1782987468348722000,8.663721923828126,0.0022901673801243305,0.0021646402310580015,-0.0006719292141497135
1782987468358795800,8.673795654296875,0.00084327207878232,0.0006849877536296844,-0.001092975027859211
1782987468368871000,8.683870849609375,-0.0013027844252064824,0.00021391501650214195,0.00263773906044662
1782987468378944800,8.69394482421875,0.0010511837899684906,-0.00022923480719327927,-0.002463545883074403
1782987468389020000,8.70402001953125,-0.0016876343870535493,0.001370543846860528,-0.002169453538954258
1782987468399093800,8.71409375,0.0012967039365321398,-0.0006904765032231808,-0.0011499952524900436
1782987468409168100,8.724168212890625,-0.0013152991887181997,0.002443199045956135,-0.001679878099821508
1782987468419243000,8.734242919921876,0.0003728786250576377,-0.0007038585608825088,-0.000330720649799332
1782987468429317000,8.744317138671875,-0.003175965044647455,-0.000025240937247872353,-0.0019814304541796446
1782987468439392000,8.75439208984375,0.0005545910680666566,0.0018054163083434105,-0.0007065753452479839
1782987468449466000,8.764466064453124,0.0009286635322496295,0.0013105343095958233,0.0019198240479454398
1782987468459541000,8.774541015625,-0.00005857029464095831,0.0006604567170143127,-0.000863978173583746
1782987468469615000,8.784614990234376,-0.00001979316584765911,0.000023198314011096954,0.00025498069589957595
1782987468479690000,8.79468994140625,0.00005051423795521259,0.00014810054562985897,-0.0006885773036628962
1782987468489764000,8.80476416015625,0.0002024131827056408,-0.0006793286884203553,0.0035431762225925922
1782987468499839000,8.8148388671875,-0.0011787022231146693,-0.0006758666131645441,-0.00032506525167264044
1782987468509913000,8.8249130859375,0.00036564271431416273,0.0003877799026668072,-0.001486930064857006
1782987468519988000,8.834988037109374,-0.0011592833325266838,-0.0013499327469617128,-0.0007444408256560564
1782987468530062000,8.84506201171875,-0.0006484625046141446,0.0016513890586793423,0.00012708107533399016
1782987468540137000,8.855136962890626,-0.0014138550031930208,0.0005429815500974655,-0.0006319198291748762
1782987468550211000,8.865211181640625,0.0011799646308645606,0.0009850033093243837,-0.00013139161455910653
1782987468560286000,8.875285888671876,0.0009264316176995635,-0.0007143598049879074,-0.0015159690519794822
1782987468570360000,8.885360107421874,0.000100871198810637,0.0001157228834927082,0.00021975470008328557
1782987468580434200,8.89543408203125,0.0006004802417010069,-0.0006925464840605855,0.002571592340245843
1782987468590509000,8.905509033203124,0.0008290078258141875,-0.0019109518034383655,0.0013639023527503014
1782987468600583200,8.915583251953125,0.00041994627099484205,-0.0005351627478376031,-0.00048086934839375317
1782987468610658000,8.925657958984376,0.002583797089755535,0.0008615399710834026,0.00176353775896132
1782987468620732200,8.935732177734375,-0.00048176757991313934,-0.00020212656818330288,0.0012229160638526082
1782987468630807000,8.94580712890625,0.0012289718724787235,0.0012592391576617956,-0.001494778785854578
1782987468640881200,8.955881103515624,0.0008705102372914553,0.0031002825126051903,-0.00042605219641700387
1782987468650956000,8.9659560546875,0.0012672102311626077,0.0012679086066782475,0.0002767852274700999
1782987468661030100,8.976030029296876,-0.0014241804601624608,-0.0006021631415933371,0.0014272708212956786
1782987468671105000,8.98610498046875,-0.0005422817193903029,0.0008908708114176989,0.002131728222593665
1782987468681179100,8.99617919921875,0.0008758514886721969,-0.002309716073796153,0.00016817962750792503
1782987468691254000,9.00625390625,0.0004957587225362659,0.0012380150146782398,-0.0003099299210589379
1782987468701328100,9.016328125,0.0028095131274312735,0.001077692722901702,0.000958533666562289
1782987468711403000,9.026403076171874,0.00029218196868896484,-0.0016341552836820483,0.0014176273252815008
1782987468721477000,9.03647705078125,-0.0007440539775416255,-0.0005473191849887371,0.0003789945621974766
1782987468731552000,9.046552001953126,-0.00031463836785405874,0.001817664597183466,0.0027386469300836325
1782987468741626000,9.056626220703125,-0.0002552498481236398,0.00037476373836398125,0.0014147893525660038
1782987468751701000,9.066700927734376,0.0003502363106235862,-0.0006618043407797813,-0.0006009948556311429
1782987468761775000,9.076775146484374,0.0006594292353838682,-0.0002583353780210018,0.0008957016398198903
1782987468771849200,9.08684912109375,-0.0015776189975440502,-0.00003874907270073891,-0.00018881134747061878
1782987468781924000,9.096924072265624,-0.0020452700555324554,0.0008177235722541809,0.0015156117733567953
1782987468791998200,9.106998291015625,-0.0009423972805961967,0.00018717488273978233,-0.0006318534724414349
1782987468802073000,9.117072998046876,0.0009923892794176936,0.001193583244457841,-0.001495250267907977
1782987468812147200,9.127147216796875,0.00016938732005655766,0.0020832596346735954,0.0004113754548598081
1782987468822222000,9.13722216796875,0.0021118971053510904,-0.00027816533111035824,0.00020524677529465407
1782987468832296200,9.147296142578124,-0.0007669777260161936,-0.0009630669374018908,-0.0013641270343214273
1782987468842371300,9.157371337890625,0.0004530163714662194,0.0034476604778319597,0.0012433739611878991
1782987468852445200,9.167445068359376,0.0006031914381310344,0.0014923850540071726,0.0017459639348089695
1782987468862520300,9.177520263671875,-0.0007116111228242517,-0.0008091188501566648,0.00141466676723212
1782987468872594200,9.18759423828125,0.0016497229225933552,-0.00018239114433526993,0.00017211867088917643
1782987468882669300,9.19766943359375,-0.00036735524190589786,0.00027167797088623047,0.0017535036895424128
1782987468892743200,9.2077431640625,-0.0013563013635575771,0.0001046392135322094,0.00009191243589157239
1782987468902818300,9.217818359375,-0.0005331182619556785,0.0005054448265582323,0.00019231361511629075
1782987468912892200,9.22789208984375,0.0013303235173225403,0.0032280844170600176,-0.0001477062760386616
1782987468922967300,9.23796728515625,-0.0002609152579680085,0.0017156752292066813,-0.0015256258193403482
1782987468933041200,9.248041259765625,-0.00017239584121853113,-0.0006496418500319123,0.0010234508663415909
1782987468943116300,9.2581162109375,0.002398087177425623,-0.001091992948204279,0.0012942943722009659
1782987468953190100,9.268190185546874,0.00015542481560260057,0.001263200305402279,-7.404178177239373e-7
1782987468963264300,9.27826416015625,0.00011654268018901348,0.00017556524835526943,-0.00034375558607280254
1782987468973339100,9.288339111328124,-0.0013949534622952342,-0.0009817557875066996,0.0018849988700821996
1782987468983413200,9.298413330078125,0.00024076004046946764,0.001537061994895339,0.0005315804155543447
1782987468993488100,9.308488037109376,-0.000212340266443789,0.0012686853297054768,0.002583025489002466
1782987469003562200,9.318562255859375,-0.000741510302759707,0.00044496962800621986,-0.0021675212774425745
1782987469013637000,9.32863720703125,0.0008955877274274826,-0.0009746073046699166,0.0017606217879801989
1782987469023711200,9.338711181640624,-0.0019481356721371412,-0.00005288724787533283,-0.0027294678147882223
1782987469033786000,9.3487861328125,-0.0005432100733742118,-0.0004412982380017638,0.001353093539364636
1782987469043860200,9.358860107421876,-0.0017570789204910398,-0.0006405027816072106,0.001599968527443707
1782987469053935000,9.36893505859375,-0.0009481691522523761,-0.0010143249528482556,-0.0006323705893009901
1782987469064009200,9.37900927734375,-0.00011486606672406197,0.0006677275523543358,0.002468081656843424
1782987469074084000,9.389083984375,0.0012526274658739567,0.0004895573947578669,-0.0020340958144515753
1782987469084158200,9.399158203125,0.001405492890626192,-0.0001780970487743616,0.0026357572060078382
1782987469094233000,9.409233154296874,-0.002370459958910942,0.000985387247055769,0.002870840486139059
1782987469104307200,9.41930712890625,0.0011305316584184766,-0.00046283984556794167,-0.0007912722649052739
1782987469114382000,9.429382080078126,-0.0009221765212714672,0.0015128732193261385,-0.0009285433916375041
1782987469124456200,9.439456298828125,0.0001681215362623334,-0.0014323166105896235,0.00028665701393038034
1782987469134531000,9.449531005859376,-0.0006805366137996316,-0.00000533577986061573,0.0010348577052354813
1782987469144605200,9.459605224609374,-0.0006629597046412528,-0.0008157356642186642,0.0028034630231559277
1782987469154679000,9.469678955078125,-0.0017751255072653294,-0.000985443126410246,-0.001518892589956522
1782987469164754200,9.479754150390624,0.0008843070827424526,-0.0005936921807006001,0.0028620073571801186
1782987469174828000,9.489828125,0.001356104388833046,-0.0009597284952178597,0.00006626376125495881
1782987469184903200,9.499903076171876,0.0007952428422868252,0.0001726476475596428,-0.0005393390893004835
1782987469194977000,9.50997705078125,0.0001963380491361022,-0.0007532525341957808,-0.0010807696962729096
1782987469205052200,9.52005224609375,-0.00031951628625392914,-0.0006286166608333588,0.002017818158492446
1782987469215126000,9.5301259765625,-0.0022766217589378357,0.00007427786476910114,-0.00228649890050292
1782987469225201200,9.540201171875,-0.00020654662512242794,0.0001557706855237484,-0.001452396740205586
1782987469235275000,9.55027490234375,0.0002913238713517785,0.0006158798933029175,-0.00275659398175776
1782987469245349000,9.56034912109375,-0.0005246686632744968,-0.0017330280970782042,-0.0003155405865982175
1782987469255424000,9.570424072265626,0.0008570961654186249,0.001115964725613594,0.0026119835674762726
1782987469265498000,9.580498046875,-0.00007580907549709082,0.00025816052220761776,-0.002542031928896904
1782987469275573000,9.590572998046875,-0.0013178569497540593,0.0010243046563118696,0.0010165430139750242
1782987469285647000,9.600647216796874,0.0005010820459574461,0.001308730337768793,0.00007777874998282641
1782987469295722000,9.610721923828125,0.00010137306526303291,-0.0011912188492715359,-0.0005612902459688485
1782987469305796000,9.620796142578126,0.0001852626446634531,-0.0005720339249819517,-0.0002595540718175471
1782987469315871000,9.63087109375,0.0008779584895819426,-0.0007496473845094442,0.002288711490109563
1782987469325945000,9.640945068359375,-0.0013660211116075516,-0.0008628317154943943,-0.0014564919983968139
1782987469336020000,9.65102001953125,-0.0008455362403765321,0.001726529560983181,-0.0018733266042545438
1782987469346094000,9.661093994140625,-0.0013920168858021498,0.0003222445957362652,0.0006731880712322891
1782987469356169200,9.671169189453124,-0.00019213720224797726,0.0009256890043616295,0.000634147203527391
1782987469366243000,9.6812431640625,-0.0003053215332329273,0.00013180077075958252,-0.00006945990753592923
1782987469376318200,9.691318115234376,-0.001434805104508996,0.00014974991790950298,0.001316432491876185
1782987469386392000,9.70139208984375,0.0011774895247071981,0.0005851767491549253,0.000002695131115615368
1782987469396467200,9.71146728515625,-0.0003913121181540191,0.0005430930759757757,-0.00035969598684459925
1782987469406541000,9.721541015625,-0.001134866732172668,-0.0005749019328504801,-0.001111506368033588
1782987469416615000,9.731614990234375,0.0011671760585159063,-0.0015778066590428352,0.0017087972955778241
1782987469426690000,9.74168994140625,0.00029978458769619465,-0.0007586183492094278,-0.002964783925563097
1782987469436764000,9.751763916015625,0.0008143731392920017,0.0022937923204153776,-0.0019292766228318214
1782987469446839000,9.761839111328126,-0.0015563727356493473,0.0033745032269507647,-0.000544432841707021
1782987469456913000,9.771912841796874,0.0017020858358591795,0.0011601329315453768,0.0005365715478546917
1782987469466988000,9.781988037109375,0.0001997966319322586,0.001125245587900281,-0.0015886310720816255
1782987469477062100,9.792062255859374,0.0011605244362726808,0.0004460772033780813,-0.00035017135087400675
1782987469487137000,9.802136962890625,0.001099538174457848,-0.0008271802216768265,0.0035801215562969446
1782987469497211100,9.812211181640626,0.0004956041229888797,0.001039247028529644,-0.00015194684965535998
1782987469507286000,9.8222861328125,-0.0001115965424105525,-0.0014473464107140899,0.0017881658859550953
1782987469517360000,9.832360107421875,-0.002044584136456251,0.001369786448776722,-0.0005652400432154536
1782987469527435000,9.84243505859375,0.001127507071942091,-0.0007335782283917069,0.0025410710368305445
1782987469537509000,9.852509033203125,0.0004154215566813946,0.00046580121852457523,-0.001498211408033967
1782987469547585000,9.8625849609375,-0.00015955488197505474,-0.0005368788260966539,-0.0005900734686292708
1782987469557659100,9.8726591796875,0.00004832586273550987,-0.000978553551249206,0.0004294169775675982
1782987469567733000,9.88273291015625,0.001595356035977602,-0.0007007858948782086,0.00027308944845572114
1782987469577808100,9.89280810546875,-0.0002566498005762696,0.001186545705422759,-0.001455602701753378
1782987469587882000,9.902882080078125,0.0006490913219749928,-0.0018129725940525532,0.002164964796975255
1782987469597957000,9.91295703125,0.0007914485177025199,-0.0027587139047682285,-0.0010365850757807493
1782987469608031000,9.923031005859375,0.000038306694477796555,-0.0013949091080576181,0.0005360114737413824
1782987469618106000,9.933106201171874,-0.00003661331720650196,0.0014090565964579582,-0.001549519132822752
1782987469628180000,9.943179931640625,0.00021558802109211683,0.0008543201256543398,-0.000987059436738491
1782987469638255000,9.953255126953126,-0.00023674708791077137,-0.004581404849886894,0.0018852691864594817
1782987469648329000,9.963328857421875,-0.0026493046898394823,-0.000013817334547638893,0.0017084353603422642
1782987469658404000,9.973404052734375,-0.0006777215749025345,-0.0009435140527784824,-0.002735593356192112
1782987469668478000,9.98347802734375,-0.0006806510500609875,-0.0015621663769707084,0.000415458925999701
1782987469678553000,9.993552978515625,-0.000033533782698214054,-0.000004357192665338516,0.0007596955983899534
1782987469688627000,10.003626953125,0.0008469072636216879,-0.000012346543371677399,-0.0007740188739262521
1782987469698702000,10.0137021484375,0.000747919431887567,-0.0018753373296931386,0.00006995147850830108
1782987469708776000,10.02377587890625,0.0017561923014000058,-0.0007094054017215967,-0.0009063633624464273
1782987469718851000,10.03385107421875,0.0009059483418241143,0.0015477631241083145,0.0011448223376646638
1782987469728925000,10.043925048828125,-0.0002469340106472373,0.0004579974338412285,0.0019267265452072024
1782987469739000000,10.054,0.00009127624798566103,-0.0012869108468294144,0.0013294114032760262
1782987469749074000,10.064073974609375,0.0004718420095741749,0.0012340373359620571,-0.0013316191034391522
1782987469759148000,10.07414794921875,-0.0009149610996246338,-0.0007394840940833092,0.0015218252083286643
1782987469769223000,10.084222900390625,-0.00007500010542571545,-0.0013956869952380657,-0.0003985802177339792
1782987469779297000,10.094297119140625,-0.000419297197367996,-0.002215324668213725,0.00034637434873729944
1782987469789372000,10.104371826171874,-0.0014928174205124378,0.00016713934019207954,-0.00135325500741601
1782987469799446000,10.114446044921875,-0.0018649313133209944,0.0017383121885359287,-0.0015624330844730139
1782987469809521000,10.12452099609375,0.0018387266900390387,0.0005404225084930658,-0.0015496499836444855
1782987469819595000,10.134594970703125,-0.0008688621455803514,0.0021971336100250483,0.0014512741472572088
1782987469829670000,10.144669921875,0.000503731076605618,0.00021068169735372066,0.0017631303053349257
1782987469839744000,10.154743896484375,-0.001770585309714079,0.0009124288335442543,0.0004746665945276618
1782987469849819000,10.16481884765625,0.000031043076887726784,-0.0003341969568282366,0.00041794124990701675
1782987469859893000,10.17489306640625,0.00019606458954513073,0.0021414533257484436,-0.0013649127213284373
1782987469869968000,10.1849677734375,-0.00010220939293503761,-0.000988825922831893,-0.0007563804974779487
1782987469880042000,10.1950419921875,0.0018311431631445885,-0.0004198621027171612,-0.0015772306360304356
1782987469890116900,10.205116943359375,-0.0008168378262780607,0.0019942934159189463,0.002045733854174614
1782987469900191000,10.21519091796875,-0.001556031289510429,-0.0009160317713394761,-0.00008589274511905387
1782987469910265900,10.225265869140625,-0.0004071435541845858,0.00001820526085793972,0.000962061109021306
1782987469920340000,10.235340087890625,-0.001031929743476212,0.0017086358275264502,0.00038006663089618087
1782987469930414800,10.245414794921874,-0.001573350396938622,-0.000630152178928256,-0.0017611149232834578
1782987469940489000,10.255489013671875,0.0007258070399984717,0.00021137460134923458,-0.000934045878238976
1782987469950563000,10.26556298828125,0.0001771958777680993,0.0009626524988561869,-0.0008123394218273461
1782987469960638000,10.275637939453125,-0.0006285536801442504,-0.0016748961061239243,-0.001207871362566948
1782987469970712000,10.285712158203125,-0.0008573192171752453,0.0006202161312103271,0.002444654004648328
1782987469980787000,10.295786865234374,-0.0009638998890295625,0.0011469502933323383,0.0037720331456512213
1782987469990861000,10.305861083984375,0.001908852020278573,0.001083567040041089,0.002136852126568556
1782987470000936000,10.31593603515625,-0.0001674247905611992,0.0008083388675004244,0.0014714974677190185
1782987470011010000,10.326010009765625,0.0003076831344515085,0.0008711894042789936,-0.0004491743165999651
1782987470021085000,10.3360849609375,0.005200268235057592,-0.002549183089286089,0.0025007689837366343
1782987470031159000,10.346158935546875,0.001494213123805821,-0.0028956604655832052,0.0011337683536112309
1782987470041234000,10.35623388671875,0.0002930532209575176,-0.0003125544171780348,-0.0006881720619276166
1782987470051308000,10.36630810546875,0.0006589714903384447,-0.003044158685952425,-0.003795814700424671
1782987470061383000,10.3763828125,-0.0023151675704866648,-0.0016776942647993565,-0.003928784746676683
1782987470071457000,10.38645703125,0.0006902096793055534,-0.0015685046091675758,-0.000003818000550381839
