seconds_elapsed,acc_x,acc_y,acc_z,gyro_x,gyro_y,gyro_z,label
0.074538818359375,-0.6242697435114533,-1.702103192847967,-12.959247769236564,-1.8928532600402832,0.8364534974098206,-0.2484699189662933,jumping
0.084614013671875,0.1445293391016311,-1.8201833365663884,-8.983830810847877,-1.3415777683258057,0.2930808067321777,-0.2793858051300049,jumping
0.09468798828125,0.1412298408985138,-2.372598900157213,-5.241728102815151,-1.0207749605178833,-0.3238588273525238,-0.4519343972206116,jumping
0.10476171875,-0.1988770701598376,-2.7180425691336394,-2.6624329101145268,-0.9816542863845824,-0.737123429775238,-0.6483620405197144,jumping
0.1148369140625,-0.265819914500229,-2.5951830821841955,-1.1798059964060783,-1.0908780097961426,-0.8016946911811829,-0.7671656012535095,jumping
0.12491064453125,-0.1065492438679561,-2.218897407959401,-0.7810866643160581,-1.1510440111160278,-0.5311747193336487,-0.8058164715766907,jumping
0.13498486328125,0.0922742694737389,-1.529355054874718,-0.9789280347526071,-1.0685882568359375,-0.1446720212697982,-0.7543588876724243,jumping
0.14506005859375,0.4650428754882886,-0.7415250537782907,-0.8734925608128309,-0.8490602970123291,0.1812343150377273,-0.628551185131073,jumping
0.1551337890625,0.8577752055905759,-0.0288949628338217,-0.1169511396884918,-0.5804272890090942,0.3821562230587005,-0.4800248146057129,jumping
0.165208984375,1.1679035232968629,0.4448071295261382,1.1311182456046345,-0.2769785523414612,0.4335708320140838,-0.3568498492240906,jumping
0.17528271484375,1.3592618153244256,0.7122860998123883,2.4997318266421558,0.0402215123176574,0.3515486717224121,-0.2732841372489929,jumping
0.185356689453125,1.4786466119006276,0.9420067095905542,3.933481604456901,0.3050228953361511,0.1181080490350723,-0.2251745909452438,jumping
0.195431884765625,1.367908939899504,1.001312300518155,5.363666383266449,0.4324415624141693,-0.2424663752317428,-0.2447064816951751,jumping
0.205505615234375,0.8740755483325571,1.0360951523467898,6.497071863025426,0.4269758462905884,-0.5625084042549133,-0.3349885940551758,jumping
0.215580078125,0.4862810399586335,1.165585747873783,7.121261161711812,0.3165270984172821,-0.6696271300315857,-0.4144503772258758,jumping
0.225654541015625,0.470021138824895,1.4181398284897206,7.625712904861569,0.1097787469625473,-0.6663426160812378,-0.4181350469589233,jumping
0.23572900390625,0.6328093160588294,1.677182978864014,8.11303581855595,-0.150158554315567,-0.6454524993896484,-0.383188784122467,jumping
0.245802978515625,0.7331046506311744,1.872640084512532,8.40401373785138,-0.4087370038032532,-0.5804046988487244,-0.3404166400432586,jumping
0.2558779296875,0.7900491384506225,2.019866827738285,8.39084796680808,-0.5924271941184998,-0.4693884253501892,-0.275201141834259,jumping
0.265951904296875,0.8248417810209095,2.211835506749153,7.800949060258269,-0.6324987411499023,-0.3259878754615783,-0.1847081184387207,jumping
0.27602587890625,0.8306335892301052,2.423458442039788,6.91048081472516,-0.5190842747688293,-0.1657532304525375,-0.1178723648190498,jumping
0.286100830078125,0.7727213523570448,2.569887605147064,6.199706288519502,-0.2793458700180053,-0.0448173321783542,-0.0937932059168815,jumping
0.296175048828125,0.6733851451404392,2.647846166357398,5.800791726118326,0.0350821018218994,0.0275522023439407,-0.0896386727690696,jumping
0.306249755859375,0.6508699464716017,2.728533860270679,5.816674354904889,0.3468805849552154,0.0878894329071044,-0.0925060212612152,jumping
0.316323974609375,0.6385413569048046,2.785528543907404,6.186696000298857,0.5971549153327942,0.1419699788093567,-0.0941377356648445,jumping
0.326397705078125,0.6994403545036911,2.8704125204667448,6.750490159255266,0.7581411600112915,0.1593276858329773,-0.0866796523332595,jumping
0.336472900390625,0.7950561529576778,3.010634061105549,7.202140871065855,0.8892893195152283,0.1550847291946411,-0.0777141153812408,jumping
0.346546875,0.8774495548103004,3.1117671616762874,7.428025263682008,1.0283770561218262,0.1850684136152267,-0.0655112639069557,jumping
0.356620849609375,0.9714467390865088,3.2163530330494043,7.60508395833075,1.1726117134094238,0.1878053396940231,-0.0529544539749622,jumping
0.36669580078125,1.0093802369657905,3.299017579993605,7.843597530895471,1.2930172681808472,0.1219343915581703,-0.0683585852384567,jumping
0.37677001953125,0.7491407894790172,3.301707841990888,8.005996416550873,1.3640555143356323,0.0753652900457382,-0.1091606095433235,jumping
0.38684375,0.6428823087185621,3.289422945435345,8.143067384204269,1.3531087636947632,0.0472590364515781,-0.1507908105850219,jumping
0.3969189453125,0.4761155101772397,3.3529595980614424,8.266649924731254,1.2473537921905518,0.0366015993058681,-0.2112946361303329,jumping
0.40699267578125,0.2082049070080742,3.451122450649738,8.301647003832459,1.0749082565307615,0.0426850579679012,-0.2740075588226318,jumping
0.41706689453125,0.1176036853130906,3.613605507457256,8.233083755216002,0.8974205255508423,0.032199926674366,-0.3128138184547424,jumping
0.427141845703125,0.3697477238234132,3.645076750519872,7.946943339079618,0.7405151128768921,0.0562256313860416,-0.2853608727455139,jumping
0.4372158203125,0.839430205278471,3.310097776934504,7.427742939609288,0.5883036851882935,0.1279360353946685,-0.1830315738916397,jumping
0.4472900390625,1.0355872028246522,2.589273565879464,6.859836084637045,0.3712108433246612,0.0974210351705551,-0.045492697507143,jumping
0.45736474609375,0.8150630220673978,1.826106004613638,6.166929223555326,0.1156432330608367,-0.1320481151342392,0.0886669680476188,jumping
0.46743896484375,0.5048772385528311,1.0448486599057911,4.499920140442252,-0.0650094076991081,-0.3417438864707947,0.1927348226308822,jumping
0.477513916015625,0.4177223579194396,-0.0135702601909637,1.1800140861988069,-0.0668536499142646,-0.1270808577537536,0.2684804499149322,jumping
0.487587890625,0.4878035368181764,-1.4387111996144055,-3.394486371192336,0.1953289955854416,0.4968006014823913,0.3408040106296539,jumping
0.497661865234375,0.3948755892086774,-2.650326877257228,-8.270077561092377,0.6659979820251465,1.220588445663452,0.4162614643573761,jumping
0.507737060546875,0.0789283195579424,-3.3912504580110308,-11.769217315936087,1.076863408088684,1.6863071918487549,0.4993147850036621,jumping
0.51781103515625,0.8380890928678214,-4.428634773385524,-12.82829499220252,1.259033203125,1.5107433795928955,0.6881227493286133,jumping
0.527885009765625,2.568452311646938,-6.145002053907513,-12.788144183599949,1.2949641942977903,0.7904940247535706,1.0188958644866943,jumping
0.5379599609375,3.921001185329258,-8.132781552511453,-13.278667939162254,1.2677240371704102,-0.0865573734045028,1.271330714225769,jumping
0.548033935546875,4.163369387495518,-9.2497415089041,-14.31287771615386,1.2308564186096191,-0.731095552444458,1.337514877319336,jumping
0.558107666015625,3.808218271236121,-9.606109891998766,-15.536048222512006,1.1419007778167725,-1.4131683111190796,1.3477076292037964,jumping
0.568182861328125,3.1422026319503784,-9.932914911478758,-16.09900943777561,0.7966794967651367,-2.435501337051392,1.355644941329956,jumping
0.5782568359375,2.3556878051057457,-11.110290465867518,-16.511861924636364,0.2100530266761779,-3.064178705215454,1.226789474487305,jumping
0.588330810546875,0.6386549002818763,-11.6927665289402,-17.239859388321637,-0.4659839570522308,-3.076111078262329,0.9489202499389648,jumping
0.59840576171875,-2.1657019704751668,-10.148521655708551,-17.875939615809916,-1.0413843393325806,-2.693171501159668,0.7007072567939758,jumping
0.60847998046875,-4.404032539309561,-7.281289226582646,-18.17828707038164,-1.3039588928222656,-2.051347494125366,0.6667681932449341,jumping
0.6185546875,-5.040447990101575,-4.379011787560582,-17.354429185831545,-1.241199612617493,-1.2907471656799316,0.8227084875106812,jumping
0.62862890625,-4.254506579230726,-2.429377602955699,-14.85792333549857,-0.9912014603614808,-0.7165718078613281,0.9855159521102904,jumping
0.63870263671875,-3.2158103044748305,-1.6775252164304255,-11.313344017994403,-0.7143930792808533,-0.2641945481300354,0.9821673035621644,jumping
0.64877783203125,-2.689816007080674,-1.6251543932020662,-7.635701214912533,-0.5560648441314697,0.2102554142475128,0.7398932576179504,jumping
0.658851806640625,-2.6572017314627767,-1.5146458537817,-4.010640831983089,-0.5346924662590027,0.6742358803749084,0.3470978140830993,jumping
0.66892578125,-2.7642417179897425,-1.2707412358283996,-0.7965314862072468,-0.58990877866745,1.1128973960876465,-0.0531070008873939,jumping
0.679000732421875,-2.532863111871481,-0.7355512400656938,1.71185184892416,-0.6350647807121277,1.4290210008621216,-0.3685195446014404,jumping
0.68907470703125,-1.8885009398587047,-0.0285562323987483,3.5034073491603133,-0.6030884981155396,1.629828929901123,-0.5938569903373718,jumping
0.69914892578125,-1.049284742657095,0.6381184553176165,4.846051791682839,-0.4505333006381988,1.7262753248214722,-0.7373843193054199,jumping
0.709223876953125,-0.1804680647008121,1.4010603911340236,5.830933766403794,-0.1972765773534774,1.704748511314392,-0.788469672203064,jumping
0.7192978515625,0.624146628588438,2.2610534189045426,6.47132834995985,0.0943744555115699,1.5644768476486206,-0.7391633987426758,jumping
0.729372802734375,1.3324059571027755,2.9431057084947825,6.950462696501612,0.380725622177124,1.3565160036087036,-0.6086194515228271,jumping
0.739447021484375,1.8692454736381767,3.1546295673251152,7.188929507315159,0.6217861771583557,1.0733593702316284,-0.4506844580173492,jumping
0.74952099609375,1.883838647136092,3.450419270816445,7.395394913712144,0.7663522958755493,0.6964479684829712,-0.3125537931919098,jumping
0.759595947265625,1.549519598764181,3.884221606725454,7.673309937816858,0.8070312738418579,0.3396003842353821,-0.1958902776241302,jumping
0.769669921875,1.1392502602644263,3.923234935730696,7.832340808343887,0.7397097945213318,0.1016823798418045,-0.1121712252497673,jumping
0.779743896484375,0.7879565500855445,3.735741356307268,8.01555334944725,0.5824935436248779,-0.0066294483840465,-0.0430648550391197,jumping
0.789819091796875,0.387261972399801,3.49431277307868,8.176267058494686,0.3783543109893799,0.0301629956811666,0.0194363892078399,jumping
0.799892822265625,0.0653895139511674,3.204386408662796,8.217934116879105,0.1669851094484329,0.1455162167549133,0.0663554221391677,jumping
0.809967041015625,-0.2059261118885129,2.961180294367671,8.225754435241221,-0.0378421060740947,0.2337688356637954,0.0670461431145668,jumping
0.820041748046875,-0.4662020189281552,2.873149544215202,8.13443048876226,-0.1956889927387237,0.2622225880622864,0.0072595118544995,jumping
0.830115966796875,-0.6589036153234541,2.90888721255064,7.893578828638792,-0.2941548824310303,0.2509251236915588,-0.0885400176048278,jumping
0.84018994140625,-0.7968781076878309,3.0635832687437534,7.596465767589211,-0.3205814361572265,0.2302768379449844,-0.2180298417806625,jumping
0.850264892578125,-0.8671537131801247,3.282613557681441,7.22126467373073,-0.281996339559555,0.2615491449832916,-0.355007916688919,jumping
0.8603388671875,-0.7699468461424112,3.5010867972582576,7.013905533364415,-0.2069921642541885,0.2954626381397247,-0.4726381599903106,jumping
0.87041259765625,-0.5884253268659114,3.722335931289196,6.955626947396993,-0.1217300072312355,0.273108571767807,-0.5464935898780823,jumping
0.88048779296875,-0.3774153723744675,3.972775503969192,6.910301951026916,-0.0236753486096858,0.2372554987668991,-0.5762000679969788,jumping
0.89056201171875,-0.2504084468893706,4.163315611481666,6.900501857024431,0.0746292173862457,0.2359336018562317,-0.5933091640472412,jumping
0.90063671875,-0.2621162559430114,4.3359214183747765,6.91374478495717,0.15074422955513,0.2508316040039062,-0.6091237664222717,jumping
0.9107109375,-0.2783123711255378,4.483275879633426,6.956373966372013,0.199911743402481,0.2677940428256988,-0.6180939674377441,jumping
0.92078466796875,-0.4018170789096504,4.615989236599207,7.055462701633572,0.2074165344238281,0.2440996468067169,-0.6241326332092285,jumping
0.93085986328125,-0.6702657710108906,4.687465157791972,7.185052958142757,0.1737647354602813,0.1377443373203277,-0.6493287682533264,jumping
0.940933837890625,-0.8636418326016515,4.700385429641604,7.230958384749293,0.152872234582901,0.0990813672542572,-0.6929921507835388,jumping
0.9510078125,-0.9313230376865714,4.571411843726039,7.137998946022987,0.1248770132660865,0.1618112474679947,-0.7392252087593079,jumping
0.961082763671875,-1.0522823901031166,4.408040898168086,7.017016358861326,0.0984781682491302,0.2501411139965057,-0.7952700853347778,jumping
0.971156982421875,-1.2535326191350815,4.293545334938169,6.552972613945603,0.0881440192461013,0.4236979484558105,-0.8300130367279053,jumping
0.98123095703125,-1.3929611097000538,4.151835601568222,6.136441146311164,0.0842653885483741,0.5894944071769714,-0.8259528279304504,jumping
0.991305908203125,-1.495172653157264,3.870923733735084,5.796689551496505,0.0925916284322738,0.5886039733886719,-0.7968305945396423,jumping
1.0013798828125,-1.47204458328709,3.469800263112784,5.093039762604237,0.1300766766071319,0.5113600492477417,-0.7731425762176514,jumping
1.011455078125,-1.257423781354725,2.9169454313218592,4.367161775290966,0.1310368627309799,0.4451806247234344,-0.703863799571991,jumping
1.021529052734375,-0.6066178034974262,2.1722125214129684,3.6774247764170167,0.0237082820385694,0.4125846028327942,-0.5615522265434265,jumping
1.031602783203125,0.4500425094289705,0.9762012401372192,2.630268424090743,-0.1157637313008308,0.4570954442024231,-0.2745728492736816,jumping
1.041677978515625,1.668167897759378,-0.5445581280887126,0.649590866446495,-0.265851765871048,0.4622278809547424,0.1321312636137008,jumping
1.051751708984375,3.009638328066468,-2.0673604003190995,-1.3531108914792538,-0.440278023481369,0.1883884817361831,0.4797768294811249,jumping
1.061825927734375,4.34762763825953,-3.5130139664173123,-3.348722983404994,-0.5648977160453796,-0.3401927649974823,0.6913381218910217,jumping
1.07190087890625,4.596038335460424,-4.607531204855442,-5.783036289197206,-0.4444105327129364,-0.7517499923706055,0.7591726183891296,jumping
1.081974853515625,2.9786817565277217,-5.514632605281472,-8.93942059123516,-0.1762389838695526,-0.8562495112419128,0.5773807168006897,jumping
1.092048828125,0.6854607828594744,-6.467904220730066,-11.145787311184405,-0.0590990372002124,-0.5272117257118225,0.1094232723116874,jumping
1.1021240234375,0.018912059610337,-7.851817662230133,-11.620166572153568,-0.3609829843044281,-0.3879821896553039,-0.3890882432460785,jumping
1.11219775390625,1.2644577716447412,-9.62644774662852,-10.775845745289326,-1.2300872802734375,-0.7575773596763611,-0.8177603483200073,jumping
1.12227197265625,2.383099251383543,-11.201962202870844,-10.518882908320426,-2.229001522064209,-0.9985002279281616,-1.168052077293396,jumping
1.1323466796875,2.8046009086459875,-10.721519111818074,-11.657232274222372,-2.7593162059783936,-0.9391937255859376,-1.3881888389587402,jumping
1.1424208984375,3.0059353818953034,-7.440557997518777,-13.192887013763189,-2.6544268131256104,-0.9490754008293152,-1.327625036239624,jumping
1.15249462890625,4.053374058294296,-3.53945510635823,-13.79880708078742,-2.0678980350494385,-1.206305742263794,-0.9106299877166748,jumping
1.16256982421875,5.266833902499079,-0.7570870723083615,-12.540608515667914,-1.3102091550827026,-1.8491387367248533,-0.2569312453269958,jumping
1.172643798828125,5.504314624884724,0.6819608119145035,-10.40652844877243,-0.5698100328445435,-2.7885773181915283,0.5069131851196289,jumping
1.18271875,4.230765345898271,0.8490566232144832,-8.737585182726383,-0.0625172480940818,-3.673093318939209,1.1313397884368896,jumping
1.192792724609375,1.5814575825557111,-0.1323711193993687,-8.144805752304196,0.0935071855783462,-3.775651693344116,1.386951923370361,jumping
1.2028671875,-1.2528646567456423,-1.5099331460461018,-8.218991516977548,-0.0532913133502006,-2.937013626098633,1.317935585975647,jumping
1.212941650390625,-3.322966610857844,-1.8742466429263351,-7.913625006845593,-0.3143675029277801,-1.508299708366394,1.1261204481124878,jumping
1.22301611328125,-4.300858288300037,-1.4221382504761215,-7.358302323636412,-0.4677623808383941,0.094324842095375,0.9814059138298036,jumping
1.23308984375,-4.05047658328712,-1.0572080830022692,-6.126888305068015,-0.4651029109954834,1.4146437644958496,0.8882193565368652,jumping
1.2431650390625,-2.9240993947297333,-1.2434846878513692,-4.122479743224382,-0.3401623070240021,2.2569305896759038,0.7869476079940796,jumping
1.253239013671875,-1.4645122880861163,-1.652387852564454,-1.7624872266620395,-0.1433133035898208,2.5691142082214355,0.6527873277664185,jumping
1.26331298828125,-0.1312467915445566,-1.6870482470571997,0.6240373229950666,0.1278484314680099,2.431815385818481,0.4834390580654144,jumping
1.273387939453125,0.971463836351782,-1.4103314928263424,2.7066870623826977,0.4532069861888885,1.9985496997833248,0.3117169737815857,jumping
1.2834619140625,1.7550538617908953,-0.9160615364730358,4.510674758690596,0.7581426501274109,1.469546914100647,0.1602296829223632,jumping
1.293535888671875,2.2702713291049004,-0.3323135537683963,5.9540410906344645,0.9729779958724976,0.989039659500122,0.0715832710266113,jumping
1.303611083984375,2.494326752728224,0.3629045068651437,7.07062987562716,1.0717713832855225,0.6034365892410278,0.0691310316324234,jumping
1.313684814453125,2.383924888552725,0.9990846875965594,7.921733494499326,1.0151443481445312,0.2010872662067413,0.0270667392760515,jumping
1.323760009765625,1.3126004557840525,1.211748656372726,8.454251640704273,0.8375386595726013,-0.0760479345917701,-0.0336328297853469,jumping
1.333833740234375,1.445925661037862,1.4722253466814756,8.648578865540028,0.5748029351234436,-0.100894384086132,-0.0240547358989715,jumping
1.34390771484375,1.7808591880463065,1.5151716312214731,8.912423278716206,0.2705117166042328,-0.0027076278347522,0.0787358209490776,jumping
1.35398291015625,1.7800103161320089,1.4714143225595355,8.911259495633841,-0.018580786883831,0.1003396809101104,0.220283031463623,jumping
1.364056884765625,1.7479910837978123,1.758072332829237,8.640670284372568,-0.2500129342079162,0.1363155394792556,0.330530434846878,jumping
1.374130859375,1.283793609625101,2.0208280739858746,7.9321070044755935,-0.3596630096435547,0.1506643742322921,0.3692878782749176,jumping
1.3842060546875,0.7197597966939211,2.09287302723825,7.101176405060291,-0.338647186756134,0.185156837105751,0.3563121557235718,jumping
1.39427978515625,0.3448408807776868,2.216061307750642,6.547994825533032,-0.2494421899318695,0.1789354532957077,0.3097817599773407,jumping
1.404353759765625,0.0400074180765077,2.3524647514060137,6.238545430001616,-0.1379928886890411,0.0949643850326538,0.2488339841365814,jumping
1.4144287109375,-0.0655816755224019,2.4207041748955844,5.996856734532117,-0.0260942168533802,-0.0412902720272541,0.2009425312280655,jumping
1.424502685546875,-0.030419615117833,2.547771342667937,5.75348753862977,0.0966205149888992,-0.1431212872266769,0.1742004007101059,jumping
1.434576904296875,0.0590370396519079,2.6926997458234427,5.573568193852901,0.2063548117876052,-0.1249539330601692,0.1429083198308944,jumping
1.444651611328125,0.0237577826084569,2.825243006919324,5.443668140742182,0.309946745634079,0.0087005300447344,0.1178788617253303,jumping
1.45472607421875,-0.2163735638838261,2.961875875416398,5.133800227537751,0.4413611590862274,0.2238580584526062,0.0909215807914733,jumping
1.4647998046875,-0.7379147543266416,2.9301360445454714,4.64718458532989,0.5839108228683472,0.4795017838478088,0.0509752333164215,jumping
1.474875,-1.0771551847487688,2.914560289750993,4.482321939909458,0.7104673981666565,0.6499416828155518,-0.026894636452198,jumping
1.484948974609375,-1.3349321145795283,2.8584695692166684,4.545235784462094,0.7677128911018372,0.6616215109825134,-0.1240134611725807,jumping
1.49502392578125,-1.4229980821758508,2.600706229519844,4.642239530143142,0.7418322563171387,0.5619892477989197,-0.2087848782539367,jumping
1.505097900390625,-1.3875731330513954,2.227154948695004,4.442622966727615,0.6318559646606445,0.424414575099945,-0.29655522108078,jumping
1.515171875,-1.3368728733837605,1.7199667663186788,3.86714421519637,0.4277329444885254,0.3212794065475464,-0.4220087230205536,jumping
1.525246826171875,-1.340344056625664,1.3546499376147985,2.5859739398121837,0.2425436675548553,0.4398263096809387,-0.5124483704566956,jumping
1.535321044921875,-1.2203470464352515,1.2417846059352158,0.289613060683012,0.1542459577322006,0.7617954611778259,-0.446064680814743,jumping
1.545394775390625,-0.7231338762369006,1.0407119984924793,-2.110877470484376,0.1418369561433792,1.1595308780670166,-0.2178956866264343,jumping
1.555469970703125,-0.1130815134472213,0.3922755627781152,-4.397815272229909,0.2195964902639389,1.3341636657714844,0.1469106078147888,jumping
1.565543701171875,0.5725731662828475,-0.2397626958429813,-6.589056903761625,0.4972278475761413,1.1474313735961914,0.6614589095115662,jumping
1.575617919921875,0.7550072703596205,-0.6446551636099815,-8.982202332863212,0.9916858077049256,0.7989962100982666,1.196321964263916,jumping
1.58569287109375,0.0319099450071342,-1.0320072985112667,-10.7719025606215,1.521446943283081,0.4505383670330047,1.4717726707458496,jumping
1.595766845703125,-1.4198792195029557,-1.683852665886283,-10.952828452092408,1.796857476234436,0.2616156637668609,1.3231836557388306,jumping
1.6058408203125,-2.696177651067078,-3.518960892122984,-9.626093526363372,1.641598343849182,0.0884628072381019,0.8393551707267761,jumping
1.615916015625,-2.659738848724961,-5.804107134276628,-7.92521256878674,1.0614477396011353,-0.4081337451934814,0.2900941073894501,jumping
1.62598974609375,-2.2014090975418688,-7.33814508627057,-6.3664581086874,0.1251827329397201,-1.1887919902801514,-0.2275146842002868,jumping
1.63606494140625,-1.843886868236959,-8.467425010532141,-6.073654143008589,-0.9499836564064026,-1.6882108449935913,-0.7654897570610046,jumping
1.646138671875,-1.9348254686601456,-8.196694929495454,-7.200320085379481,-1.7495684623718262,-1.705643892288208,-1.162907361984253,jumping
1.656212890625,-2.19481422932148,-5.57398028178513,-9.199594791465998,-2.013571262359619,-1.3430341482162476,-1.2720805406570437,jumping
1.666287841796875,-2.061136265107244,-1.920888567113876,-11.262521008729934,-1.7504708766937256,-0.8419644236564636,-1.0961121320724487,jumping
1.67636181640625,-1.2887018399327992,0.8946692043542861,-11.686879224467276,-1.2090293169021606,-0.4942817091941833,-0.7020809054374695,jumping
1.68643603515625,-0.2788128314609639,2.047522896426916,-10.170873772770166,-0.704883337020874,-0.2967939376831054,-0.253161758184433,jumping
1.6965107421875,0.1159303087407723,1.3978911134481429,-7.583863475647568,-0.506652295589447,-0.1664673388004303,0.0493149496614933,jumping
1.7065849609375,-0.5021258574854582,-0.2682370951771736,-4.224477059409022,-0.6463958024978638,-0.0519527420401573,0.0974630340933799,jumping
1.716658935546875,-1.561898311083019,-1.7654770561277866,-1.0515408510208129,-0.9727144837379456,0.1731557846069336,-0.061850156635046,jumping
1.72673388671875,-2.251204225063324,-2.6442756143942474,1.3008926284641027,-1.344181776046753,0.4808731377124786,-0.3099353313446045,jumping
1.73680810546875,-2.0791069522142407,-2.713167072051764,2.951398320543766,-1.6112185716629028,0.7636293768882751,-0.5089908838272095,jumping
1.7468818359375,-1.108912624341622,-2.0685013870477675,3.987330099022388,-1.7257933616638184,0.874601423740387,-0.5684627294540405,jumping
1.75695703125,0.2302882170656695,-1.2651494071707128,4.687760925868154,-1.7276097536087036,0.7905140519142151,-0.5088509917259216,jumping
1.767031005859375,1.4084630686059594,-0.612898673865199,5.559938312429189,-1.671702861785889,0.5229222774505615,-0.3805036842823028,jumping
1.777105224609375,2.1808850726902484,-0.1652303096890449,6.361323083886504,-1.5886296033859253,0.0708003416657447,-0.2461649030447006,jumping
1.78717919921875,2.4390843195863066,-0.1330380588755011,6.3523442431390285,-1.426072120666504,-0.4027149975299835,-0.1334295719861984,jumping
1.7972529296875,2.1627543727159497,-0.3053431292563676,5.4849915002554654,-1.136502385139465,-0.5936058759689331,-0.0732323750853538,jumping
1.807328125,1.482872412902117,-0.2162201999530196,4.448491566500067,-0.7853728532791138,-0.4806913435459137,-0.0960231721401214,jumping
1.817402099609375,0.8294296933330595,0.1526250951379537,3.918002880296111,-0.4480348229408264,-0.2479612082242965,-0.1536978781223297,jumping
1.82747607421875,0.5642893585948273,0.2967617633938789,3.900017141750455,-0.1967605352401733,-0.0182089675217866,-0.1942857801914215,jumping
1.83755126953125,0.6370723803307861,0.0621919600188732,4.505852453100681,-0.0593463703989982,0.1173399090766906,-0.1891065686941146,jumping
1.847625,0.7763384468756616,-0.1483291515097022,5.3706572650671,-0.0090890591964125,0.1606258600950241,-0.1534641534090042,jumping
1.85769921875,0.9768144766647368,-0.0896606894418597,6.164659525057673,-0.0570881702005863,0.0703139081597328,-0.0800076350569725,jumping
1.867774169921875,1.419445650391281,0.3303478066533803,6.759649617266654,-0.1870847791433334,-0.006904175505042,-0.0184153728187084,jumping
1.87784814453125,1.4677404563523828,-0.2915574727490544,6.8560068817377084,-0.3140429556369781,-0.0517720133066177,0.0345454365015029,jumping
1.88792236328125,1.414288121497631,-0.655193508759141,6.647189943778515,-0.4124539494514465,-0.150228276848793,0.0528304353356361,jumping
1.8979970703125,1.0266855920318514,-0.0853963099956512,6.565109626463055,-0.5105434656143188,-0.2386728823184967,0.0431884005665779,jumping
1.9080712890625,0.4052314904630184,0.1464604350283742,6.507878503721952,-0.5750553607940674,-0.4146782457828522,0.0038894666358828,jumping
1.918145263671875,-0.3469132666049525,0.3976321213752031,5.899643730014562,-0.5318756699562073,-0.5845946073532104,-0.067932441830635,jumping
1.92822021484375,-0.8294224598746747,0.7865498981580138,5.033714882454276,-0.3098495304584503,-0.5590106844902039,-0.1617686599493026,jumping
1.938294189453125,-1.0710520455680788,0.9398916171327232,4.0193887865841385,0.0576778836548328,-0.2805207371711731,-0.2684330344200134,jumping
1.948369384765625,-1.2616434448763727,1.0230787266463042,3.5365035630762574,0.4563666880130768,0.1065875813364982,-0.3979111313819885,jumping
1.958443115234375,-1.3770457476876676,1.2936319898113608,3.7425919528543945,0.7752214074134827,0.5247904658317566,-0.5788664221763611,jumping
1.968517333984375,-1.5088760382086035,1.42101333809942,4.195943623363972,0.9580458402633668,0.7732335925102234,-0.7501540184020996,jumping
1.978592041015625,-1.4338833410665393,1.2344710680514572,4.428928787896037,0.9950966238975524,0.712497353553772,-0.8590198755264282,jumping
1.988666259765625,-1.2348425317123533,0.9180278681099414,4.451503607797623,0.906969666481018,0.3471502065658569,-0.9106047749519348,jumping
1.998739990234375,-1.0814608460534365,0.6211667359948158,4.208499738076329,0.7248122096061707,-0.1610090434551239,-0.9471055269241332,jumping
2.008815185546875,-0.8317521449312567,0.3197954329788685,3.5903017887592314,0.4566188454627991,-0.6415748596191406,-0.9841448068618774,jumping
2.01888916015625,-0.5747313672300428,-0.0808618814364075,2.2170734074026344,0.1552304923534393,-0.777538537979126,-1.0299341678619385,jumping
2.028963134765625,-0.4315672338007018,-0.557987518504262,-0.5203033922761678,-0.0343636646866798,-0.3596254289150238,-1.04207444190979,jumping
2.0390380859375,-0.5560073044724763,-0.7628288308307528,-4.50604008462727,0.0465137623250484,0.4565800428390503,-0.9384334683418274,jumping
2.0491123046875,-0.4380766522273421,-0.0672720397621393,-8.691205124345421,0.4318563938140869,1.4097226858139038,-0.5843352675437927,jumping
2.05918603515625,0.5600556665478273,0.9498296583011746,-11.387774697339534,1.0155457258224487,2.190357446670532,0.0984141677618026,jumping
2.06926123046875,2.648806535822153,1.0447618584051728,-12.210890239089728,1.5087685585021973,2.1398775577545166,0.8920841217041016,jumping
2.0793349609375,4.37176926908642,-0.4631333520725369,-11.826118183809518,1.7284876108169556,0.9368309378623962,1.4874073266983032,jumping
2.0894091796875,4.723775657579303,-2.785638434022665,-10.908153444063664,1.737127661705017,-0.6395193934440613,1.678003191947937,jumping
2.099484130859375,3.797378312791884,-4.676040677458047,-10.630712467211485,1.6227009296417236,-1.655192494392395,1.4354381561279297,jumping
2.10955810546875,1.6806383800148963,-5.502473380932211,-10.573365024614333,1.3217296600341797,-2.372671127319336,0.9339439272880554,jumping
2.119633056640625,-0.9043472063470632,-5.526447546237707,-10.1194440297842,0.7094521522521973,-3.169394016265869,0.4393384456634521,jumping
2.12970703125,-1.8355469099149109,-6.322103418654203,-9.89333342719674,-0.2255171090364456,-3.747519016265869,0.0305341817438602,jumping
2.13978125,-1.8689175568580627,-6.545146450364589,-9.941455945330858,-1.2700347900390625,-3.79188084602356,-0.1568959057331085,jumping
2.149856201171875,-2.140409854438901,-4.127711798658967,-9.359406583237648,-2.147877693176269,-3.4704926013946533,0.0504343882203102,jumping
2.15993017578125,-2.2953742061793805,-0.5578124541983008,-8.062325622016191,-2.7336950302124023,-3.170205593109131,0.5820629000663757,jumping
2.170004150390625,-2.149695423047989,1.7384437955126166,-7.025423537200689,-2.9804775714874268,-3.0369043350219727,1.1969542503356934,jumping
2.180079345703125,-2.1634145901903508,2.4087211838960645,-6.073648882311582,-2.986280918121338,-3.0700957775115967,1.5761598348617554,jumping
2.190153076171875,-3.109402186110616,1.7757567503407596,-5.4214335125803945,-2.890509605407715,-2.940854549407959,1.464477777481079,jumping
2.200227294921875,-5.275439818280935,-0.0348059404432773,-6.1012400690704585,-2.7069196701049805,-2.1162264347076416,0.8376249670982361,jumping
2.21030224609375,-7.183553074973821,-1.7903820725426076,-7.312009359017014,-2.396815061569214,-0.6496878266334534,-0.0088503872975707,jumping
2.220376220703125,-7.1876856447339055,-2.211870578062534,-7.260912208986282,-1.9591721296310425,0.9640961289405824,-0.7144462466239929,jumping
2.230449951171875,-5.557561646425723,-1.3910975077852603,-5.500153413552045,-1.357956051826477,2.3537628650665283,-1.1207908391952517,jumping
2.240525146484375,-3.111599403893948,-0.5946323648124933,-3.054463558220863,-0.6729183793067932,3.233682155609131,-1.2284530401229858,jumping
2.25059912109375,-1.0512501975111663,-0.0354968453168869,-0.1216816753417253,-0.0231384932994842,3.472507238388061,-1.0976295471191406,jumping
2.260673095703125,0.6850925340689719,0.3232566793486476,2.894412696996331,0.5185131430625916,3.1335623264312744,-0.862763524055481,jumping
2.270748046875,2.1396651735514403,0.406789533559978,5.623620803266763,0.956167697906494,2.449977397918701,-0.6284040212631226,jumping
2.280822265625,3.135844787356257,0.4221162820294499,7.846556380701065,1.2449580430984497,1.617658019065857,-0.5027721524238586,jumping
2.29089697265625,3.2388331604048606,0.3325403482615947,9.330813525959847,1.437568187713623,0.814799964427948,-0.5509706139564514,jumping
2.30097119140625,2.5706448532551525,-0.1240770460456609,9.595759178376197,1.4440202713012695,0.1873645484447479,-0.7019113898277283,jumping
2.311044921875,2.0875448179528115,0.2422124270826578,10.044779541683196,1.1615350246429443,-0.3838403522968292,-0.8631740212440491,jumping
2.3211201171875,2.0190303769141438,0.1386757725015282,10.343220051944256,0.6486964225769043,-0.9379335641860962,-0.9222646951675416,jumping
2.331194091796875,2.319348809876293,-0.2706134689196944,10.229096829158069,0.0444280542433261,-1.299939751625061,-0.8627433180809021,jumping
2.34126806640625,2.533403210097551,-0.1832435207635164,9.816706114590168,-0.5272355675697327,-1.3418017625808716,-0.734345018863678,jumping
2.351343017578125,2.5397286137267945,0.3767114984214306,8.969794686710834,-0.7980891466140747,-0.8816227316856384,-0.5338305830955505,jumping
2.3614169921875,2.334261862978339,1.0059440519720315,6.607989567768573,-0.7833561897277832,0.0332162827253341,-0.3420337736606598,jumping
2.3714912109375,1.2841836318559945,1.3288535253182052,5.37157204182446,-0.6220355033874512,0.6286641955375671,-0.2469610571861267,jumping
2.381566162109375,0.5371037204295397,1.8682675685167311,4.803335516506433,-0.3913416564464569,0.7679056525230408,-0.2763250768184662,jumping
2.39164013671875,-0.0346542570129036,2.0610902340084314,4.748133269244432,-0.1067157611250877,0.6500536203384399,-0.393375813961029,jumping
2.40171435546875,-0.3203868960659951,1.886752196495235,4.751048279908299,0.2214306145906448,0.5398151874542236,-0.5268868207931519,jumping
2.4117890625,-0.18941234559156,1.751348869793117,4.892050157269836,0.5643205642700195,0.4634130895137787,-0.6259731650352478,jumping
2.42186328125,-0.0141262135732918,1.845593672154844,5.345244591391086,0.8573813438415527,0.3552910089492798,-0.6875426769256592,jumping
2.431937255859375,0.0994991061607375,2.054766876205802,5.932973752686381,1.065130352973938,0.2269697785377502,-0.7137580513954163,jumping
2.44201220703125,0.1895797745803371,2.3195021007418632,6.567377571395039,1.204446792602539,0.1598969101905822,-0.7046587467193604,jumping
2.452086181640625,0.2554048669371754,2.6818314380675554,7.032352459681034,1.3078690767288208,0.2061706632375717,-0.6595543622970581,jumping
2.46216015625,0.2625526563325897,3.030918139721453,7.253516253516078,1.3531012535095217,0.3052389621734619,-0.5936669111251831,jumping
2.472235107421875,0.2424997561240568,3.2531340729579328,7.514746684801578,1.3346242904663086,0.3651459515094757,-0.5425786972045898,jumping
2.482309326171875,0.1573719974040985,3.306383432586491,7.786091682866215,1.2524213790893557,0.4087832570075989,-0.5316686630249023,jumping
2.492384033203125,-0.0449156118515878,3.2317259587481617,7.976682059261202,1.1070226430892944,0.4774094521999359,-0.5537718534469604,jumping
2.502458251953125,-0.27119974437505,3.154050306132436,8.056327842906118,0.9360468983650208,0.5307656526565552,-0.5669514536857605,jumping
2.512531982421875,-0.4303565793693065,3.1873981567218896,7.935435856637358,0.7752111554145813,0.5243019461631775,-0.580666720867157,jumping
2.522607177734375,-0.6422725062571466,3.1890622905418278,7.365687173190713,0.6527720093727112,0.5091415643692017,-0.6111560463905334,jumping
2.53268115234375,-0.8233398520253599,3.0835218949228524,6.519608104482293,0.5788437724113464,0.5042493343353271,-0.6490117907524109,jumping
2.5427548828125,-0.9131340316537768,2.95950330106616,5.64125115250349,0.5392063856124878,0.46456378698349,-0.6883861422538757,jumping
2.552830078125,-1.0281835024394097,2.7204829480230805,4.785833762085438,0.47003373503685,0.3808481097221374,-0.7159730195999146,jumping
2.562904052734375,-1.1323146888475863,2.211018929669261,3.815992704629898,0.3743388950824737,0.2505433857440948,-0.7070780396461487,jumping
2.572978271484375,-1.1048267432674763,1.5403352985724803,2.162616425549984,0.3111498057842254,0.0593475848436355,-0.6199095845222473,jumping
2.58305322265625,-0.6317139220375567,0.845651490946114,-0.2181681191504001,0.3354115486145019,-0.0299100279808044,-0.4770433008670807,jumping
2.593127197265625,0.0297658821831457,0.1062657872840762,-2.647810510522127,0.4106168150901794,-0.0142343956977128,-0.2765240669250488,jumping
2.603201171875,0.9693731476828455,-0.858900556358695,-4.863723641973734,0.5338315963745117,-0.251623123884201,-0.0150983147323131,jumping
2.6132763671875,1.6086347816862163,-2.061379864604771,-7.017773314708471,0.6209545135498047,-0.8719396591186523,0.1186152771115303,jumping
2.62335009765625,0.9548442715927958,-3.797119369594753,-8.84318958349228,0.514345109462738,-1.4985322952270508,-0.0812937393784523,jumping
2.63342431640625,-0.3662170654792338,-5.998688626134396,-10.381141494059564,0.1229445859789848,-1.7730692625045776,-0.5208476781845093,jumping
2.6434990234375,-1.0313136902239173,-7.676342437380552,-12.239817058366537,-0.4473673403263092,-1.604324221611023,-0.8234965801239014,jumping
2.6535732421875,-0.6033275663129984,-8.187009986305236,-14.325088378429411,-0.9665870666503906,-1.1368632316589355,-0.7334351539611816,jumping
2.663648193359375,-0.1688310010621324,-7.160893499398231,-15.92987452186346,-1.368289828300476,-0.7197017669677734,-0.2624736428260803,jumping
2.67372216796875,-0.1585853917818516,-5.89459462993145,-16.418516116940975,-1.7496533393859863,-0.4183214008808136,0.2574087083339691,jumping
2.683796142578125,-0.2138351314473897,-6.612506752932071,-15.830773511642215,-2.249516725540161,-0.3951125741004944,0.4282935559749603,jumping
2.693871337890625,0.1550404857166111,-7.633491722169518,-14.956443330961465,-2.4515838623046875,-0.645745575428009,0.4482664763927459,jumping
2.703945068359375,1.1959622545022517,-7.279505265775322,-14.441576576781271,-2.0906903743743896,-1.0695250034332275,0.6002874970436096,jumping
2.714019287109375,2.047286311192065,-6.058722531336546,-13.4294231487751,-1.2653950452804563,-1.7349467277526855,0.8233983516693115,jumping
2.724093994140625,2.0807269546315075,-4.72216676107794,-11.239971323269604,-0.2800487875938415,-2.583559274673462,0.9772269129753112,jumping
2.734168212890625,1.5099259856529532,-3.753668350403011,-8.436087622982264,0.564664363861084,-3.262744188308716,0.9911230206489564,jumping
2.744241943359375,0.5334774927563966,-2.9978043901488185,-5.582118580055236,1.0048012733459473,-3.418570041656494,0.9117770791053772,jumping
2.754317138671875,-0.3524770747445523,-2.1667180156499146,-2.960116464528441,1.0110429525375366,-3.052119016647339,0.8295050859451294,jumping
2.76439111328125,-0.9741226802974938,-1.4437965400546788,-1.0564917514264582,0.7322332859039307,-2.2654149532318115,0.7673560976982117,jumping
2.774465087890625,-1.4323986554667352,-1.1811571187540888,0.0204693720549345,0.3636973202228546,-1.167815089225769,0.7171089053153992,jumping
2.784540283203125,-1.5258977540276943,-0.8982906097218394,0.6202268247961997,0.034147810190916,-0.0224111452698707,0.6707436442375183,jumping
2.7946142578125,-1.4198304119251668,-0.5568123372450471,1.6469617358624935,-0.2081556320190429,0.8578664064407349,0.5760003924369812,jumping
2.804689208984375,-1.1708521439693866,-0.3584174245789647,3.0335043568223714,-0.3148620426654815,1.396109104156494,0.4351323544979095,jumping
2.81476318359375,-0.6177389535032213,-0.1229369360998272,4.182497866335511,-0.2613274455070495,1.6152422428131104,0.2960865795612335,jumping
2.824837158203125,0.2514808984264731,0.0063549219846725,4.952943894171715,-0.0852545499801635,1.4683963060379028,0.1590395122766494,jumping
2.834912109375,1.052438822773844,-0.0194762693643569,5.5637885581165545,0.1209833100438118,0.9472705125808716,0.0160618387162685,jumping
2.844986328125,1.660327413392067,0.1413634041503071,6.097138478970527,0.2834829092025757,0.2456928640604019,-0.1536058038473129,jumping
2.855060302734375,2.031827460775524,0.6592685031130909,6.505170998328924,0.3375259041786194,-0.3180943429470062,-0.3426724076271057,jumping
2.86513525390625,2.0981433688566087,1.3802917438715696,6.728395231825113,0.2850162386894226,-0.4714704751968384,-0.4939602017402649,jumping
2.875209228515625,2.1639232703648505,2.1536162497535347,6.705390788334608,0.1372821778059005,-0.280375599861145,-0.5385785102844238,jumping
2.885283447265625,2.283117366674542,2.844827997355163,6.63751844459176,-0.0677295476198196,0.0133996047079563,-0.4846301972866058,jumping
2.8953583984375,2.450939300291985,3.305609817865491,6.45706075515449,-0.258851557970047,0.2768645286560058,-0.3478510677814483,jumping
2.905432373046875,2.6438983055144547,3.476123913176357,6.097212713250517,-0.3678703606128692,0.4727574288845062,-0.1664841473102569,jumping
2.91550634765625,2.6323756255030637,3.4855978439643978,5.913620232918858,-0.379241794347763,0.5559647083282471,0.0016904701478779,jumping
2.92558154296875,2.4427384581796825,3.390015363258123,5.8981339099735015,-0.3077160716056824,0.492199182510376,0.1056308299303054,jumping
2.9356552734375,2.212515744098276,3.230466606336832,5.980295475831627,-0.1855094730854034,0.436976671218872,0.1268895119428634,jumping
2.945729248046875,2.2159771365985272,3.09468830884248,5.936566808742285,-0.0162345729768276,0.3631446361541748,0.1304475665092468,jumping
2.95580419921875,2.04115569948256,2.9493773361101745,5.92116933312416,0.1677653491497039,0.2798968851566314,0.1280856132507324,jumping
2.965878173828125,1.8198950211443008,2.856385164158046,5.941006837016344,0.3338988125324249,0.1946039795875549,0.1120809167623519,jumping
2.9759521484375,1.5176425513796508,2.848198350571096,6.051070555278659,0.4556657373905182,0.1200637072324752,0.0756201073527336,jumping
2.98602734375,1.2373545145332812,2.865928945311904,6.100893447589874,0.5476776957511902,0.1102555841207504,0.0276124775409698,jumping
2.996101318359375,1.0193155747205018,2.8860628018021584,6.029871699905395,0.606706440448761,0.175421267747879,-0.022625658661127,jumping
3.00617626953125,0.7774749035596847,2.9003683905303475,5.962601413708925,0.6120494604110718,0.3511176109313965,-0.0732441768050193,jumping
3.016250244140625,0.6403172805361449,2.948009554888308,5.87411590552628,0.5652539730072021,0.6879920363426208,-0.1274395138025283,jumping
3.026323974609375,0.5381938537538051,3.0988325690403578,5.766695395249128,0.5001419186592102,0.9790903329849244,-0.1837418377399444,jumping
3.036399169921875,0.3422276295393705,3.171450938266516,5.878402789065241,0.4436911344528198,1.1852014064788818,-0.2246698290109634,jumping
3.04647314453125,0.4431054401747882,3.1693861146911977,6.057313249060512,0.3816501796245575,1.330367922782898,-0.2452617138624191,jumping
3.056547119140625,0.7613623384747654,3.028045799155533,6.020773616692424,0.2936641275882721,1.363833785057068,-0.2607714235782623,jumping
3.0666220703125,0.8395401684589684,2.785822558417916,5.984983341386914,0.1696208864450454,1.3440836668014526,-0.2702150046825409,jumping
3.0766962890625,0.7363602914262563,2.703228738622367,5.658244372880459,0.055447980761528,1.2943307161331177,-0.2489920109510421,jumping
3.086770263671875,0.5382124123238027,2.6157936162754893,4.774231002575159,-0.024176400154829,1.215505838394165,-0.2102262377738952,jumping
3.09684521484375,0.5106820158414542,2.32789028211981,3.388806571990252,-0.0616169832646846,1.250540256500244,-0.1782547235488891,jumping
3.106919189453125,0.5810539578476921,1.9603122304856777,1.8306389718681573,-0.1136322095990181,1.448610544204712,-0.1552063673734665,jumping
3.116993408203125,0.5484151688430458,1.6212454030647874,0.5716781902045012,-0.1933621913194656,1.7886215448379517,-0.1356427818536758,jumping
3.127068359375,0.107482542662695,1.269789341931045,-1.0839496671944857,-0.2505635619163513,2.08044695854187,-0.0547284111380577,jumping
3.137142333984375,-0.1591776585865765,1.066684644138813,-2.6802216647833585,-0.2888044118881225,1.9169727563858032,0.1690676659345626,jumping
3.14721630859375,0.8526995828267186,0.9776382872030138,-4.514073168957233,-0.2403885126113891,1.260237216949463,0.5255587697029114,jumping
3.15729150390625,2.6155992627471685,0.2758516618341207,-7.498828984701633,0.0888916552066803,0.8138399720191956,0.9743006229400636,jumping
3.167365234375,3.625399697886407,-0.8004913297489284,-10.460270560353994,0.6256213188171387,0.8081279397010803,1.380814552307129,jumping
3.177439453125,2.917630783237517,-1.4843027379661795,-11.0856318254292,0.9453324675559998,0.4168861508369446,1.5600581169128418,jumping
3.18751416015625,1.584578783316165,-2.7765757143840197,-9.957337405073645,0.8933531045913696,-0.398598313331604,1.5065879821777344,jumping
3.19758837890625,1.3867721919320524,-5.140036491578817,-9.51141793039143,0.6537325382232666,-1.0349129438400269,1.3354135751724243,jumping
3.207663330078125,1.3913487060673535,-6.972666929525136,-10.067047487592696,0.394298791885376,-1.4036405086517334,1.09681499004364,jumping
3.2177373046875,0.3641666722880676,-7.016950307887792,-10.868541564643383,0.153080552816391,-1.7940175533294678,0.8504717946052551,jumping
3.227811279296875,-0.5515381597017869,-6.4781292621463535,-11.262448528015613,-0.2239370346069336,-2.242666959762573,0.597856342792511,jumping
3.23788623046875,-0.0147512136038392,-6.153011757361888,-11.187952382218835,-0.7707378268241882,-2.6018757820129395,0.3962374329566955,jumping
3.247960205078125,0.8298439001571386,-4.861509765316546,-10.98887708607316,-1.0733702182769775,-2.7502307891845703,0.5335304737091064,jumping
3.258034423828125,1.0356761962823569,-2.1658391869887708,-11.26620232759118,-0.9297826290130616,-2.5422675609588623,1.0365862846374512,jumping
3.268109130859375,0.6922111339025199,0.4170438010707497,-11.191871016967296,-0.4523631334304809,-2.2935142517089844,1.7231756448745728,jumping
3.278183349609375,-0.0022474866658449,1.8214421044558289,-9.517546642404794,0.0324349887669086,-2.1045260429382324,2.3202524185180664,jumping
3.288257080078125,-0.8086779972054063,1.2001827217414975,-6.8459326469689605,0.1927478909492492,-1.804330825805664,2.515355110168457,jumping
3.298332275390625,-2.161470324254781,-0.8473316991180181,-3.959392290782928,0.0012929803924635,-1.4163516759872437,2.284616708755493,jumping
3.30840625,-3.625910277757048,-2.7109996648848056,-1.951594671022892,-0.3818517029285431,-0.9355162978172302,1.78995680809021,jumping
3.318480224609375,-4.597002212056517,-3.875038183316588,-1.0894541098296642,-0.8446725606918335,-0.3082001507282257,1.181646704673767,jumping
3.32855517578125,-4.684028461341559,-4.3985815804272885,-0.8740268138200045,-1.2441779375076294,0.3912955820560455,0.6494154334068298,jumping
3.338629150390625,-3.730843939654529,-4.154592791321873,-0.9441372918784616,-1.446015238761902,0.9773052930831908,0.3285833597183227,jumping
3.348703369140625,-2.43024298761338,-3.276755187042057,-0.9810252992928028,-1.4132078886032104,1.313519835472107,0.1893997490406036,jumping
3.358778564453125,-1.4247140923134982,-2.200861108270288,-0.9169307205229996,-1.161566138267517,1.4916785955429075,0.141096144914627,jumping
3.368852294921875,-0.8844929705157876,-1.3067580133661627,-0.5649988585710525,-0.7513881325721741,1.5755650997161863,0.1155024170875549,jumping
3.378927490234375,-0.7078660914130509,-0.6388268958479165,0.251501648953557,-0.2616378664970398,1.5660247802734375,0.0556521378457546,jumping
3.38900146484375,-0.7441235458388924,-0.3311924407839774,1.484132642096281,0.2440877556800842,1.4700288772583008,-0.0835806205868721,jumping
3.3990751953125,-0.9020030543737112,-0.4305158615842461,3.011727993822097,0.6258441805839539,1.2777694463729858,-0.325021743774414,jumping
3.409150390625,-1.036421753952652,-0.6777715435311198,4.860944824910163,0.8134589195251465,1.013442039489746,-0.6343525052070618,jumping
3.41922412109375,-1.036418539082259,-0.8840233071774244,6.512533636051416,0.7660336494445801,0.7425087690353394,-0.968093752861023,jumping
3.42929833984375,-0.950680283781141,-0.8618722656458616,7.747936431995034,0.5080937147140503,0.5008298754692078,-1.2694538831710815,jumping
3.439373291015625,-0.8376727671518921,-0.6155053492322564,8.590019124543666,0.1048117354512214,0.3348858952522278,-1.5005193948745728,jumping
3.449447265625,-0.5645774182885885,-0.1435404559284448,8.994638036066293,-0.3627060651779175,0.3289980292320251,-1.6449742317199707,jumping
3.459521240234375,-0.2274012269198894,0.4217217297539115,8.976576309674977,-0.8103775978088379,0.4619371592998504,-1.6929758787155151,jumping
3.46959619140625,0.2818838546704501,0.9499234740644692,8.622599790152908,-1.1655645370483398,0.6494428515434265,-1.6315568685531616,jumping
3.479670166015625,0.7960438488207757,1.4315478838562965,8.102820129489897,-1.3991533517837524,0.8183785676956177,-1.504282832145691,jumping
3.489744140625,1.1399742636900394,1.7741367479234933,7.514738501495122,-1.469605803489685,0.9650418758392334,-1.3328226804733276,jumping
3.499819091796875,1.356411394329369,1.8818012960895896,6.795039495077729,-1.3938202857971191,1.0682345628738403,-1.1309388875961304,jumping
3.509893310546875,1.4325766423821449,1.832950755941868,6.297258900254964,-1.2303084135055542,1.054598093032837,-0.9472792148590088,jumping
3.51996728515625,1.3384661339245736,1.7007687293738123,6.026667350906133,-1.021549105644226,0.9314935207366944,-0.8240635395050049,jumping
3.530042236328125,1.1144205010429025,1.542251653587818,5.872320838803053,-0.8127468824386597,0.7596009969711304,-0.7467728853225708,jumping
3.540116455078125,0.8899515281826257,1.4530010062515737,5.826997595998645,-0.595826268196106,0.6184923648834229,-0.700141191482544,jumping
3.550191162109375,0.6926235140956938,1.490639539772272,5.809238067424297,-0.3687852919101715,0.525519847869873,-0.6826776266098022,jumping
3.560265380859375,0.4818544922206551,1.526398543156683,5.881196803697943,-0.1406501233577728,0.4625241160392761,-0.6760674118995667,jumping
3.57033935546875,0.291041303387843,1.610869993392378,5.945357433441281,0.0863961279392242,0.4469702243804931,-0.6778213381767273,jumping
3.580414306640625,0.1083768063549883,1.7311393177181482,5.988064356267452,0.314859926700592,0.502194881439209,-0.6850252151489258,jumping
3.590488525390625,-0.2470626253264956,1.808921645578742,5.654261440724135,0.5319220423698425,0.7079169750213623,-0.7029392123222351,jumping
3.600562255859375,-0.7061456973612308,1.839574557995796,5.380846650648117,0.6579055190086365,1.0138039588928225,-0.6944647431373596,jumping
3.610637451171875,-0.8970952624574303,1.9561130252301693,5.358426729047298,0.651674211025238,1.1646159887313845,-0.6410247683525085,jumping
3.620711181640625,-0.9568892944891004,1.769180002298951,5.212140773802996,0.5213026404380798,1.1562392711639404,-0.5508842468261719,jumping
3.630785400390625,-0.7554584481932223,1.3197273850545286,4.669006541037559,0.2419161200523376,1.0253733396530151,-0.5061020851135254,jumping
3.6408603515625,-0.3376278806589544,0.6957394541591405,3.92193963522315,-0.1756158620119094,0.852341890335083,-0.6376752853393555,jumping
3.650934326171875,0.0545117807798087,-0.155496558921039,2.435371290412545,-0.623644232749939,0.813872754573822,-0.90707665681839,jumping
3.66100830078125,0.7797601649526507,-0.4376946671724319,0.2282961299329996,-0.9025217294692992,1.0398715734481812,-1.1519719362258911,jumping
3.67108349609375,1.727440317069739,0.0186933022931218,-2.519479898685217,-0.9249535202980042,1.4260879755020142,-1.1712499856948853,jumping
3.6811572265625,2.592294959527254,0.8659405379980802,-5.188405093428492,-0.688340425491333,1.615861892700195,-0.818901002407074,jumping
3.691231201171875,3.83803327152431,1.7111761416196822,-7.643303506609797,-0.1139459833502769,1.5973857641220093,-0.0338303446769714,jumping
3.70130615234375,5.454743661507964,2.0926514934420584,-10.127482374811173,0.8580290079116821,1.3952151536941528,1.045059084892273,jumping
3.711380126953125,6.346631126189232,1.8112649938344956,-11.85431435072422,1.913086175918579,0.7922924160957336,1.9660981893539429,jumping
3.7214541015625,5.513915396922826,0.5579609227582812,-11.948637479019164,2.779487133026123,-0.0602576211094856,2.405600070953369,jumping
3.731529296875,3.5665649393409486,-1.48853584549129,-10.835131462472676,3.3095037937164307,-0.9025306701660156,2.290458917617798,jumping
3.741603271484375,1.3171952362284065,-3.924670229230821,-9.31644773147702,3.3662805557250977,-1.4685810804367063,1.733118176460266,jumping
3.75167822265625,-0.1860415539842098,-6.328042745575308,-7.589353305235504,2.950363874435425,-1.8351413011550903,0.941966712474823,jumping
3.761752197265625,-0.7434425778374075,-8.03927441677451,-5.468523765057325,2.00716495513916,-2.132175207138061,0.1427427381277084,jumping
3.771826416015625,-0.7425050047263503,-8.723893341982365,-2.8715713351130483,0.4789674282073974,-2.8203749656677246,-0.4972649216651916,jumping
3.781901123046875,0.4395900524649769,-8.112852278682588,-1.1012591139137744,-1.124519109725952,-3.7542238235473633,-0.7264477610588074,jumping
3.791975341796875,1.6055902994237838,-5.908650043290853,-2.5604712497651576,-2.01254677772522,-4.14565372467041,-0.3955395519733429,jumping
3.80204931640625,1.2118202603042123,-1.9271297995910048,-6.894316446387768,-1.978880763053894,-3.999863624572754,0.215294525027275,jumping
3.812124267578125,-0.406778135383129,2.26772602853626,-10.589293246108292,-1.3032830953598022,-3.662930965423584,0.8044617176055908,jumping
3.822198486328125,-1.895082071814686,4.858077452780306,-11.7047024659276,-0.3859519958496094,-3.2100532054901123,1.266553521156311,jumping
3.8322724609375,-2.822809642292559,5.1406993394017215,-10.615440079277754,0.3887441158294678,-2.638453483581543,1.4908555746078491,jumping
3.842347412109375,-4.057499029269814,3.728929630465805,-8.366132627746463,0.7942836284637451,-1.9899221658706665,1.421455144882202,jumping
3.85242138671875,-5.312743420758843,2.0595906431004405,-5.330751955658197,0.819087028503418,-1.246843695640564,1.1482951641082764,jumping
3.862495361328125,-5.910695869904756,0.7560857863113284,-2.201482455039024,0.5222143530845642,-0.4338134229183197,0.8003016710281372,jumping
3.872570556640625,-5.4248348454564805,-0.2214586851283908,0.5112748671680688,0.0612133145332336,0.3546336889266968,0.4296800494194031,jumping
3.882644287109375,-4.223862726902961,-1.061456680357456,2.566446817043424,-0.3388805687427521,1.0216351747512815,0.0753581896424293,jumping
3.892718505859375,-2.72445652782917,-1.5878221491515636,4.063733539745211,-0.6346883177757263,1.4127602577209473,-0.2527878582477569,jumping
3.90279345703125,-1.479054315918684,-1.4568462835028766,5.4661102741748095,-0.8409544229507446,1.4343552589416504,-0.4817446172237396,jumping
3.912867431640625,-0.1786795738488435,-1.079573644067347,6.510683039748669,-0.9786909222602844,1.1743735074996948,-0.6254227161407471,jumping
3.92294140625,0.9841809868447482,-0.7344856566607951,7.01492026336491,-1.0158369541168213,0.7933252453804016,-0.7017691731452942,jumping
3.933016357421875,1.8317289590619503,-0.4526549204170703,6.996911143943667,-0.936629593372345,0.4357217848300934,-0.7618361711502075,jumping
3.94309033203125,2.034533797124773,-0.2293649282082915,6.436090447840094,-0.7666221857070923,0.2015058100223541,-0.8575248718261719,jumping
3.95316552734375,1.6939758543632923,0.0353843248531222,5.731671428140998,-0.5123934745788574,0.2316569089889526,-0.9957438111305236,jumping
3.9632392578125,1.3791304450072348,0.2650891525402665,5.196142409682274,-0.2294206321239471,0.4404407441616058,-1.1044821739196775,jumping
3.973313232421875,1.4375252047002314,0.4555956500440836,5.303091210794449,-0.0002575321123003,0.554948091506958,-1.142395257949829,jumping
3.98338818359375,1.6415801889546215,0.6237003461256623,5.829222870832681,0.1474669575691223,0.5198260545730591,-1.096963882446289,jumping
3.99346142578125,1.9219158643350005,0.7003828960508107,6.479228747820854,0.2016483098268509,0.3877565860748291,-0.9867873191833496,jumping
4.003535400390625,2.2112848871290685,0.7731798367142677,7.252707859742641,0.1429359912872314,0.2156000137329101,-0.8479511737823486,jumping
4.0136103515625,2.3485766579262912,0.8781459395766258,7.927298142889142,-0.0109316296875476,0.0229189526289701,-0.6978959441184998,jumping
4.0236845703125,2.3803619353741405,0.9137705029264092,8.2824372764498,-0.2047423720359802,-0.1689745932817459,-0.5620971322059631,jumping
4.03375830078125,2.279647644737363,0.738864894658327,8.321063651964067,-0.3901100158691406,-0.3038833141326904,-0.4736447930335998,jumping
4.04383349609375,1.9242913612946864,0.509862662282586,8.210462173563242,-0.5787787437438965,-0.3332161605358124,-0.472620815038681,jumping
4.0539072265625,1.3492656142279504,0.3077434683963656,7.971009274321794,-0.7604560852050781,-0.2683982253074646,-0.5515310764312744,jumping
4.063982421875,0.7289949502900243,0.220247848033905,7.676635282847285,-0.920456886291504,-0.1194806545972824,-0.671329140663147,jumping
4.074056396484375,0.2256438618585467,0.2684945770695805,7.244494742670655,-1.001989245414734,0.1064638644456863,-0.7931612133979797,jumping
4.08413037109375,-0.0607199147049337,0.408454836423695,6.642837009266018,-0.9686102271080016,0.3888108730316162,-0.8809645771980286,jumping
4.094205322265625,-0.1315744891289621,0.545508560681343,5.885135896712542,-0.8172309398651123,0.644446849822998,-0.9265209436416626,jumping
4.104279541015625,0.0047198681287467,0.6295858970329166,5.398212211468816,-0.6100606918334961,0.8282451629638672,-0.9357240200042723,jumping
4.114353271484375,0.2517222329016775,0.7793968115329742,5.348678072971105,-0.4290910363197326,0.8093275427818298,-0.9260570406913756,jumping
4.124428466796875,0.4760042683551088,0.9191337835252285,5.6479135330021375,-0.3173104524612427,0.5962658524513245,-0.8948829174041748,jumping
4.134502197265625,0.7508141295187175,0.9803986918270589,5.914572419077158,-0.2638000845909118,0.2778050601482391,-0.8341605067253113,jumping
4.144576416015625,0.8883620670340955,0.9435761508643626,5.802130865767598,-0.2687538266181946,-0.0859854072332382,-0.744451642036438,jumping
4.1546513671875,0.8840425233345478,0.9534791207194327,5.177604882472753,-0.3072690665721893,-0.458402156829834,-0.615290105342865,jumping
4.164725341796875,0.6932524596489965,0.9831395149677992,3.713149000748992,-0.3522338569164276,-0.818025529384613,-0.496010810136795,jumping
4.174799560546875,0.0666950435917824,0.5953405130818485,1.0549626421630385,-0.3723379373550415,-0.9900278449058532,-0.4581108391284942,jumping
4.184874267578125,-0.6337579950857907,-0.0605544219449162,-2.8628876779198644,-0.2040506601333618,-0.6028971672058105,-0.5437136292457581,jumping
4.194948486328125,-1.177525484253466,-0.4841019058212638,-7.871660426819324,0.2673375308513641,0.4636502563953399,-0.6941559910774231,jumping
4.205022216796875,-1.2437065139085053,-0.0824888981163501,-11.728860755628348,0.9244768023490906,1.7073808908462524,-0.7728090286254883,jumping
4.215097412109375,-0.0574754346246831,0.5267912929907441,-13.49628076251745,1.5385810136795044,2.4969284534454346,-0.5763410329818726,jumping
4.22517138671875,2.496860070598125,0.8981456482931971,-13.3390478813231,1.9828002452850344,2.656712055206299,0.0034887897782027,jumping
4.235245361328125,4.764385608126223,0.3964952262997627,-11.96268938524723,2.0806868076324463,2.131239652633667,0.7539471983909607,jumping
4.245320556640625,5.749468950638175,-1.3842238226234913,-10.437353795146942,1.7857204675674438,1.020917296409607,1.3184760808944702,jumping
4.25539453125,4.805190788984299,-3.622828386093676,-9.978533337837456,1.3316270112991333,-0.3403895199298858,1.4880417585372925,jumping
4.265469482421875,2.3048051746085285,-5.181139486339688,-11.382480098062754,0.9691957831382751,-1.256825566291809,1.321837067604065,jumping
4.27554345703125,-0.0565247965360758,-6.161001002550125,-14.165880982291698,0.780194103717804,-1.6705421209335327,0.9444032907485962,jumping
4.2856171875,-2.094277194947749,-6.409720327308774,-17.073415611189603,0.7925636768341064,-1.6963545083999634,0.5122351050376892,jumping
4.2956923828125,-3.4707544950976965,-5.795065749686956,-19.05165162090063,0.7964993119239807,-1.4988046884536743,0.0957537442445755,jumping
4.305766357421875,-3.731574007494747,-5.004769942998886,-19.188229836601018,0.6079903841018677,-1.2670923471450806,-0.1709557026624679,jumping
4.31584033203125,-3.3301942240238187,-3.80624375629276,-17.929429213935137,0.44760662317276,-0.9516470432281494,-0.187537744641304,jumping
4.325915283203125,-3.096098467901349,-2.043199480269849,-16.22445017338991,0.4716211557388305,-0.6069812774658203,-0.0455662310123443,jumping
4.3359892578125,-2.711113062131405,0.0296639013797044,-13.429607857692242,0.6792747378349304,-0.4981056451797485,0.1262846291065216,jumping
4.346064208984375,-1.631178037405759,1.3366840728133915,-9.645074705687165,1.0096817016601562,-0.8293831944465637,0.2527040839195251,jumping
4.356138427734375,-0.4306030284110456,1.7867364095166325,-5.417129677906632,1.362173557281494,-1.640231728553772,0.277346521615982,jumping
4.366212158203125,0.2005141698423773,1.6101073384568094,-1.5252128405034542,1.5881750583648682,-2.428644180297852,0.1962891966104507,jumping
4.376287353515625,0.2338378358386456,1.1147416958212852,1.2486013002127407,1.4977542161941528,-2.6753530502319336,0.0201443675905466,jumping
4.386361328125,-0.1240571723014116,0.8979095014497637,3.1906922298312184,1.08305561542511,-2.363269090652466,-0.1341232359409332,jumping
4.396435302734375,-0.4564806161850691,0.8668196589201689,4.531750864467025,0.46634641289711,-1.705663561820984,-0.1924477666616439,jumping
4.40651025390625,-0.3205617411762476,0.7037690313577651,5.368023409432173,-0.2040383219718933,-0.8709130883216858,-0.1406311690807342,jumping
4.416584228515625,0.0318267785020172,0.6185542154088616,5.872969073578715,-0.7889934182167053,-0.0045915972441434,-0.0429388880729675,jumping
4.426658447265625,0.467327588891983,0.881853269661963,6.2806999796420335,-1.2121286392211914,0.7235589623451233,0.0154706258326768,jumping
4.4367333984375,0.9443268231011926,1.016122623898089,6.621545799434185,-1.4377658367156982,1.0692194700241089,-0.0076620187610387,jumping
4.446807373046875,1.2630993427731096,0.7303431500285863,6.836724673640728,-1.457142949104309,1.059207558631897,-0.1189094483852386,jumping
4.45688232421875,1.3891418436728418,0.4959472419157624,7.137858076247572,-1.323233723640442,0.8776489496231079,-0.3264061212539673,jumping
4.466956298828125,1.233218729902804,0.2273962584838271,7.458729614025354,-1.1096452474594116,0.5799152255058289,-0.6019005179405212,jumping
4.477030517578125,0.8422694472923874,0.1756470742851495,7.70471337634027,-0.8541020154953003,0.1667250841856002,-0.8975857496261597,jumping
4.48710546875,0.5461188015341758,0.4493269450381398,7.696578000679612,-0.5620080828666687,-0.1874843835830688,-1.168107509613037,jumping
4.497179443359375,0.4818270927570759,0.8256237251788378,7.58516579041779,-0.2885107696056366,-0.458510011434555,-1.3970364332199097,jumping
4.50725341796875,0.8862995815463364,1.6423200475364923,7.548855875152349,-0.0320478342473506,-0.5210519433021545,-1.491215467453003,jumping
4.51732861328125,1.642065634384006,2.1275506651267406,7.546998264586925,0.1351357698440551,-0.3723296523094177,-1.4062974452972412,jumping
4.52740234375,2.440146980381757,2.361345392476022,7.777506225350499,0.1753556281328201,-0.1348752677440643,-1.1655442714691162,jumping
4.5374765625,2.921136745531857,2.4868562707170843,8.24403652638495,0.1479580402374267,0.1202634871006012,-0.8540193438529968,jumping
4.54755126953125,3.11705036277622,2.514507955491543,8.561015148377418,0.1073653325438499,0.3336271643638611,-0.5479267835617065,jumping
4.55762548828125,2.873877273967862,2.332465627211332,8.807336179822682,0.0577389821410179,0.4136043488979339,-0.3304049372673034,jumping
4.56769921875,2.3454228700704878,2.16905844129622,9.012776334825158,-0.012693372555077,0.3616546094417572,-0.2393282651901245,jumping
4.5777744140625,1.7120599387168882,2.178619465845823,9.121827661174535,-0.1156202778220176,0.2292502373456955,-0.2290067374706268,jumping
4.587848388671875,1.0851867347087711,2.424410920459032,9.08334332447946,-0.2216721475124359,-0.0037124389782547,-0.2589931190013885,jumping
4.59792236328125,0.5840799911379814,2.67068811276257,8.957057370212674,-0.3148033916950226,-0.2478252053260803,-0.3349301517009735,jumping
4.607997314453125,0.2404101269010454,2.665836873339116,8.750113824909924,-0.3578075766563415,-0.3632897734642029,-0.438864529132843,jumping
4.618071533203125,-0.034745880819112,2.6227698850288985,8.421231414633988,-0.3768152892589569,-0.4128189086914062,-0.5456036329269409,jumping
4.628146240234375,-0.228751326354593,2.7906024861708283,8.127054407036304,-0.3690846562385559,-0.3928731381893158,-0.6183843612670898,jumping
4.638220458984375,-0.3767353176884352,2.9435435153901577,7.748607463124394,-0.349362313747406,-0.3809168636798858,-0.6563982963562012,jumping
4.648294189453125,-0.3774727651175111,3.1269606391549107,7.33667326015234,-0.2503792643547058,-0.3115550875663757,-0.6663457155227661,jumping
4.658369384765625,-0.0442176196500659,3.164984372600913,6.446871369573474,0.0311991591006517,0.0495509281754493,-0.6141822934150696,jumping
4.668443359375,0.1444148276101797,3.0309339218124745,5.437302697363496,0.3138678669929504,0.3163645267486572,-0.5711389780044556,jumping
4.678517333984375,-0.0759971249442547,3.2451199855893846,5.190690574017167,0.4678651988506317,0.2330374419689178,-0.5883693695068359,jumping
4.68859228515625,-0.4685699901685118,3.4086814852833744,5.162935721129179,0.5098574161529541,0.0760864466428756,-0.665930449962616,jumping
4.698666259765625,-0.9491614036507904,3.224760211388767,4.884478845232725,0.4790193438529968,0.0559353940188884,-0.7974869608879089,jumping
4.708740478515625,-1.5409915705241262,2.8015999732643366,4.142217293873429,0.4151263833045959,0.2054606974124908,-0.9363543391227722,jumping
4.7188154296875,-2.1989453377768395,2.4847207199931143,3.0218215178132057,0.3214626610279083,0.4081970155239105,-1.0631812810897827,jumping
4.728889404296875,-2.2174366877570746,2.325298219799995,1.7607810072660446,0.2800332009792328,0.6172276735305786,-1.1164748668670654,jumping
4.73896337890625,-0.9664892628096045,1.8643799134284256,-0.2333054825276136,0.4452149271965027,0.758955717086792,-1.0261739492416382,jumping
4.74903857421875,1.4366260639034212,0.9177353149041532,-3.1366514275640247,0.8403915166854858,0.5531080365180969,-0.7820035219192505,jumping
4.7591123046875,4.124298483084142,-0.0065752867370843,-6.20899667943418,1.3279966115951538,-0.0015141197945922,-0.3836902379989624,jumping
4.7691865234375,5.738806686848402,-0.823635181710124,-9.204509451514484,1.840230941772461,-0.4985441267490387,0.1748961061239242,jumping
4.77926123046875,5.146161111938953,-1.7946940905228257,-11.742853040623665,2.1430587768554688,-0.7655913829803467,0.6175222992897034,jumping
4.78933544921875,2.387618920765072,-3.3917028779536484,-12.86301909958124,2.165008544921875,-0.8797901272773743,0.7380985021591187,jumping
4.7994091796875,-0.6153341573838145,-5.745974678781629,-13.377645030742883,2.037454843521118,-0.960451066493988,0.5568443536758423,jumping
4.809484375,-2.3921534954547883,-7.83274646653533,-13.453133694708349,1.6612122058868408,-1.3253859281539917,0.225270926952362,jumping
4.819558349609375,-2.442377223651856,-9.774996386107802,-12.618990562987326,0.8682313561439514,-1.889368176460266,-0.0978525280952453,jumping
4.82963330078125,-2.119497853183001,-11.045492707264422,-12.357819168412684,-0.1949089616537094,-1.945863962173462,-0.3049631118774414,jumping
4.839707275390625,-2.962474718092382,-10.72982516787052,-13.34657652326226,-1.2575664520263672,-1.2880357503890991,-0.3802419900894165,jumping
4.849781494140625,-4.60160356837213,-8.433238663291931,-14.473631757211685,-2.1340465545654297,-0.3224582076072693,-0.4385761320590973,jumping
4.859856201171875,-5.801991165035963,-5.300647909295559,-14.378013328409194,-2.704613447189331,0.5436109304428101,-0.6152843236923218,jumping
4.869930419921875,-5.306026679724455,-2.798764165316522,-13.026785766458511,-2.8947644233703613,1.0176525115966797,-0.8167220950126648,jumping
4.880004150390625,-3.1327412683829663,-1.46574533701241,-11.078866569077968,-2.7978105545043945,0.990409255027771,-0.934085726737976,jumping
4.890079345703125,-0.9654046824432908,-0.7610375634998082,-8.712142113912105,-2.651613473892212,0.6744449138641357,-0.9986252784729004,jumping
4.9001533203125,-0.1500247764464467,-0.3594824234619736,-6.340802273905277,-2.6210949420928955,0.3431309461593628,-1.0570892095565796,jumping
4.910227294921875,-0.6685458153504877,-0.0989902433231472,-4.4189258647978304,-2.920267105102539,0.0369342565536499,-1.1506025791168213,jumping
4.92030224609375,-1.703964602805674,-0.4488277633443474,-3.23024565706253,-3.445408821105957,0.2196415960788726,-1.3120254278182983,jumping
4.930376220703125,-2.466233461666107,-0.866647809484601,-4.063905389180779,-3.7091104984283447,1.0710829496383667,-1.3834195137023926,jumping
4.940450439453125,-2.03239926931411,0.0948141266822815,-5.651017344236373,-3.538923978805542,1.954921007156372,-1.2895877361297607,jumping
4.950525634765625,-0.4907018886081874,0.8241836093731224,-6.915101460263132,-2.9574670791625977,2.556227922439575,-1.0800225734710691,jumping
4.960599365234375,1.0523163654379546,0.6069724986866116,-7.011710069146752,-2.071272850036621,2.7093422412872314,-0.8911018371582031,jumping
4.970673583984375,1.900446813718229,0.3080138097703456,-5.656396699187159,-0.9921908974647522,2.2246553897857666,-0.7852856516838074,jumping
4.98074853515625,2.371182019096613,-0.0066446987114846,-3.343819429272413,0.1610914170742035,1.188037633895874,-0.7312270998954773,jumping
4.990822509765625,2.7316595910757777,-0.2583870245531201,-0.9563999766021968,1.2826499938964844,-0.0201338306069374,-0.6690148711204529,jumping
5.0008974609375,2.9540777688860893,-0.1054521328136324,0.9074901074826716,2.23246169090271,-1.0360071659088137,-0.6036046147346497,jumping
5.010971435546875,3.0261180459633468,0.4663436924211681,2.5173376259595157,2.921635150909424,-1.704029202461243,-0.5189437866210938,jumping
5.02104541015625,2.975209988763928,1.104674767576158,4.057210859978198,3.2757680416107178,-1.8491047620773315,-0.3987535238265991,jumping
5.03112060546875,2.6758891885370013,1.6747595511093736,5.673018163642287,3.241180658340454,-1.378062725067139,-0.2825537025928497,jumping
5.0411943359375,2.1862489378109573,2.044540081223845,7.372365920302271,2.865675210952759,-0.5959468483924866,-0.2707954347133636,jumping
5.051268310546875,0.4550711512459441,1.937621967510879,9.143094905608892,2.331569194793701,0.1940836459398269,-0.475872129201889,jumping
5.06134326171875,-1.0938013452537356,1.8503271304175255,10.19507180995941,1.832963228225708,0.9884777069091796,-0.6300303936004639,jumping
5.071417236328125,-0.5306435845047235,1.899905984839797,10.794101532948016,1.3508293628692627,1.5849778652191162,-0.5960034728050232,jumping
5.0814912109375,0.0043793475953862,1.4834823614940047,11.13412025426626,0.9388015866279602,1.7482011318206787,-0.5056397914886475,jumping
5.09156640625,0.3375088573891669,1.948731975068152,11.28266830922365,0.6544153690338135,1.5473103523254397,-0.4168865084648132,jumping
5.101640380859375,0.6254286312229931,2.878659539808333,11.10965216796398,0.4701833724975586,1.0643465518951416,-0.2978768050670624,jumping
5.111714111328125,1.163585294771567,3.32332901442945,10.63338840842247,0.3796057999134063,0.4815872311592102,-0.1520392000675201,jumping
5.121789306640625,1.8263596871137615,3.381145243582129,9.9522672622025,0.3693251609802246,0.027594931423664,0.0079847201704978,jumping
5.13186328125,2.138695013345033,3.32686332603544,9.26059724943936,0.4004662930965423,-0.2077731192111969,0.1611955761909485,jumping
5.1419375,1.880078710080683,3.460974567100405,8.780728743404149,0.4441657960414886,-0.2113426178693771,0.2962821424007416,jumping
5.15201220703125,1.3650332383327186,3.73688497338444,8.599291395279765,0.4524088203907013,-0.1143851801753044,0.3918169140815735,jumping
5.16208642578125,0.775592450813949,3.838132932506501,8.60659324272573,0.4351670145988464,0.0063346507959067,0.4438602924346924,jumping
5.172160400390625,0.0608311930596828,3.8867759673833846,8.527054426586627,0.4630995988845825,0.1116189956665039,0.4353581666946411,jumping
5.182235595703125,-0.7034152494840323,4.161456831872463,8.282681022077798,0.5763095617294312,0.2083743959665298,0.3910844027996063,jumping
5.192309326171875,-1.118626428300142,4.348790252298117,8.014873550489545,0.7392686605453491,0.3217589855194092,0.3271869122982025,jumping
5.202384521484375,-1.2304194545730949,4.21467112018764,7.789180881053209,0.8806955218315125,0.4361452162265777,0.259027898311615,jumping
5.212458251953125,-1.3555831268116831,4.157036969603598,7.711383940145373,0.9873953461647034,0.5063769817352295,0.191851794719696,jumping
5.222532470703125,-1.5579145021438598,4.306504185232519,7.780518851169943,1.0427217483520508,0.5319289565086365,0.1280409544706344,jumping
5.232607421875,-1.8027486560322343,4.445329010815918,7.945839761751889,0.9816136360168456,0.5051157474517822,0.0526053197681903,jumping
5.242681396484375,-2.0661786431886253,4.48990903403759,8.161516648608446,0.8112279176712036,0.3950429260730743,-0.0112750446423888,jumping
5.25275537109375,-2.176328140038252,4.545234030896425,8.206017469114064,0.5448492765426636,0.2851430475711822,-0.03237846493721,jumping
5.26283056640625,-2.206441100359708,4.453527222579718,7.941565737694502,0.2123354375362396,0.0778843462467193,-0.0097550293430686,jumping
5.272904296875,-2.151155558728427,4.167027910003066,6.942600292563438,0.0336426645517349,0.0735292807221412,0.0788536667823791,jumping
5.282978515625,-1.917991238237172,3.317209654766321,4.640568966582417,-0.0150058511644601,0.4317947328090668,0.15627983212471,jumping
5.29305322265625,-1.8183818401023744,1.7819412841945883,2.3020149593681096,-0.2010612040758133,0.7160443067550659,0.1339590698480606,jumping
5.30312744140625,-1.5962354649707675,-0.0306242708444595,0.5631669669687748,-0.4956240653991699,0.5400863885879517,0.085463136434555,jumping
5.313201171875,-0.4247701575390994,-1.5659434948205948,-2.22096106249094,-0.5879800915718079,0.1495612412691116,0.1928447186946869,jumping
5.3232763671875,1.4769351318076251,-2.742495457866788,-6.03821808796823,-0.405000627040863,-0.5573531985282898,0.3695283234119415,jumping
5.333350341796875,2.9324375994861125,-3.6870690953359007,-9.4074250564754,-0.0593185685575008,-1.3095382452011108,0.4601178765296936,jumping
5.34342431640625,3.187890616413951,-4.826146483251452,-12.401857047581672,0.1930665075778961,-1.6503417491912842,0.359720915555954,jumping
5.353499267578125,2.100998466026783,-5.836192125323414,-15.010321051621435,0.1911745965480804,-1.601721167564392,0.1539682894945144,jumping
5.363573486328125,0.5950303876867518,-5.998992577517032,-16.613290501022338,-0.0683249086141586,-1.53209388256073,0.0001266922336071,jumping
5.373648193359375,0.0421393886039033,-6.063102938377857,-17.154337990641594,-0.5096924304962158,-1.4750971794128418,-0.0428836271166801,jumping
5.383722412109375,0.7831447658896445,-6.360741484606265,-17.65440348153114,-0.8864293694496155,-0.8509622812271118,0.0424671210348606,jumping
5.39379638671875,1.4106205389007924,-6.34189649888277,-18.11518442525864,-1.1952612400054932,0.0659630447626113,0.1549076437950134,jumping
5.403871337890625,1.0954577341586351,-5.175555548727512,-16.63575367724299,-1.3866840600967407,0.7901208996772766,0.2920204102993011,jumping
5.413945556640625,0.997094171366468,-3.907605404922366,-13.495939401733876,-1.3526206016540527,0.7846654057502747,0.4620278179645538,jumping
5.424019287109375,0.9874134659599512,-3.213294522261619,-9.679912794834374,-1.195052981376648,-0.0562190562486648,0.5108899474143982,jumping
5.434094482421875,0.3334794192099943,-2.757930050624907,-5.754991513451934,-1.1066982746124268,-1.2979679107666016,0.3632104396820068,jumping
5.444168212890625,-0.7165484334319829,-2.070844735303521,-2.551656659668684,-1.3476152420043943,-2.282157182693481,0.2394924610853195,jumping
5.454242431640625,-1.3249078564323484,-1.4904872718200086,-1.2432698760569094,-1.9476134777069087,-2.706432819366455,0.2489035278558731,jumping
5.464317626953125,-2.410642361216992,-0.8027215730190277,-2.452322425213456,-2.626285552978516,-2.3888583183288574,0.349997341632843,jumping
5.474391357421875,-4.150360560579598,0.276250305762887,-5.142309112685918,-3.094310522079468,-1.2491769790649414,0.4165619909763336,jumping
5.48446533203125,-5.730500046274066,1.2577771248370408,-8.013117646732926,-3.149064064025879,0.4006891250610351,0.3133687674999237,jumping
5.49454052734375,-6.5371449302166695,1.661384521229565,-9.617999067234992,-2.8083977699279785,1.8224397897720337,0.0453913733363151,jumping
5.5046142578125,-5.749448492372036,1.1954358194753527,-8.962683977922797,-2.203155517578125,2.557107925415039,-0.3203384578227997,jumping
5.5146884765625,-3.6982086212486025,-0.0322039412513375,-6.712440706846118,-1.4653375148773191,2.493626117706299,-0.6807190775871277,jumping
5.52476318359375,-1.4198371339268985,-0.9367112335309384,-3.377822236639261,-0.6531069874763489,1.7953102588653564,-0.9103940725326538,jumping
5.53483740234375,0.709500926073268,-0.794162418988347,-0.0593897620797157,0.0502261221408844,0.8236392140388489,-0.924058735370636,jumping
5.544912353515625,2.385494914348423,-0.1158881866320967,2.6649007615327838,0.538386881351471,-0.0260827243328094,-0.7126006484031677,jumping
5.554986328125,3.516541556021571,0.2275876894026994,4.603745841097831,0.7975995540618896,-0.5386187434196472,-0.3272753357887268,jumping
5.565060302734375,3.748761581400037,0.1207137070924043,5.882108657845855,0.8271227478981018,-0.7006518840789795,0.0540385246276855,jumping
5.57513525390625,2.6619796133890747,-0.0394251246765255,6.558823093539476,0.6932176351547241,-0.578151285648346,0.2647835314273834,jumping
5.585209228515625,0.7834053895872086,-0.184307350602746,6.981965503746271,0.4309351146221161,-0.2339484095573425,0.2283684909343719,jumping
5.595283447265625,-0.9317366599887608,-0.3727899410635232,7.483508081451058,0.1139574497938156,0.1976954042911529,0.0188682544976472,jumping
5.605358154296875,-1.8021026132136584,-0.5760591817677021,7.898925450363754,-0.1861573010683059,0.5867460370063782,-0.2246577143669128,jumping
5.615432373046875,-1.751689207663387,-0.7391019182845949,8.15261204214096,-0.4476458728313446,0.8535476326942444,-0.4389583170413971,jumping
5.62550634765625,-1.1391798984419554,-0.8232160795152187,8.366479833748937,-0.6464473605155945,0.8645294904708862,-0.606255829334259,jumping
5.635581298828125,-0.4073473501058295,-0.7553636095166206,8.453947104799747,-0.7282769680023193,0.6516553163528442,-0.6988829374313354,jumping
5.645655517578125,0.3275918955413624,-0.5236012647777796,8.061203924509883,-0.6764538884162903,0.3460430204868316,-0.7059352993965149,jumping
5.6557294921875,0.9987038715854286,-0.1142860121324658,7.624684146335721,-0.5481840968132019,-0.0089901462197303,-0.6505870819091797,jumping
5.665804443359375,1.3887857237115502,0.2648855927921831,7.153074350079893,-0.3866648375988006,-0.3059151768684387,-0.5424048900604248,jumping
5.67587841796875,1.3859107527971266,0.5434922524228691,6.627087066948413,-0.1945414692163467,-0.4543299674987793,-0.4100436270236969,jumping
5.685952392578125,1.0609393784850836,0.7407042389146983,5.973566459837556,0.024524575099349,-0.4363259375095367,-0.3071723580360412,jumping
5.696027587890625,0.5144701926106586,0.908204100970924,5.586443457517028,0.2093016058206558,-0.3291797637939453,-0.2536889016628265,jumping
5.706101318359375,-0.1320669488210231,1.011529597019404,5.587159496831894,0.3389346599578857,-0.1875430643558502,-0.2718243896961212,jumping
5.716175537109375,-0.8546184951253235,0.9520645777463912,5.455124769780039,0.436685174703598,0.0332505665719509,-0.3511431813240051,jumping
5.72625048828125,-1.44774790802896,0.8946598520040512,5.373749970385432,0.5385908484458923,0.2539052665233612,-0.4589888751506805,jumping
5.736324462890625,-1.7937053717464209,0.9594128946825862,5.516977122581005,0.6348066329956055,0.433613508939743,-0.5768308043479919,jumping
5.7463994140625,-1.9082187628939744,1.0860329032093283,5.768312182796001,0.7583431005477905,0.51191246509552,-0.6725159287452698,jumping
5.756473388671875,-1.745536091861129,1.195144435313344,5.901292081743478,0.8956181406974792,0.4886285066604614,-0.7267093658447266,jumping
5.76654736328125,-1.522919176608324,1.15265758497864,5.881188620391487,1.0323516130447388,0.3825905919075012,-0.7428215742111206,jumping
5.77662255859375,-1.473918122074008,0.9617699792027472,5.534671184703708,1.1354717016220093,0.1998756378889084,-0.7445963025093079,jumping
5.786696533203125,-1.66464396141693,0.6986728772625327,4.842974868455529,1.131066083908081,0.0589777715504169,-0.7328840494155884,jumping
5.7967705078125,-1.8996705686487256,0.4757943884640931,4.112852083179354,0.9604509472846984,0.0094895800575613,-0.7137487530708313,jumping
5.806845458984375,-1.974538031975925,0.3414920087411999,3.221999806764721,0.6248775720596313,0.0875224173069,-0.6504358649253845,jumping
5.81691943359375,-1.6072024107955396,0.102938980948925,1.4761357981234788,0.2253884673118591,0.3180847764015198,-0.500657856464386,jumping
5.82699365234375,-1.1669674114905295,-0.1495990253150463,-0.8415659751981497,-0.0342771671712398,0.5748926401138306,-0.2171245515346527,jumping
5.837068359375,-0.3905102336060255,-0.0623103257015347,-3.77577876766324,0.0288930162787437,0.7125405073165894,0.1938528567552566,jumping
5.847142578125,0.5112866306710988,0.0801879276975989,-7.537369435498117,0.4138695001602173,0.7296622395515442,0.6601069569587708,jumping
5.857216552734375,1.354883746370673,-0.0030111645147204,-10.706565872836112,1.0012576580047607,0.6598286032676697,1.1143765449523926,jumping
5.86729150390625,2.094272957164049,-0.4010898606136441,-12.354274627673623,1.6848443746566772,0.3249490559101105,1.5154811143875122,jumping
5.87736572265625,2.4762343389376995,-1.2018345806017516,-13.030840010285376,2.399078369140625,-0.1777705401182174,1.782171368598938,jumping
5.887439697265625,2.348082444668561,-2.4990672252535817,-13.666561341333388,3.102536201477051,-0.4711808562278747,1.7925845384597778,jumping
5.8975146484375,1.928282476757467,-3.6561253832787273,-13.501665378165244,3.5217244625091557,-0.5371100306510925,1.6026315689086914,jumping
5.907588623046875,1.9344024209424853,-4.717611581991613,-11.321924799335005,3.288935422897339,-0.712607204914093,1.2935413122177124,jumping
5.91766259765625,3.072799133117497,-6.641327189224958,-8.021766232612729,2.398169994354248,-0.854498565196991,0.9316640496253968,jumping
5.92773779296875,3.790696643070876,-7.943204152551293,-4.510363793045282,1.0618904829025269,-1.0155563354492188,0.6034282445907593,jumping
5.9378115234375,3.095712098932266,-8.020391437128186,-1.774389261379838,-0.4835008680820465,-1.2384719848632812,0.3034140467643738,jumping
5.94788671875,2.1458571600593626,-7.021197443938255,-1.1251631365925072,-1.731392502784729,-1.22036874294281,0.0507949814200401,jumping
5.957960693359375,0.8881444056954234,-3.8162671376571056,-2.125841815382242,-2.313969135284424,-1.0428546667099,-0.0146756395697593,jumping
5.968034423828125,-0.0364350668819155,0.1866656041666865,-3.16721023195684,-2.317270278930664,-0.9807753562927246,0.1340149939060211,jumping
5.978109619140625,-0.8822485525898635,2.927427954630553,-3.386132968866825,-1.9167309999465945,-1.3705968856811523,0.4182155430316925,jumping
5.988183349609375,-2.020377992130816,3.7767815149649975,-3.238799550396204,-1.362761616706848,-1.9001084566116333,0.568021833896637,jumping
5.998257568359375,-3.4837913790643213,2.9291797667339443,-3.1469185545563696,-1.010198712348938,-2.024296283721924,0.3311216533184051,jumping
6.008332763671875,-4.71299152097553,1.637678359210491,-2.4420412696957587,-1.1617976427078247,-1.5809428691864014,-0.2053568810224533,jumping
6.018406494140625,-5.288042110222578,0.5883680437207222,-1.098425351792574,-1.8448278903961184,-0.6846354603767395,-0.826149046421051,jumping
6.02848046875,-5.227001658326387,-0.0598459814146161,-0.0053512979000806,-2.7617108821868896,0.3271020054817199,-1.3438187837600708,jumping
6.038555419921875,-4.221991672334075,0.2092097366690635,0.3742594290941953,-3.410703659057617,1.2481733560562134,-1.5283079147338867,jumping
6.04862939453125,-1.8583745355337855,1.2944061890542506,-0.4457470407247543,-3.497352123260498,1.912199854850769,-1.300336480140686,jumping
6.058703369140625,0.672181760700047,2.1195164117529988,-1.0304407798469066,-3.076568365097046,1.9134485721588133,-0.8468372225761414,jumping
6.0687783203125,2.456224693349004,2.3671472106225786,-0.8161515479564666,-2.28886079788208,1.2721459865570068,-0.3770804703235626,jumping
6.0788525390625,3.3783211260721084,2.11346704858616,-0.2237935578167438,-1.3106842041015625,0.3726888298988342,-0.0316716767847538,jumping
6.088926513671875,3.3247117009595035,1.5529840600043534,0.4849918403983116,-0.2922086715698242,-0.4354620277881622,0.1393765956163406,jumping
6.09900146484375,2.735731955081224,1.0112285682462154,1.1974690788686275,0.5383833646774292,-0.969971776008606,0.1408139020204544,jumping
6.10907568359375,1.7345844897359608,0.6015031273648143,2.144541839677095,1.0607030391693115,-1.1471549272537231,0.0278090257197618,jumping
6.119149658203125,0.7611187389772385,0.3606638883315026,3.098199824094772,1.2563282251358032,-0.9328458905220032,-0.1454706192016601,jumping
6.129224609375,-0.0809453584687784,0.2088219063952565,3.9923032112598418,1.1918268203735352,-0.4041721522808075,-0.3384659588336944,jumping
6.139298583984375,-0.5643199363961815,0.240721896263957,5.09146564515531,0.9728800654411316,0.2247967272996902,-0.4785407781600952,jumping
6.14937353515625,-0.4378230427924543,0.4069049766331911,6.449468984851241,0.6883172988891602,0.6734959483146667,-0.5386249423027039,jumping
6.15944775390625,0.1442720672717783,0.5058943431735038,7.677047370779514,0.40036141872406,0.8262764811515808,-0.5318418741226196,jumping
6.169521484375,0.7407550192538649,0.5427607232779265,8.407697394800186,0.1804678589105606,0.7005437612533569,-0.4905098676681518,jumping
6.1795966796875,1.22575643119812,0.5632444161191582,8.646458220124245,0.0323862545192241,0.3549682199954986,-0.4382778406143188,jumping
6.18967041015625,1.5994960742019115,0.6192667475923895,8.571521929344534,-0.0464856922626495,-0.088922694325447,-0.4033688902854919,jumping
6.19974462890625,1.787846416585147,0.7607458870768546,8.118246831202507,-0.0727101042866706,-0.4788789749145508,-0.376842200756073,jumping
6.209819580078125,1.73505210724771,0.9814461550533772,7.369033561009168,-0.0717901289463043,-0.7079469561576843,-0.3587983846664428,jumping
6.2198935546875,1.364785985573381,1.145574348719418,6.450170995640755,-0.0156448353081941,-0.7071202993392944,-0.3344331383705139,jumping
6.229967529296875,0.87733849565126,1.3427534558549523,5.239315780976415,0.1280688047409057,-0.5245569944381714,-0.2961532175540924,jumping
6.240042724609375,0.3610841230375692,1.6452552242055534,4.2634062172621485,0.3311811983585357,-0.2595061659812927,-0.2697029709815979,jumping
6.250116455078125,-0.2161981159853749,2.0204829138100147,3.826038297826051,0.5337847471237183,-0.0157243106514215,-0.2866547405719757,jumping
6.260190673828125,-0.6605090046934783,2.268690197393298,3.930887496310472,0.7150996327400208,0.1406016498804092,-0.3379615843296051,jumping
6.270265380859375,-0.7576873032238334,2.303181372798979,4.351182700392604,0.8584314584732056,0.1702306121587753,-0.401936411857605,jumping
6.280339599609375,-0.5351805338146165,2.2235785515129565,4.839427989628911,0.9756534695625304,0.0678568482398986,-0.4444343149662018,jumping
6.290413330078125,-0.1303215481921099,2.243150390206277,5.283460043129325,1.0502896308898926,-0.0774881020188331,-0.4640654921531677,jumping
6.300488525390625,0.026879211697774,2.285341180203855,5.640597072508931,1.050346612930298,-0.1423507183790207,-0.4920358657836914,jumping
6.3105625,-0.0894888400062918,2.2946800864353776,5.852268230855465,0.9975254535675048,-0.1551127880811691,-0.5234741568565369,jumping
6.320637451171875,-0.3060044244430028,2.2640175294071434,5.905087966895104,0.8909841179847717,-0.158033475279808,-0.5656532645225525,jumping
6.33071142578125,-0.6178077078904957,2.1314523487403987,5.831179265597462,0.7443885803222656,-0.215764120221138,-0.6206074357032776,jumping
6.34078564453125,-0.9975764749906956,1.877858111421764,5.530747873780131,0.6166495084762573,-0.3758613765239715,-0.7009614109992981,jumping
6.3508603515625,-1.418443195350468,1.6110738454014062,4.426747352203726,0.6129692792892456,-0.6375904679298401,-0.7968213558197021,jumping
6.3609345703125,-1.975980778130144,1.4648548179134726,2.3769085800498724,0.74615877866745,-0.7999516725540161,-0.936490833759308,jumping
6.371008544921875,-2.818338634358346,1.188320142251253,0.2226402961283922,0.839477002620697,-0.3833523690700531,-1.255707621574402,jumping
6.38108349609375,-3.457290033368766,1.0724123741358518,-1.461653683784604,0.7649692296981812,0.6071467399597168,-1.6795539855957031,jumping
6.39115771484375,-2.478938044938445,1.3019412607342005,-2.519376438310742,0.5160108208656311,1.584423542022705,-1.869430661201477,jumping
6.4012314453125,-0.0310738777754828,1.3004504376545547,-3.145029379808902,0.2246863096952438,2.005100965499878,-1.6261218786239624,jumping
6.411306640625,2.993887216705084,0.9544228313103318,-3.84674264768064,0.0936969220638275,1.7088052034378052,-0.9251808524131776,jumping
6.42138037109375,5.548021080142259,0.3729197049230336,-4.879110011675953,0.2088839709758758,0.9795103073120116,-0.0270598959177732,jumping
6.43145458984375,6.987530736657977,-0.3709583417221903,-6.584947130355238,0.6085220575332642,0.3045192658901214,0.7576302289962769,jumping
6.441529541015625,6.6208560636043545,-1.2506889201417564,-8.606540635755657,1.0661567449569702,-0.2564862668514251,1.1999115943908691,jumping
6.451603515625,4.789733692133426,-2.627317173069715,-9.918403571045395,1.276960372924805,-0.752204418182373,1.2980917692184448,jumping
6.461677490234375,3.752222827769816,-5.068563492995501,-10.79017588393688,1.183556318283081,-1.1814109086990356,1.2396225929260254,jumping
6.471752685546875,3.148881671322882,-6.991092228531837,-10.81830541535616,0.685357391834259,-2.182379722595215,1.0889859199523926,jumping
6.481826416015625,0.1304548831150401,-7.070178040206432,-10.198429303693771,-0.3395396471023559,-3.392484664916992,0.7413160800933838,jumping
6.491900634765625,-3.7218566233396526,-6.765096192234754,-11.37782379668951,-1.575594186782837,-3.298438310623169,0.2192123532295227,jumping
6.501975341796875,-7.0839446997523305,-4.889000122049451,-13.890797966742516,-2.621968507766724,-1.780747890472412,-0.2011258155107498,jumping
6.512049560546875,-8.671570449548959,-1.1522858290567994,-15.3639918661952,-3.2391252517700195,0.1727840304374694,-0.2627026438713074,jumping
6.52212451171875,-6.686130207547545,1.8353814902201293,-14.899067831313609,-3.3399546146392822,1.612554907798767,0.0581842996180057,jumping
6.532198486328125,-2.2611662316292525,2.3246558302432296,-12.487436897450683,-3.083351850509644,1.9269508123397827,0.5391731262207031,jumping
6.5422724609375,1.1791147262062878,1.0401815448775886,-8.458280165567993,-2.629540205001831,1.253782033920288,0.8882549405097961,jumping
6.552347412109375,1.6235075027778745,-0.7406304430261254,-4.232394992926716,-2.367499828338623,0.2921007871627807,0.7291749119758606,jumping
6.56242138671875,-0.6830526257392019,-2.425447862291336,-0.3555015371322632,-2.7147738933563232,-0.5685106515884399,-0.0309711750596761,jumping
6.572495849609375,-2.977522357359528,-3.6955548918694254,1.9802607935369012,-3.612865209579468,-1.357334852218628,-1.0332492589950562,jumping
6.5825703125,-3.071355656310916,-3.688760409423709,1.5767325998604296,-4.543537616729736,-1.7298434972763062,-1.7149736881256104,jumping
6.592644775390625,-1.5059166038811207,-2.5530466527223585,-1.8597516691058875,-5.026899814605713,-1.4921704530715942,-1.8469067811965945,jumping
6.602718505859375,-0.3032118163160979,-0.2277165764793753,-5.044040461635589,-5.067481517791748,-1.1354488134384155,-1.5804873704910278,jumping
6.612793701171875,0.4792833996236324,1.9106345918640493,-6.06746113358736,-4.567490100860596,-0.7277106046676636,-1.0116217136383057,jumping
6.62286767578125,1.7151090971544385,1.8303161696545776,-7.23874012466669,-3.3940908908843994,0.0776072368025779,-0.248888611793518,jumping
6.632941650390625,2.635479436737299,0.3905312033288181,-8.971246639084816,-1.7926573753356934,1.0495870113372805,0.3744467198848724,jumping
6.6430166015625,1.4889280596792698,-0.5634613468054682,-8.58557266652882,-0.2659215331077575,1.5266382694244385,0.5896831750869751,jumping
6.653090576171875,-0.6875494987670332,-1.148435729499906,-5.42655041720271,0.9002848267555237,1.4210020303726196,0.4553967714309692,jumping
6.66316455078125,-1.6135772065244611,-2.2286598003000018,-1.3315917181104422,1.6430109739303589,1.0225627422332764,0.1308645009994506,jumping
6.67323974609375,-1.468333746070415,-3.3219553879886865,2.2238655517607926,1.9904862642288208,0.5793513655662537,-0.2758703231811523,jumping
6.6833134765625,-1.0504447994124144,-3.820684661838412,4.831224224907159,2.041184186935425,0.2683543264865875,-0.6883883476257324,jumping
6.693387451171875,-0.7019828055281192,-3.7527433445125817,6.58675330299437,1.8833860158920288,0.1123082190752029,-1.0274730920791626,jumping
6.703462646484375,-0.2055688594160601,-3.3347920732080936,7.86708069781363,1.5919075012207031,0.1491631716489792,-1.1835849285125732,jumping
6.713536376953125,0.5222076915275305,-2.836813325464725,8.82502147411704,1.2108395099639893,0.3053235709667206,-1.1566723585128784,jumping
6.723610595703125,1.1848889256935566,-2.435394963549077,9.527670561534164,0.7593553066253662,0.521342396736145,-0.99567312002182,jumping
6.733685302734375,1.5548188742160796,-2.1197097423680127,9.944649772936105,0.2917126715183258,0.7367792725563049,-0.7732848525047302,jumping
6.743759521484375,1.5598181438080965,-1.8755040956415236,10.215932227158548,-0.1232658699154853,0.8753555417060852,-0.5528882741928101,jumping
6.753834716796875,1.4308793369449675,-1.607490580087155,10.133689997279644,-0.415230393409729,0.9057666659355164,-0.3887116014957428,jumping
6.763908447265625,1.1528535459421574,-1.450478794297576,9.583379004752636,-0.5754429697990417,0.8781387805938721,-0.3008744418621063,jumping
6.773982421875,0.8038939777992665,-1.343250591722131,8.780385629054903,-0.6109212040901184,0.8555946946144104,-0.2505994439125061,jumping
6.7840576171875,0.3922787776485085,-1.1522113025158642,8.064711640369891,-0.5377807021141052,0.8856934905052185,-0.1769204437732696,jumping
6.794131591796875,-0.0214162244509905,-0.8902904047481716,7.493558935344219,-0.3722779154777527,0.939734697341919,-0.0791233479976654,jumping
6.804205810546875,-0.3621555151287466,-0.6611011253677308,7.126735793730616,-0.161514014005661,1.022947072982788,0.0157946441322565,jumping
6.814280517578125,-0.7036841295532882,-0.5740087155112996,6.919184345662593,0.0957942903041839,1.1114362478256226,0.0616017989814281,jumping
6.824354736328125,-1.0537523895904422,-0.6880119286470114,6.801970171123743,0.3698242306709289,1.1799201965332031,0.0305051319301128,jumping
6.8344287109375,-1.4751399189539254,-0.7320723849739879,6.67052931831181,0.6439871788024902,1.195797324180603,-0.0597646087408065,jumping
6.844503662109375,-1.836556525348872,-0.5192926077984273,6.7004656068921085,0.9182560443878174,1.15920090675354,-0.1706959158182144,jumping
6.854577880859375,-1.885802348424494,-0.1122908927924931,6.8892252607285975,1.176266312599182,1.0876647233963013,-0.2393700033426284,jumping
6.86465185546875,-1.553457668865472,0.2765570336245,7.287557054805755,1.3585957288742063,0.977838695049286,-0.2297538518905639,jumping
6.874726806640625,-1.1950475508101284,0.4910759826175868,7.871589115148782,1.453081727027893,0.8380794525146484,-0.1612386107444763,jumping
6.88480078125,-0.9929597749754786,0.6015469665065407,8.328516890579461,1.4922192096710205,0.675665557384491,-0.0544045642018318,jumping
6.894874755859375,-1.073142003584653,0.6384646384067834,8.61013602989912,1.4891945123672483,0.4779128730297088,0.0415620431303978,jumping
6.904949951171875,-1.2970536348231136,0.6014633798763156,8.935768498468398,1.43282151222229,0.2491683661937713,0.0953397899866104,jumping
6.915023681640625,-1.500621858473867,0.4769077565334737,8.960761485427618,1.341000199317932,0.0647976174950599,0.1190611198544502,jumping
6.925098876953125,-1.6977493815526363,0.3101766868926584,8.365860240545869,1.210397481918335,-0.0191806349903345,0.1190256997942924,jumping
6.9351728515625,-1.9115582825802264,0.2133151261612773,7.52634301457107,1.055567741394043,-0.0033282896038144,0.095457449555397,jumping
6.945246826171875,-2.1806012873128053,0.1532639775633812,6.487915327623486,0.8812031745910645,0.0772227421402931,0.021663649007678,jumping
6.95532177734375,-2.4729145468652245,0.0373830974549055,5.2280117121517655,0.6254357695579529,0.184109479188919,-0.1160881966352462,jumping
6.965395751953125,-2.218594479490072,-0.1618755924336612,3.7646477173179385,0.3884607851505279,0.2313646078109741,-0.1739440262317657,jumping
6.9754697265625,-0.7655011187799274,-0.7097488364197313,0.3736328216284513,0.2554152607917785,-0.0598476864397525,-0.0791723653674125,jumping
6.985544921875,1.5847143923945723,-1.073621603795141,-4.510505831864476,0.4053866565227508,-0.5885160565376282,0.1724018007516861,jumping
6.99561865234375,4.38397613196969,-0.8311902732647954,-10.157796849054098,1.0370302200317385,-0.7448136210441589,0.6622751355171204,jumping
7.005692626953125,6.294812676146626,-0.6641035220541059,-15.454793834626674,1.9061089754104612,-0.7835026979446411,1.2338411808013916,jumping
7.015767578125,5.954054534637928,-0.9001590339422225,-18.37657793815136,2.50712513923645,-1.1415085792541504,1.590146541595459,jumping
7.025841552734375,4.3087128011927005,-2.2398022488221523,-18.43817953106165,2.6727755069732666,-1.5750856399536133,1.657020926475525,jumping
7.03591552734375,2.432505379587412,-4.499501330508291,-17.4620478490293,2.3365981578826904,-2.1692073345184326,1.4122967720031738,jumping
7.045990478515625,0.6135982004366815,-6.384934261098504,-16.40024630075693,1.5641567707061768,-2.781635046005249,0.8725143074989319,jumping
7.056064697265625,-0.7995148859322071,-7.386797181236743,-16.50751775795221,0.6608465909957886,-2.398226499557495,0.2238741070032119,jumping
7.066138671875,-1.8692016344964504,-7.624433386445045,-17.478057903587818,-0.2245815098285675,-1.118320107460022,-0.3033257722854614,jumping
7.076213623046875,-2.927725476272404,-6.197253050148487,-17.56339225426316,-0.9175857305526732,0.4077932834625244,-0.5724880695343018,jumping
7.086287841796875,-2.8290768859937785,-3.5980151396155358,-16.320712745314836,-1.1463226079940796,1.560127854347229,-0.520258367061615,jumping
7.09636181640625,-0.6218376209937035,-1.6448127411350606,-13.527385510355233,-0.9174430966377258,1.688886046409607,-0.2809099555015564,jumping
7.106436767578125,1.909475192695856,-0.8916475184455513,-9.1521625936836,-0.4576637744903564,0.6444092392921448,-0.0891402587294578,jumping
7.1165107421875,3.1438463075041767,-0.974135832040012,-4.315356184729933,0.1181474328041076,-0.9614248871803284,-0.0276744477450847,jumping
7.126585693359375,3.0430870086818933,-1.3904618402302265,-0.6063835928827523,0.6157748103141785,-2.490971803665161,-0.0712320506572723,jumping
7.136659912109375,2.1946752592422065,-1.4955232201606037,1.7316835075974464,0.7462345957756042,-3.447377920150757,-0.1786212474107742,jumping
7.146733642578125,0.7841634414128958,-1.5766916833281517,3.102221334695816,0.3189868330955505,-3.499584436416626,-0.3590410947799682,jumping
7.156808837890625,-0.7711762418068945,-1.9808362553372976,3.984219273525476,-0.6518096327781677,-2.905451536178589,-0.5964095592498779,jumping
7.166882568359375,-1.688093372195959,-2.0228513965070247,4.044722549805045,-1.7765121459960938,-1.8519494533538816,-0.7752623558044434,jumping
7.176956787109375,-1.8923259049743413,-1.1572744311243297,3.002206132239103,-2.567343235015869,-0.6472486853599548,-0.7825994491577148,jumping
7.18703173828125,-1.192791953903064,0.0176133981019258,1.668921054214239,-2.9411938190460205,0.202832356095314,-0.6607057452201843,jumping
7.197105712890625,0.2390599544011056,0.7589804848395287,1.1888006192445757,-2.897224187850952,0.5255398750305176,-0.4700413346290588,jumping
7.2071796875,1.9250531394474208,0.740360686174035,0.3702624684125185,-2.290348052978516,0.7508808374404907,-0.1901263147592544,jumping
7.2172548828125,3.336611689850688,0.1879671882845461,-1.3937269795060157,-1.2393505573272705,0.7402737140655518,0.056922223418951,jumping
7.22732861328125,3.3242566506683824,0.4478478123962879,-1.9067209255516528,-0.0601827315986156,0.4098854064941406,0.1056588739156723,jumping
7.23740283203125,2.4220915376007555,0.9486042081594468,-0.8678098390012979,0.997523069381714,0.036334678530693,0.0224414523690938,jumping
7.2474775390625,2.003068837672472,0.7900020844385027,0.995139164841175,1.7254220247268677,-0.2848204374313354,-0.105709321796894,jumping
7.2575517578125,1.70938019811362,0.5490972328230739,3.1274142281413075,2.07778263092041,-0.4642697870731354,-0.2369757890701294,jumping
7.26762548828125,1.289681206358969,0.6624088469654321,5.071527603498101,2.1101949214935303,-0.4652557075023651,-0.3508954346179962,jumping
7.27770068359375,0.8252683358699083,0.8968371960431337,6.570802285146713,1.8532181978225708,-0.2547832727432251,-0.4039275050163269,jumping
7.287774658203125,0.6502561984874308,1.19749216748327,7.763958176991343,1.3547325134277344,0.0943874940276146,-0.3724244236946106,jumping
7.2978486328125,0.847660565746203,1.497657309579849,8.783816188025474,0.7194214463233948,0.4644309282302856,-0.274330735206604,jumping
7.307923583984375,1.062903225903958,1.6107862606316805,9.563327565848828,0.0899167507886886,0.7532991766929626,-0.1586627066135406,jumping
7.317998046875,1.1959344166472554,1.5097250562533735,9.831748200899362,-0.4538125395774841,0.8519096970558167,-0.0633631497621536,jumping
7.32807177734375,1.2877619287341833,1.3589356521099805,9.631873863330483,-0.8467164039611816,0.7729368805885315,0.0017474115593358,jumping
7.33814697265625,1.2340164561517537,1.281089319102466,8.942457766973972,-1.0030206441879272,0.6660651564598083,0.0488232299685478,jumping
7.348220703125,0.8765123470254242,1.40846189956218,7.663357283601164,-0.9381127953529358,0.6050710678100586,0.0750007778406143,jumping
7.3582958984375,0.3521170457931235,1.5959128088876604,6.5757526010304685,-0.752289891242981,0.5299134850502014,0.0596400313079357,jumping
7.368369873046875,-0.0976001406716182,1.6712158871531486,5.85962502335906,-0.5019372701644897,0.4219763576984405,0.0152941392734646,jumping
7.378443603515625,-0.4462311709798872,1.6872522451967,5.316569116526842,-0.2228924930095672,0.376903772354126,-0.0389472879469394,jumping
7.388518798828125,-0.6754902276609093,1.679579518611729,4.8494198068112135,0.0749202817678451,0.4514123499393463,-0.0875081717967987,jumping
7.398592529296875,-0.8867817390400916,1.6802184010371566,4.571422949641943,0.3554572463035583,0.6108383536338806,-0.1480087041854858,jumping
7.408666748046875,-1.1588408767234533,1.77475809469223,4.603274131932855,0.6114922761917114,0.8284383416175842,-0.2307192981243133,jumping
7.41874169921875,-1.3694134992435574,1.914328477945924,4.934833652463555,0.8169848322868347,1.066831111907959,-0.3070741593837738,jumping
7.428815673828125,-1.314208329372108,2.0420663845866915,5.523779203811287,0.99903666973114,1.2438881397247314,-0.3298463225364685,jumping
7.4388896484375,-1.0154176174338907,2.1350243620082736,6.113720195937156,1.1691244840621948,1.3122621774673462,-0.2971455752849579,jumping
7.44896484375,-0.7280789314236491,2.2642153900668025,6.614338644534349,1.3188239336013794,1.2571991682052612,-0.2342561185359954,jumping
7.45903857421875,-0.5053549755997956,2.384190553751588,6.975498938080668,1.4484386444091797,1.0715539455413818,-0.1455451101064682,jumping
7.46911279296875,-0.3680139588333666,2.4502497105926277,7.109908577570319,1.518032193183899,0.7718068957328796,-0.057674903422594,jumping
7.4791875,-0.4196866437297314,2.442161973465979,7.169677109834551,1.5141348838806152,0.4127630591392517,0.0115946903824806,jumping
7.48926171875,-0.7615100763823837,2.2519918683096765,6.866303819346427,1.4017449617385864,0.1347916424274444,0.0347833670675754,jumping
7.499335693359375,-1.1661217544466256,1.859069824321568,6.287234934368729,1.1962138414382937,0.0159314256161451,0.021960325539112,jumping
7.50941064453125,-1.4497384973242875,1.3981655464753509,5.4325189702183,0.9535388946533204,0.0300341937690973,0.006258328910917,jumping
7.51948486328125,-1.606903866240382,0.890553293468058,3.9869975060671567,0.7326439023017883,0.1171622648835182,0.0140277240425348,jumping
7.529558837890625,-1.5318372270792722,0.3482119646459817,1.884025694140792,0.5524661540985107,0.2510319054126739,0.0568428337574005,jumping
7.5396337890625,-0.8685298238389193,-0.1784390430912375,-0.420178299704194,0.4267749786376953,0.2028009593486786,0.2258287072181701,jumping
7.5497080078125,0.3696176677029579,-0.5588432585507631,-2.649286428293585,0.3320338428020477,-0.1256972998380661,0.5436812043190002,jumping
7.55978271484375,1.2557907733254134,-1.221507833842933,-4.9661535043567415,0.3077210187911987,-0.5222856402397156,0.9012807607650756,jumping
7.56985693359375,1.0493098040331157,-2.2615753969520327,-8.066419613331556,0.4323700070381164,-0.6192811727523804,1.104113221168518,jumping
7.5799306640625,-0.2353244941998273,-3.5125571625605225,-11.692062764585016,0.579542338848114,-0.6254262328147888,1.014386534690857,jumping
7.590005859375,-1.4694536900110542,-4.626505369916558,-14.616124165391922,0.6202117204666138,-0.8407548069953918,0.6671895980834961,jumping
7.600079833984375,-1.9515195599600672,-5.250073906356096,-16.767262919116018,0.6027207374572754,-1.0396746397018433,0.2514092326164245,jumping
7.61015380859375,-1.7943917465753851,-5.42330632071495,-17.82718464499116,0.4126536548137665,-1.3777834177017212,-0.0357261374592781,jumping
7.620228759765625,-1.950736300627887,-5.06091736215651,-18.221996448248625,-0.0698841884732246,-1.841395616531372,-0.1920400857925415,jumping
7.630302734375,-2.933447945572436,-4.92147089754343,-19.502724825084208,-0.6134366393089294,-1.5049357414245603,-0.2884164452552795,jumping
7.640376708984375,-4.108621898263692,-4.212949118700624,-20.997868690538404,-1.0585788488388062,-0.3312573730945587,-0.3458043336868286,jumping
7.650451904296875,-4.488549728383124,-2.433397944512963,-20.39967834098339,-1.3773152828216553,0.8287099003791809,-0.3184107840061188,jumping
7.660525634765625,-3.07711991892606,-1.2887775355175135,-17.883248477518556,-1.4667686223983765,1.201678991317749,-0.211891233921051,jumping
7.670599853515625,-0.5153123059906065,-1.2911495253458618,-14.19938928413987,-1.3101495504379272,0.6252321600914001,-0.1409587413072586,jumping
7.6806748046875,1.3327141462691128,-1.455862533162534,-9.876876797914504,-0.9300615787506104,-0.5645098090171814,-0.1413816809654235,jumping
7.690748779296875,2.2131477583915,-1.407397485201061,-6.2561547364503145,-0.3768460750579834,-1.89966881275177,-0.1389763206243515,jumping
7.70082275390625,2.249864500892162,-0.8925684326827525,-3.9299318030208346,0.1460307091474533,-3.0238037109375,-0.0888561531901359,jumping
7.710897705078125,1.6159113485604524,-0.3179024588391184,-2.2239438776940106,0.4359331130981445,-3.687341690063477,-0.0365348905324935,jumping
7.7209716796875,0.6323957668218761,-0.2529465870648622,-0.8123691068083048,0.4231282472610473,-3.8057973384857178,-0.0403424613177776,jumping
7.731045654296875,-0.5993374737635254,-0.4565536814212799,0.1587906320303678,0.1548155844211578,-3.327735185623169,-0.0923715755343437,jumping
7.74112060546875,-1.4509686236411332,-0.743193863773346,0.9734937347441912,-0.2123884111642837,-2.3780479431152344,-0.1697306483983993,jumping
7.75119482421875,-1.333789666546136,-1.0328992789149285,1.640248501959443,-0.4697032868862152,-1.2088855504989624,-0.2348337471485138,jumping
7.76126953125,-0.3186502084665,-1.1304311401233076,2.3054963717430828,-0.5731441378593445,-0.1807157099246978,-0.2782582640647888,jumping
7.77134375,0.9648074472025036,-0.8823495287463069,3.225066208598017,-0.6420094966888428,0.3996483385562897,-0.3181563913822174,jumping
7.78141796875,2.0873313213326035,-0.5249903810486197,4.303227940040826,-0.7420990467071533,0.488115131855011,-0.3422427177429199,jumping
7.791492431640625,3.1677439004421237,-0.5269049824982881,5.209796256503463,-0.8099877834320068,0.3643718659877777,-0.3501525521278381,jumping
7.801566650390625,4.231169250524044,-0.7667445429697632,5.802188733434677,-0.7801843285560608,0.2769158780574798,-0.3238607943058014,jumping
7.811640380859375,5.091327697989344,-0.9232362504079936,6.011150048300624,-0.6613010764122009,0.1992274820804596,-0.3172604143619537,jumping
7.821715576171875,5.4132455299496645,-0.6794996824979782,6.127798990172147,-0.5200209021568298,0.0323303937911987,-0.3318767249584198,jumping
7.83178955078125,5.346560934686661,-0.2355649518921971,6.2640335070014,-0.4059742093086242,-0.2487396150827407,-0.3406459987163543,jumping
7.841863525390625,5.066260476750135,0.2778819986179471,6.302303908684849,-0.3359622657299042,-0.5249085426330566,-0.2953183948993683,jumping
7.8519384765625,4.762353517776727,0.6848442583963275,6.17576251835227,-0.3368475139141083,-0.6519639492034912,-0.2133702784776687,jumping
7.862012451171875,4.385275524130464,0.8830483246654272,5.98062748426497,-0.392566055059433,-0.637958288192749,-0.0990266576409339,jumping
7.87208642578125,4.017878966543078,1.143261687862873,5.729459012788534,-0.4941334128379822,-0.5493919253349304,0.0538965798914432,jumping
7.88216162109375,3.55912105307579,1.3649503823548554,5.440150488010048,-0.5819865465164185,-0.3685848414897918,0.2234464734792709,jumping
7.8922353515625,2.8976147079080343,1.5001631549209355,4.916839730611443,-0.5969149470329285,-0.0873806029558181,0.3676723539829254,jumping
7.9023095703125,2.058585703841597,1.6278019851014016,4.390771783459186,-0.5100011229515076,0.2357872724533081,0.4651149809360504,jumping
7.91238427734375,1.3971056621588769,1.8238950505658984,4.2161838628381485,-0.3375837802886963,0.5079652667045593,0.5090014934539795,jumping
7.92245849609375,0.9244381735436618,1.9684826774597168,4.355947722837328,-0.1260608732700348,0.6588866114616394,0.5082533955574036,jumping
7.932532470703125,0.6035128597520292,2.0262576978191733,4.659703875163197,0.0904344096779823,0.6886705756187439,0.4523784220218658,jumping
7.942607421875,0.2316356496192514,1.9748484130993484,4.801556231874227,0.3148302137851715,0.7216495871543884,0.3441061973571777,jumping
7.952681396484375,-0.1672553857758641,1.9726769142791627,4.960344525817036,0.5629715919494629,0.833376944065094,0.2209983766078949,jumping
7.962755615234375,-0.493353718291223,2.1118542065620423,5.290308886110783,0.7954263687133789,0.9624360799789428,0.0872216820716857,jumping
7.972830322265625,-0.7417473912920802,2.171663363097608,5.828960420504212,0.9800540208816528,1.006192684173584,-0.0514413975179195,jumping
7.98290478515625,-0.9072889588873831,2.161314110779762,6.348185369893908,1.1361491680145264,0.9887253642082214,-0.1867294758558273,jumping
7.992979248046875,-0.8335978458631783,2.1323411142736672,6.556264641228318,1.2925702333450315,0.9979803562164308,-0.2917483150959015,jumping
8.0030537109375,-0.6349803034223616,2.137168388299644,6.520931462040543,1.463060975074768,1.0494712591171265,-0.3746841847896576,jumping
8.01312744140625,-0.3095125969607383,2.2087445549964904,6.6661594326645135,1.5972201824188232,1.1133376359939575,-0.4619106948375702,jumping
8.023201416015626,-0.0171613434854894,2.271243389007449,7.030097374230623,1.619190335273743,1.1446951627731323,-0.5579879879951477,jumping
8.033276611328125,0.3347869581446051,2.431403848086297,7.581477457293867,1.4903154373168943,1.120648741722107,-0.6400279998779297,jumping
8.043350341796875,0.7842837067916989,2.6850390019372106,7.92823337791264,1.2566791772842407,1.1151385307312012,-0.6469009518623352,jumping
8.053424560546874,1.1874708319455385,2.9263632480084896,7.885124888548255,0.9562605023384094,1.176008224487305,-0.5512239336967468,jumping
8.063499755859375,1.440627262368798,3.071835256521404,7.582056718486547,0.5752671957015991,1.2269340753555298,-0.4121935367584228,jumping
8.073573486328126,1.2722322050385175,3.05492679181844,7.17687900403738,0.1355508118867874,1.22922945022583,-0.2842693924903869,jumping
8.0836474609375,0.9211467307828366,2.8669913138464094,6.248225112494826,-0.2345782220363617,1.278537392616272,-0.1794685572385788,jumping
8.093722412109376,0.6148647132411599,2.6600331554964183,4.251659665367007,-0.4085047245025635,1.4692405462265017,-0.0578939206898212,jumping
8.10379638671875,0.5502937491312623,2.344200780929625,1.375171332117915,-0.3756505846977234,1.7755498886108398,0.1043178364634513,jumping
8.113870361328125,0.6638787003222852,1.7835864210531114,-1.5474679269313811,-0.160209372639656,2.137229681015014,0.2908450961112976,jumping
8.1239453125,0.9753593824855984,0.8162669910296797,-3.9839112304896114,0.1430022120475769,2.249139308929444,0.5221289396286011,jumping
8.13401953125,1.8684782886579632,-0.4539329775288701,-5.581769035965204,0.4328987300395965,1.6744569540023804,0.8260629773139954,jumping
8.14409326171875,3.232226601746678,-1.791795154210925,-6.899387758302688,0.7340846657752991,0.4525381326675415,1.1610392332077026,jumping
8.15416845703125,3.392065573786199,-2.8589991460487245,-9.185157100790738,1.137477159500122,-0.6958576440811157,1.3616199493408203,jumping
8.1642421875,1.681101321351528,-3.516233512985706,-12.810271844255924,1.660612940788269,-1.0838608741760254,1.3133529424667358,jumping
8.1743173828125,-0.6090303079992533,-4.165039951056242,-16.802236032819746,2.125363349914551,-0.7639134526252747,1.0315828323364258,jumping
8.184391357421875,-2.293506220350414,-4.699645132668316,-18.81776804622412,2.177142143249512,-0.2720732986927032,0.7409848570823669,jumping
8.194465576171876,-2.36422664700076,-5.166734528890252,-17.878710249567032,1.862254619598389,0.1047014147043228,0.7335996627807617,jumping
8.204540283203125,-0.6011990298517048,-5.584980399227142,-16.13510015733242,1.4292776584625244,0.406422883272171,1.049253225326538,jumping
8.21461474609375,1.3318690737470984,-6.05849047614634,-14.282306052279472,0.7145067453384399,0.3384001553058624,1.4204334020614624,jumping
8.2246884765625,2.4475705545112487,-7.026499057477713,-11.45962295897603,-0.3585289120674133,-0.3244152069091797,1.5941638946533203,jumping
8.234763671875,2.608561034673452,-8.601644095885753,-9.789467394530773,-1.2090836763381958,-0.7463142275810242,1.5043914318084717,jumping
8.24483740234375,0.91848759457618,-9.34738998222947,-10.412464853084089,-1.433877944946289,-0.754000186920166,1.1514700651168823,jumping
8.25491162109375,-1.5140058023124932,-8.039792303168774,-11.419212622654438,-1.1351006031036377,-0.6591024398803711,0.6021350622177124,jumping
8.264986572265625,-3.201240804113448,-6.0212231140255925,-10.704213756752011,-0.5678936243057251,-0.6556921601295471,-0.0301647391170263,jumping
8.275060546875,-3.635954117387533,-4.570286054566503,-7.969495362627506,-0.0612855479121208,-0.8674627542495728,-0.5925966501235962,jumping
8.285134521484375,-3.108170306228101,-3.188371093407273,-4.350234021365642,0.1610700488090515,-1.1312355995178225,-0.939273476600647,jumping
8.295209716796874,-2.018345024998486,-1.4002861918911338,-1.0457669437944888,0.0718799829483032,-1.137677788734436,-0.95614755153656,jumping
8.305283447265625,-0.6676714436687529,0.1963400259628892,1.1413684214621782,-0.2532777190208435,-0.744648814201355,-0.6747324466705322,jumping
8.315357666015625,0.7411143540855497,0.9693845458596944,2.1332371863305566,-0.6171496510505676,-0.0815709978342056,-0.2343854010105133,jumping
8.325432373046874,1.3537879139579831,1.064185520799458,2.3616391147255897,-0.9017813801765442,0.5687439441680908,0.1384069174528122,jumping
8.335506591796875,0.7773156213447451,1.221546996809542,2.507621703109145,-1.007883071899414,1.0526437759399414,0.3351998627185821,jumping
8.34558154296875,-0.0601472750492859,1.4732283862441775,2.6425369540333747,-0.8730317950248718,1.3250936269760132,0.4159618318080902,jumping
8.355656494140625,-0.4306162166861817,1.5046227646782993,2.956167434641719,-0.5157045125961304,1.3137205839157104,0.4214250445365906,jumping
8.36573046875,-0.6825856658145785,1.4090718481540678,3.611636837732792,-0.044102806597948,1.0618664026260376,0.3557780981063843,jumping
8.375804443359375,-0.8844222433671355,1.3261080260023477,4.493650558653473,0.4421254098415375,0.699241042137146,0.2302611768245697,jumping
8.38587939453125,-0.963607789089158,1.2997688851311802,5.525553812268376,0.8084785342216492,0.3327585756778717,0.059458915144205,jumping
8.39595361328125,-0.840542331238836,1.4466452074840663,6.64505351627171,0.9850197434425354,0.0051684565842151,-0.0836883932352066,jumping
8.40602734375,-0.4677046055108309,1.7935694704070686,7.651419593048095,0.9507494568824768,-0.2148522734642028,-0.1426187008619308,jumping
8.4161025390625,-0.1126069182054139,2.115163769501448,8.369975859171152,0.7264130115509033,-0.3031541705131531,-0.1239414066076278,jumping
8.42617626953125,0.175356110248249,2.3488529906496405,8.912722553923725,0.3669062256813049,-0.2397211492061615,-0.0356684550642967,jumping
8.43625048828125,0.3747170732012018,2.541655782397091,9.24815336292982,-0.0925870463252067,-0.1188525110483169,0.062109500169754,jumping
8.446325439453124,0.1398192617145366,2.603033503423631,9.39778629051447,-0.5958025455474854,-0.0614777095615863,0.0595636516809463,jumping
8.4563994140625,-0.6649659841023385,2.5290961605533955,9.243522195997834,-1.0493841171264648,0.0285781454294919,0.0125285005196928,jumping
8.466474365234374,-0.7285029289893805,2.501188747452199,8.547783326360582,-1.351864457130432,0.2671834826469421,-0.056554801762104,jumping
8.476548583984375,-1.2902265652820468,2.017660842126608,7.2736647230535745,-1.480889081954956,0.6361279487609863,-0.1574148386716842,jumping
8.48662255859375,-1.8904729705840349,1.9280702953115103,6.386857922637462,-1.4525972604751587,0.9044229984283448,-0.3058844208717346,jumping
8.496697509765625,-2.269613157457113,2.342320958532393,5.979608078089356,-1.327258825302124,0.922560453414917,-0.4814072549343109,jumping
8.506771484375,-2.3090014572545883,2.695905848388373,5.775318846687674,-1.1449711322784424,0.753734290599823,-0.6160176396369934,jumping
8.516845458984376,-1.7842460540056229,2.836760718494653,5.437620677271485,-0.9128601551055908,0.5919209122657776,-0.6627190709114075,jumping
8.526920654296875,-0.894461552952975,2.8986551568716763,4.940296009522676,-0.6453469395637512,0.5276247262954712,-0.6262217164039612,jumping
8.536994384765626,-0.1534216523431241,3.113320236337185,4.555347428631782,-0.3381818830966949,0.527481198310852,-0.532625675201416,jumping
8.547068603515624,0.2836467726897448,3.4459801193252204,4.520985140302777,-0.0057547665201127,0.5213339924812317,-0.4025127291679382,jumping
8.557143798828125,0.5265566805172711,3.5935502691611645,4.806501287060976,0.3308208584785461,0.4523490965366363,-0.2649117410182953,jumping
8.567217529296874,0.5649480051666498,3.517008881272375,5.244830160483717,0.6095945835113525,0.3585638999938965,-0.1514875143766403,jumping
8.57729150390625,0.4552573580004274,3.3012799719676376,5.800452703422308,0.8194916248321533,0.2547927498817444,-0.075643353164196,jumping
8.587366455078126,0.1919854840151965,3.038400896692276,6.264113001978397,0.9879627227783204,0.1176080405712127,-0.0415740497410297,jumping
8.5974404296875,-0.0824638367403298,2.7651851363196966,6.3516170979082585,1.0989017486572266,-0.0228886250406503,-0.0700397789478302,jumping
8.607514404296875,-0.2577651663277298,2.535126965150237,6.2012599477022885,1.1911214590072632,-0.1549874991178512,-0.1273371279239654,jumping
8.61758935546875,-0.0885579158317297,2.485351419112086,5.911717614167928,1.2828607559204102,-0.2996213734149933,-0.1848313063383102,jumping
8.62766357421875,-0.0128572896160185,2.47693255033493,5.232960858991742,1.328553557395935,-0.2629478573799133,-0.2730760872364044,jumping
8.6377373046875,-0.3281503696743398,2.3295500320255758,4.321819243264198,1.2960851192474363,0.0879774168133735,-0.4106363654136657,jumping
8.6478125,-0.6147257431618869,2.386776770852506,3.504487545612454,1.127086877822876,0.5906609296798706,-0.5381016135215759,jumping
8.65788623046875,-0.2454139265377074,2.567385266937315,2.9131518842577933,0.8031256198883057,1.0087611675262451,-0.576051652431488,jumping
8.66796142578125,0.9802565068773924,2.258299736282229,2.2757366087734696,0.3891590237617492,1.2331887483596802,-0.4694878458976745,jumping
8.678035400390625,2.852646269890666,1.487970320563018,1.2049030282616615,0.0250928997993469,1.2416503429412842,-0.1673548966646194,jumping
8.688109375,5.630554986444115,-0.1018079310923814,-0.7330757898628711,-0.091539442539215,1.0238157510757446,0.3836428225040436,jumping
8.698184326171875,8.345578500017524,-2.0840867864534256,-3.32774799991548,0.0168256424367427,0.3903214037418365,1.1019136905670166,jumping
8.708258544921875,9.136783238244057,-3.620101299217343,-6.278667597031593,0.2050184458494186,-0.5949504375457764,1.6709953546524048,jumping
8.71833251953125,6.993120519489049,-4.704536704102158,-9.23789734185338,0.3903204202651977,-1.401522874832153,1.821721434593201,jumping
