seconds_elapsed,acc_x,acc_y,acc_z,gyro_x,gyro_y,gyro_z,label
0.079128662109375,-0.2526795884254388,0.2012070474773645,-0.5375391892373561,-0.4743218719959259,1.9196265935897827,-0.5527232885360718,jumping
0.089202392578125,0.8522101188093424,-0.6752996004596352,-2.6807453963965178,-0.4382672011852264,1.9588171243667605,-0.3207590281963348,jumping
0.099276611328125,1.8635029844634237,-1.3488652167335151,-4.520577728545666,-0.285817801952362,1.7093496322631836,0.1242260113358497,jumping
0.109350830078125,2.1914063205741345,-1.0294435855031012,-5.799637879908085,-0.0896213725209236,1.0340620279312134,0.5689225196838379,jumping
0.119424560546875,1.6198269145689903,-1.1002554898291823,-8.163307039156555,0.4158642590045929,0.3446305692195892,0.8758373856544495,jumping
0.129499755859375,0.5026793266497552,-1.8357184670895337,-11.433480801981688,1.2585009336471558,0.2906126081943512,1.224770188331604,jumping
0.139573486328125,-0.6427851319544017,-2.21103032784611,-12.873697145462035,2.0504722595214844,0.5993868708610535,1.490509867668152,jumping
0.149647705078125,0.2139171471750363,-3.663521338748932,-12.37144086652994,2.4816505908966064,0.8201876878738403,1.7621512413024902,jumping
0.159721435546875,2.531435417155921,-5.632285755759478,-10.031254874199629,2.411993265151977,0.427413135766983,1.9234012365341189,jumping
0.169796630859375,3.650666533350945,-6.544963495013118,-6.888135127404332,1.905356526374817,-0.6692744493484497,2.035114288330078,jumping
0.179868896484375,3.6431557193294166,-7.786571575337648,-5.448924746096134,0.9408217668533324,-2.1201958656311035,2.028522491455078,jumping
0.189943115234375,-0.5832009432811289,-9.722677000805737,-5.935533374041318,-0.4223417043685913,-2.6740365028381348,1.3596850633621216,jumping
0.200016845703125,-5.064433845844865,-6.597847528460622,-7.717873302164674,-1.2757365703582764,-2.599013566970825,0.664762556552887,jumping
0.210092041015625,-5.682583864367008,-1.7970137656420468,-8.261106319129466,-1.746107578277588,-1.8940696716308596,0.4098857343196869,jumping
0.220166015625,-2.8639579374998805,1.1853610001847148,-6.506725242033601,-2.2181291580200195,-0.9123594760894777,0.5955144762992859,jumping
0.230239990234375,-1.2219719442233443,2.8926734521135686,-3.638102235332131,-2.504606246948242,-0.5781362056732178,0.8776625394821167,jumping
0.24031396484375,-1.8135320619836448,3.283945683068037,-1.447623404866457,-2.6320815086364746,-0.682974636554718,1.0543183088302612,jumping
0.2503876953125,-2.5365315712511536,2.7364807276219127,-0.4193208060920238,-2.9022016525268555,-1.135080099105835,0.8241402506828308,jumping
0.260462890625,-2.1288858592532574,2.541677117446065,-0.9832979203999042,-3.1881771087646484,-1.6872183084487915,0.3833962678909302,jumping
0.270536865234375,-1.4359702303431927,3.137489047431945,-2.9492203919827937,-3.0763819217681885,-2.146193265914917,0.1806055903434753,jumping
0.28061083984375,-0.7578190398447215,3.7561505226075647,-4.497785466501116,-2.536893367767334,-2.3891117572784424,0.3108316659927368,jumping
0.29068505859375,-0.4065925496831536,3.658565469907224,-5.220236401975154,-1.7059013843536377,-2.40458083152771,0.662816047668457,jumping
0.300759765625,-0.4613144660823047,3.270797739942372,-5.088302797210217,-0.8440622687339783,-2.2068934440612797,1.0615170001983645,jumping
0.310833984375,-0.4343675685763359,2.672552153068781,-3.2943829059302803,-0.1578777581453323,-1.86334490776062,1.3199783563613892,jumping
0.320908203125,-0.2263514256060123,1.7331342909276484,-0.7425275088191032,0.2994484901428222,-1.4023622274398804,1.4207805395126345,jumping
0.33098193359375,-0.1598895331829786,1.0006026909440755,2.38767430421412,0.4664707481861114,-0.9999058842658995,1.3913980722427368,jumping
0.34105712890625,-0.2044260095238685,0.046798576053977,5.0840153291493655,0.3505277633666992,-0.8519881963729858,1.2165651321411133,jumping
0.351130859375,0.2703185776263475,-0.2084606718674302,6.590251666504145,0.0288916658610105,-0.9341033101081848,0.8527626395225525,jumping
0.361205078125,0.9917878085866568,-0.1723833963140845,6.967956267616152,-0.3509382903575897,-0.9429089426994324,0.5405217409133911,jumping
0.37127880859375,2.120324221004545,-0.2320744794279337,6.430275039559603,-0.6727656126022339,-0.9291619658470154,0.4239066839218139,jumping
0.38135400390625,2.876120961241424,-0.124207394427061,5.528950468969345,-0.8811094164848328,-0.8737924098968506,0.4628266096115112,jumping
0.391427978515625,3.2832208759248256,-0.0937690015435218,4.160228751382231,-0.9494203329086304,-0.6581189632415771,0.5490754842758179,jumping
0.401501708984375,3.1855428842440245,-0.1305287064030766,2.9465690006911758,-0.9746714234352112,-0.1642750352621078,0.5916503667831421,jumping
0.411575927734375,2.8645047577276825,-0.0646747167453169,2.4095523740231988,-0.9839786291122437,0.3473496437072754,0.5720205307006836,jumping
0.42164990234375,2.8625144606932995,-0.0208240307115018,2.1999895861327645,-0.8968199491500854,0.6280227303504944,0.5104151964187622,jumping
0.431724853515625,3.169600926485657,-0.2819707292363047,1.9419290170550343,-0.6318852305412292,0.7054237723350525,0.4333808422088623,jumping
0.441799072265625,3.594878010633588,-0.3141584500052035,2.068773189726472,-0.2684249877929687,0.610082745552063,0.3858662247657776,jumping
0.451873046875,3.749023447206616,-0.1105601234771311,2.120868703144789,0.1078706011176109,0.5210140943527222,0.3948115110397339,jumping
0.461947021484375,3.5910286417290567,0.0332059579007327,2.1540292144685984,0.4197924137115478,0.5967953205108643,0.4467699229717254,jumping
0.47202197265625,3.281489229826629,0.2034646171458065,2.370554827108979,0.5988470911979675,0.8389152884483337,0.4919280707836151,jumping
0.482095947265625,2.894278549222648,0.2300925118304788,2.893859739288688,0.6843470931053162,1.059869647026062,0.4629727602005005,jumping
0.492170166015625,2.7415821424141527,-0.0308348448552191,3.416197267740965,0.7610114812850952,1.2558892965316772,0.3379780948162079,jumping
0.502243896484375,2.9251132479473947,-0.1017836734339594,3.6636487645208833,0.8547924160957336,1.3835798501968384,0.2383220642805099,jumping
0.512319091796875,3.391367070128024,0.4744745380371808,3.7481723833352327,0.9769585132598876,1.5085865259170532,0.2723276913166046,jumping
0.522392822265625,3.913225582891703,1.2993832468144595,4.052804149451852,1.0583364963531494,1.7271332740783691,0.4955280423164367,jumping
0.532466796875,4.290850104504823,1.7994687575787305,4.545768283903598,1.09237802028656,1.969005823135376,0.8245554566383362,jumping
0.542540771484375,4.034799121683836,1.7801716441735624,4.929493460479378,1.1738864183425903,1.9725902080535889,1.0250396728515625,jumping
0.552614990234375,2.955543749785423,1.2769891903072594,4.921498370072245,1.4040756225585938,1.7507110834121704,0.9850377440452576,jumping
0.56268994140625,2.323537932129204,1.3267290805101395,4.763755785790085,1.7218915224075315,1.3052786588668823,0.8100196719169617,jumping
0.572763916015625,1.8840679258473216,1.1002815010532736,4.8317906266182655,2.0491909980773926,0.8687136173248291,0.5643619298934937,jumping
0.582838134765625,1.459537860674411,0.825203453940153,4.904354343047737,2.34294867515564,0.6711146235466003,0.2639298141002655,jumping
0.592911865234375,1.3746068301029502,1.9572966820567843,5.514573568570613,2.430758237838745,0.8019405603408813,0.0450690910220146,jumping
0.602987060546875,1.4348194528728722,2.677583425234258,6.324566009375452,2.2918810844421387,1.2368046045303345,-0.0053180065006017,jumping
0.61306103515625,1.359833769993484,2.746359732079506,7.128693357539176,1.9869914054870603,1.603227138519287,0.0187489800155162,jumping
0.623135009765625,0.3319359526276588,2.4085180625393985,7.365666130402683,1.574635624885559,1.7003682851791382,-0.092943400144577,jumping
0.633208984375,-0.3112254652932286,2.25894124905616,6.606259382975101,1.193434476852417,1.5474562644958496,-0.2459843456745147,jumping
0.643283935546875,-0.0017440671883523,1.5700544372707606,5.1525715635031455,0.8308697938919067,1.5014901161193848,-0.2932762801647186,jumping
0.65335791015625,1.0993304839387534,0.557185554471612,2.4874673883527514,0.40849569439888,2.111820936203003,-0.0766909569501876,jumping
0.663431640625,1.6673095273643732,-0.1350549516558647,-0.8330413079589605,0.0309592299163341,2.382160186767578,0.2061388343572616,jumping
0.673505859375,1.5018193976953624,-2.410655074568093,-4.795293079826235,-0.2266810983419418,2.0413448810577397,0.3998507857322693,jumping
0.683580810546875,1.6430856250815091,-6.321282749921084,-10.597388874280451,-0.3160598278045654,1.1893963813781738,0.4396036863327026,jumping
0.69365478515625,-0.3716121659884229,-8.42811357536316,-16.802951487612724,-0.185969740152359,0.6693241000175476,0.3985348343849182,jumping
0.70372900390625,-4.1837089956909415,-7.843575319063663,-21.37099940786361,-0.1842213273048401,0.8820016980171204,0.0902839004993438,jumping
0.713802978515625,-5.443761664244533,-7.546517203071713,-23.49286062917709,-0.4205441474914551,1.3011192083358765,-0.1670709401369094,jumping
0.7238779296875,-3.440705978314578,-7.4116463758111,-23.960732992470263,-0.7718775868415833,1.4159952402114868,-0.0319824777543544,jumping
0.7339521484375,-1.299928897998482,-6.818026402911544,-23.847866491746903,-1.022510647773743,1.0986639261245728,0.3716523349285126,jumping
0.74402587890625,-1.404859637286514,-6.768270730617642,-23.35501633906364,-1.1015114784240725,0.7193701267242432,0.5964608788490295,jumping
0.75410009765625,-2.4904601404279467,-5.4887073059082025,-20.655434724771972,-1.241775393486023,0.1774863302707672,0.6471280455589294,jumping
0.764173828125,-2.0363759178601204,-4.465464328610897,-17.066676073801517,-1.5365575551986694,-0.3548841178417206,0.7281331419944763,jumping
0.7742490234375,-1.578602777646482,-4.231068420498072,-14.098957902097702,-1.8778246641159055,-0.5233067274093628,0.8919220566749573,jumping
0.784322998046875,-2.3530939892202616,-4.307321639095247,-11.779839247715472,-2.140080213546753,-0.4217415452003479,0.8976036310195923,jumping
0.794396728515625,-3.216827957084775,-4.7369019733950495,-10.22786114988327,-2.126166820526123,-0.4788708984851837,0.6554415822029114,jumping
0.804470947265625,-2.786574545828998,-3.901973536515236,-9.24291370871067,-1.807657241821289,-0.5741745233535767,0.4821915328502655,jumping
0.8145458984375,-0.995129081838578,-2.675824014346301,-7.299756611165404,-1.364816665649414,-0.5986660122871399,0.4648375511169433,jumping
0.824619873046875,1.087027759465575,-2.202477603556216,-4.9724581574589015,-0.8242294192314148,-0.4251873195171356,0.6979540586471558,jumping
0.83469384765625,2.029510562135279,-1.951172646218538,-2.880990905365348,-0.5069209337234497,0.6591030359268188,1.0839041471481323,jumping
0.84476806640625,-0.1867128043092787,-2.162005015653372,-4.109187715452909,0.3928954005241394,1.5161241292953491,1.1255100965499878,jumping
0.854843017578125,-3.5272011894628403,-2.6593676773250103,-3.62036784119904,0.9503602385520936,0.9311096668243408,0.6769320964813232,jumping
0.8649169921875,-3.278645823094249,-2.7189950475528835,3.5438089176535605,1.6302138566970823,0.3761162459850311,0.1601220816373825,jumping
0.874990966796875,-1.7345510258577763,-2.190177801692485,5.687514891028404,2.174943447113037,-0.3533661663532257,-0.1408302932977676,jumping
0.88506494140625,-0.5013452285017818,-0.3780971075609326,9.189939658892154,2.3952300548553467,-1.1272083520889282,-0.3917337357997894,jumping
0.895139892578125,1.1375776508770885,1.633774922031164,11.94386778039932,2.5032801628112797,-1.7967702150344849,-0.5668264031410217,jumping
0.905214111328125,2.69076556289047,3.772437348280847,13.826099576860663,2.060389280319214,-1.801931381225586,-0.6673120260238647,jumping
0.915287841796875,4.386806971481442,5.510647919559479,15.21680691628456,1.4031002521514893,-1.231175422668457,-0.4507770240306854,jumping
0.925362060546875,4.080876397725939,5.708637174034118,16.029806722211838,0.6093957424163818,-0.5187329649925232,-0.3870675265789032,jumping
0.935435791015625,2.1868312677435577,6.415405971729755,15.406089132690427,-0.112810380756855,0.0057667344808578,-0.4742567837238312,jumping
0.945510986328125,2.111548501613736,5.697254779276252,13.667093256253004,-0.5214262008666992,0.1751701831817627,-0.6054002642631531,jumping
0.955584716796875,2.247752038782835,6.23723259383738,12.2849783886075,-0.5896332263946533,0.0279117561876773,-0.5718784928321838,jumping
0.965658935546875,0.0349225525602698,6.37990503475964,11.503813982880114,-0.3576935529708862,-0.4376421272754669,-0.5259926915168762,jumping
0.975733154296875,-2.4632158674106,3.8134047339633104,9.844114345997571,-0.2539043128490448,-0.41350057721138,-0.7239566445350647,jumping
0.985807861328125,-2.570742176149785,3.3291347780987617,8.610406079012154,-0.3017425835132599,0.0574558898806571,-0.7533342838287354,jumping
0.995882080078125,-3.5637013666033743,2.477456281948089,8.284409453305601,-0.4303037524223327,0.3971101343631744,-0.8197758793830872,jumping
1.005955810546875,-4.985451494544744,1.2567238163918255,7.826409080207347,-0.154874175786972,0.4763570427894592,-1.0012309551239014,jumping
1.016030029296875,-4.127544040876627,1.1158645623713732,8.785870782467722,0.0036693916190415,0.0941995605826377,-1.2621328830718994,jumping
1.02610498046875,0.0667125427158549,2.982892067699134,10.057311690998077,-0.1201385185122489,-0.0473199412226676,-1.1667979955673218,jumping
1.036178955078125,3.005780191333592,3.975762995347381,10.389355195653438,-0.2306802123785019,-0.2174754291772842,-0.9068670868873596,jumping
1.0462529296875,3.603478373457491,4.392161776512861,9.838644390153885,-0.1648038029670715,-0.4127460122108459,-0.648252546787262,jumping
1.056326904296875,3.28323987288624,4.292683165150881,8.65616537514627,-0.0002862254623323,-0.4209767580032348,-0.4365102052688598,jumping
1.06640185546875,2.157579015904665,3.746249306318163,7.693626749658584,0.1520420461893081,-0.1226921677589416,-0.3195926249027252,jumping
1.07647607421875,0.7928533822163939,2.981603196932375,7.541791343593597,0.2552848160266876,0.2846092879772186,-0.3115687966346741,jumping
1.0865498046875,0.0138288015292957,2.447507133886218,8.327333818274736,0.3532201051712036,0.5273272395133972,-0.3636530041694641,jumping
1.0966240234375,0.0017753756420686,2.1767253226622936,9.4106159614712,0.3825718462467193,0.5251876711845398,-0.3909149765968323,jumping
1.10669873046875,0.3134668144792318,2.051324334536493,10.120279896086451,0.3480139076709747,0.5565369129180908,-0.3894237577915191,jumping
1.11677294921875,1.006816597022861,2.1266417335882783,10.678214223098754,0.204457014799118,0.4608157575130462,-0.3291556239128113,jumping
1.126846923828125,1.3663297078840433,2.3272341562986374,10.822273149943353,-0.0003087345394305,0.4115472137928009,-0.2291137129068374,jumping
1.1369208984375,0.9201701408356427,2.339880579642952,10.320254186898469,-0.2034594565629959,0.4217098355293274,-0.1570775955915451,jumping
1.1469951171875,0.4079888263471424,2.414269465672969,9.25992154213488,-0.3336527049541473,0.5255730152130127,-0.1275022029876709,jumping
1.15706982421875,0.1776593091567047,2.270476788549125,8.184156350439787,-0.3907652795314789,0.6085192561149597,-0.0958723798394203,jumping
1.16714404296875,0.1368197054392192,2.5987933816358444,7.02523532115221,-0.442737340927124,0.6312044858932495,-0.0244952496141195,jumping
1.17721826171875,0.3799674680100753,2.945517738072574,5.465748455125093,-0.4278337657451629,0.6504785418510437,0.0626628175377845,jumping
1.18729248046875,1.3227702598817646,3.181051125782728,3.395220530685782,-0.1655252575874328,0.5712376236915588,0.279696375131607,jumping
1.197367431640625,1.9265778647966685,2.986607288829982,1.3947376178532838,0.2130609303712844,0.429238349199295,0.5026471614837646,jumping
1.20744140625,1.1311623039420693,2.108093684984744,-0.0772878223419189,0.4795624017715454,0.3479762673377991,0.5672698616981506,jumping
1.217515380859375,-0.1869675097227096,0.3687348204538226,-2.0876199290156365,0.4139303863048553,0.5950667858123779,0.508967936038971,jumping
1.22758935546875,-0.7283038262207061,-2.123587022192776,-4.664481757089495,0.0999097526073455,1.0583627223968506,0.3935642540454864,jumping
1.237664306640625,-2.538550509858131,-7.291074707537889,-7.760480271747708,-0.4698242843151092,1.517751693725586,-0.1889793276786804,jumping
1.247738525390625,-3.4898315360113976,-12.694476888865232,-10.865165366208553,-1.2289339303970337,1.5556572675704956,-0.6371353268623352,jumping
1.2578125,1.4376184359416364,-14.054286401200294,-16.29438938653469,-2.30381178855896,0.8604984283447266,-0.6169799566268921,jumping
1.267886474609375,4.917970195946097,-13.659663983035086,-27.960034099793432,-3.269459724426269,0.2410242408514022,-0.4124968945980072,jumping
1.27796142578125,5.139782809078693,-11.085756913113594,-43.71201055357456,-3.289918899536133,0.2542399168014526,-0.0050327200442552,jumping
1.288035400390625,1.5667463356360791,-6.164427469867468,-55.7281673251152,-2.0925498008728027,0.6657077074050903,0.1814892888069152,jumping
1.298109619140625,-0.9484585160784422,-3.13861834372282,-59.64324350430965,-0.0725666806101799,0.9057631492614746,0.0728789195418357,jumping
1.308183349609375,0.5724902372397482,-2.375745089228451,-53.63250203680992,1.5135061740875244,1.1550624370574951,-0.1234731823205947,jumping
1.318258544921875,0.938728053246066,-4.057532639278471,-41.1239440253973,1.802085518836975,1.684056520462036,-0.4578522443771362,jumping
1.328332275390625,1.3275843821652231,-5.901335336363315,-28.102402589333057,1.147053360939026,2.280238389968872,-0.5927097201347351,jumping
1.338406494140625,4.355821466109156,-5.250450338453054,-17.783834163564443,0.3937872648239136,2.4998698234558105,-0.2426044791936874,jumping
1.348480224609375,5.367520720607042,-3.535031444697082,-11.279140135097505,0.3492245674133301,1.8854866027832031,0.3185800015926361,jumping
1.358554443359375,3.4852567754417656,-2.302953409262001,-7.301654553741216,0.995754599571228,0.6554083824157715,0.757662296295166,jumping
1.36862939453125,1.7110016618356108,-0.5409986820414662,-4.53787665387094,2.1033618450164795,-0.0948734357953071,1.079371452331543,jumping
1.378703369140625,-0.4801002689644694,1.8370152289018036,0.4942623575687408,3.309821367263794,-0.4881879985332489,1.225941181182861,jumping
1.388777587890625,-2.612995217728615,4.204299071516096,8.364121287924052,4.112955570220947,-0.6105926632881165,1.2323747873306274,jumping
1.398851318359375,-3.256984610906243,6.110667822629213,16.495331645596025,4.267919063568115,-0.3719513118267059,1.2193609476089478,jumping
1.408926513671875,-3.222093914788961,6.69579995316863,23.794969598817826,3.734476089477539,-0.0854255408048629,1.1495747566223145,jumping
1.41900048828125,-3.656726271781325,6.015822716286778,29.15616462353468,2.6785950660705566,-0.1358540803194046,0.8988229632377625,jumping
1.429074462890625,-3.722501350983977,5.866335334652662,31.126997078990936,1.3350741863250732,-0.4552418291568756,0.614193856716156,jumping
1.4391484375,-3.646379357551038,6.328895563012361,29.672629460561275,0.0090261055156588,-0.8899538516998291,0.2848947942256927,jumping
1.449223388671875,-3.734019939342141,6.855255771109461,25.46313661979437,-1.0678914785385132,-1.2872270345687866,-0.0420724973082542,jumping
1.45929736328125,-3.800038764172792,7.054897468966245,19.90004539629221,-1.7459049224853516,-1.5773650407791138,-0.3380247950553894,jumping
1.469371337890625,-3.842023510204256,7.6302581470757715,14.18998900310993,-2.023247241973877,-1.652249097824097,-0.538563072681427,jumping
1.4794453125,-3.482823703075945,8.083837196600436,8.703398250964284,-1.9577045440673828,-1.402603030204773,-0.5941547155380249,jumping
1.4895205078125,-2.9427231389179824,8.142602689301967,4.21319812502563,-1.6379212141036987,-0.9758652448654176,-0.5409640669822693,jumping
1.49959423828125,-2.5359599088430405,7.723094836205243,1.297803430277109,-1.1982018947601318,-0.5608323812484741,-0.4375857412815094,jumping
1.50966845703125,-2.155779565267265,7.001889516878127,0.3703571609586477,-0.7387182116508484,-0.4391280114650726,-0.3457415699958801,jumping
1.519742431640625,-1.5080388567321,6.244111831957102,0.96907591830194,-0.266093909740448,-0.6583623886108398,-0.2456863522529602,jumping
1.52981640625,-0.6678425624519586,5.888826567924022,2.381882861331105,0.1150142103433609,-1.0558292865753174,-0.1278185397386551,jumping
1.5398916015625,-0.5716450185872614,5.627961462819576,4.0152082860291,0.3483372032642364,-1.3465332984924316,-0.0540841370820999,jumping
1.54996533203125,-1.0245758333362638,5.342839868336916,5.274837760734558,0.4368943572044372,-1.340283751487732,-0.0381079949438571,jumping
1.56003955078125,-1.212519786875695,5.099697466927767,6.806684924685954,0.4808144271373749,-1.3167986869812012,-0.0623233206570148,jumping
1.57011328125,-1.0045382768273352,5.054476515454054,8.515742174455523,0.381335437297821,-1.1390712261199951,-0.0923983603715896,jumping
1.5801884765625,-0.6679223496899008,4.818436639526486,9.880711261510848,0.18382528424263,-0.9059179425239564,-0.1165638864040374,jumping
1.590262451171875,-0.7718340481285005,4.48918188880682,10.62993622214198,-0.0286503043025732,-0.7195634245872498,-0.214951679110527,jumping
1.60033642578125,-0.980293112560734,4.294462157522141,10.86203700505495,-0.1251456886529922,-0.6831918358802795,-0.3401996195316314,jumping
1.610410400390625,-0.5303304634349421,4.535963805986941,10.713554416549204,-0.1645457148551941,-0.5559406876564026,-0.4282878637313843,jumping
1.6204853515625,-0.3260978210587054,4.228004649013281,10.955282274985311,-0.2931870520114898,-0.3897700309753418,-0.5619117021560669,jumping
1.630559326171875,-0.192309711000882,4.020506684698164,11.918948443198204,-0.4269978404045105,-0.3689561784267425,-0.6379308104515076,jumping
1.64063330078125,0.3524782803209498,4.032034625406563,12.458394342839718,-0.537018358707428,-0.4918179214000702,-0.6365459561347961,jumping
1.65070751953125,0.5894022821392864,3.835900643409788,12.469694320011138,-0.5890432596206665,-0.7216351628303528,-0.6116932034492493,jumping
1.660781494140625,0.5560672910314053,3.996189989565313,12.16901742900014,-0.6202147603034973,-0.9911680817604064,-0.5713692307472229,jumping
1.6708564453125,0.4596216176245361,4.089284745109081,11.51836857793331,-0.6164935231208801,-1.1212815046310425,-0.5501713156700134,jumping
1.680930419921875,0.4569032620439305,3.99636300804466,10.426685101616382,-0.534011960029602,-1.066046118736267,-0.4937415421009063,jumping
1.69100439453125,0.184914230454713,3.854310452586412,9.701291682949662,-0.4534406363964081,-0.8837330937385559,-0.445127010345459,jumping
1.701078369140625,-0.0914868088904768,3.5510391611680387,9.94661610457301,-0.4845120012760162,-0.6718288064002991,-0.4690733551979065,jumping
1.711153564453125,0.2437059535760432,3.323091990803182,10.360005182528496,-0.6416135430335999,-0.4881065189838409,-0.5073649883270264,jumping
1.721227294921875,0.4144634657213464,2.9994156247377397,9.919200858902933,-0.8534075617790222,-0.3673569560050964,-0.5921259522438049,jumping
1.731301513671875,0.1061357311636209,2.214300727818906,8.729737391835451,-1.0596970319747925,-0.4219679832458496,-0.7787371277809143,jumping
1.741375244140625,-0.5740137204799801,1.2613175739228724,6.256356981024146,-1.2652981281280518,-0.1860776990652084,-0.9528873562812804,jumping
1.751450439453125,-0.2973202009942382,0.5450362669944763,2.7189690363287924,-1.3062680959701538,-0.0177107546478509,-0.9994006752967834,jumping
1.761524169921875,0.8541545308753847,-0.072763038393855,-0.7814251024901866,-1.191868543624878,-0.2776842713356018,-0.972460925579071,jumping
1.771598388671875,1.745961039274931,-1.5043410251274705,-5.216055901420116,-1.0275987386703491,-0.7734327912330627,-0.8963540196418762,jumping
1.781672607421875,2.389289192064852,-3.602141571895778,-9.864524681341647,-0.8791877627372742,-0.931063711643219,-0.6843320727348328,jumping
1.791747314453125,1.987657918050885,-6.61374126316309,-14.231983393752571,-1.016035795211792,-0.7990213632583618,-0.4639094471931457,jumping
1.801821533203125,1.374781748278439,-9.724739778554438,-18.945747944927213,-1.438863754272461,-1.1123722791671753,-0.3137215375900268,jumping
1.8118955078125,-1.093393933496624,-11.842362047123908,-29.452608407020566,-1.6076136827468872,-0.8084657192230225,-0.3954935073852539,jumping
1.821969482421875,-8.14017107824087,-13.840854078400136,-45.127610342192646,-1.5145149230957031,-0.4635924994945526,-0.5774875283241272,jumping
1.832044677734375,-10.177351444351672,-13.000032199567556,-54.931426580071445,-1.0713191032409668,0.5835954546928406,-0.616569459438324,jumping
1.842118408203125,-7.561063614818453,-11.194981842464207,-56.90911197016239,-0.4350238442420959,1.426226258277893,-0.4382492303848266,jumping
1.8521923828125,-3.201706083537638,-10.536701473605632,-53.3010173350811,0.3973396420478821,1.7211400270462036,-0.0362401455640792,jumping
1.862266357421875,-0.6860357332032173,-10.45668042690754,-46.30730177230835,0.9489524960517884,1.8533406257629397,0.3893386125564575,jumping
1.87234033203125,1.1442557404015212,-11.462975776535272,-39.1495717053771,1.071014642715454,1.5686514377593994,0.7732919454574585,jumping
1.88241552734375,2.4693670835167167,-11.06239591127038,-33.817209976434704,1.1054362058639526,0.931937038898468,1.1406056880950928,jumping
1.8924892578125,1.0293424632161856,-8.767634284031391,-28.96089456489086,1.2287167310714722,0.1543566733598709,1.1679288148880005,jumping
1.902563720703125,-2.04170120453611,-5.696888868573308,-23.815465274357795,1.645501732826233,0.0260525047779083,0.9012827277183532,jumping
1.912637451171875,-4.260455258502066,-2.167902841520309,-16.966624630987642,2.199484348297119,0.6485416293144226,0.5757871270179749,jumping
1.922712646484375,-6.418387033367156,0.9955904157400132,-7.849667790719867,2.813039541244507,1.449129343032837,0.2583177983760834,jumping
1.932786376953125,-7.407203424927592,1.9632830629900095,1.9312877960532904,3.3205490112304688,1.8942309617996216,-0.2614197731018066,jumping
1.942860595703125,-4.198975538405776,3.704697983267903,11.848635136044024,3.245921850204468,1.956080198287964,-0.4818871617317199,jumping
1.9529345703125,0.757940182006359,6.329636152246594,20.19370685558319,2.7426624298095703,1.6723928451538086,-0.3458582460880279,jumping
1.963009521484375,1.5417890045121312,7.558378905779123,23.717901556706423,2.362065553665161,1.032095432281494,-0.2622176706790924,jumping
1.97308349609375,0.2950393965806812,7.102900744634867,24.15218027795553,2.1050806045532227,0.2753362953662872,-0.5072138905525208,jumping
1.9831572265625,0.3839816355548799,7.976247759497165,24.464109215343,1.6217657327651978,-0.421163946390152,-0.6236944198608398,jumping
1.9932314453125,0.939217078872025,8.412307518944143,24.302977573144435,1.0898497104644775,-0.9768778085708618,-0.5143576860427856,jumping
2.00330517578125,1.2476879847601057,8.574507667157054,23.741125780427456,0.5535851716995239,-1.44788658618927,-0.3916557431221008,jumping
2.01338037109375,1.5146932000547646,8.746147843888401,22.87222697714567,-0.2305087745189666,-1.626720666885376,-0.3276422619819641,jumping
2.023454345703125,0.91384356816262,9.62232803635001,20.65368817336559,-0.9683133363723756,-1.702528953552246,-0.1598586142063141,jumping
2.033528564453125,-1.0168411474309862,9.447305815964937,17.931873684477804,-1.4053702354431152,-1.9847371578216555,-0.1655994951725006,jumping
2.0436025390625,-2.4282709568880496,8.410877193880081,14.856211855405569,-1.59628427028656,-2.1722254753112797,-0.3097587823867798,jumping
2.053677734375,-2.1573200727075337,8.04362209059,10.005583841848372,-1.5842196941375732,-1.4711650609970093,-0.3380239605903625,jumping
2.06375146484375,-2.90186505882889,7.824925563651323,7.482204013115167,-1.5538058280944824,-0.7062658667564392,-0.3547278344631195,jumping
2.07382568359375,-3.332832171311974,7.298325117057561,6.161898828172683,-1.4979881048202517,-0.0881969779729843,-0.4455998539924621,jumping
2.0838994140625,-2.457315118934214,6.983743619334697,5.235231726533174,-1.3969141244888306,0.3217726945877075,-0.5326055884361267,jumping
2.093974609375,-0.3999355760119855,6.894210063403844,5.05330747167468,-1.2347087860107422,0.5158767104148865,-0.4927984178066253,jumping
2.10404833984375,1.1127147200383245,6.779348004949092,5.606545749825239,-1.0928906202316284,0.4911360144615173,-0.3338899910449981,jumping
2.114122314453125,1.3502823900550602,6.254989784324168,6.239741361787915,-0.9907852411270142,0.2760710716247558,-0.1918854713439941,jumping
2.124196533203125,0.96686342988424,5.281030185633897,6.72582801168561,-0.895308256149292,-0.0917378440499305,-0.1341058015823364,jumping
2.134271240234375,0.8403865561552345,4.468060774844885,7.089352696275711,-0.8324781060218811,-0.4583733677864074,-0.0953892916440963,jumping
2.144345458984375,0.7026260718677193,3.922263168089092,7.381594351896643,-0.8233280181884766,-0.6817271113395691,-0.1066589951515197,jumping
2.154419189453125,0.2137732817249372,3.859765795382857,7.429353297415375,-0.8520259261131287,-0.7449212074279785,-0.1700081527233123,jumping
2.16449365234375,-0.0455763773152604,3.6843382090672847,7.175012041121721,-0.8367487192153931,-0.684592604637146,-0.2392031997442245,jumping
2.1745673828125,-0.2730856311868876,3.364911901661753,7.096403783831,-0.7725372314453125,-0.5682641267776489,-0.2846595644950866,jumping
2.184642578125,-0.5242062449336051,3.0965953115075826,7.405335877490043,-0.7015624046325684,-0.489765852689743,-0.2788847684860229,jumping
2.194716552734375,-0.5629892357816919,2.824842609424889,7.780082797840238,-0.6211197972297668,-0.4071045815944671,-0.227041482925415,jumping
2.20479052734375,-0.5897452138254419,2.4712235250383614,8.132551250886916,-0.5435259342193604,-0.3269522190093994,-0.1635695546865463,jumping
2.214864501953125,-0.6824305483181029,2.121321707609296,8.528966397687793,-0.4934503436088562,-0.2050721794366836,-0.1236988976597786,jumping
2.224939697265625,-0.6689134065538644,1.9104720947787164,8.836562274307012,-0.469961017370224,-0.0353744961321353,-0.1103950813412666,jumping
2.235013427734375,-0.5928756208056584,1.8005416475072502,9.143215317118168,-0.4842945635318756,0.0914556682109832,-0.1430009007453918,jumping
2.24508740234375,-0.2321111581765115,1.8377026266440748,9.39919849539995,-0.526742696762085,0.14785236120224,-0.2125845104455948,jumping
2.255161376953125,0.383672898399271,1.9964502963155504,9.261420256260037,-0.5338497757911682,0.0859196335077285,-0.3020610511302948,jumping
2.265236328125,0.946824046744406,2.116121800878644,8.914468520808219,-0.478318840265274,-0.0599451661109924,-0.36899134516716,jumping
2.275310302734375,0.965513184319064,2.129042657250166,8.694033041247724,-0.4266981184482574,-0.1724425554275512,-0.4596462249755859,jumping
2.28538427734375,1.231441929488629,2.157936158779264,8.880518904933332,-0.4244440197944641,-0.2087438404560089,-0.4738603234291076,jumping
2.295458740234375,1.002119525247812,1.9359610485613343,9.13451704687774,-0.3539144098758697,-0.3485416173934936,-0.5128437280654907,jumping
2.305533203125,1.0660141975313424,2.0644003814697265,8.655143046361207,-0.3433219492435455,-0.4019710123538971,-0.5236074328422546,jumping
2.315607666015625,0.7472381707280874,2.054985487392545,7.955128399100899,-0.3597757816314697,-0.4468919932842254,-0.5292592644691467,jumping
2.325681396484375,0.8497470896966755,1.824237580393255,6.455671346622705,-0.3312831521034241,-0.5135663151741028,-0.4856114089488983,jumping
2.335755615234375,1.1056238849945366,1.4542761407539249,4.4462382346153255,-0.2940419912338257,-0.6004059910774231,-0.4080981016159057,jumping
2.34583056640625,0.9991357601966708,0.2234893141731619,1.7607962048351764,-0.2247180491685867,-0.5747962594032288,-0.3313125073909759,jumping
2.355904541015625,0.5173812577517702,-1.4279460599720477,-1.700031062749028,-0.1229592710733413,-0.4349929392337799,-0.2812983393669128,jumping
2.365978515625,-0.9569282382600008,-4.197949994750321,-5.557983086708187,-0.0864515900611877,-0.3466154038906097,-0.4694378674030304,jumping
2.37605224609375,-1.8906725848093628,-7.606327236390113,-10.284320119208097,-0.3721380829811096,-0.1708213537931442,-0.7278112769126892,jumping
2.38612646484375,-2.4775232097044584,-10.552960534489154,-18.20225246785879,-1.1537859439849854,0.4685865640640259,-0.8805339932441711,jumping
2.396201416015625,-3.5244495526671407,-13.574655795574188,-30.50656684057712,-2.1352744102478027,1.4823315143585205,-1.1219747066497805,jumping
2.406275390625,-1.584351112040132,-14.390674072539806,-46.73134668431282,-2.56490159034729,2.418933153152466,-1.059985876083374,jumping
2.416349365234375,2.5038424768313763,-11.147077935516831,-62.93726751379966,-1.81105637550354,2.7323973178863525,-0.5018518567085266,jumping
2.426423583984375,5.779649569368362,-7.996596135520934,-70.58261275537014,0.0358423292636871,1.9738062620162964,0.1463085711002349,jumping
2.436498291015625,7.618352605226636,-6.189765324741602,-65.77058539836406,2.1190273761749268,0.5031869411468506,0.8241003751754761,jumping
2.446572509765625,6.995435226172209,-6.085533965894579,-51.7955414607048,3.1920974254608154,-0.7310308218002319,1.379124402999878,jumping
2.456646484375,2.3876021157607434,-6.771728762117028,-35.231991434407234,2.9457099437713623,-0.9220089912414552,1.5679341554641724,jumping
2.466720458984375,-2.2370909440368414,-6.085419984126091,-21.068801590895653,1.9858384132385252,-0.2203086763620376,1.4830254316329956,jumping
2.47679541015625,-5.575657859608531,-4.93197007972598,-10.767819090700147,1.0541728734970093,0.6401103138923645,1.2037442922592163,jumping
2.48686962890625,-7.388955820575356,-3.7192706984996793,-3.951030120629072,0.4834412932395935,1.3714202642440796,0.910968005657196,jumping
2.496943359375,-7.811043168771267,-2.536115391665697,0.4009890305876731,0.4215565323829651,1.7388025522232056,0.679021418094635,jumping
2.507017578125,-7.534118909269571,-0.782403592133522,3.591616963011026,0.7172377109527588,1.8806052207946775,0.4411111176013946,jumping
2.51709130859375,-6.528328586554527,1.250301966650784,7.772247866430878,1.0314064025878906,1.929146647453308,0.1178868114948272,jumping
2.52716650390625,-4.938726568248868,2.6850170823663477,12.422406499135494,1.3833115100860596,1.5507357120513916,-0.336899071931839,jumping
2.537240478515625,-2.0693626800522207,4.719459547945857,16.039987924486397,1.6991835832595823,1.1344382762908936,-0.563150942325592,jumping
2.547314208984375,1.042213635227084,6.323880365198851,18.867343685775992,1.861422061920166,0.7205535769462585,-0.5548053979873657,jumping
2.557388671875,2.5770570583850145,6.779944217276573,21.016332567989824,1.8034900426864624,0.1218360215425491,-0.4772818088531494,jumping
2.567463134765625,3.012381489294768,6.881005129393935,22.151878566908835,1.589378833770752,-0.546894371509552,-0.4169958233833313,jumping
2.57753759765625,2.415739538225532,6.888563581949472,22.08978831369877,1.195889949798584,-0.9552145600318908,-0.4258694648742676,jumping
2.587611572265625,1.6892518945813175,7.413277191883325,22.027599860811232,0.5358449816703796,-1.0788134336471558,-0.4514267742633819,jumping
2.597685546875,1.2621321051761507,7.625099741399287,21.945418421208856,-0.417374700307846,-1.1758991479873655,-0.4892764091491699,jumping
2.607760498046875,0.9762081813346594,7.91793994743526,20.762629025077818,-1.4487922191619873,-1.257102131843567,-0.492214947938919,jumping
2.61783447265625,0.3569823502745479,8.144472574827075,17.729430373203755,-2.291916847229004,-1.3425178527832031,-0.4948588609695434,jumping
2.627908447265625,-0.450069360903278,7.709782934689521,13.153126665782928,-2.7268054485321045,-1.4226340055465698,-0.5212379693984985,jumping
2.637982421875,0.6721146137479692,7.84206959067583,6.561729336374998,-2.5360536575317383,-1.039764404296875,-0.3772144615650177,jumping
2.648057373046875,-0.6161877785384655,6.951500222855806,2.6606021875560284,-2.16825795173645,-0.552922785282135,-0.2778093218803406,jumping
2.658131591796875,-2.016866476878524,5.996017361098527,0.9292723157018422,-1.6518194675445557,-0.3334298729896545,-0.3125494718551636,jumping
2.668205322265625,-1.5732658005326985,5.3159378328859805,0.6034528001278638,-1.116125464439392,-0.4369767606258392,-0.3254277408123016,jumping
2.678279296875,-0.4427711301865056,4.771435526637733,1.2066934188097715,-0.6578604578971863,-0.4839580059051513,-0.246300920844078,jumping
2.688353515625,0.222662069568783,4.207168489472568,2.679791456672549,-0.3406481742858886,-0.5478544235229492,-0.1062117144465446,jumping
2.69842822265625,0.0290962392932735,3.04039791572839,4.4172436107993125,-0.1976457238197326,-0.5950671434402466,-0.0289519894868135,jumping
2.708502685546875,-0.4933570792920887,2.175368939617276,5.830228833004832,-0.1985626518726349,-0.5388403534889221,0.0346195288002491,jumping
2.718576416015625,-0.7481688757069408,1.731296261845529,6.372542397037148,-0.2622071206569671,-0.3493261635303497,0.0984177887439727,jumping
2.728650634765625,-0.9217408242184668,1.344095518113673,6.639841919103264,-0.2981667220592499,-0.1808250546455383,0.1229412406682968,jumping
2.738725341796875,-0.9692425070405006,1.0111997805431483,7.01382077769041,-0.2583849430084228,-0.0999538227915763,0.0948470309376716,jumping
2.748799560546875,-0.916087986088544,0.8634835002347826,7.337014036414026,-0.1700814366340637,-0.103678785264492,0.068536601960659,jumping
2.758873291015625,-0.7069997569072991,0.8833651355296372,7.790076953110098,-0.091670237481594,-0.0911319181323051,0.0359986573457717,jumping
2.768947509765625,-0.7034943060696125,0.8039771260380745,8.395488486090303,-0.033631432801485,-0.1386586874723434,-0.0198297202587127,jumping
2.7790224609375,-0.6740839410595596,0.7122565814569592,9.106503835314513,0.0146936355158686,-0.2096350938081741,-0.1030075177550315,jumping
2.789096435546875,-0.4501728212777525,0.7438257319360971,9.85825393050909,0.0058687189593911,-0.2547016441822052,-0.1762473732233047,jumping
2.79917041015625,-0.4390977754360065,1.1033055250495671,10.421202286291122,-0.0508504807949066,-0.2512663304805755,-0.2389328479766845,jumping
2.809244140625,-0.4248783671539277,1.3815157327085732,10.61405008622408,-0.1299615502357483,-0.2004835903644561,-0.2695789039134979,jumping
2.8193193359375,-0.5322656327486038,1.4833619499847293,10.675827035701277,-0.2087416350841522,-0.1202360466122627,-0.2971648871898651,jumping
2.829393310546875,-0.8801501190058887,1.7384905572637914,10.708041206085682,-0.2913433015346527,-0.0431085117161273,-0.3309257626533508,jumping
2.839467529296875,-0.8600315331500024,2.047575795657933,10.57183942248225,-0.3700001239776611,0.0317942686378955,-0.3462272584438324,jumping
2.84954150390625,-0.4077657216483726,2.060005069120228,10.019608860069512,-0.3444311320781708,0.0879619345068931,-0.336421251296997,jumping
2.859615478515625,0.0844217019429895,2.0696084715068337,9.260970758926868,-0.2118427157402038,0.075833536684513,-0.2963766455650329,jumping
2.8696904296875,0.2470081734592094,2.3752561366677285,8.778456122297047,-0.1167513653635978,0.0094904694706201,-0.2273584306240081,jumping
2.8797646484375,0.0829363770223688,2.5078502511680125,8.043459593504666,-0.1220784038305282,-0.0146695766597986,-0.1961305141448974,jumping
2.88983837890625,0.2281697270743548,2.3649719124101103,6.620487230291962,-0.1278779655694961,0.0251452140510082,-0.1547535061836242,jumping
2.89991259765625,0.7083565783437341,1.918995885235071,4.970170338782668,-0.0528678782284259,0.0482160747051239,-0.1124546825885772,jumping
2.9099873046875,1.484158653320372,1.2563463613815604,3.235365484294295,0.0624118410050869,-0.1376973241567611,-0.0843495428562164,jumping
2.9200615234375,2.518011871959269,0.6090533966138959,0.3137269267201423,0.1733254939317703,-0.3252692520618438,0.0127813126891851,jumping
2.93013525390625,3.435930142214894,-1.2690401309989392,-3.675283088213205,0.1795746088027954,-0.2642405331134796,0.1787851899862289,jumping
2.940209228515625,3.092364834330976,-4.662382154461741,-8.118648982262611,-0.2443376630544662,0.0562534816563129,0.2458106428384781,jumping
2.950284423828125,0.9735790018748492,-8.216254785490035,-13.731915564775466,-1.1464298963546753,0.7167131900787354,0.1327429413795471,jumping
2.960358154296875,-1.6865635322801769,-10.697316398453712,-22.396517344355583,-2.224935531616211,1.8273767232894895,-0.2245397716760635,jumping
2.9704326171875,-1.640759958612919,-10.81341647427082,-35.538643308174606,-2.8551218509674072,3.2290148735046387,-0.5651841163635254,jumping
2.98050634765625,2.843057772812247,-7.870179248350858,-48.94057288534641,-2.2844409942626958,3.851377248764038,-0.4913673996925354,jumping
2.99058154296875,8.212295234209298,-5.443102323552965,-56.43541075458526,-0.7198714017868042,3.068777084350586,-0.0580617785453796,jumping
3.000655517578125,11.88362929253578,-4.331138860273361,-55.632053221750255,1.263750076293945,1.5803059339523315,0.5626426339149475,jumping
3.0107294921875,12.482417023462055,-4.586610874162614,-47.07645308415889,2.558420419692993,0.2220569849014282,0.9877249598503112,jumping
3.020803466796875,9.00790668296218,-5.675615778920054,-34.09273956670761,2.7583844661712646,-0.4527696669101715,1.0928620100021362,jumping
3.03087744140625,4.074010019087791,-6.763208186531067,-22.01535529626608,2.0800373554229736,-0.2285245656967163,1.0154914855957031,jumping
3.040952392578125,0.2694188523076474,-6.597983722060919,-13.26358493632078,1.0655488967895508,0.6986324191093445,0.8959895968437195,jumping
3.051026611328125,-1.780272035808116,-5.934055702704191,-7.177021627378464,0.2181328982114792,1.5354011058807373,0.7621169686317444,jumping
3.061100341796875,-2.5679499150827527,-4.491321238923073,-3.826868318909407,-0.1620255410671234,1.7531839609146118,0.7438852190971375,jumping
3.07117431640625,-2.367541762898117,-2.4993884200319645,-2.5603783107846976,-0.1352615803480148,1.559854507446289,0.7700260281562805,jumping
3.081249267578125,-0.7519646147280931,0.3102928606182337,-2.870167898055911,0.0438503362238407,1.2801039218902588,0.9207919239997864,jumping
3.0913232421875,1.3161600479617714,3.816177413547039,-3.3834424146085977,0.4602670073509216,0.8028988242149353,1.1010842323303225,jumping
3.1013974609375,1.5859266907937823,5.9724880169510834,-2.710241539993882,1.2699393033981323,-0.0105719994753599,1.1183327436447144,jumping
3.111471435546875,0.67306658071056,7.50090579097569,0.2617892342120408,2.219085454940796,-0.726536750793457,1.1030235290527344,jumping
3.121546630859375,-1.6955996561728417,7.865425916343927,5.074189516183734,2.9764132499694824,-1.0826454162597656,0.9125773906707764,jumping
3.131620361328125,-4.029704428893328,7.92635063290596,11.053885272556542,3.382820606231689,-1.1571828126907349,0.6683186888694763,jumping
3.141694580078125,-4.534023777835071,7.972352505624293,16.75328816977739,3.3884568214416504,-1.080378174781799,0.4420899748802185,jumping
3.151768310546875,-3.6849762147098777,7.999528097319603,20.807450163578984,2.988490581512451,-0.7073010206222534,0.3745138347148895,jumping
3.161843505859375,-2.1397394078314305,8.482762864917516,23.958247605395314,2.129590511322021,-0.4686991274356842,0.4638718068599701,jumping
3.17191748046875,-2.218881479737908,8.095236542493105,25.751621553230283,0.945832371711731,-0.4791115522384643,0.4041618704795837,jumping
3.18199169921875,-3.6180341375544662,7.379390119850635,25.106066225910187,-0.3279777765274048,-0.4760220050811767,0.1382296234369278,jumping
3.192065673828125,-4.739831597106159,6.73082567384243,22.342346193706987,-1.4472856521606443,-0.5012165904045105,-0.2359186708927154,jumping
3.2021396484375,-4.363505006349087,6.449857691907883,18.4866118457973,-2.2494900226593018,-0.6911266446113586,-0.5637385249137878,jumping
3.212214599609375,-3.084530779704451,6.595020196080207,14.682294381392,-2.727424383163452,-0.9491462111473083,-0.7471312284469604,jumping
3.222288818359375,-1.6652118244327605,6.359105407837033,9.06337196507454,-2.597886800765991,-0.7389668226242065,-0.7812778949737549,jumping
3.23236279296875,-1.0427422622110694,6.275396612536907,5.272864999356866,-2.1957952976226807,-0.6423662304878235,-0.7289105653762817,jumping
3.242436767578125,-0.7467317555759102,6.675512367421388,3.359271265426278,-1.5736647844314575,-0.8341386318206787,-0.5636042952537537,jumping
3.25251171875,0.176697021729499,5.956714109236001,2.635474760562181,-0.92059588432312,-0.962472140789032,-0.3204140365123749,jumping
3.262585693359375,0.2276250257384031,5.23665679090023,3.688160105443,-0.4492416381835937,-1.084726095199585,-0.1073661372065544,jumping
3.27265966796875,-0.1127388557557016,4.569916928993165,5.519926620036364,-0.2179626375436782,-1.2027182579040527,0.0263852719217538,jumping
3.282733642578125,-0.243092461320199,3.858762171298266,6.747343093401193,-0.149204820394516,-1.1664711236953735,0.1522043198347091,jumping
3.292808837890625,0.1402533970817923,3.301706088425219,7.53904467523396,-0.1520163267850875,-1.0633386373519895,0.3231531679630279,jumping
3.302882568359375,0.2519131523638963,2.891638848368824,8.0316125038445,-0.2021245658397674,-0.8714314699172974,0.395925760269165,jumping
3.312956787109375,0.1319656986699439,2.5714564618989826,8.006597305053472,-0.2169988453388214,-0.6890180110931396,0.5098981261253357,jumping
3.323030517578125,0.2224826761475764,2.4917592403277755,7.913695733994245,-0.206885427236557,-0.4839176833629608,0.6098456978797913,jumping
3.333105712890625,-0.063178404639801,2.0780396152436733,7.92450295921266,-0.2108985334634781,-0.3637289702892303,0.6172999143600464,jumping
3.3431796875,-0.7732678072586655,1.4798980732664464,8.12168908061087,-0.2012009024620056,-0.3798892199993133,0.4921920597553253,jumping
3.353253662109375,-1.6799373921386898,0.6303223946139216,8.289449785560368,-0.2269262373447418,-0.3970354497432709,0.2597923874855041,jumping
3.363327880859375,-1.3570987920716404,0.3044412119805812,8.430213177990913,-0.3079790472984314,-0.300337553024292,0.1270933598279953,jumping
3.373401611328125,-0.5034783680729568,0.6003337913244963,8.863264403271675,-0.4290069341659546,-0.1777064353227615,0.099910207092762,jumping
3.383476806640625,-0.3678704952420666,0.5034735457673668,9.18052710290253,-0.5169026255607605,-0.171522319316864,0.056399866938591,jumping
3.393550537109375,-0.2693352108784951,0.4548056687101721,8.880555729812382,-0.5510920286178589,-0.2447230368852615,-0.0007587614236399,jumping
3.403624755859375,-0.1810620120059698,0.5429354953229427,8.411109833592176,-0.59324049949646,-0.2815748155117035,-0.0668451339006424,jumping
3.41369873046875,0.1183305839486885,0.728682231079042,7.608027610567212,-0.6032577157020569,-0.2823817431926727,-0.0911643207073211,jumping
3.423773681640625,0.1394769419497344,0.912754603882134,6.587690876105428,-0.5619555711746216,-0.300830602645874,-0.0764849632978439,jumping
3.43384765625,-0.0743385988811962,0.8939432281672954,5.357306200584769,-0.4109775722026825,-0.3225233852863312,-0.027413023635745,jumping
3.443921630859375,-0.3771303814206272,0.6847969121232629,4.355625651276111,-0.1881781667470932,-0.3712991178035736,0.0183111559599638,jumping
3.45399560546875,-0.7838313599143176,0.5992743453994392,3.5445284640997645,0.0351611748337745,-0.3121513724327087,0.0890716165304184,jumping
3.46407080078125,-0.831393906078115,0.4070224655330181,2.6285832474827764,0.2137380242347717,-0.239090010523796,0.2099887281656265,jumping
3.47414453125,-0.264394813600555,0.0590174216359853,1.7582056038200855,0.3184292614459991,-0.2270421385765075,0.3856154084205627,jumping
3.48421875,0.2401816519074142,-0.7115262213557958,0.1377951902747154,0.3772557377815246,-0.3292409777641296,0.4524028897285461,jumping
3.494292724609375,1.049066935187951,-1.867294631831348,-2.808413160410524,0.3924831748008728,-0.4984800815582275,0.423603743314743,jumping
3.50436669921875,2.547875679825246,-4.025380428214371,-6.23204846919775,0.27669557929039,-0.4859130680561065,0.3496898114681244,jumping
3.51444189453125,3.467566220450401,-6.640742082813381,-10.170945084440708,-0.0657355561852455,-0.3520562052726745,0.3124979734420776,jumping
3.524515625,2.707313085326552,-8.401582126790284,-15.882225466459987,-0.6782468557357788,-0.1381042450666427,0.3154813647270202,jumping
3.53458984375,-0.3811989095011726,-9.30052535520196,-24.84221772108078,-1.1363842487335205,0.2834046483039856,0.2727198004722595,jumping
3.54466357421875,-3.0612980804160235,-8.846310345861315,-35.622907983791826,-0.9647790789604188,0.7614570260047913,0.182864248752594,jumping
3.55473876953125,-3.35896000752002,-8.818267323681711,-42.18660014467239,-0.2979946732521057,0.5576387047767639,0.0468491502106189,jumping
3.5648125,-2.046402367964387,-9.44271030486822,-41.98964900107384,0.2619484663009643,0.0561754405498504,0.0177576206624507,jumping
3.57488671875,-0.8680760887220501,-9.913540348923206,-38.26209212026596,0.2442991733551025,-0.1056587323546409,0.1175513267517089,jumping
3.584960693359375,0.0385380031110718,-9.648668930786847,-35.78385024089813,-0.028139354661107,-0.0404327400028705,0.4050739705562591,jumping
3.59503564453125,-0.3478286644168198,-8.771260073313117,-35.08574171952009,-0.0048545394092798,0.0090996567159891,0.7374045252799988,jumping
3.605109619140625,-2.0586888719551264,-7.459507612660527,-32.940062400245665,0.503322184085846,-0.0675011128187179,1.0196750164031982,jumping
3.61518359375,-4.545090823033452,-6.348477046316861,-26.883024460995195,1.1478947401046753,-0.1081792935729026,1.1145858764648438,jumping
3.6252578125,-6.46427726240456,-5.376832738831639,-17.734352047514914,1.542937397956848,0.0518942698836326,1.0164376497268677,jumping
3.635332763671875,-6.302495047342777,-3.852928935100138,-8.997268969091772,1.662055730819702,0.3758249282836914,0.782338559627533,jumping
3.64540673828125,-4.473597950705885,-1.8757012256488204,-2.2642226965904237,1.686669111251831,0.4999513924121856,0.5225133299827576,jumping
3.65548095703125,-2.5038331244811416,0.1309910632178187,2.5811744305759667,1.7423582077026367,0.5314477682113647,0.3177218437194824,jumping
3.6655546875,-1.192272971530259,1.9353230429187416,6.331936245882511,1.8019428253173828,0.5460662245750427,0.1690435260534286,jumping
3.6756298828125,-0.3283152413798496,3.156783822749555,9.458552601644396,1.907030701637268,0.5800188779830933,0.0388967171311378,jumping
3.685703857421875,0.7235303282085805,4.402515120483935,12.064251232624054,1.9816924333572388,0.5517927408218384,-0.0743624344468116,jumping
3.695777587890625,1.7112036141484974,5.1789720791727305,14.383028526222706,1.9842724800109863,0.4372642934322357,-0.1604238301515579,jumping
3.705851806640625,2.6371456163838505,5.453630147308111,16.492589068889618,1.8741413354873655,0.2685271203517914,-0.2049095183610916,jumping
3.715925537109375,3.499147938150167,5.404726707929372,18.78270140901804,1.5295560359954834,-0.0248163230717182,-0.2571620643138885,jumping
3.726000732421875,3.997322792987525,5.616043061488867,20.565733995580672,0.9484584331512452,-0.4474412202835083,-0.2938559651374817,jumping
3.736074462890625,3.7102117782533166,5.945716914403438,20.717447821092605,0.2633040845394134,-0.7503169775009155,-0.3068854808807373,jumping
3.746148681640625,3.1066473344445225,6.3826096175432205,19.402175369620323,-0.4133937656879425,-0.8985973596572876,-0.2879229485988617,jumping
3.756222900390625,2.091472805051505,6.811780786520242,16.84865408512354,-0.9828044772148132,-0.9115172028541564,-0.2676674723625183,jumping
3.766297607421875,1.3974154587604104,7.317047353184223,13.655470622998475,-1.442896842956543,-0.7345677614212036,-0.2634486556053161,jumping
3.776371826171875,0.9436176519185304,7.728371899825334,9.742388247969746,-1.6533489227294922,-0.2980023622512817,-0.2495096772909164,jumping
3.78644580078125,0.6802548847794533,7.992029850518703,5.982859773361683,-1.5438084602355957,0.135000079870224,-0.2139632999897003,jumping
3.796519775390625,0.5198812213413417,7.961160665002465,3.242523539355397,-1.1726083755493164,0.4134583175182342,-0.1666541099548339,jumping
3.806594970703125,0.7812693274065852,7.5727809406191104,2.0565338858783244,-0.7107087969779968,0.5429301261901855,-0.0668110698461532,jumping
3.816668701171875,0.922083280980587,7.088676988971233,2.889256629407406,-0.3760842084884643,0.4826518297195434,0.0610784515738487,jumping
3.82674267578125,1.0524251595746723,6.522202797150611,5.067234874740243,-0.2443328350782394,0.3018462061882019,0.1746337860822677,jumping
3.836816650390625,1.5294367418088015,5.958260754156112,7.341862645488977,-0.3219956755638122,0.1646542400121688,0.2872444987297058,jumping
3.846890625,1.4478608668841422,5.4453854660540815,8.973597001603245,-0.5316944122314453,0.1295096278190612,0.4185348153114319,jumping
3.856965576171875,0.909820888517797,4.753940494218468,9.510628825840351,-0.7086931467056274,0.1712698638439178,0.5258631706237793,jumping
3.86703955078125,0.5690342150343581,3.89410499509722,9.42128465500176,-0.7958443760871887,0.196642518043518,0.637136697769165,jumping
3.87711376953125,0.4529869653830304,3.219041249220073,8.99501680625081,-0.7873475551605225,0.1691246032714843,0.7503389120101929,jumping
3.887187744140625,0.3336743937928229,2.5287685360342262,8.509778297615052,-0.6725389957427979,0.1349478960037231,0.8260130882263184,jumping
3.8972626953125,-0.0940929728008806,1.9849024818629024,8.231230820825695,-0.4467670917510986,0.0672823041677475,0.8557371497154236,jumping
3.907336669921875,-0.5466050506811588,1.66430362354666,8.599731540262699,-0.2372012734413147,0.0166673064231872,0.8214367032051086,jumping
3.917410888671875,-0.7113792141005396,1.4992667906031012,9.410337729051708,-0.111696608364582,-0.0379344187676906,0.7443981170654297,jumping
3.927484619140625,-0.6573826893664896,1.2542065728738905,10.273825613200664,-0.0862642154097557,-0.0728202313184738,0.6382637023925781,jumping
3.937559814453125,-0.4817667408719658,1.1163654976308346,11.057857683318852,-0.183566004037857,-0.0845301523804664,0.5172768235206604,jumping
3.9476337890625,-0.3382019907524809,1.2544614244177936,11.383478461450338,-0.3506560623645782,-0.0876404941082,0.4075839817523956,jumping
3.95770751953125,-0.3548130434114486,1.322742641222477,10.982408766841887,-0.4897393882274627,-0.0655815303325653,0.3116574287414551,jumping
3.96778173828125,-0.3054032984783872,1.447994284005463,10.092212323987484,-0.5383643507957458,-0.0795500427484512,0.2479380220174789,jumping
3.977856689453125,-0.3014840426754206,1.688384171836078,9.203089063322544,-0.5016233921051025,-0.0992182865738868,0.2127438187599182,jumping
3.9879306640625,-0.3383946272477507,1.891524233202636,8.284286703708768,-0.4077429175376892,-0.0946983695030212,0.1993212103843689,jumping
3.998004638671875,-0.4998698221869766,1.980707075999677,7.596860319864749,-0.2802203595638275,-0.1028990373015403,0.1790337860584259,jumping
4.008077880859375,-0.4849378451887517,1.959552352029085,7.602357748237252,-0.1540622115135193,-0.1130021661520004,0.1618405729532241,jumping
4.01815283203125,-0.4960034290824085,2.093367532756925,6.902326734364032,-0.0865742415189743,-0.1180864050984382,0.1538870483636856,jumping
4.028226806640625,-0.575541368438676,2.1396187040612102,6.260979380127787,-0.0011004832340404,-0.0834967941045761,0.1654815524816513,jumping
4.03830078125,-0.5739147170849144,1.8991966675266625,5.367034982916713,0.0910100042819976,-0.078548640012741,0.1242424994707107,jumping
4.04837451171875,-0.710039855255559,1.1790014020249246,4.107698938199878,0.1059357672929763,-0.2378866672515869,0.0558165460824966,jumping
4.05844970703125,-0.5496819739084691,0.5690981105834245,2.6573306185394525,0.1142304465174675,-0.4299903213977813,-0.0711893364787101,jumping
4.068523681640625,-0.4525065249223262,-0.2784945775583386,0.1080868652313947,0.098045065999031,-0.64595627784729,-0.2473972141742706,jumping
4.07859765625,-0.743289579232782,-2.309410622577369,-2.4590637161672118,-0.2638471126556396,-0.7380451560020447,-0.4339670836925506,jumping
4.088671630859375,-1.3070764316655694,-4.19517176220864,-4.68558591991663,-1.0608181953430176,-0.4278579652309418,-0.5770054459571838,jumping
4.09874658203125,-2.036391846081614,-5.99142535713315,-9.214301362210511,-1.879265069961548,0.345926970243454,-0.5207522511482239,jumping
4.108820556640625,-2.53598884267658,-7.448678175610303,-19.655619384813303,-2.034585237503052,0.935369074344635,-0.2230970710515976,jumping
4.118894775390625,-3.2150486724525686,-7.734300120830535,-34.09423126657009,-1.286505103111267,0.741341233253479,0.1286995857954025,jumping
4.12896875,-4.375552879278361,-7.644850151529908,-46.15958607652187,0.0470647700130939,0.1734915524721145,0.3592812120914459,jumping
4.139043701171875,-5.902485090920329,-6.801085789504647,-51.85980145916938,1.2520471811294556,0.1167534440755844,0.3866598308086395,jumping
4.14911767578125,-6.387896033513545,-5.956464518389105,-49.96867207050323,1.857274293899536,0.6872559189796448,0.0766743794083595,jumping
4.15919189453125,-6.543529078295826,-5.960128886115551,-42.53992726037502,2.01340651512146,1.2726067304611206,-0.281035304069519,jumping
4.169265625,-5.959368423137068,-7.30468705330491,-33.620719436085224,1.8258957862854004,1.5585800409317017,-0.262663871049881,jumping
4.179339599609375,-1.75255108518973,-9.05795812333226,-25.455481721127036,1.122897744178772,1.4397151470184326,0.0689036697149276,jumping
4.189414306640625,3.544615265600383,-10.254766692465545,-17.25117456306219,0.3471322953701019,0.9477830529212952,0.4555761516094208,jumping
4.199488037109375,6.569070346787572,-10.526682768416403,-11.211681632852551,-0.1035541668534278,0.2935943305492401,0.7961417436599731,jumping
4.209562255859375,7.183176642876863,-9.74186042470336,-8.934007918536663,-0.1277361065149307,-0.3219117820262909,0.8811042904853821,jumping
4.219635986328125,4.959531455868483,-7.495803499400615,-8.247624321743846,0.1306736171245575,-0.7932202219963074,0.7952362895011902,jumping
4.229711181640625,1.6067223721936343,-4.576762849365174,-7.5986045331835745,0.5349573493003845,-0.8286793231964111,0.5757966041564941,jumping
4.239784912109375,-1.200453939898312,-1.856723553456366,-6.499239270192384,0.9723035097122192,-0.627106785774231,0.2896394431591034,jumping
4.249859375,-3.129698247425258,0.6343880366176367,-4.755044071546196,1.5306098461151123,-0.2476252317428589,0.0003020192962139,jumping
4.259933349609375,-3.9903208052709696,2.926860091614723,-2.054874428233504,2.197153329849243,0.0961896702647209,-0.2310957908630371,jumping
4.27000830078125,-4.302315209110081,4.797515432050824,1.588884225425124,2.802265882492065,0.2888603508472442,-0.409733772277832,jumping
4.280082275390625,-4.150119445300102,6.121027888602018,5.8823319452077145,3.110689401626587,0.4345560371875763,-0.5787382125854492,jumping
4.290156005859375,-3.352806453326344,6.978906116175651,10.321683927440644,2.9738805294036865,0.5791420340538025,-0.70460444688797,jumping
4.300230224609375,-1.9825671707831325,7.593623237639665,14.741010774254798,2.493272066116333,0.589490532875061,-0.7428597211837769,jumping
4.310303955078125,-0.6602406360808759,7.589533922499418,18.78292118924856,1.803719401359558,0.368447333574295,-0.7598230242729187,jumping
4.320379150390625,-0.0943850876152515,7.241043140912056,21.291614320981505,1.0003036260604858,0.0579283572733402,-0.7933633923530579,jumping
4.330453125,0.1224986725467257,7.711279310727119,22.083454434502123,0.1565512865781784,-0.2992407381534576,-0.8849437236785889,jumping
4.340527099609375,0.0420596926975063,7.838017684936523,21.46496948493719,-0.5256813764572144,-0.5613466501235962,-0.943199336528778,jumping
4.35060205078125,0.0203652997591067,7.76931532011032,19.342736507701872,-0.9922117590904236,-0.7285588979721069,-0.9627339243888856,jumping
4.36067626953125,0.1694142260438762,8.07747233774364,16.89887503684163,-1.2892833948135376,-0.8463135361671448,-0.934904158115387,jumping
4.3707509765625,0.1202931709922384,8.3143457418859,14.338027354979516,-1.4346648454666138,-0.7998942732810974,-0.868294894695282,jumping
4.3808251953125,-0.316985965048708,8.401057226133346,11.4616535880208,-1.448652744293213,-0.6228652000427246,-0.7679693698883057,jumping
4.39089892578125,-0.3554620088394731,8.475111473381519,8.755794793155788,-1.344700574874878,-0.4393652379512787,-0.6705114841461182,jumping
4.400973388671875,-0.2764133143048733,8.296465801802277,6.568752951401471,-1.1963878870010376,-0.3063811063766479,-0.5805975794792175,jumping
4.411047119140625,0.1759697121019475,8.071983677199482,5.040303613194823,-1.0293841361999512,-0.2301882058382034,-0.4725862443447113,jumping
4.421122314453125,0.8293195109568536,7.5280837207585565,4.285256230020523,-0.8421427607536316,-0.2998860776424408,-0.3186939060688019,jumping
4.4311962890625,1.4094928500451147,6.77215429405272,4.496475552946329,-0.6856510639190674,-0.4816625714302063,-0.1430014818906784,jumping
4.441270263671875,1.819578648671508,5.865539215838909,5.498054979968071,-0.602449357509613,-0.6418091058731079,0.0402983054518699,jumping
4.45134423828125,1.857487815827131,4.976190914246439,6.744895700249075,-0.6315508484840393,-0.686808705329895,0.1846366226673126,jumping
4.46141943359375,1.540801600909978,4.248279375278949,8.079882321494818,-0.7436867356300354,-0.6165710091590881,0.2614738643169403,jumping
4.4714931640625,1.061238653692603,3.764210787205398,9.24921660824716,-0.8486820459365845,-0.5001043081283569,0.2875026762485504,jumping
4.481567138671875,0.6841790724858641,3.4234044226408,9.865241305178404,-0.8750295042991638,-0.38617804646492,0.2694270014762878,jumping
4.49164111328125,0.132078712324053,3.037408670784533,9.918839624375105,-0.8670645356178284,-0.3037238121032715,0.235932245850563,jumping
4.501716064453125,-0.0970482058772817,2.6715701562941074,9.936759896469116,-0.8478186726570129,-0.2660097181797027,0.1974943131208419,jumping
4.5117900390625,0.0564553891282528,2.222396063730121,10.047454313850402,-0.8229383230209351,-0.2710292637348175,0.1469952911138534,jumping
4.521864013671875,0.2588660767743364,1.8694024177655575,10.112928948801756,-0.8228312730789185,-0.2966701984405517,0.0948151797056198,jumping
4.5319384765625,0.3981738270364701,1.6586816920116545,10.168145224589107,-0.8259460926055908,-0.3498795330524444,0.047523844987154,jumping
4.542012939453125,0.5973972264159471,1.393935361559689,10.10029275459051,-0.8298732042312622,-0.3558593988418579,0.0228035859763622,jumping
4.55208740234375,0.7886617026802152,1.2219754513546823,9.777841838666795,-0.8111857771873474,-0.2927442193031311,-0.0064453654922544,jumping
4.5621611328125,0.8307409951273351,1.130426756209135,9.21012846044004,-0.778272807598114,-0.2784878015518188,-0.0295472219586372,jumping
4.5722353515625,0.9927361222874372,0.997994554272294,8.762129256874323,-0.727766752243042,-0.3010224997997284,-0.0207538921386003,jumping
4.58230908203125,1.1876278491381556,0.9149711108878256,8.35200064201951,-0.6996373534202576,-0.3680364191532135,0.0134972874075174,jumping
4.59238427734375,1.1369108575314282,0.7806208003699779,7.790463322079181,-0.6939771771430969,-0.4657908380031585,0.0859070792794227,jumping
4.602458251953125,1.1177656467523425,0.7269596450701356,6.87172701343894,-0.6722995638847351,-0.5654582977294922,0.1593386828899383,jumping
4.612531982421875,0.8763190894756465,0.6957073054552078,5.284044565019011,-0.5738427042961121,-0.6301140189170837,0.1866010576486587,jumping
4.622606201171875,0.645854456397146,0.4808694997712969,2.8151193800508976,-0.3772023320198059,-0.7087449431419373,0.1228138208389282,jumping
4.632680908203125,0.7822994741719216,-0.4625254493072628,0.0569248332709074,-0.1874444037675857,-0.680141806602478,0.0249647554010152,jumping
4.642755126953125,0.9793241213981062,-1.234527766674757,-2.7753648772895336,-0.081398919224739,-0.4752171039581299,-0.0785901397466659,jumping
4.6528291015625,1.0247137074369936,-2.4743866652444004,-5.995667232486605,-0.0652646943926811,-0.2523417770862579,-0.103207878768444,jumping
4.6629033203125,1.378000710324943,-4.407198602125049,-9.59529097634256,-0.2073227763175964,0.0209677927196025,0.0846927836537361,jumping
4.67297802734375,2.0513219964489338,-5.974115325891972,-14.469801969790458,-0.2150434702634811,0.3871191442012787,0.3631398379802704,jumping
4.68305224609375,2.2506221873916683,-6.865238820463419,-21.952000137686728,0.1880062520503997,0.4598074555397033,0.5644396543502808,jumping
4.693126220703125,1.4282368596121668,-7.570669647553562,-29.051895270764827,0.9253294467926024,0.3535198867321014,0.6440842151641846,jumping
4.703200439453125,0.516869253109023,-8.175166403776407,-32.73410728145838,1.5175848007202148,0.3902416825294494,0.6107267737388611,jumping
4.713275146484375,0.1671589396640658,-8.871397440844774,-33.63108651632071,1.486035704612732,0.4146735370159149,0.6346383094787598,jumping
4.723349365234375,0.0881982156738638,-10.722242749917507,-31.25691057610512,0.8543314933776855,0.2072452455759048,0.811246931552887,jumping
4.733423095703125,0.6292491393592208,-12.009380993795396,-28.324696263980865,-0.0240522418171167,-0.1611085534095764,0.9814742803573608,jumping
4.7434970703125,0.4190820289000868,-12.191198865669966,-27.95634927380085,-0.5803019404411316,-0.3116975128650665,0.9346471428871156,jumping
4.753572265625,-1.6888681559607386,-9.836660522860289,-29.899339782607555,-0.682449460029602,-0.0865248218178749,0.6648624539375305,jumping
4.76364599609375,-5.114282457119226,-6.475432862669229,-31.066066517210004,-0.2644732296466827,0.5265119671821594,0.2386160641908645,jumping
4.77372021484375,-8.458339202278852,-3.0847277635812755,-29.9126785721302,0.4470171630382538,1.1303752660751345,-0.1402249783277511,jumping
4.783794189453125,-8.616654033491015,-0.1890548373907804,-25.148829847359657,1.0149508714675903,1.415082931518555,-0.3944860100746155,jumping
4.793869140625,-6.276738090273738,1.6677902966186404,-17.107119143348932,1.1853222846984863,1.4059232473373413,-0.4168692827224731,jumping
4.803943115234375,-2.3447655752055345,3.016813626523316,-8.682727803379297,1.0560513734817505,1.0841870307922363,-0.1211249828338623,jumping
4.814017333984375,1.0611656615216285,3.620244799341261,-1.6090794567137956,0.9228439331054688,0.7158148288726807,0.2655082643032074,jumping
4.82409130859375,2.0630653334736824,3.4632366668134926,2.706306538632512,0.8794330358505249,0.3499351441860199,0.6023494601249695,jumping
4.834165283203125,1.7016989959612487,3.765600487998128,5.796484384313225,0.9429751634597778,0.0579167306423187,0.7793378233909607,jumping
4.844240234375,0.4043951492367312,4.497830182425678,8.33987590446174,1.16764235496521,-0.2073290646076202,0.6996616721153259,jumping
4.854314208984375,-1.310015261596441,5.105057532656192,10.025622421270608,1.535248041152954,-0.4301640093326568,0.4487121105194092,jumping
4.86438818359375,-2.1787395850941538,5.49524109159112,11.57715277533531,1.8964617252349851,-0.564315140247345,0.1194567084312439,jumping
4.8744619140625,-2.494059041702747,5.446169894430041,13.606597578758,2.079402446746826,-0.6075381636619568,-0.1861825883388519,jumping
4.884537109375,-2.6476211254298687,4.6055774404391645,16.033070692443847,1.74375581741333,-0.4855654239654541,-0.331683337688446,jumping
4.894611328125,0.1966908121619373,4.899143622662127,18.723339703989023,0.9084617495536804,-0.6219796538352966,-0.4314233660697937,jumping
4.90468505859375,1.5560608371011913,4.573939316377044,21.522437339043616,-0.2263519465923309,-0.6432487368583679,-0.4653967618942261,jumping
4.91475927734375,2.013529441410303,4.037474186111987,21.68953344260454,-1.301687479019165,-0.4734638929367065,-0.4381989538669586,jumping
4.924834228515625,1.8342618385404348,3.759138598507642,19.24955670422316,-1.9175165891647337,-0.3235098123550415,-0.3926706314086914,jumping
4.934908203125,1.3932989633522928,3.792641055136919,15.070891547918318,-2.0749876499176025,-0.2026639580726623,-0.357898861169815,jumping
4.944982421875,1.0644370113424957,3.9689033387109633,10.298214204525946,-1.8673632144927976,-0.090003453195095,-0.3562373220920563,jumping
4.95505615234375,0.5860895773947239,4.113836125780642,6.084200671464204,-1.4174367189407349,-0.0122192595154047,-0.3955652415752411,jumping
4.96513134765625,0.1942833126287907,4.325191934567689,3.1156513096332548,-0.8505728840827942,0.0479005351662635,-0.44315966963768,jumping
4.975205078125,0.3772679632604122,4.5761982012197375,1.8040876495510336,-0.348709762096405,0.0532826893031597,-0.4425634145736694,jumping
4.985279296875,0.8781107221327722,4.672478893323242,2.223732865291834,-0.0340996235609054,-0.0585911124944686,-0.3997645378112793,jumping
4.995353271484375,1.5036087653301655,4.6164401952371,3.866702316647768,0.0937951430678367,-0.2028097957372665,-0.3085464537143707,jumping
5.00542822265625,2.0604057588756084,4.413349818231165,5.619232797440886,0.087007813155651,-0.228735402226448,-0.1799040585756302,jumping
5.015502197265625,2.4709894240215418,4.0852451143294575,6.8544748498648405,0.0122829098254442,-0.180720254778862,-0.0470591373741626,jumping
5.025576171875,2.3909097790040077,3.807750945985317,7.6623332012504335,-0.0519703775644302,-0.1493317037820816,0.0753658488392829,jumping
5.035650146484375,2.2360034410610794,3.616109014710784,8.116236660423874,-0.0636550337076187,-0.1579797714948654,0.1792878657579422,jumping
5.04572412109375,2.058656430990249,3.5013702903747554,8.403896833473443,-0.0424128696322441,-0.2242970019578933,0.2709871530532837,jumping
5.055799072265625,1.8418530243217943,3.4658906884536145,8.687453662857413,-0.0124997487291693,-0.2967954277992248,0.3454021513462066,jumping
5.065873291015625,1.6517919324979184,3.438522204534709,8.958073269256948,0.0178174097090959,-0.3015781939029693,0.3990475237369537,jumping
5.075947265625,1.3018801781967282,3.3472152091905474,9.050503715673088,0.0501857213675975,-0.2626027762889862,0.4068716168403625,jumping
5.086021240234375,0.8124747591398656,3.2161350063845515,9.26325916212499,0.0587808080017566,-0.1712243854999542,0.3860568702220917,jumping
5.096096435546875,0.530529018214345,3.216454447597265,9.613586511489748,0.0026344873476773,-0.0479911379516124,0.3414636850357055,jumping
5.106170166015625,0.4642052921529859,3.2624510596185923,10.10596612405181,-0.1008506193757057,0.0758112296462059,0.2714393436908722,jumping
5.116244384765625,0.4729167141359299,3.1633456654831766,10.458498289984464,-0.2000339925289154,0.1534266024827957,0.2019740343093872,jumping
5.126318115234375,0.5400327596187591,3.1193408118009565,10.57130283138752,-0.2696477174758911,0.1707651168107986,0.1412124186754226,jumping
5.136393310546875,0.6563344954878091,3.05112155431658,10.333619864428044,-0.2993193864822387,0.14781054854393,0.0851286724209785,jumping
5.146467041015625,0.676719769455865,2.858433328859508,9.762216984033584,-0.3084209859371185,0.0975234135985374,0.0254813209176063,jumping
5.156541259765625,0.6973037808664143,2.731877325479686,9.217932996711134,-0.3119380474090576,0.0015999288298189,-0.0188011433929204,jumping
5.166614990234375,0.8563490452449768,2.669470845927298,8.663224646008015,-0.3041065037250519,-0.085857480764389,-0.0404270775616169,jumping
5.176690185546875,0.7979976863022893,2.516263859248161,7.916471043926477,-0.291473388671875,-0.1006065607070922,-0.0241211634129285,jumping
5.18676416015625,0.5725935514837504,2.0800570925459265,7.061929267299175,-0.3062155842781067,-0.1631114929914474,0.0021551814861595,jumping
5.196838134765625,0.2978317307129502,1.6094196484535932,5.993883856201172,-0.2687543630599975,-0.162519633769989,-0.0198196116834878,jumping
5.206912353515625,0.1017554702527821,0.84780370054394,4.274810823851824,-0.1513619571924209,-0.1264609694480896,-0.1147392019629478,jumping
5.2169873046875,-0.2055947610422968,0.1062234094470739,2.050962223225832,-0.0078141586855053,-0.0037088943645358,-0.3293412923812866,jumping
5.227061279296875,-1.1857515338722615,-0.723461866082251,-0.6311994697093963,0.07094457000494,0.0701996833086013,-0.5619441866874695,jumping
5.23713525390625,-1.4581035900875925,-2.6924595073267814,-3.008637042069435,-0.0463902242481708,0.0001303846947848,-0.6455253958702087,jumping
5.247209228515625,-1.195163505339995,-5.1568298054695125,-5.0132180378705264,-0.4849875271320343,-0.0655154734849929,-0.5722842216491699,jumping
5.257283203125,-1.6109055030971764,-8.150277461713552,-7.436406723058223,-1.1730650663375854,-0.1284251809120178,-0.355086475610733,jumping
5.267358154296875,-2.037955880527943,-11.215490377485752,-11.37759934028387,-1.7571018934249878,0.0396477133035659,-0.1302874684333801,jumping
5.27743212890625,-3.2271555820927023,-13.004866195595264,-18.60752955102921,-1.9690454006195068,0.2193228900432586,0.0352155715227127,jumping
5.28750634765625,-4.620381626339256,-13.010510338962078,-28.23381713865995,-1.6940655708312988,0.1685992628335952,0.0235325489193201,jumping
5.297580078125,-6.560421760907769,-11.861910797202588,-37.910607417559625,-1.0098998546600342,0.0614459663629531,-0.0491708852350711,jumping
5.3076552734375,-7.259826751837134,-10.04150621910095,-45.28383200051784,-0.0801546573638916,0.0355555079877376,-0.0548221133649349,jumping
5.31772900390625,-7.02025636369586,-8.567862237793207,-47.98544541289806,0.8627345561981201,0.1305548250675201,0.007790295407176,jumping
5.32780322265625,-7.473001300483942,-7.945340580058097,-45.50192413182258,1.4369293451309204,0.2760672867298126,0.1221352517604827,jumping
5.337877197265625,-6.931499052834511,-8.160784827202558,-38.33520879440307,1.558382272720337,0.4363802671432495,0.2600751519203186,jumping
5.3479521484375,-5.417327830827236,-7.858685794433951,-29.77732668335437,1.434846043586731,0.6427526473999023,0.3571721315383911,jumping
5.3580263671875,-4.129837120249867,-7.11020493016839,-22.59505371131897,1.2791756391525269,0.9006367325782776,0.3570607304573059,jumping
5.36810009765625,-3.335980698470771,-5.776518870127201,-17.01834546587467,1.198676824569702,1.0230529308319092,0.2906705141067505,jumping
5.37817431640625,-2.4168898773044347,-4.246165159603953,-11.967627426171305,1.2114150524139404,0.9793795347213744,0.2068493217229843,jumping
5.38824951171875,-0.9537204551946372,-2.4155568751350045,-7.069728542873263,1.167374849319458,0.9397416114807128,0.0976666435599327,jumping
5.3983232421875,0.3571200051795691,-0.4343418496131896,-2.1007979750186205,1.018895149230957,0.8158995509147644,-0.0076358118094503,jumping
5.408397216796875,1.5651777711451054,1.6821563833624122,2.3511153826236724,0.9615926742553712,0.5452065467834473,-0.0941051915287971,jumping
5.41847119140625,2.486219141857326,3.648459086434543,5.298822447434067,1.1571191549301147,0.2870464026927948,-0.1095788553357124,jumping
5.428546142578125,3.00716375464648,5.2966836818397045,6.91247637245655,1.5385479927062988,-0.0093727456405758,-0.1361018121242523,jumping
5.4386201171875,2.844265979558229,6.384191333776712,8.514653210175037,1.868209958076477,-0.2005226165056228,-0.1232885345816612,jumping
5.448694091796875,3.027693624716997,7.183344985181093,10.695708963257074,2.0222630500793457,-0.2664044201374054,-0.1180205345153808,jumping
5.458768310546875,3.0819904475718736,7.498045725369453,13.44796067598462,1.9459761381149288,-0.3262433409690857,-0.1325080841779709,jumping
5.46884228515625,3.1112244331017136,7.242920625221728,16.329846484363078,1.6193276643753052,-0.4243866801261902,-0.1031765565276146,jumping
5.478917236328125,3.5983503629192706,7.104184939226507,18.768958130347727,1.0562840700149536,-0.6010381579399109,-0.0175624657422304,jumping
5.4889912109375,4.001839393629133,6.952372914037108,20.335294423878192,0.3822028338909149,-0.8047047257423401,0.1019911020994186,jumping
5.4990654296875,3.722905255609751,6.8243900927245615,20.61186446311474,-0.3007899522781372,-0.8400830030441284,0.2751210033893585,jumping
5.50913916015625,3.2488466048970817,6.519868216723204,19.734623363423346,-0.9613490104675292,-0.814337432384491,0.432249903678894,jumping
5.51921435546875,2.105710735370964,6.316167014342546,18.57042643955946,-1.5142523050308228,-0.6782383322715759,0.5224708914756775,jumping
5.529288330078125,0.9817292097784578,6.357528952300548,16.84939525887966,-1.8343162536621092,-0.3359260261058807,0.6138210892677307,jumping
5.539362060546875,0.7110586769092828,6.059835461014509,14.257239415562152,-1.8581894636154173,0.1492389440536499,0.6397033929824829,jumping
5.549436279296875,0.1859397741101682,5.721612975463271,10.989292096614838,-1.7323484420776367,0.5743225812911987,0.5886902809143066,jumping
5.559510986328125,-0.528070811407268,5.49887681774497,8.400443478149175,-1.545105218887329,0.6334946751594543,0.4616490006446838,jumping
5.569585205078125,-1.0255495737392455,5.718375308716297,6.793114664494991,-1.2237011194229126,0.4914374053478241,0.3269329965114593,jumping
5.5796591796875,-0.7836692281551658,5.538820705598592,5.468658789613842,-0.8880360722541809,0.3071216344833374,0.2299629002809524,jumping
5.589733154296875,-0.2683154941756278,5.130870019304752,4.72657785551846,-0.6782050728797913,0.1353261470794677,0.1376742571592331,jumping
5.59980810546875,-0.2181486107323318,4.85073147393167,5.170302450504899,-0.5882589817047119,0.0158918071538209,0.0962671488523483,jumping
5.609882080078125,-0.0538967906866222,4.575457611985504,6.134743110221624,-0.6094833016395569,-0.0191295593976974,0.0945872291922569,jumping
5.619956298828125,0.1500285027734935,4.093598808915913,6.978942356532812,-0.7117703557014465,-0.0278723835945129,0.1075618714094162,jumping
5.630030517578125,0.2661795050602406,3.521715159267187,7.797779198050499,-0.8265869617462158,-0.0384757593274116,0.142451673746109,jumping
5.640105224609375,0.4432372498609125,3.118705728767812,8.27506996255219,-0.9001569747924805,-0.0544786602258682,0.1810178905725479,jumping
5.650179443359375,0.4850303457777947,2.8738150223866104,8.291285768815875,-0.918346345424652,-0.0451069958508014,0.2160853296518325,jumping
5.660253173828125,0.3051527212508023,2.72139772478044,8.045384424087406,-0.8994085788726807,0.0044577908702194,0.2342671006917953,jumping
5.6703271484375,0.1341528882496059,2.5006208844363687,7.876285748532414,-0.8124555945396423,0.0247137937694787,0.2469778358936309,jumping
5.68040234375,0.0212490511905401,2.351804241670668,7.730478516715764,-0.6825375556945801,-0.0224140956997871,0.2410696595907211,jumping
5.69047607421875,-0.1074294242359697,2.2011659364357588,7.754511134210229,-0.5599101781845093,-0.0559797771275043,0.2153347432613372,jumping
5.70055029296875,-0.1830179683793336,2.091815334878862,7.965704153650998,-0.4796070456504822,-0.1147807836532592,0.1923222094774246,jumping
5.7106240234375,-0.1187222410142421,1.9892180069744585,8.323300617235898,-0.4218817055225372,-0.2113235741853714,0.193133145570755,jumping
5.720698486328125,-0.0777621618553996,1.9829326430946588,8.616566939729452,-0.4015888273715973,-0.2472645938396453,0.2194813042879104,jumping
5.73077294921875,0.033567192428559,1.876739336524904,8.643274913913011,-0.4312284588813782,-0.2798539698123932,0.2586390972137451,jumping
5.740847412109375,-0.0495260282564908,1.6944003633856772,8.705247678223252,-0.4869830012321472,-0.3444640338420868,0.2784326374530792,jumping
5.75092138671875,-0.2394794949874281,1.5512470070786772,8.182567619943619,-0.5008003115653992,-0.4758332371711731,0.3198389410972595,jumping
5.760995361328125,-0.0586014612462371,1.4236245435111223,7.024808620172738,-0.4755380749702453,-0.6241989135742188,0.33750981092453,jumping
5.7710703125,-0.0841175222314894,1.1967590309031306,5.272980734691023,-0.4286738932132721,-0.6761635541915894,0.2881694138050079,jumping
5.781144287109375,-0.5427821313921362,0.8449924425154924,2.848710684007406,-0.2902104556560516,-0.5455306768417358,0.1032912582159042,jumping
5.79121826171875,-0.7710387330323457,0.2096142258167266,-0.4629290616720914,0.017426723614335,-0.5006018280982971,-0.2361121177673339,jumping
5.8012919921875,-0.7736950927600265,-1.4974837065786122,-4.413267108383774,0.4244865775108337,-0.6882880926132202,-0.5509756207466125,jumping
5.8113671875,-0.5225768901661038,-3.490089894686639,-7.54956314663887,0.7292163968086243,-1.014519453048706,-0.7118350863456726,jumping
5.821441162109375,-0.6514068298272788,-5.059921921378374,-8.808916142490506,0.4728104174137115,-1.129783034324646,-0.6964352130889893,jumping
5.83151513671875,-1.437155932996422,-6.24892653876245,-9.191413238576054,-0.4275979399681091,-0.6056919097900391,-0.5922084450721741,jumping
5.841589111328125,-2.592776021042466,-6.75617054297924,-10.613858363044262,-1.4744243621826172,0.3180628716945648,-0.5943507552146912,jumping
5.851664306640625,-4.300754243403673,-6.757492731493711,-15.633203943884372,-2.0103447437286377,0.8382581472396851,-0.7629672288894653,jumping
5.861738037109375,-5.517538848116994,-6.25187252908647,-23.90320200999975,-1.7121171951293943,0.5743209719657898,-0.9580437541007996,jumping
5.8718125,-5.0833098112285136,-5.52459402732551,-32.43686854820251,-0.9657082557678224,0.041235975921154,-1.064780354499817,jumping
5.88188623046875,-4.3550794155702,-5.340185554435849,-38.49997850084305,-0.2052079439163208,-0.2668288052082062,-0.9870641231536864,jumping
5.89196142578125,-4.3517818353295326,-5.303244940051436,-40.78178829205036,0.392687976360321,-0.3318706750869751,-0.5921953320503235,jumping
5.90203515625,-3.297318082599342,-5.603641260555386,-38.95151464636326,0.7519025206565857,-0.2934910356998443,-0.0529401078820228,jumping
5.912109375,-2.8543811308592555,-5.5358571796178815,-33.73604092874527,0.8500466346740723,-0.1382191628217697,0.30893474817276,jumping
5.922183349609375,-3.749931794223189,-4.519001273009181,-27.23134105505943,0.8184643983840942,-0.0161806475371122,0.374811440706253,jumping
5.93225830078125,-4.583962697741389,-3.1769998045653103,-21.046748749041555,0.7452890276908875,-0.0246396474540233,0.2951176762580871,jumping
5.942332275390625,-4.650789331823587,-1.839653614581376,-15.966769543540476,0.680518388748169,0.003748312825337,0.1964660435914993,jumping
5.952406005859375,-4.406277687887847,-1.106715333493054,-12.04151917633414,0.628653883934021,0.1247666180133819,0.1791706681251526,jumping
5.962480224609375,-3.3899610027223823,-0.6866425399899483,-8.56798966356516,0.5210165977478027,0.2721269726753235,0.2484123855829239,jumping
5.972553955078125,-1.974478118482232,-0.0562168311320245,-5.130229383313655,0.4303775131702423,0.4227337837219238,0.3072333633899688,jumping
5.982629150390625,-0.9726467625260352,0.9688280810207128,-2.508997083115577,0.5809524059295654,0.5107942223548889,0.3020702302455902,jumping
5.992703125,-0.3042595718033611,2.1482173133194444,-1.2354647552639246,1.104092359542847,0.6182948350906372,0.2552004754543304,jumping
6.00277734375,0.1976419023416936,2.832005925182998,-0.4097551053673028,1.7166303396224976,0.7035066485404968,0.1539077758789062,jumping
6.012851318359375,0.690145945001021,3.113722387397289,2.100046864390373,2.1389594078063965,0.7449116110801697,-0.0740396380424499,jumping
6.022926513671875,0.7001917573928833,2.996529547907412,6.478278315228224,2.2807207107543945,0.7816296219825745,-0.3857409954071045,jumping
6.033000244140625,0.7019376512121409,2.3124817005857823,11.346072567641734,2.0915746688842773,0.6955432295799255,-0.6322594881057739,jumping
6.043074462890625,2.331804532954097,2.1715917591661213,15.858920578718184,1.5903615951538086,0.3533457219600677,-0.7596065402030945,jumping
6.053148193359375,4.16841790305674,2.4421643115535376,19.762682752215863,0.9341265559196472,0.0584712028503418,-0.7823765277862549,jumping
6.063223388671875,5.0738458173125975,2.9764874613538383,21.850307357406614,0.2097067236900329,-0.0502784363925457,-0.701701283454895,jumping
6.073297119140625,5.122175840717554,3.5803391976714134,22.30671140122413,-0.5002670288085938,-0.1465748846530914,-0.6078954339027405,jumping
6.083371337890625,4.2622327895686025,3.977329514011741,21.80335154496431,-1.0722039937973022,-0.185111790895462,-0.4777519106864929,jumping
6.093445068359375,3.4445386883452533,4.360986301526427,19.92695912218094,-1.5394151210784912,-0.1717824041843414,-0.3665308356285095,jumping
6.103520263671875,2.75331817291528,4.654695691612362,17.38251195549965,-1.814722776412964,-0.1926873177289962,-0.3115601241588592,jumping
6.11359423828125,1.6666712294608357,5.081714066469669,14.544111068582534,-1.749781370162964,-0.2638139724731445,-0.2825084924697876,jumping
6.12366796875,0.8118233094938099,5.385310059797764,11.434859104597567,-1.5272350311279297,-0.3626525402069092,-0.2897561192512512,jumping
6.133742431640625,0.078352528963983,5.551624073070287,9.056553517231343,-1.3281623125076294,-0.3455111086368561,-0.2563731372356415,jumping
6.143817138671875,-0.1154264143392443,5.71307252613306,7.696866754493117,-1.1940890550613403,-0.1976083070039749,-0.1792026311159134,jumping
6.153891357421875,-0.0699990535732358,5.468773940426111,6.916014483454823,-1.109452247619629,-0.0791194885969162,-0.0397411435842514,jumping
6.16396533203125,0.2245826623678207,4.875848964053392,6.451490261545777,-1.0129916667938232,-0.0529340133070945,0.1222093105316162,jumping
6.174039306640625,0.7010812535785138,4.23930754879415,6.022378713801503,-0.8648954033851624,-0.116324171423912,0.2522842288017273,jumping
6.1841142578125,0.7158363396398723,3.69353186160922,5.519411071729659,-0.6779940128326416,-0.1811440587043762,0.3318707048892975,jumping
6.194188232421875,0.4582332320060581,3.14224559430927,5.206497799479961,-0.5125064849853516,-0.2875397503376007,0.3393408954143524,jumping
6.20426220703125,0.1521240868132561,2.480396427053213,5.486349344605207,-0.3734628558158874,-0.3414866924285888,0.3058519959449768,jumping
6.214336181640625,-0.0351718511462211,2.0261371401794253,6.0520373544842005,-0.2677111327648163,-0.2750631868839264,0.2456397861242294,jumping
6.22441015625,-0.1348128865282982,1.44792107263878,6.548178365406393,-0.2465577125549316,-0.1468747705221176,0.1824850887060165,jumping
6.234485107421875,-0.2602185508292168,0.8801889897115528,7.363685185718536,-0.2685104310512543,0.0079451762139797,0.1302250772714615,jumping
6.24455908203125,-0.1605805111218243,0.5751745078876614,8.139273837140202,-0.2975768446922302,0.2066850513219833,0.047991544008255,jumping
6.254633056640625,-0.1451855927869677,0.2713962898604571,8.478388303095102,-0.3186807930469513,0.3433020114898681,-0.0767325535416603,jumping
6.264707275390625,-0.091565207888931,0.0999621570952236,8.67367589739561,-0.2693573236465454,0.3701225817203522,-0.1981886029243469,jumping
6.274781982421875,0.1327318424705416,0.1218511866897344,8.569195532223581,-0.1433176547288894,0.3385012745857239,-0.303388237953186,jumping
6.2848564453125,0.3237324071016162,0.0391818174399435,8.374152852594852,-0.007249753922224,0.3040052354335785,-0.3724408745765686,jumping
6.29493017578125,0.5366857142131776,0.0121108551628887,8.486254214164614,0.0843222439289093,0.3197418451309204,-0.4005236327648163,jumping
6.30500439453125,0.7728787348758429,0.1025394602373242,8.823943615752459,0.1212971433997154,0.3986716866493225,-0.4084917306900024,jumping
6.315079345703125,0.8312034250073135,0.2506584761276841,9.23603213250339,0.1246535256505012,0.5199751853942871,-0.3878564834594726,jumping
6.3251533203125,1.1447933544095603,0.4124487283654511,9.322879225829244,0.0740599855780601,0.6290550231933594,-0.3686352968215942,jumping
6.335227294921875,1.470418004998565,0.5337495876960456,9.175564512059092,-0.0089709870517253,0.6941924691200256,-0.3508730828762054,jumping
6.345301025390625,1.8074371061094103,0.6900976488798857,8.466712478348612,-0.0524916797876358,0.665350079536438,-0.3231110572814941,jumping
6.355376220703125,2.2137432400666177,0.7581288364462554,6.900508871287107,-0.0128886103630065,0.5359897017478943,-0.3053267300128937,jumping
6.365449951171875,2.7231667802795765,0.3310987711511552,4.548456500074267,0.122340902686119,0.3871319591999054,-0.314534455537796,jumping
6.375524169921875,3.049088294923305,-0.8091362623669207,1.5533955634146928,0.0540369488298893,0.411857545375824,-0.2501133978366852,jumping
6.385597900390625,2.795416316193342,-1.834594869887084,-0.8795540528088808,-0.8035010099411011,0.4421067237854004,-0.1087598204612732,jumping
6.395673095703125,2.138402606269717,-2.332930614374578,-2.8876328275978564,-2.2209837436676025,0.6797248721122742,0.0441405065357685,jumping
6.4057470703125,1.492457695110142,-2.774719272862374,-9.723290164268017,-3.170644760131836,1.2971011400222778,0.0206203218549489,jumping
6.4158212890625,0.9050422759391368,-3.238613087913394,-23.96894201788902,-2.713385343551636,1.486274003982544,-0.0697662979364395,jumping
6.425895263671875,1.1452962624303995,-2.489329675093293,-40.12744643168449,-0.903468668460846,0.9454152584075928,0.0092914570122957,jumping
6.435970458984375,1.9198608315013348,-1.4538684367358683,-51.20561391258239,0.9511165022850036,0.0260068047791719,0.310350090265274,jumping
6.446044189453125,2.7006562577858566,-2.20440038831234,-53.6779684874773,1.82191014289856,-0.6129904389381409,0.4854239225387573,jumping
6.456118408203125,1.3021125256478785,-5.169331559646129,-47.66720831527709,1.9637389183044436,-0.9363700747489928,0.8194738030433655,jumping
6.466192138671875,0.5346492399495095,-6.894212986013293,-38.84181391619444,1.830541968345642,-1.0916564464569092,1.0428022146224976,jumping
6.47626611328125,-0.9584637772642076,-7.168213467022777,-31.107824761009216,1.5298426151275637,-0.7848789095878601,1.0490158796310425,jumping
6.486341064453125,-3.827245920050144,-6.442902465942502,-24.885685106885436,1.1233173608779907,-0.1752920597791671,0.7776697278022766,jumping
6.4964150390625,-5.997832301566004,-5.6955129040449854,-18.873609760433435,0.9086971879005432,0.3025919497013092,0.4117604494094848,jumping
6.5064892578125,-7.12146983602643,-4.672720593124628,-13.62248839085102,0.8784388899803162,0.5738113522529602,0.0914938598871231,jumping
6.51656298828125,-6.927707843858003,-3.5467367877990004,-9.501200487759707,0.8536038398742676,0.73019939661026,-0.1167711913585662,jumping
6.52663818359375,-6.00116115372777,-2.0104462345726786,-5.69913986237049,0.8420544266700745,0.8911408185958862,-0.1805085390806198,jumping
6.5367119140625,-4.339478818595409,-0.0730215431995689,-2.764436656039953,0.9909224510192872,0.9717352986335754,-0.1795761734247207,jumping
6.546786376953125,-2.262269224435091,1.8715743549771608,-1.1509048960924149,1.394700288772583,0.8723713159561157,-0.1672839522361755,jumping
6.556860107421875,-0.4975414523046463,3.3202722572073338,0.2953542346835136,1.9108978509902956,0.6710744500160217,-0.1860163509845733,jumping
6.566935302734375,0.6927075391173362,4.058706651493907,2.9907804828613997,2.300297737121582,0.4158093333244324,-0.2497321367263794,jumping
6.57700927734375,1.082260252802819,4.557000748796761,7.18049719453454,2.4199886322021484,0.1633581817150116,-0.2958287596702575,jumping
6.587083251953125,1.8229526551492512,4.576230057662725,12.037374916136264,2.22627067565918,-0.043120127171278,-0.2962443232536316,jumping
6.5971572265625,2.7517393792912364,4.214140958833694,16.53016447404623,1.7314183712005615,-0.1895697563886642,-0.2997799217700958,jumping
6.607232421875,3.312429727013409,3.985229911872744,20.034747296726703,1.003123164176941,-0.3232700824737549,-0.3096402287483215,jumping
6.61730615234375,3.5519793646275994,3.936476694619656,22.023494179058076,0.2339424937963485,-0.44343963265419,-0.3016012012958526,jumping
6.627380126953125,3.232990279595554,4.0112700697973365,22.09142263690233,-0.3903193175792694,-0.5159913301467896,-0.2833787500858307,jumping
6.6374541015625,3.021721856831014,4.04688615757972,20.270029047763348,-0.8536432981491089,-0.5136764645576477,-0.2492045611143112,jumping
6.647529052734375,2.068200358274579,4.203386340585351,17.462617173349855,-1.1054937839508057,-0.4685991704463959,-0.2181993126869201,jumping
6.65760302734375,1.334130735068768,4.782552840718627,13.968360514372586,-1.071827411651611,-0.3962781131267547,-0.2005649209022522,jumping
6.667677001953125,0.2052708811164833,4.9265831259906285,9.994728101313113,-0.8398920893669128,-0.3706686496734619,-0.1881169527769088,jumping
6.67775146484375,-0.5681509293938055,5.165312387132644,6.856706554439664,-0.5538379549980164,-0.3100852072238922,-0.1798923164606094,jumping
6.687825927734375,-0.8257095768313855,5.358708468598127,5.066650352850556,-0.3560239672660827,-0.1934447586536407,-0.1638612598180771,jumping
6.697900390625,-0.9679293786153196,5.4697267111063,4.464981513530016,-0.2883581221103668,-0.124020405113697,-0.1098632663488388,jumping
6.70797412109375,-0.8050496506404131,5.4857987249851226,4.927673259314894,-0.2619721293449402,-0.1232478991150856,-0.042103111743927,jumping
6.71804833984375,-0.4922917881481349,5.302848634210228,5.5980830419063565,-0.2298836857080459,-0.1772466748952865,0.0312472693622112,jumping
6.7281220703125,-0.3276068739147856,5.079994987592101,6.274069747847318,-0.1495064049959182,-0.2192826867103576,0.1132493913173675,jumping
6.738197265625,-0.4232715530117973,4.907055418699979,6.987638288685679,-0.0558411702513694,-0.255642294883728,0.1711784601211547,jumping
6.748271240234375,-0.5955669057162478,4.541014951896667,7.73257636577785,0.0033549210056662,-0.2991857230663299,0.1976025253534317,jumping
6.758344970703125,-0.6601991350267082,4.126003533436358,8.639661399590969,0.0175708755850791,-0.2465307861566543,0.1618463993072509,jumping
6.768419189453125,-1.0041939934343098,3.800515734034776,9.47208428339064,-0.0185036454349756,-0.1568059027194976,0.0700739696621894,jumping
6.778494384765625,-1.0776879764512182,3.548125027287006,10.196876813554764,-0.0953853800892829,-0.0656317770481109,-0.0411758609116077,jumping
6.788568115234375,-0.9066831750139592,3.3284801135823128,10.893428168618678,-0.1839469671249389,0.0259205196052789,-0.1468755155801773,jumping
6.79864208984375,-0.7705564294081181,3.0457638266757128,11.473391956609486,-0.3121395707130432,0.1178882643580436,-0.2205851525068283,jumping
6.80871630859375,-0.3627299905484542,2.6318507248461245,11.944363454961776,-0.450481116771698,0.1260891854763031,-0.2467009425163269,jumping
6.818791015625,0.3032084918478503,2.375516541169584,12.304093423444032,-0.5685364007949829,0.0795847848057746,-0.2435014247894287,jumping
6.828865234375,0.8130624228347092,2.204153427813947,12.129722360444068,-0.6714001893997192,0.0433080121874809,-0.2330953925848007,jumping
6.838939208984375,1.0227264060772956,2.091835208623112,11.680150208473204,-0.7286893129348755,0.0593969635665416,-0.2441666722297668,jumping
6.849013427734375,0.9279464739255606,2.087885301953554,11.040355928897856,-0.7544522285461426,0.0809573009610176,-0.2572836577892303,jumping
6.859088134765625,0.8168064316686242,2.070114375202358,10.223184974765775,-0.7479708790779114,0.0560207925736904,-0.2572194635868072,jumping
6.869162353515625,0.7511125279434024,1.899068364971876,9.379538686162231,-0.7069838047027588,0.00083853979595,-0.2356451600790023,jumping
6.879236083984375,0.665515142417699,1.836573038092256,8.35034001533091,-0.5599336624145508,-0.0146719766780734,-0.2028241008520126,jumping
6.889310302734375,0.4772375730097293,1.5576201953724025,6.733682232317328,-0.350529134273529,0.0146765140816569,-0.1732582002878189,jumping
6.89938525390625,0.1913644660400226,1.0618480177626013,5.20105356259942,-0.2170365899801254,0.0225373674184083,-0.1500271707773208,jumping
6.909459228515625,0.0357370290146209,0.6037001990176737,3.8992823977351194,-0.2149413824081421,0.0434637293219566,-0.192768707871437,jumping
6.919533203125,0.0930704248201102,0.0521744238734245,2.536442139402032,-0.2566917538642883,0.0104322787374258,-0.2927307188510895,jumping
6.92960693359375,0.37894115716964,-1.2422076536528766,0.6153764621555805,-0.3560740053653717,-0.1724023520946502,-0.4158625304698944,jumping
6.93968212890625,0.642681598514691,-3.082795334213972,-1.8035118954896925,-0.7888898849487305,-0.1593733578920364,-0.4961360692977905,jumping
6.949755859375,0.4043917517032474,-4.406272719451785,-5.172672102245688,-1.574612021446228,0.1764844208955764,-0.5557169914245605,jumping
6.959830322265625,-0.2723060799154453,-4.872283380526304,-10.709902323782444,-2.0899269580841064,0.7418386340141296,-0.6342589855194092,jumping
6.969904296875,-0.9043416533891112,-4.806462124094367,-19.78640966476202,-1.7477236986160278,1.2770828008651731,-0.7946595549583435,jumping
6.979978271484375,-1.7196445486269891,-4.234006519776583,-30.774224090039727,-0.6404867768287659,1.2962919473648071,-0.9353618025779724,jumping
6.99005322265625,-1.832043870230019,-3.60532780071646,-38.40983353501558,0.3804702460765838,0.8628799915313721,-0.8629071116447449,jumping
7.000127197265625,0.1475701498359441,-4.090663339985907,-39.49650882778168,0.7462940812110901,0.3752261400222778,-0.5365196466445923,jumping
7.010201171875,2.709562617819011,-5.567935156401991,-36.5425830345869,0.5799451470375061,-0.1243591085076332,-0.0519240088760852,jumping
7.020275146484375,4.260436553801596,-7.110089779356121,-33.001883773386474,0.3848744630813598,-0.6509014368057251,0.4190190136432647,jumping
7.03035009765625,3.7799341337770223,-7.298990302968025,-31.678944732809065,0.3443762063980102,-0.9867806434631348,0.6564021706581116,jumping
7.04042431640625,0.7480868234466761,-6.167440095686912,-31.38514298826456,0.4895762801170349,-0.9173690676689148,0.6406197547912598,jumping
7.050498046875,-2.3596071705065667,-4.878770404458046,-29.57518966155052,0.7161073088645935,-0.4354910552501678,0.440485268831253,jumping
7.060572021484375,-4.983114576029777,-3.733232003834843,-25.1547498850584,0.8534507751464844,0.2041565328836441,0.1509730368852615,jumping
7.070647216796875,-6.518119327229261,-3.0706667972639203,-18.90844843410253,0.7695357203483582,0.7493506669998169,-0.0646253451704979,jumping
7.08072119140625,-5.495478407478332,-2.4355634519837794,-12.830468244588374,0.5992090106010437,1.0436817407608032,-0.101612389087677,jumping
7.09079541015625,-2.7893659301131963,-1.4243921668827533,-8.854677776712178,0.6484458446502686,0.9781672358512878,-0.0210049413144588,jumping
7.100869140625,-0.6178594380777329,-0.2632330032795667,-6.981001627150177,1.0033197402954102,0.5786334276199341,0.1519708335399627,jumping
7.1109443359375,1.044302058873698,1.0071490438476205,-5.606448719191551,1.5175986289978027,0.1813496798276901,0.312042772769928,jumping
7.12101806640625,1.6880325819194315,2.1281220352739094,-3.148858582708239,2.005411148071289,-0.0902858301997184,0.3866264522075653,jumping
7.13109228515625,1.29502768195346,2.914926200453937,1.1994237200677391,2.331859350204468,-0.1413042396306991,0.3665803670883178,jumping
7.141166259765625,0.8732872474990785,3.560387419749796,6.674926091966032,2.415032148361206,-0.0809703096747398,0.2936358749866485,jumping
7.1512412109375,0.90754008410424,4.179107054853439,12.5079243896842,2.137936592102051,0.0925769358873367,0.1701198518276214,jumping
7.161315185546875,1.0756786824554203,4.70031937866807,17.96925502836704,1.5259630680084229,0.195313423871994,0.043426364660263,jumping
7.17138916015625,1.4631051977671683,5.1350224628090855,22.341078950250147,0.7541728615760803,0.1439862251281738,-0.0832952633500099,jumping
7.181463134765625,1.5696274440303444,5.049838918781281,24.73012980351448,0.0218097157776355,-0.1306325495243072,-0.1443945616483688,jumping
7.191538818359375,1.609298652422428,5.226036028164625,25.066823764324187,-0.5594176054000854,-0.4409462511539459,-0.1450581401586532,jumping
7.201612548828125,1.6175921412542462,5.309476527917385,23.44682368514537,-1.0232819318771362,-0.6523024439811707,-0.0959435850381851,jumping
7.211686767578125,1.1217333082742988,5.493770434516668,20.658235753667352,-1.3743840456008911,-0.7700909972190857,-0.0453405864536762,jumping
7.221760498046875,0.6531935671135782,5.810163950097561,17.183891417384146,-1.513588547706604,-0.827674925327301,0.0215385798364877,jumping
7.2318349609375,0.1151391948956996,6.021300270915031,13.312944302773476,-1.4345910549163818,-0.8185009360313416,0.0708301290869712,jumping
7.24190966796875,-0.6628767567381263,6.376691917932034,9.32323753774762,-1.2364087104797363,-0.707876443862915,0.1103596910834312,jumping
7.25198388671875,-1.14040483712703,6.505051171341538,5.799498763698339,-0.984921395778656,-0.5503382682800293,0.16977259516716,jumping
7.262057861328125,-1.0927394881758838,6.3491913320660585,3.187547502064705,-0.7165477275848389,-0.4606041312217712,0.2448931783437729,jumping
7.272131591796875,-1.0709936664443462,5.929089020207524,1.9954004950016733,-0.4823428094387054,-0.4726225733757019,0.312765896320343,jumping
7.282206787109375,-1.0875817400865255,5.42271069290936,2.341424009692669,-0.286280870437622,-0.510421872138977,0.3481537103652954,jumping
7.29228076171875,-1.1278177427545188,4.747653376772999,3.5094396150618787,-0.1125982701778411,-0.4881751239299774,0.3503852784633636,jumping
7.302354736328125,-1.1439788962215185,3.956384925660491,4.863359484836459,0.0095872906967997,-0.4842661321163177,0.3345911502838135,jumping
7.3124287109375,-1.2108355601157992,3.2404467330813405,6.40832799616754,0.0627215355634689,-0.4240086078643799,0.3089433312416076,jumping
7.322503662109375,-1.0557448785819112,2.531594114848972,7.813257337689399,0.0500259771943092,-0.3128211200237274,0.2584910690784454,jumping
7.33257763671875,-0.8196136711090802,1.8989552599862216,9.013651948615909,0.0027721486985683,-0.1943494975566864,0.1948589831590652,jumping
7.342651611328125,-0.4996223136993125,1.4918413167774676,9.906388139081,-0.0680375695228576,-0.0589650310575962,0.1296416223049163,jumping
7.3527255859375,-0.0875968522472307,1.127785594050586,10.506245545065402,-0.1456825137138366,0.0693296417593956,0.0560671426355838,jumping
7.36280078125,0.2612066120184957,0.848441413925588,10.878110187977551,-0.2077285796403885,0.1359395682811737,-0.0109164174646139,jumping
7.37287451171875,0.6891868176452816,0.6796282773137092,11.076491072118282,-0.2494796514511108,0.1085995882749557,-0.0593813583254814,jumping
7.382948974609375,1.130236932725459,0.5521089818596839,11.149196242845058,-0.2714555263519287,0.0029977983795106,-0.0852909833192825,jumping
7.393022705078125,1.3018044826120136,0.5066247032746672,11.274011540037392,-0.3153322041034698,-0.1095375269651413,-0.0980545729398727,jumping
7.403097900390625,1.322303957544267,0.5966863747328519,11.300027440303564,-0.3796462118625641,-0.1337935924530029,-0.11178769916296,jumping
7.413171875,1.1606320709891618,0.7717614943489431,11.104553968042136,-0.4339155554771423,-0.0474292449653148,-0.1099785044789314,jumping
7.42324560546875,1.0324703129131347,0.9752037535324692,10.61462525576353,-0.4452677965164184,0.0366661883890628,-0.1142582073807716,jumping
7.43331982421875,0.7860702979475259,1.13607762157768,9.927138666164874,-0.4233972728252411,0.0514762587845325,-0.0905700922012329,jumping
7.443394775390625,0.8363231061086058,1.3526492653168738,9.060692516732216,-0.4143813848495483,0.0724177584052085,-0.0714504569768905,jumping
7.45346875,0.8938271275069564,1.4543980135679244,7.868264939162135,-0.4578721225261688,0.1181506067514419,-0.1408824175596237,jumping
7.46354248046875,0.3570931902378797,1.3097427282653749,6.452668073153496,-0.4836834669113159,0.0577716939151287,-0.2813963890075683,jumping
7.47361669921875,-0.1828088556732982,1.0423794933132826,4.141566136488319,-0.3684160411357879,-0.1516139209270477,-0.4137313663959503,jumping
7.483690673828125,-0.2787213355189189,0.4532052477762103,0.7849427552223205,-0.2529189884662628,-0.3545694351196289,-0.469752550125122,jumping
7.493765625,-0.3333997415699064,-1.040664067697525,-2.4220032747954128,-0.4326735138893127,-0.2606245875358581,-0.4147415161132812,jumping
7.503839599609375,-0.4586312548803165,-2.9610370865046978,-6.258435540863871,-1.063711404800415,0.2714720964431762,-0.3467733860015869,jumping
7.513913818359375,-0.8921578060552477,-4.793971475833654,-12.2705827835083,-1.6814507246017456,0.9039328694343568,-0.3278256356716156,jumping
7.52398779296875,-1.4315302020691334,-5.743967430612445,-21.08850465475321,-1.520093560218811,1.2238054275512695,-0.4477709531784057,jumping
7.53406298828125,-2.27200253681168,-5.989387713825702,-31.64453276011944,-0.4725944697856903,0.8580326437950134,-0.5969651937484741,jumping
7.54413671875,-2.2610811836943028,-5.924047518908977,-39.502288580226896,0.802838921546936,0.0473072975873947,-0.5942458510398865,jumping
7.5542109375,-0.8102353096500039,-7.059093167090415,-41.11249207253456,1.3925466537475586,-0.5886818766593933,-0.4128728210926056,jumping
7.56428466796875,0.6901678645718843,-8.804833257091046,-37.05729430594444,1.1293562650680542,-0.7922730445861816,-0.0218688491731882,jumping
7.57435986328125,1.4271211534552275,-9.874304901599883,-31.42122435547113,0.5359587073326111,-0.8359479904174805,0.4452213644981384,jumping
7.584433837890625,0.9948166548885404,-9.48019569365382,-28.51737805969715,0.1751267611980438,-0.9059625267982484,0.8383188247680664,jumping
7.594507568359375,-1.387012284298241,-8.055192116874457,-28.289664698088167,0.2274359315633773,-0.9115839600563048,0.9525508284568788,jumping
7.604581787109375,-4.497114435371756,-5.696086320018768,-28.23251950006485,0.6484299898147583,-0.783653199672699,0.8124810457229614,jumping
7.614656494140625,-7.41252198960185,-3.3963562567174432,-25.917286747205257,1.2045286893844604,-0.5763382315635681,0.5531347393989563,jumping
7.624730712890625,-9.081483375826478,-2.129563173992932,-20.30820534142256,1.4605940580368042,-0.2014865577220916,0.3199360966682434,jumping
7.6348046875,-8.555493754607438,-1.074323468454182,-12.487587704098225,1.350650429725647,0.243945837020874,0.1730753928422927,jumping
7.64487890625,-5.483838823089004,0.5500540951564907,-4.987509596118331,1.0504509210586548,0.5505377054214478,0.0599778667092323,jumping
7.654953857421875,-2.3034150354243814,2.172078373639285,0.598556844779849,0.836161732673645,0.6655144095420837,-0.0372928120195865,jumping
7.66502783203125,0.3126183444237336,3.364096201364696,3.826835585683584,0.8291341662406921,0.4532325267791748,-0.1395832300186157,jumping
7.675101806640625,2.062824072063714,4.048251600714028,6.589192512840032,0.9912391304969788,0.0963909775018692,-0.2052423804998397,jumping
7.68517578125,3.2526731774479147,4.358972623616457,9.1055013802737,1.1401240825653076,-0.1278298795223236,-0.2642239332199096,jumping
7.695250732421875,3.663246613460779,4.474953164707124,11.890873856836556,1.1893610954284668,-0.2486396133899688,-0.3284373581409454,jumping
7.705324951171875,3.321903657801449,4.472307034112513,14.766542690396308,1.13501238822937,-0.3549554049968719,-0.3816041946411133,jumping
7.715398681640625,3.1488936540216206,4.161437834911048,17.177627680814265,0.88904869556427,-0.4373852908611297,-0.4015255868434906,jumping
7.72547265625,3.048651657071709,3.6779157748043536,19.24210288108587,0.3529975414276123,-0.4024677872657776,-0.3888936638832092,jumping
7.735547607421875,2.7881849036350843,3.562265196320414,20.957017624711987,-0.4006048142910003,-0.253542959690094,-0.3186678290367126,jumping
7.74562158203125,2.7759298176959155,3.670535309164226,21.203283711099623,-1.1723265647888184,-0.0827437862753868,-0.2550894021987915,jumping
7.75569580078125,2.466008128477633,3.819952840432524,19.4546303640008,-1.7707023620605469,0.0334767252206802,-0.2266523391008377,jumping
7.765769775390625,1.6059395512528716,3.892869023561477,16.236341686713693,-2.090507984161377,0.1256093233823776,-0.2270470112562179,jumping
7.7758447265625,1.112642093193531,4.199994944581389,12.226750656044482,-2.046550989151001,0.2165422737598419,-0.2407430857419967,jumping
7.785918701171875,0.414038774035871,4.511605902060866,7.727416206535697,-1.6260979175567627,0.2386973649263382,-0.2881569266319275,jumping
7.795992919921875,-0.3332035979432985,4.511291429284214,3.6847944284021854,-1.0014996528625488,0.1714612394571304,-0.344485878944397,jumping
7.806066650390625,-0.5164527081973851,4.592688440510631,1.1916688681572676,-0.4062563180923462,0.0357931554317474,-0.3862018883228302,jumping
7.816140869140625,-0.3382059728078544,4.654169621911644,0.951000163385272,-0.0152084166184067,-0.0938216522336006,-0.3732557296752929,jumping
7.8262158203125,0.0057210079953074,4.466128345477581,2.5140438451111318,0.1216192096471786,-0.1870346814393997,-0.3316009640693664,jumping
7.836289794921875,0.2138320627074688,4.019993766739964,4.937481536623835,0.1117206141352653,-0.2533150315284729,-0.2846762835979461,jumping
7.84636376953125,0.2594166233291849,3.4841157887130976,7.134571894183755,0.0204873755574226,-0.3230861127376556,-0.2315768450498581,jumping
7.8564375,0.3942556672120466,2.9513129803478715,8.63561124741733,-0.1263679414987564,-0.3158859610557556,-0.17491415143013,jumping
7.8665126953125,0.4348887063736096,2.491455581206083,9.675653383824228,-0.2662789821624756,-0.2400242090225219,-0.1019256860017776,jumping
7.876586669921875,0.2492860187307,2.051029004851729,10.24636009864807,-0.3290394246578216,-0.1498859375715255,-0.0502625666558742,jumping
7.88666064453125,-0.0921069500828161,1.7597968185342847,10.357568895292282,-0.2942465543746948,-0.0950671657919883,-0.0399105921387672,jumping
7.89673486328125,-0.2852592859202996,1.5658910339809953,10.224703562635185,-0.2039587199687957,-0.1061914563179016,-0.0828423425555229,jumping
7.9068095703125,-0.3678859485395253,1.517618732112646,10.113036500829455,-0.09637501090765,-0.1252042949199676,-0.1430284529924392,jumping
7.9168837890625,-0.2836071713317185,1.3873431236878038,10.072121137595175,-0.0290576536208391,-0.1006883457303047,-0.1988487988710403,jumping
7.9269580078125,-0.133635513311997,1.1644561593219638,10.25026119773984,-0.0328729003667831,-0.0844553187489509,-0.2275558114051818,jumping
7.93703173828125,0.0913368059605359,0.994124727101624,10.646321539753677,-0.0808937847614288,-0.1064521744847297,-0.2420320063829422,jumping
7.94710693359375,0.4179235795799642,0.9001773002512753,10.937293029308318,-0.1641423404216766,-0.2139312326908111,-0.2458650916814804,jumping
7.9571806640625,0.823992836041376,0.7907634241998195,11.040849265372753,-0.2875243425369262,-0.3283828198909759,-0.2392587810754776,jumping
7.9672548828125,1.17900052524209,0.6927030090726911,10.881707335686682,-0.4084238708019256,-0.353406697511673,-0.2397493422031402,jumping
7.97732861328125,1.157298104260862,0.8617170750841497,10.070206243884565,-0.4085778892040252,-0.2960893511772156,-0.258647620677948,jumping
7.98740380859375,0.8331594544459134,0.9724557699985802,8.403459611099958,-0.2585023641586303,-0.2636762857437134,-0.2817217707633972,jumping
7.997477783203125,0.5208237628884613,1.078162754356116,6.678849402889609,-0.0151691008359193,-0.2450542747974395,-0.3071212470531463,jumping
8.007551513671874,0.3376267846804112,1.1829790734842418,5.300036499398947,0.2143109589815139,-0.2668304145336151,-0.325492799282074,jumping
8.017625732421875,0.3754574797723442,1.2034016837880015,4.268076547160744,0.3581502437591553,-0.4635341465473175,-0.3700627088546753,jumping
8.02769970703125,0.588508694300428,0.7400584883570671,3.2640637555122374,0.4344729781150818,-0.637336015701294,-0.3965789973735809,jumping
8.03777392578125,0.816038004579395,0.1070591296188533,1.2207640297383069,0.374972939491272,-0.6557501554489136,-0.4378519356250763,jumping
8.04784765625,0.7864261256478726,-1.627826681151241,-1.4620318694472312,0.0001314384571742,-0.564185380935669,-0.4596983790397644,jumping
8.0579228515625,0.048438233019784,-3.585777881594002,-3.982667952430248,-0.7598222494125366,-0.1367123574018478,-0.4343338012695312,jumping
8.067996826171875,-1.038280241300911,-5.159715005517006,-8.449162208610772,-1.657590389251709,0.558965265750885,-0.4799516201019287,jumping
8.07807080078125,-1.7738716672465205,-6.069611005097627,-16.819783379948138,-1.87921679019928,0.993456244468689,-0.6372374892234802,jumping
8.088144775390624,-2.366228342211992,-5.324933040246367,-28.517700715780254,-0.9818769097328186,0.692187488079071,-0.7915631532669067,jumping
8.0982197265625,-2.0412237962827087,-3.598051672233641,-39.4257816791296,0.2627841234207153,-0.242821455001831,-0.6818063855171204,jumping
8.108293701171876,-0.4019217083279043,-3.3223487712204456,-43.51863668394088,0.583034873008728,-0.8855511546134949,-0.2485876083374023,jumping
8.118367431640625,1.458213626333326,-4.952898301464319,-39.83894045546055,0.1061480268836021,-0.7701930999755859,0.3475525379180908,jumping
8.128441650390625,1.3159949205279349,-7.128169625926017,-35.13809617613554,-0.2847310602664947,-0.3620567321777344,0.940479815006256,jumping
8.138516845703125,-0.1809603051971644,-7.707199932458996,-33.84189550487995,-0.0692304000258445,-0.1583795100450515,1.2366362810134888,jumping
8.148590576171875,-2.418857816376537,-6.365685370749235,-34.24810782307386,0.5551176071166992,-0.1198307797312736,1.1317425966262815,jumping
8.158664794921876,-4.362689306052029,-4.905118897679448,-32.3826646643281,1.1353222131729126,-0.0708796754479408,0.7732498645782471,jumping
8.16873876953125,-4.667086386629939,-4.230535628795623,-26.5250936508894,1.4976963996887207,-0.0302121415734291,0.3414646685123443,jumping
8.178813720703126,-4.0143203972786665,-3.6635605017155406,-17.86509790380001,1.55629301071167,0.1807330697774887,0.0360190346837043,jumping
8.18888720703125,-2.249434292781353,-2.525499305105209,-9.530953820988536,1.4083563089370728,0.4584536254405975,-0.0018287453567609,jumping
8.198961181640625,0.0599598170526325,-1.0474831000626086,-3.116603495791554,1.2437245845794678,0.6349674463272095,0.0901902318000793,jumping
8.20903515625,1.386800541243702,0.2943251838967204,2.004560537534952,1.25237774848938,0.6512510776519775,0.233657106757164,jumping
8.219110107421875,2.2988848446488377,1.5017463324591516,5.707791955381632,1.4985164403915403,0.5702539682388306,0.3340241909027099,jumping
8.22918408203125,2.3786865495078264,2.680667362724245,8.38825385866165,1.870186686515808,0.4582198858261108,0.3618052303791046,jumping
8.2392578125,2.0050524127051235,3.57636357203871,11.060980199253558,2.1574597358703613,0.3254451155662536,0.2813160717487335,jumping
8.24933203125,1.5183677969142797,4.318115420310199,14.471144032049178,2.0864946842193604,0.1933397948741912,0.1186730936169624,jumping
8.259406982421876,1.353725808507204,4.942606040030718,18.460080397224424,1.5207082033157349,0.05908128246665,-0.0312283150851726,jumping
8.26948095703125,1.8106969846881924,5.299176083177327,22.13114674452543,0.5365116596221924,-0.0490880608558654,-0.1284531354904174,jumping
8.27955517578125,2.236903020249307,5.196736868444085,24.47072366504669,-0.5422733426094055,-0.1801519840955734,-0.1772072315216064,jumping
8.289629150390626,1.8940046518415208,5.06427427136898,24.294941566205026,-1.3995517492294312,-0.2775871753692627,-0.1884630918502807,jumping
8.2997041015625,1.434801040433347,5.437745764955878,21.35622035640478,-1.942033171653748,-0.3166722655296325,-0.2053256928920745,jumping
8.3097783203125,0.6324645942743867,5.8563119532883166,16.86993068190813,-2.0831987857818604,-0.2141818553209304,-0.2028966248035431,jumping
8.31985205078125,-0.0849180980246514,5.934940668845177,11.593888806080818,-1.7884573936462402,-0.1255585551261901,-0.1763710677623748,jumping
8.32992626953125,-0.6523289861734957,5.812223805236816,6.476362836995721,-1.2004114389419556,-0.1722411066293716,-0.1304999887943267,jumping
8.3400009765625,-0.8378601794827729,5.806040732687712,2.578275786525011,-0.5757855772972107,-0.2925492525100708,-0.068112775683403,jumping
8.3500751953125,-0.6064426295936107,5.373420884561538,0.8811182333856821,-0.1575971245765686,-0.3793379366397857,0.0233870465308427,jumping
8.360150146484376,-0.0746426415953785,4.726236202473938,1.6398486889868973,-0.0131956189870834,-0.4609287679195404,0.0944562405347824,jumping
8.37022412109375,0.3133220722462981,3.980187241530418,3.8810429766893386,-0.0134126665070652,-0.5206555128097534,0.1410477012395858,jumping
8.380298095703125,0.5611512432321906,3.240122615693509,5.875874147370458,-0.0639984607696533,-0.5036159753799438,0.1567701399326324,jumping
8.3903720703125,0.5521430302597582,2.607388483762741,7.238696870046853,-0.1478574126958847,-0.4570502936840057,0.1461736857891082,jumping
8.400446044921875,0.4327246967401355,2.1120415458276867,8.230840944725275,-0.2243079543113708,-0.383932888507843,0.111614741384983,jumping
8.410521240234376,0.2781330507695674,1.766867341442406,8.801641767573356,-0.2211624830961227,-0.2913006842136383,0.0732266083359718,jumping
8.420594970703124,0.2323270659495145,1.487181800533831,8.826858626416325,-0.1255155503749847,-0.2707497179508209,0.0310164056718349,jumping
8.430669189453125,0.2027458744172006,1.201425707539916,8.86769215658605,-0.0258368998765945,-0.2047824114561081,-0.017164971679449,jumping
8.4407431640625,0.3894697115771472,1.0131959227964282,9.27715441648662,0.0112958624958992,-0.1023308783769607,-0.0607440248131752,jumping
8.450818115234375,0.6195602506462484,0.8213564231231808,9.990623588603734,-0.0047898972406983,-0.0314979888498783,-0.1067181676626205,jumping
8.460892333984376,0.9719866911821068,0.7992191178560256,10.660129115831852,-0.0564003214240074,0.0130233960226178,-0.1623911708593368,jumping
8.470966064453124,1.2569345365330575,0.8365519464284181,10.913858377707005,-0.1366477459669113,0.057815633714199,-0.2194209098815918,jumping
8.481040283203125,1.572744699268043,0.977223861183226,10.786385844004151,-0.2165907919406891,0.0751383379101753,-0.2597374320030212,jumping
8.491114990234376,1.873918726146221,1.1213523461326955,10.461218654859064,-0.2695019543170929,0.088283970952034,-0.2780048549175262,jumping
8.501189208984375,2.075790959534049,1.342671622790396,9.840975463449954,-0.2843610644340515,0.1057783812284469,-0.2963536083698272,jumping
8.511262939453125,2.073161780074239,1.5519436110407112,9.006347178560494,-0.2612275183200836,0.1533964872360229,-0.303920179605484,jumping
8.521337158203124,1.987846426360309,1.8572241964548823,8.114969416967034,-0.1976588815450668,0.2252722531557083,-0.322953850030899,jumping
8.531412109375,1.7573215144619343,2.171999170923233,7.26602560647726,-0.0823000520467758,0.3210856020450592,-0.331892728805542,jumping
8.541486083984376,1.5566966507866975,2.3478949592724443,6.536263471207023,0.0411589667201042,0.444174200296402,-0.3297696113586426,jumping
8.55156005859375,1.4748561335764825,2.3891999063462017,5.8062079059481615,0.1373851001262664,0.5541068315505981,-0.3442822396755218,jumping
8.561634033203125,1.355885616889596,2.045978297333419,5.05715070309937,0.2298977971076965,0.5440463423728943,-0.3524134457111358,jumping
8.571708984375,1.4610764684185384,1.1759677334174514,4.1269180179327725,0.2937087416648865,0.4829917550086975,-0.375939279794693,jumping
8.581783203125,1.60593765155673,0.0747369688153266,2.8450340413212776,0.3382745385169983,0.410975307226181,-0.4594320356845855,jumping
8.591857177734376,1.1214714424677192,-1.7803709661379457,1.398774910545349,0.1320414543151855,0.314668208360672,-0.4718740582466125,jumping
8.60193115234375,0.63492499303855,-3.970227280791104,0.1793897679448127,-0.4917774498462677,0.3393103778362274,-0.4470791518688202,jumping
8.612006103515625,-0.6389660851228982,-5.589098355939984,-2.041433347380161,-1.2689603567123413,0.4636847972869873,-0.4817103743553161,jumping
8.622080078125,-1.9306588504999875,-6.544186665421724,-6.836477420881391,-1.7224334478378296,0.3909079432487488,-0.6251126527786255,jumping
8.632154296875,-2.745716173478961,-6.529045210391283,-14.51743115144968,-1.491620421409607,0.1059512868523597,-0.7865201830863953,jumping
8.64222802734375,-3.499935873657465,-5.396198533558845,-23.353618162703512,-0.733040452003479,-0.0429280437529087,-0.8691310286521912,jumping
8.65230322265625,-4.280737875813245,-4.832801264965534,-31.0253393700242,-0.0829535573720932,0.0631525889039039,-0.7832382321357727,jumping
8.662376953125,-5.104006562298536,-6.062647011303901,-35.03682191352844,0.0883544012904167,0.2669240534305572,-0.3402852118015289,jumping
8.672451171875,-3.1229251000285148,-7.3093550451159475,-36.71832070976495,0.1629956215620041,0.3351196348667145,0.2476256936788559,jumping
8.68252490234375,-0.8612639244891702,-7.16608171569109,-38.470995567464826,0.5430996417999268,0.2550814747810364,0.7208753228187561,jumping
8.69260009765625,-0.0017829013613983,-5.377326659828424,-39.71869261231422,1.1215286254882812,0.0780310556292533,0.905795395374298,jumping
8.702674072265625,-0.7284606972828507,-3.141365888865292,-37.9300369251728,1.550548434257507,-0.1004723310470581,0.808457612991333,jumping
8.712748046875,-1.766925939761847,-1.909648795697093,-31.849410020542145,1.5625911951065063,-0.1426679790019989,0.5551574230194092,jumping
8.722822265625,-2.8687399110794067,-1.7659300605922936,-23.39133151502609,1.232518196105957,-0.0178857520222663,0.2569434344768524,jumping
