seconds_elapsed,acc_x,acc_y,acc_z,gyro_x,gyro_y,gyro_z,label
0.069447509765625,0.658214244819805,-0.3000789251178503,1.6263053168028592,-0.2799324691295624,-0.454382836818695,0.3181617259979248,walking
0.0795224609375,-0.0475420878976583,-1.0631287052229046,1.228859657910466,-0.1986706107854843,-0.4690205156803131,0.2511642277240753,walking
0.0895966796875,-0.5203230468247085,-0.8965051876097917,0.7085393144994974,-0.1212509199976921,-0.3884236812591553,0.1883394718170166,walking
0.09967138671875,-0.6608386019740253,-0.7466004573464393,0.3723012807637453,-0.0754130408167839,-0.2303486913442611,0.1377015858888626,walking
0.10974560546875,-0.5240170425044373,-0.7639446831181645,0.3176356245964765,-0.0656227320432663,0.0053437133319675,0.1084654107689857,walking
0.119820556640625,-0.3221269446663558,-0.8899471442684531,0.4097971909433603,-0.1040760427713394,0.2302785813808441,0.1029235497117042,walking
0.12989453125,-0.1904505295328795,-1.0036150245025754,0.5951981820017099,-0.154870256781578,0.4116568863391876,0.1062037646770477,walking
0.139969482421875,-0.119429220239818,-1.1000754570871591,0.8567676359832286,-0.2087509483098983,0.5317175984382629,0.0871888846158981,walking
0.150043701171875,-0.0728224404308944,-1.2571245061472058,1.0858832656055688,-0.2349961251020431,0.5707486271858215,0.0577199384570121,walking
0.160118408203125,0.1046613477621227,-1.3908175218001009,1.0869634620577096,-0.2246574908494949,0.5946795344352722,0.0208939295262098,walking
0.170192626953125,0.3229411836586892,-1.517338453866541,1.079780857077241,-0.1860789507627487,0.6126402020454407,-0.0203738827258348,walking
0.180267333984375,0.4603546080742031,-1.558001595905423,1.1487854197204113,-0.1390739232301712,0.5877854228019714,-0.0631443411111831,walking
0.190341552734375,0.6136130326796323,-1.5671359194755554,1.29481769246459,-0.1192227154970169,0.4943867623806,-0.0905136466026306,walking
0.20041650390625,0.8001209620665758,-1.5618760992512106,1.400119310891628,-0.1229403764009475,0.354840487241745,-0.0923101231455802,walking
0.210490478515625,0.9812957867972552,-1.536018604417145,1.3977327080160378,-0.1410799622535705,0.258453756570816,-0.0711062997579574,walking
0.2205654296875,1.002673286673054,-1.423152395954728,1.302954821690917,-0.1595263183116912,0.21265509724617,-0.0357998870313167,walking
0.2306396484375,0.8942207299344241,-1.2328484352856874,1.2174918761998414,-0.180092841386795,0.1793541312217712,0.0110539030283689,walking
0.24071435546875,0.8773920524694026,-1.1088351021260023,1.061705102160573,-0.1873882263898849,0.1665433943271637,0.083448477089405,walking
0.25078857421875,0.8478391371835022,-1.041432421721518,0.8702747678101063,-0.1803982257843017,0.1351734846830368,0.1592092812061309,walking
0.260863525390625,0.6762232181105763,-1.011696624149382,0.7545195599079132,-0.1844457536935806,0.0516015365719795,0.2193986773490905,walking
0.2709375,0.4561909125234931,-1.0215151305913923,0.6350596522688865,-0.1916757076978683,-0.0644912496209144,0.2628582715988159,walking
0.281012451171875,0.2452468994077294,-1.117938738296926,0.3927817587345838,-0.1899430155754089,-0.1323579400777816,0.2942149341106415,walking
0.29108642578125,-0.0078317165389657,-1.1547533882141112,0.1400590435534715,-0.1748791188001632,-0.1386429965496063,0.3042859435081482,walking
0.301161376953125,-0.2567810506612062,-1.0970865044042468,-0.0810059660822153,-0.131070852279663,-0.1003348678350448,0.3070662319660187,walking
0.311235595703125,-0.3700468529004603,-1.022409449082613,-0.2593786659389734,-0.055327896028757,-0.0227122418582439,0.312944084405899,walking
0.321310302734375,-0.3663810969345271,-1.0248112495273352,-0.2748977221101522,0.0292677506804466,0.074236623942852,0.308041363954544,walking
0.331384521484375,-0.3694008831471204,-1.0404366886824368,-0.1297831487327814,0.1151781305670738,0.1520107835531234,0.3029118478298187,walking
0.34145947265625,-0.3118343179065734,-1.05869861382097,0.0719879623681306,0.1866569817066192,0.2064060717821121,0.296714037656784,walking
0.351533447265625,-0.2595324682611972,-1.0876923608541489,0.4396002085328102,0.2338465899229049,0.223970428109169,0.2860496938228607,walking
0.3616083984375,-0.1831708939187228,-1.1483917442277074,0.8379074526906013,0.2435317039489746,0.191373199224472,0.278276115655899,walking
0.3716826171875,-0.0603404138680547,-1.2539715950742365,1.1573533415794373,0.2242682576179504,0.1440123468637466,0.2745253145694732,walking
0.38175732421875,0.0826811327528208,-1.3635869850471616,1.4183154773175717,0.1800320446491241,0.080019012093544,0.2750370800495147,walking
0.39183154296875,0.2578977066662162,-1.4517252872273323,1.542548590707779,0.1270524561405182,-0.0009533308912068,0.2733704745769501,walking
0.40190625,0.4225156566105782,-1.5301523427322503,1.4703344183683396,0.082486018538475,-0.1086633279919624,0.2796586453914642,walking
0.41198046875,0.5822844860233366,-1.5827961376830937,1.2619167088598011,0.0528469011187553,-0.20290008187294,0.2884252369403839,walking
0.422055419921875,0.5992606822002678,-1.5373624202415346,0.9560884264349936,0.053476795554161,-0.2800898551940918,0.3127169013023376,walking
0.432129638671875,0.5788030736483634,-1.4481652566581964,0.6704997989624738,0.0530970282852649,-0.3308020234107971,0.3305824398994446,walking
0.442204345703125,0.4948492175459861,-1.387212190784514,0.3942553384184837,0.0599384531378746,-0.3452198207378387,0.3379658758640289,walking
0.45227880859375,0.4022119965113699,-1.424937233544886,0.18913024071455,0.0791377052664756,-0.3365120887756347,0.3189762234687805,walking
0.462353271484375,0.2981638122115284,-1.5389979124888775,-0.0620107582330703,0.1331753730773925,-0.2985549569129944,0.2639451026916504,walking
0.472427734375,0.1591810195874422,-1.5924682213917374,-0.2844827120572328,0.2200415581464767,-0.2524511218070984,0.1821751445531845,walking
0.482502685546875,0.0845178101280704,-1.5741308929294346,-0.4845119479268789,0.3398115336894989,-0.1998123377561569,0.0903845950961113,walking
0.49257666015625,0.0603103109907358,-1.5335691654384136,-0.6119488257944583,0.4618756771087646,-0.1412422358989715,0.0015500620938837,walking
0.502651611328125,0.1414612750342115,-1.4540078452065586,-0.6037193421095609,0.5729605555534363,-0.0902463868260383,-0.0622219108045101,walking
0.5127255859375,0.2668082679504528,-1.3482137670874594,-0.3813058404743671,0.6640507578849792,-0.076697289943695,-0.1003578454256057,walking
0.522800537109375,0.4301141854481771,-1.2706348528444766,-0.1414239021658897,0.7167174816131592,-0.0848398432135582,-0.1152600944042205,walking
0.532874755859375,0.6081185269165784,-1.305610304635763,0.0694184041410684,0.7077413201332092,-0.0752234384417533,-0.1186641454696655,walking
0.542949462890625,0.7336840579543262,-1.44653560962975,0.2976484831005335,0.6429999470710754,-0.0880138128995895,-0.108817271888256,walking
0.553023681640625,0.8977994652040302,-1.5869219854414462,0.4570195453673601,0.5461032390594482,-0.1347512304782867,-0.0871114507317543,walking
0.5630986328125,1.0521645358771086,-1.739119795078039,0.3954144453257322,0.4478374421596527,-0.133536085486412,-0.0844419077038765,walking
0.573172607421875,1.1634534120202065,-1.9374287830263373,0.3166244017273187,0.361892431974411,-0.0522273927927017,-0.0996203273534774,walking
0.58324658203125,1.1261718752436338,-2.0131383962661027,0.332724472656846,0.2717175483703613,-0.017676630988717,-0.1445424407720565,walking
0.59332177734375,1.0034697708129885,-1.9780390258342029,0.2454810734897851,0.1718607246875763,-0.0727571919560432,-0.2184899002313614,walking
0.603395751953125,0.8349768060661852,-1.852208414119482,0.0775122787475585,0.0688764378428459,-0.1443638503551483,-0.2984322309494018,walking
0.613470703125,0.767347842625156,-1.6195201867073774,-0.1251449675381183,-0.0252010561525821,-0.187963530421257,-0.3563474714756012,walking
0.623544677734375,0.7545299351714551,-1.3201637306451797,-0.3951595937818288,-0.0894879251718521,-0.1859138011932373,-0.3774459064006805,walking
0.63361962890625,0.814206697499007,-1.071252098184824,-0.754887224176526,-0.1322769224643707,-0.1082637533545494,-0.3755422830581665,walking
0.64369384765625,0.8659697640925645,-0.9353308850884438,-1.0567916111558675,-0.1473690122365951,-0.0065936162136495,-0.3528274893760681,walking
0.6537685546875,0.8881362223889678,-0.7901812403976917,-1.1977169161498546,-0.1506899744272232,0.024328613653779,-0.3062314391136169,walking
0.6638427734375,1.0299704589214176,-0.6536690756708383,-1.201897416704893,-0.1341645270586013,-0.0220799669623374,-0.2544827759265899,walking
0.673917724609375,1.1359728460289538,-0.5772703111231327,-1.1972136428028344,-0.1178539991378784,-0.1461606472730636,-0.1987178027629852,walking
0.68399169921875,1.0185426906518638,-0.5294874002069234,-1.2181740132451058,-0.1091032326221466,-0.3201102614402771,-0.1697027385234832,walking
0.694066650390625,0.622426599862799,-0.3797960204333067,-1.325872171419859,-0.0935341268777847,-0.45524862408638,-0.1630043536424636,walking
0.704140625,0.0844956348288804,-0.1702566134184598,-1.545962783065438,-0.0787230804562568,-0.4435115754604339,-0.1762009412050247,walking
0.714215576171875,-0.3502678742624819,0.1030301663637161,-1.6848878541529178,-0.05313116684556,-0.2752309739589691,-0.1915916204452514,walking
0.724289794921875,-0.5581522806119174,0.4842196869820356,-1.7010522224903106,-0.0169685371220111,-0.0695925876498222,-0.188143640756607,walking
0.734364501953125,-0.5396331658419221,0.795952809536457,-1.6499404594123364,0.0516693778336048,0.1231345161795616,-0.15403413772583,walking
0.744438720703125,-0.3814049899999052,0.9630120882183312,-1.57285254355669,0.1628454625606537,0.3384344279766083,-0.098633088171482,walking
0.754513671875,-0.3265828280966729,1.1111211672365664,-1.2774229055494069,0.2931861579418182,0.5330880880355835,-0.0473539233207702,walking
0.764587646484375,-0.4116131543241441,1.215260171625018,-0.736123486995697,0.4044948518276214,0.6497653722763062,-0.0139451064169406,walking
0.77466259765625,-0.4457067087143659,1.2274416078060866,-0.093196170091629,0.4769557416439056,0.6566983461380005,0.006386530585587,walking
0.78473681640625,-0.4410775145437568,1.100250813654065,0.5543015234678983,0.5059404969215393,0.5784861445426941,0.0144542269408702,walking
0.7948115234375,-0.4193905833926051,0.9910077641248702,1.0575912371009588,0.492559403181076,0.437130868434906,0.0103550888597965,walking
0.8048857421875,-0.4274119772847741,0.9626187049865722,1.3526917892843484,0.4553025066852569,0.3040346801280975,-0.0059709814377129,walking
0.814960693359375,-0.5058882787588983,0.963423007106781,1.4058330123633145,0.4013732075691223,0.2416000664234161,-0.032896339893341,walking
0.82503466796875,-0.6210675864692777,1.0534440542936323,1.2911650151759386,0.3424801528453827,0.2605943083763122,-0.0493804067373275,walking
0.835109619140625,-0.6812414115987717,1.174396246317029,1.1125795493513344,0.279542475938797,0.4049019515514374,-0.0521868430078029,walking
0.84518359375,-0.7330897453229874,1.2792676566332577,1.0234913991004229,0.2113804072141647,0.5807372331619263,-0.0333811119198799,walking
0.855258544921875,-0.7281199210211634,1.316446171426773,1.0818436348259448,0.1262862831354141,0.7277299165725708,-0.0127631882205605,walking
0.865332763671875,-0.737493825500831,1.088325982582569,1.233544600856304,0.0489088781177997,0.858184814453125,-0.0091952607035636,walking
0.875407470703125,-0.6847755040090531,0.8280378005832433,1.4836404746651648,-0.0130562232807278,0.8852034211158752,-0.021211976185441,walking
0.885481689453125,-0.6883179258562624,0.7310819856971502,1.765838290655613,-0.0588066019117832,0.7766809463500977,-0.0510197654366493,walking
0.895556640625,-0.5869868184953928,0.6326631125211716,2.0173820251852272,-0.0857151821255683,0.5690696835517883,-0.0730547606945037,walking
0.905630615234375,-0.3410961412914097,0.5392986001253127,2.155719067251682,-0.106044128537178,0.3316382765769958,-0.0695179849863052,walking
0.91570556640625,-0.1266034957833588,0.5030272633045911,2.1697148593783377,-0.1281877756118774,0.1406406462192535,-0.0447687022387981,walking
0.925779541015625,-0.0357978740900754,0.476012999650836,2.0677309871971605,-0.1629637479782104,0.0325829908251762,0.0032260760199278,walking
0.9358544921875,-0.0702785281017422,0.4647983626753091,1.9331483292281624,-0.2244915664196014,0.0082704611122608,0.0630020573735237,walking
0.9459287109375,-0.159577398493886,0.4241255760252475,1.866263242956996,-0.2871783673763275,0.0301335398107767,0.1230352893471717,walking
0.95600341796875,-0.2438118251033127,0.3633680327236652,1.671878734976053,-0.3323066830635071,0.077441930770874,0.1781286299228668,walking
0.96607763671875,-0.4443142314426601,0.2979857522308826,1.378169929412007,-0.3399484157562256,0.160161405801773,0.217080220580101,walking
0.976152587890625,-0.6344971960805356,0.225872702178359,1.1398901656031608,-0.3164225816726684,0.2070029526948928,0.2406547963619232,walking
0.986225830078125,-0.74507923912853,0.0529822331249713,1.0140361730128526,-0.2649922370910644,0.200882613658905,0.2441214174032211,walking
0.996301025390625,-0.7802803163692354,-0.1099450603187084,1.0040455248743294,-0.18980373442173,0.1366985589265823,0.2262305617332458,walking
1.006375,-0.7885776045933366,-0.2190782197326421,1.091798627129197,-0.1176580488681793,0.0444910489022731,0.1931310296058654,walking
1.016449951171875,-0.783632549406588,-0.2923720040023326,1.1786083110541103,-0.0619729571044445,-0.0493723265826702,0.1598540395498275,walking
1.026524169921875,-0.7430809049181639,-0.3537088084965944,1.238807635951042,-0.0301053877919912,-0.1139487922191619,0.1336530447006225,walking
1.036598876953125,-0.7300114338561892,-0.4517091639995574,1.2527724484175442,-0.0375782176852226,-0.1483677476644516,0.1099660992622375,walking
1.046673095703125,-0.685635993295908,-0.5614782832294702,1.2659633539021014,-0.0703107342123985,-0.1642268300056457,0.0830381661653518,walking
1.056748046875,-0.6924759223185479,-0.6952899568259716,1.1894254731446503,-0.1140915006399154,-0.1244812905788421,0.056028913706541,walking
1.066822021484375,-0.7604749611809849,-0.7701210336655377,0.9934814607620238,-0.1488372534513473,-0.0451557002961635,0.0310311671346426,walking
1.07689697265625,-0.810992265497148,-0.7939443923234939,0.8124836730986833,-0.1623738408088684,0.0142053607851266,0.0092062931507825,walking
1.08697119140625,-0.7421110369727015,-0.853775468429923,0.5698568199962377,-0.1385560482740402,0.0742319002747535,-0.0060124364681541,walking
1.0970458984375,-0.6709039958491921,-0.9726169519096612,0.2800327469110488,-0.089929386973381,0.1679290831089019,-0.0217551793903112,walking
1.1071201171875,-0.6435873882479966,-1.088615320917964,0.060767480173707,-0.0275412965565919,0.2339476644992828,-0.0448319986462593,walking
1.11719482421875,-0.6559668312191963,-1.194027413982153,-0.0790565855801105,0.0460029616951942,0.2847008407115936,-0.0773798301815986,walking
1.12726904296875,-0.6034807110480964,-1.335970956107974,-0.0863321295410394,0.1061286181211471,0.2924008369445801,-0.1146616861224174,walking
1.137343994140625,-0.4830810383409261,-1.48534669406116,-0.0625251374959945,0.1560354530811309,0.2625830173492431,-0.1508599072694778,walking
1.14741796875,-0.3669765786096453,-1.5917331851154566,0.0079927523195743,0.1800486445426941,0.2076646536588668,-0.1909466087818145,walking
1.157492919921875,-0.2534051444873214,-1.7182792516231535,0.049146600484848,0.1856575310230255,0.1290393620729446,-0.2242094874382019,walking
1.167567138671875,-0.1877526687510311,-1.7645839066803457,-0.0006347907721996,0.1739648878574371,0.0777152106165885,-0.2564412951469421,walking
1.177641845703125,-0.1447352186709642,-1.7540110747396944,-0.0805155522167682,0.1452275067567825,0.0445852130651474,-0.2870106399059295,walking
1.187716064453125,-0.1049057509772479,-1.7008710207045077,-0.1314537122935056,0.1002359688282013,0.0076658269390463,-0.3031513392925262,walking
1.197791015625,-0.0224482709124684,-1.583330682951212,-0.2757856108605861,0.0543313287198543,0.0432033129036426,-0.304405152797699,walking
1.207864990234375,0.0786563342161476,-1.5398375781834124,-0.4748889640569687,0.0057911868207156,0.2205941081047058,-0.3031205534934997,walking
1.21793994140625,0.275739141370356,-1.6189298195987938,-0.5786509518265723,-0.051533356308937,0.4137321412563324,-0.2960943281650543,walking
1.228013916015625,0.6753340872511268,-1.8381921637266876,-0.4349970986515283,-0.1293630748987198,0.3953835666179657,-0.2679740190505981,walking
1.2380888671875,0.9038434215433896,-1.9668945314854385,-0.1559913567006587,-0.2593474686145782,0.2043310403823852,-0.2491566389799118,walking
1.2481630859375,0.9469121634192764,-2.0356886662483213,-0.0694371088415384,-0.4038082957267761,-0.1326808333396911,-0.2427769601345062,walking
1.258238037109375,0.8888220857612789,-1.864866820162535,-0.3303536518722772,-0.5145263075828552,-0.4615460634231567,-0.2301351875066757,walking
1.26831201171875,0.8485572953902184,-1.5219950475007296,-0.985062591984868,-0.5385085344314575,-0.5696820616722107,-0.2102623283863067,walking
1.27838720703125,0.7702000902511179,-1.080140338039398,-1.9210417118489744,-0.4437066614627838,-0.4389197826385498,-0.1702270358800888,walking
1.2884609375,0.5885175351940095,-0.462064553797245,-2.7194097658336163,-0.2378183752298355,-0.1226603835821151,-0.0981190204620361,walking
1.2985361328125,0.4717002510182559,0.1458697756588459,-3.00090674007833,0.0333073884248733,0.2860528230667114,0.0019788180943578,walking
1.30860986328125,0.5228048537030816,0.482754875126481,-2.667063492524624,0.2873036563396454,0.585917055606842,0.117752656340599,walking
1.31868505859375,0.7182260112553834,0.5245242248415947,-1.8469664218127728,0.4898676574230194,0.6417102813720703,0.2422346472740173,walking
1.328759033203125,1.0488828838579356,0.3760369601607322,-1.007086207744479,0.6358133554458618,0.5401016473770142,0.3639939427375793,walking
1.338834228515625,1.177201366865635,0.2097901669055223,-0.3209621386706829,0.7236172556877136,0.3592216074466705,0.4424650371074676,walking
1.348907958984375,1.0047473895333707,0.1793079348802566,0.1729196951478719,0.7435065507888794,0.1453228741884231,0.4658077359199524,walking
1.358983154296875,0.7493178996115922,0.2337836214333772,0.4676069903552532,0.6980109810829163,-0.0283442549407482,0.4572014510631561,walking
1.369056884765625,0.5177661288835108,0.2674018133968114,0.5834469539314509,0.612265944480896,-0.0969762131571769,0.4400979578495025,walking
1.379132080078125,0.3128546739302575,0.3354267173528671,0.630944618165493,0.4803507924079895,-0.0888391882181167,0.4132857620716095,walking
1.3892060546875,0.201148303027451,0.4261176266252994,0.6384358507037162,0.3240687251091003,-0.0552299953997135,0.3944544494152069,walking
1.399281005859375,0.1831198943838477,0.5353764582455158,0.6461486170381308,0.1596691310405731,-0.0236414428800344,0.3970742225646972,walking
1.40935498046875,0.2182223335556685,0.6138695647239685,0.5057160639971494,0.025552162900567,-0.0002558943815529,0.4195057451725006,walking
1.41943017578125,0.2628362590469419,0.6712555857658385,0.2342600067734718,-0.0466461330652236,0.0200728122144937,0.448277473449707,walking
1.42950390625,0.1701258266456425,0.7423609200805426,-0.0615355419367551,-0.0634323209524154,0.0241981986910104,0.4544458091259002,walking
1.439578125,0.0511949113167822,0.7269722122907638,-0.2764788538217544,-0.0361122824251651,-0.0090204747393727,0.4443119466304779,walking
1.44965283203125,-0.0584182866990566,0.7378215230852365,-0.4282032007277012,0.03070879727602,-0.0339668802917003,0.4171886444091797,walking
1.45972705078125,-0.1430767839394509,0.7532166606158017,-0.5109457813441753,0.1101929619908332,-0.034612163901329,0.3803437948226928,walking
1.469802001953125,-0.2279864794619381,0.8111462870150804,-0.4852583823800087,0.1853369772434234,-0.0151350665837526,0.3426912128925323,walking
1.479876953125,-0.2653608090884983,0.921624431297183,-0.3487824580103159,0.2521639466285705,0.0189794935286045,0.3139045834541321,walking
1.489950927734375,-0.2662745629325509,1.030473513072729,-0.0788864897102117,0.2959099411964416,0.0518544651567935,0.2991132140159607,walking
1.50002490234375,-0.2649143804952502,1.1058622237950564,0.2930044566869735,0.3145643174648285,0.0788139104843139,0.2931810319423675,walking
1.510099853515625,-0.2661966753907501,1.1609200941503046,0.7373200033038854,0.3077935874462127,0.083508014678955,0.2930544316768646,walking
1.520174072265625,-0.2521621586889028,1.1286954023718834,1.1400550007760524,0.2896135151386261,0.0738420709967613,0.286185085773468,walking
1.530248779296875,-0.2091344794757664,1.083385603570938,1.4420593409985305,0.2713303864002228,0.0412118099629879,0.2769897878170013,walking
1.540322998046875,-0.2103950009308755,1.0156500379502773,1.5987585537075997,0.2629581987857818,0.0144616886973381,0.2655619084835052,walking
1.55039794921875,-0.3003489742308854,0.9526397472858428,1.6770698738783596,0.2670958936214447,-0.02323704585433,0.2382805794477462,walking
1.560471923828125,-0.3898265621908008,0.8469792324185371,1.803490852701664,0.2684440016746521,-0.0900333896279335,0.1859795451164245,walking
1.570546875,-0.4920366443432867,0.7144587676763534,1.9006255312860008,0.2706701755523681,-0.160564050078392,0.1034722477197647,walking
1.58062109375,-0.5968640693873166,0.5884492922633886,1.8810171599745749,0.2556917667388916,-0.2207972854375839,-0.0109243728220462,walking
1.59069580078125,-0.6874616012878716,0.5109364289939403,1.7866040153086185,0.2300963252782821,-0.2637436985969543,-0.1342057287693023,walking
1.60077001953125,-0.6553738337621092,0.4896680155158042,1.5894769306212664,0.2038111835718155,-0.2339820861816406,-0.2468188256025314,walking
1.610844970703125,-0.5658510914862156,0.5412433044523001,1.3319050218433142,0.1783182024955749,-0.1244558170437812,-0.3422486186027527,walking
1.6209189453125,-0.4662652203574776,0.6291226634353398,1.1535580409497022,0.138157457113266,-0.000604179687798,-0.4068931341171264,walking
1.630993896484375,-0.236942523855716,0.6979670670807361,1.051908515289426,0.1011930406093597,0.1231234371662139,-0.4302247762680053,walking
1.64106787109375,0.0369875222660601,0.651605128878355,0.9725888948589564,0.0718990713357925,0.2082700133323669,-0.4279637634754181,walking
1.65114306640625,0.3121547089673578,0.5270914449810982,1.00171328253448,0.054264348000288,0.1974810659885406,-0.4081462919712066,walking
1.661217041015625,0.5353656445905566,0.3340162660330534,1.0435545284420251,0.053759679198265,0.1313688904047012,-0.3863576352596283,walking
1.6712919921875,0.6280893748648464,0.1854530135065317,0.978807038721442,0.0601681135594844,0.0338611900806427,-0.3696778118610382,walking
1.681365966796875,0.5744660673573613,0.1408253517508506,0.848864900034666,0.0856843888759613,-0.0649170503020286,-0.3572562932968139,walking
1.691441162109375,0.5410889906734228,0.0607563742578029,0.6129179630875587,0.11507099121809,-0.137213185429573,-0.346109539270401,walking
1.701514892578125,0.5308692099541426,-0.0498188006579875,0.2477297291994094,0.1443689465522766,-0.1649001985788345,-0.3367727696895599,walking
1.711590087890625,0.5119391762956976,-0.1556616863548755,-0.0701771135538816,0.1607733368873596,-0.1616576164960861,-0.3268196582794189,walking
1.721663818359375,0.5261266916021704,-0.2187561481714248,-0.2842518259108066,0.1544350087642669,-0.1259118616580963,-0.3081306517124176,walking
1.731739013671875,0.5631649211421609,-0.2397550970584154,-0.414855643376708,0.1258833259344101,-0.1009947136044502,-0.269596666097641,walking
1.74181298828125,0.5839294767513871,-0.2845318118959665,-0.4553331997156143,0.0713918507099151,-0.1297051757574081,-0.2214885354042053,walking
1.75188818359375,0.6215820387974381,-0.4070966998130083,-0.5182546430528163,0.0339172780513763,-0.2050590813159942,-0.1759724617004394,walking
1.7619619140625,0.5639809137001633,-0.5506476771354675,-0.6922761619627475,0.0151987206190824,-0.2945221066474914,-0.1477117836475372,walking
1.772037109375,0.3869457460574805,-0.6552168896347283,-0.9195902951210736,0.0342161692678928,-0.3804238140583038,-0.1410852968692779,walking
1.78211083984375,0.191826932452619,-0.7061404366642237,-1.1734779624283314,0.0899611935019493,-0.4548026919364929,-0.1531731188297271,walking
1.79218603515625,0.0461190693572163,-0.7288397597283125,-1.3988380389094353,0.156079962849617,-0.5082513093948364,-0.1640544533729553,walking
1.802260009765625,0.0723717009887099,-0.6975076328754425,-1.5845546717882155,0.2360032945871353,-0.4073058068752289,-0.1356603503227234,walking
1.8123349609375,0.2606935479298234,-0.6986883670926094,-1.8417618389070036,0.3346660137176513,-0.137108638882637,-0.0755872502923011,walking
1.822408935546875,0.631977760605514,-0.7720400190293788,-1.519099326059222,0.4067529737949371,-0.1562732756137848,-0.018803596496582,walking
1.832484130859375,1.2479602258302271,-1.136512213602662,-0.6524439177900553,0.3317379653453827,-0.4577246308326721,0.0264225583523511,walking
1.842557861328125,1.064996106529981,-1.4837509493023155,-0.4811386721014976,0.1770259141921997,-0.6973273754119873,0.0779784321784973,walking
1.852633056640625,0.519901095085591,-1.4704150823891162,-0.9862556011617184,0.021666795015335,-0.6933908462524414,0.1148939281702041,walking
1.862706787109375,-0.2838756860747933,-1.5042004476130009,-2.1727596339017152,-0.0513429678976535,-0.390780359506607,0.0771513432264328,walking
1.872781982421875,-1.032274132753909,-1.588024393725395,-3.141450936800241,-0.0274413991719484,0.0244765058159828,-0.0660189539194107,walking
1.88285595703125,-1.5819009424090384,-1.723786616867781,-3.650679977354407,0.0887696295976638,0.3836565017700195,-0.2790521383285522,walking
1.892930908203125,-1.8842261851489543,-1.5369985553652048,-3.5171687480092046,0.2403254956007003,0.5442349314689636,-0.4648427665233612,walking
1.9030048828125,-1.6708970304623243,-1.0248439827531577,-2.75851194216609,0.3865618109703064,0.527254581451416,-0.5274019837379456,walking
1.913080078125,-0.7224367608182132,-0.6716396166473627,-1.5515098957985638,0.4620503187179565,0.2835167646408081,-0.4576596319675445,walking
1.92315380859375,0.131746703890711,-0.3979372418016195,-0.2278998240917921,0.4307733476161957,-0.130362719297409,-0.3057385385036468,walking
1.93322900390625,0.6319251536354422,-0.3065338003456592,0.6775239985108376,0.3304613828659057,-0.5075687766075134,-0.1092062816023826,walking
1.943302734375,0.7258953768394887,-0.3227741565287113,0.9308698140263556,0.2120934724807739,-0.7370688319206238,0.0568087808787822,walking
1.9533779296875,0.2141607832051813,-0.1818979513734579,0.7086994734972715,0.0965761840343475,-0.8277352452278137,0.1526098847389221,walking
1.963451904296875,-0.561438681871444,-0.017032967865467,0.3124509154349565,0.0075136832892894,-0.7983797788619995,0.1764768660068512,walking
1.97352685546875,-1.2990377943776548,0.072283730444312,-0.3225228121161461,-0.0358432158827781,-0.6417185068130493,0.1433393210172653,walking
1.9836015625,-1.846340837260336,0.0969920552432537,-1.0797943010807036,-0.0038280228618532,-0.3941483795642853,0.0842168778181076,walking
1.993676513671875,-2.25942698674649,0.1125374148994684,-1.6190367871046063,0.1074056550860405,-0.1607303172349929,-0.0189251229166984,walking
2.00375048828125,-2.492138887295127,0.1888572689920663,-1.7764532081723212,0.2803169786930084,-0.0339579954743385,-0.146992802619934,walking
2.013825439453125,-2.4315309815973043,0.3281950125336647,-1.5550994447231292,0.4642327129840851,-0.0442097298800945,-0.2712196111679077,walking
2.023899658203125,-2.100395823958516,0.4224252018481493,-1.0692296524465084,0.6170986890792847,-0.0906446054577827,-0.3687999546527862,walking
2.033974365234375,-1.6436489580526947,0.5516197370380163,-0.4145388325124979,0.7026513814926147,-0.1546988636255264,-0.4237272143363952,walking
2.044048583984375,-1.234137890574336,0.7787526684105396,0.3521972348898649,0.7045062780380249,-0.2178618460893631,-0.4550670385360718,walking
2.05412353515625,-0.8897966298818588,1.0037252068787812,1.113684295722842,0.6305691003799438,-0.2714202404022217,-0.4632098078727722,walking
2.064197509765625,-0.6497456916820258,1.147191428527236,1.6914666480213405,0.4965298473834991,-0.2784379422664642,-0.4520463645458221,walking
2.0742724609375,-0.4773684328477829,1.2256342661231756,2.0668506972312928,0.3393276929855346,-0.2350148260593414,-0.431165874004364,walking
2.0843466796875,-0.3832950415302067,1.3020195866674185,2.3461335025578736,0.1732828915119171,-0.1932270973920822,-0.4155443012714386,walking
2.09442138671875,-0.3327786870621144,1.3483031989365817,2.507024906259775,0.0181210339069366,-0.1701598912477493,-0.4040286839008331,walking
2.10449560546875,-0.2156288099311292,1.3441589387387036,2.546449154153466,-0.1081969588994979,-0.1681998074054718,-0.3897461593151092,walking
2.11457080078125,-0.089793522041291,1.2961311131507158,2.399980243557692,-0.1883815824985504,-0.1775360256433487,-0.3756956756114959,walking
2.12464453125,0.0331686946302652,1.2700047382473945,2.1433447388470173,-0.2321322560310363,-0.1741692572832107,-0.3540508449077606,walking
2.1347197265625,0.1172369708925485,1.2901432709127665,1.8890134194254875,-0.2478705048561096,-0.1609192639589309,-0.3231646418571472,walking
2.14479345703125,0.2175627006031572,1.2187579506129025,1.6534277170062064,-0.2531701922416687,-0.1088422313332557,-0.2803165018558502,walking
2.15486865234375,0.2896690286539495,1.1526841807246206,1.365441965264082,-0.2268120199441909,-0.0899627208709716,-0.2081273645162582,walking
2.164942626953125,0.432390423284471,1.0540636474967002,0.9628443304359912,-0.1393855065107345,-0.0846694186329841,-0.1073128655552864,walking
2.175016357421875,0.5597922298386693,0.9000871377497911,0.5520739105463027,0.0099684651941061,-0.1029273271560669,-0.0081881433725357,walking
2.185091552734375,0.4919261697061359,0.6727724200695753,0.2593915254205465,0.1713517606258392,-0.156865656375885,0.0556733906269073,walking
2.195166748046875,0.2778966116651892,0.5044201789677143,0.12070318569839,0.3169461190700531,-0.2078962624073028,0.0995427519083023,walking
2.205240478515625,0.048516193626821,0.4028758672475814,0.1544903044879436,0.4094552993774414,-0.2556861340999603,0.1324349194765091,walking
2.215314453125,-0.1482134161755442,0.2688426598548889,0.2349579259097576,0.4434375762939453,-0.273858368396759,0.154068574309349,walking
2.225389404296875,-0.3350090033974498,0.0493313094019889,0.336635508620739,0.436692863702774,-0.2416474223136901,0.1597925126552581,walking
2.235463623046875,-0.5267566600687802,-0.1607218923538923,0.4696767823666334,0.3861077129840851,-0.1882550418376922,0.1299869418144226,walking
2.24553857421875,-0.7010208286281675,-0.3662321899831294,0.6056821666151285,0.3079476654529571,-0.1238606125116348,0.0639951527118682,walking
2.255612548828125,-0.8841208492677658,-0.495727753946185,0.7543208224654198,0.2156800031661987,-0.0598908476531505,-0.0225330032408237,walking
2.2656875,-0.923722207294032,-0.5395552052348852,0.8130740402072668,0.1223908066749572,0.0281511284410953,-0.1029966846108436,walking
2.27576171875,-0.8908770455297083,-0.4983189394831657,0.737191993010044,0.0527201630175113,0.1375403702259063,-0.1606771200895309,walking
2.28583642578125,-0.8076919087775051,-0.415980263492465,0.7127005258321761,0.005322553217411,0.1964910477399826,-0.1904981285333633,walking
2.29591064453125,-0.6052056351445615,-0.3844400468468666,0.6511334197133779,-0.0058732079342007,0.1996641904115677,-0.19975046813488,walking
2.3059853515625,-0.4173236409254371,-0.4385398858249187,0.3880336874246597,0.0327333062887191,0.2328522354364395,-0.2039849013090133,walking
2.3160595703125,-0.2901987516164779,-0.5385732084602117,0.215298116672039,0.0859960913658142,0.1895516365766525,-0.2182922065258026,walking
2.326134521484375,-0.2058611568935215,-0.665915393781662,0.0939513723731041,0.1253927797079086,0.1053978726267814,-0.2473712563514709,walking
2.33620849609375,-0.1364775318048894,-0.8333692247390747,-0.0383878905832767,0.1527168154716491,0.0590021945536136,-0.2779847383499145,walking
2.346283447265625,-0.0948328313827514,-0.9114631027668714,-0.132590607368946,0.1360691338777542,0.0367980897426605,-0.3061338365077972,walking
2.356357666015625,-0.1113948207356035,-0.8951298076033591,-0.1544400356054306,0.0798051655292511,0.0442478135228157,-0.3309861719608307,walking
2.366432373046875,-0.1471868496067822,-0.8638643162459134,-0.1561217050820589,-0.0073214834555983,0.0919500887393951,-0.3510618805885315,walking
2.376506591796875,-0.1103761452123522,-0.8102665815711021,-0.1895072573333978,-0.1001379862427711,0.1969234496355056,-0.3692355453968048,walking
2.38658154296875,-0.0936211175054311,-0.7443243291079997,-0.2929132712721825,-0.1734039336442947,0.3419951498508453,-0.3923653662204742,walking
2.396655517578125,-0.0453203201949596,-0.6615712270975113,-0.3544786238253116,-0.208299919962883,0.5096891522407532,-0.4150002896785736,walking
2.40673046875,0.1518767609886825,-0.6452309176713228,-0.378329455012083,-0.214238241314888,0.7123796939849854,-0.4276947975158691,walking
2.416804443359375,0.513461417426914,-0.809725898823142,-0.2201028866052627,-0.2213340848684311,0.716938316822052,-0.4152818620204925,walking
2.42687939453125,0.8669844940930604,-0.9643979896187782,0.1570762293279171,-0.280201643705368,0.4686645865440368,-0.3651590645313263,walking
2.43695361328125,1.1122582084424792,-1.007815691062808,0.4441121329993009,-0.3832329511642456,0.1166011020541191,-0.2878778576850891,walking
2.4470283203125,1.2447729740962383,-0.915509163287282,0.4433680366337299,-0.5133906602859497,-0.2601357996463775,-0.1883821636438369,walking
2.4571025390625,1.1485361211344598,-0.7225175709694623,0.050340194183588,-0.6337291598320007,-0.4633745849132538,-0.0990042462944984,walking
2.467177490234375,0.7984310362182557,-0.509655741533637,-0.5933645368337631,-0.716191291809082,-0.4483810067176819,-0.0585987642407417,walking
2.47725146484375,0.4140183157697319,-0.2860223427146673,-1.27152391063869,-0.7392686009407043,-0.2956851124763489,-0.046429805457592,walking
2.487326416015625,0.0167146956965327,0.01553542278409,-1.8839409384667871,-0.6874826550483704,-0.0550778396427631,-0.040712796151638,walking
2.497400390625,-0.2740254693202674,0.2796843718647956,-2.2725404430806635,-0.5582191944122314,0.1885528117418289,-0.0386609248816967,walking
2.5074755859375,-0.3626334348388016,0.4676180962711572,-2.3241221617579457,-0.3638747632503509,0.3247410356998443,-0.0376060456037521,walking
2.517549560546875,-0.235602361293137,0.4728957444131374,-2.109590937805176,-0.1403729319572448,0.3409129083156585,-0.0357441380620002,walking
2.527624755859375,-0.0175545075215399,0.3906266265273094,-1.7244214076399802,0.0811549350619316,0.2905999422073364,-0.030523806810379,walking
2.537698486328125,0.1609377270616591,0.3725526251763105,-1.2298013226747513,0.2628314197063446,0.1505696773529052,-0.0283212009817361,walking
2.547773681640625,0.2532083067409694,0.4509422712802887,-0.690242610308528,0.3810869455337524,-0.0466824062168598,-0.0172602925449609,walking
2.557847412109375,0.3801354815207421,0.519644636106491,-0.2439619010984897,0.428722083568573,-0.2227104604244232,0.0067528067156672,walking
2.567922607421875,0.4559652140088379,0.5367033229351044,0.0537105473995208,0.3984946608543396,-0.3465695679187774,0.0396108888089656,walking
2.57799658203125,0.3374517934396863,0.5754407576084136,0.2445499301195144,0.2889710962772369,-0.4323326349258423,0.0550896301865577,walking
2.588071533203125,0.0339243353031575,0.6003811375975608,0.3502683126538992,0.1389424204826355,-0.4738499820232391,0.0538272932171821,walking
2.5981455078125,-0.2980117634549736,0.672756053456664,0.3062169894814491,-0.0167533066123724,-0.4652752876281738,0.0338531360030174,walking
2.608220703125,-0.5499056265965104,0.7604349214315413,0.1745698004424571,-0.1570110768079757,-0.4185085892677307,-0.0044668205082416,walking
2.61829443359375,-0.7138032263770699,0.8447533730626106,-0.0383680168390274,-0.2526962161064148,-0.3423145115375519,-0.0485578589141368,walking
2.62836962890625,-0.77052245407328,0.9853455005794765,-0.2940717936575412,-0.2963443696498871,-0.2242395281791687,-0.1027912646532058,walking
2.638443359375,-0.7606061863452196,1.1243155798524618,-0.4532511327445507,-0.2823915779590606,-0.0932012572884559,-0.1460810303688049,walking
2.6485185546875,-0.6728671126157045,1.2653273940861225,-0.4319663526535034,-0.2283160984516143,-0.0006297780200839,-0.1726439297199249,walking
2.658592529296875,-0.5458861618220806,1.4651567234694958,-0.2318786645948886,-0.1450772583484649,0.0473140142858028,-0.1767549812793731,walking
2.66866748046875,-0.3870136967271566,1.6463152546525,0.0172591778367757,-0.0511289313435554,0.0461113303899765,-0.1598058193922042,walking
2.678741455078125,-0.2235080188736319,1.80894385741055,0.2835486460775137,0.046037521213293,0.0294030234217643,-0.1200997680425643,walking
2.688816650390625,-0.0512733833804726,1.947162826055288,0.6023463001906871,0.1202598214149475,0.0287822391837835,-0.0737490430474281,walking
2.698890380859375,0.0923823694907128,1.9316285723149773,0.9704489602208136,0.1608494520187378,0.0458239205181598,-0.0274048931896686,walking
2.708965576171875,0.1721108629830181,1.8514707474946972,1.359602591586113,0.165450319647789,0.0342602059245109,0.0083696162328124,walking
2.719039306640625,0.2679568169310689,1.6789403439253567,1.7306781299471854,0.1363290101289749,0.0101192481815814,0.0360752753913402,walking
2.729114501953125,0.3558937513202428,1.478097453585267,2.0544658474326134,0.0877124741673469,-0.0368181653320789,0.0620019473135471,walking
2.7391884765625,0.4393573396876454,1.3185714930176735,2.2786843526631597,0.0056988941505551,-0.1392060369253158,0.0837993025779724,walking
2.749263671875,0.511204578410834,1.1331734245687723,2.3527841926187274,-0.102582573890686,-0.2565784752368927,0.1175825670361518,walking
2.75933740234375,0.6095714291386306,0.9193056329607964,2.2465438320368527,-0.2037391066551208,-0.3471217453479767,0.1555291414260864,walking
2.76941259765625,0.6179046654589474,0.6762210992187261,2.033587894576788,-0.2943417131900787,-0.421917974948883,0.177354022860527,walking
2.779486328125,0.5191948465123772,0.4782371054410934,1.8086223703712223,-0.3743301630020141,-0.4860318601131439,0.1595695167779922,walking
2.7895615234375,0.3771292854420841,0.334056013521552,1.5477239475190638,-0.4438874125480652,-0.5189877152442932,0.1309567838907241,walking
2.799635498046875,0.2732712899520993,0.1678384463608264,1.267183835607767,-0.5063052177429199,-0.5251043438911438,0.0949587449431419,walking
2.80971044921875,0.2439202539138495,0.0128361006975173,0.9814315420061348,-0.5610179901123047,-0.5241456031799316,0.0690067782998085,walking
2.819784423828125,0.2027968008868396,-0.1674433095633983,0.6937023953735828,-0.6087883710861206,-0.5317190885543823,0.0440943166613578,walking
2.829859619140625,0.1518577640272677,-0.3633294542789459,0.3778647601097822,-0.6320362091064453,-0.5212963223457336,0.0231613386422395,walking
2.839933349609375,0.077786565644294,-0.5268570517033339,0.0417763639777898,-0.6245024800300598,-0.4796978831291199,-0.0141931343823671,walking
2.850008544921875,-0.009079159316793,-0.6342489204078913,-0.2300023493289947,-0.5898233652114868,-0.4197857975959778,-0.0553600117564201,walking
2.860082275390625,-0.0739732179012149,-0.6541951453715562,-0.449874934309721,-0.5193741321563721,-0.3587849736213684,-0.100048653781414,walking
2.870157470703125,-0.078390303691104,-0.7024550261497498,-0.5851110877513885,-0.4249051511287689,-0.2888572812080383,-0.1468968689441681,walking
2.880231689453125,-0.0251375830616801,-0.7827648266613483,-0.6148889708995818,-0.3139428198337555,-0.2305959016084671,-0.1958887130022049,walking
2.890306396484375,-0.0015966946069151,-0.81217270745337,-0.5225836121678352,-0.2015600800514221,-0.1874092817306518,-0.2385256588459015,walking
2.900380615234375,0.0194846718665212,-0.7875403705000877,-0.383113182157278,-0.0935213193297386,-0.1416136175394058,-0.2781838476657867,walking
2.910454345703125,0.0517005227513611,-0.7705430584698915,-0.1709960336089134,-0.0079355798661708,-0.1301598995923996,-0.3137570321559906,walking
2.920529541015625,0.1284568685650825,-0.7491033800780773,0.0714320820510387,0.0513048954308033,-0.147503912448883,-0.3372965455055237,walking
2.930603515625,0.2456304918978363,-0.7445406022071838,0.3260369577169418,0.0839477926492691,-0.1634613126516342,-0.3527676463127136,walking
2.9406787109375,0.3680307638376951,-0.6970324165791273,0.5633452461451292,0.0861928164958953,-0.16788911819458,-0.3583188354969024,walking
2.95075244140625,0.4705690550312399,-0.6914543241858482,0.7049240466117859,0.0750578716397285,-0.1334493905305862,-0.3489477038383484,walking
2.96082763671875,0.5367916588056832,-0.7387526664555072,0.794171771338582,0.0440079271793365,-0.0721571594476699,-0.3424287140369415,walking
2.9709013671875,0.558658476568386,-0.8435416591852903,0.8825614179313183,0.0170000102370977,-0.028946304693818,-0.3422968983650207,walking
2.980976806640625,0.5673762552268803,-0.991998528727889,0.952577787965536,-0.0190636552870273,-0.0423156209290027,-0.3482416868209839,walking
2.99105078125,0.5959693125046789,-1.1373819821745157,0.99039284709692,-0.0498663075268268,-0.1193110644817352,-0.3548545837402344,walking
3.001125732421875,0.636105069668591,-1.2616396454840897,0.9172446087777614,-0.0737325176596641,-0.2287086993455886,-0.3599636852741241,walking
3.011199951171875,0.6448305201768875,-1.3446370776444674,0.6983464217871427,-0.0908808782696724,-0.2979522347450256,-0.3702637255191803,walking
3.02127490234375,0.5975405073441564,-1.340204648154974,0.3562766131579876,-0.0966982617974281,-0.2693114876747131,-0.3808230757713318,walking
3.031348876953125,0.6873800604842603,-1.4498475106567144,0.0126858785718679,-0.0969568565487861,-0.0940949246287345,-0.3973042964935303,walking
3.041423828125,1.0250168551020324,-1.7887077095896005,-0.084264675617218,-0.1115822568535804,-0.0390567518770694,-0.4064957499504089,walking
3.051497802734375,1.3468015622019769,-2.078897693377733,-0.0729910019308328,-0.1653413623571396,-0.097679316997528,-0.4081261157989502,walking
3.06157275390625,1.5422927162505686,-2.2781483460903167,-0.1935761142075061,-0.239823430776596,-0.2519160211086273,-0.4126482903957367,walking
3.07164697265625,1.6057530887700615,-2.343545824152231,-0.4576572587490081,-0.3523158729076385,-0.4620021283626556,-0.4335016310214996,walking
3.0817216796875,1.5457587849259375,-2.342291440176964,-0.9460527701109648,-0.4649350345134735,-0.5523324012756348,-0.4620697200298309,walking
3.0917958984375,1.524739377772808,-2.280069085019827,-1.5946476112574337,-0.5398223400115967,-0.4941332936286926,-0.4845276176929474,walking
3.101870849609375,1.3720863717146217,-1.9744079758554696,-2.2078490674614906,-0.5784648060798645,-0.3656053245067596,-0.5055407285690308,walking
3.11194482421875,0.9782624104507268,-1.365866912677884,-2.726808059391379,-0.5409626960754395,-0.1901187300682068,-0.5095735788345337,walking
3.122019775390625,0.5608468534581363,-0.7058072591871023,-3.141122435498237,-0.429884672164917,0.0082957167178392,-0.4756005406379699,walking
3.132093994140625,0.2545398476056754,-0.1519914734095334,-3.2974791183799503,-0.2552921175956726,0.1552457511425018,-0.4208030700683594,walking
3.142168701171875,0.0624522183902561,0.2280178975135088,-3.150532068878412,-0.033336691558361,0.3011090457439422,-0.3767324388027191,walking
3.152242919921875,0.0113764034084975,0.4679781617552042,-2.711277897304296,0.2223768383264541,0.4408371150493622,-0.3498286604881286,walking
3.16231787109375,0.103080727507174,0.6493360149025916,-2.0299632743388414,0.465746521949768,0.5288394093513489,-0.3369384407997131,walking
3.172391845703125,0.2560651574768126,0.8230331241637467,-1.1839642851293086,0.6428169012069702,0.5079830884933472,-0.314385712146759,walking
3.182466796875,0.4688363860197365,0.9637713821530342,-0.2560229257702827,0.7319866418838501,0.4052350521087646,-0.2668445706367492,walking
3.192540771484375,0.7772235591471195,1.0023656089633703,0.5025280816107988,0.7193264961242676,0.2485999166965484,-0.1943402588367462,walking
3.20261572265625,1.0861385555408891,0.9109609984636308,1.0428618700027463,0.601621687412262,0.0536215864121913,-0.1044267043471336,walking
3.21268994140625,1.364008279199153,0.7710492544263601,1.2993243562340735,0.3927883207798004,-0.1305940598249435,-0.0116078192368149,walking
3.2227646484375,1.429231569737941,0.6571060643821954,1.2673404874742031,0.1487497687339782,-0.2643799781799316,0.090828888118267,walking
3.2328388671875,1.2420488098293545,0.7363859373241662,0.8891483951061964,-0.0795481204986572,-0.313258022069931,0.1930354237556457,walking
3.242913818359375,0.8988090806379914,0.9412322180867194,0.221969264999032,-0.2332075983285904,-0.2592432498931885,0.283221423625946,walking
3.25298779296875,0.6040173021428287,1.0986112297534942,-0.5056412451952695,-0.2855150103569031,-0.1387410759925842,0.3689882755279541,walking
3.263062744140625,0.35303149375692,1.1961299392193556,-1.1003747322946786,-0.2143490314483642,0.0106956213712692,0.4422302544116974,walking
3.27313671875,0.2059399212181568,1.152795824405551,-1.410824829301238,-0.058187648653984,0.1220205426216125,0.4832743406295776,walking
3.2832119140625,0.1327745856337249,1.0145400308817625,-1.3776900369405745,0.1286355257034301,0.1407410204410553,0.4959960877895355,walking
3.293285888671875,0.0785381146639585,0.8504588912278414,-1.0056816016435624,0.2930550873279571,0.0906762555241584,0.4877711832523346,walking
3.30336083984375,-0.0131679630003869,0.7175099719405174,-0.4846294368267059,0.4112179577350616,-0.0045836865901947,0.4590063691139221,walking
3.313434814453125,-0.1124536821387708,0.7124339838504791,0.0522621021568775,0.4599950909614563,-0.1090472415089607,0.4232363998889923,walking
3.323510009765625,-0.1168079318255186,0.7315788293033838,0.5212380427777766,0.4597958624362945,-0.1983640491962433,0.393249362707138,walking
3.333583740234375,-0.0274289819344878,0.7794406506747007,0.810996064889431,0.4256331026554107,-0.2291443347930908,0.3759359121322632,walking
3.343658935546875,0.0383054729968309,0.8693804493188858,1.02172497394979,0.3605346977710724,-0.2128945291042328,0.3671402633190155,walking
3.35373291015625,0.0493371546208858,0.98834117526412,1.2457540940880776,0.2745819687843323,-0.1911037415266037,0.3598634302616119,walking
3.363807861328125,0.0593498684607446,1.0324830993294716,1.406277833521366,0.1794222593307495,-0.1718114167451858,0.3563782870769501,walking
3.3738818359375,0.0928247064307331,1.0259534052997827,1.4908569819152355,0.0806176513433456,-0.1562622934579849,0.353242427110672,walking
3.38395703125,0.0442109707135707,0.972069254899025,1.467321208027005,-0.0244018491357564,-0.1534038782119751,0.3375130593776703,walking
3.39403076171875,-0.0208769299425184,0.9356406816899776,1.4002777163237332,-0.1163922250270843,-0.1689823120832443,0.310865193605423,walking
3.40410595703125,-0.0566795532729476,0.8989262772768736,1.241485915249586,-0.2053368240594864,-0.1900070309638977,0.2832474112510681,walking
3.4141796875,0.0156961663037538,0.8423375440925359,1.0204431174457074,-0.2781934440135956,-0.1747425943613052,0.2728150188922882,walking
3.4242548828125,0.1244608577314764,0.8276473399609326,0.7474959448814391,-0.3218944668769836,-0.0889897570014,0.2803761065006256,walking
3.434328857421875,0.2098581906404346,0.8506886083304882,0.5126876565754414,-0.335572749376297,0.0725306943058967,0.2949989736080169,walking
3.44440380859375,0.2684854439150542,0.8466226740658283,0.4161141190052032,-0.3176243901252746,0.2699460685253143,0.3008314669132232,walking
3.454477783203125,0.2916872366085648,0.7776064209848642,0.5270750783681869,-0.2971550822257995,0.4306180477142334,0.3047572374343872,walking
3.464552978515625,0.4128051405876874,0.6171200909525155,0.8048667683541775,-0.2748024761676788,0.5308231115341187,0.3219747543334961,walking
3.474626708984375,0.6379786815207451,0.4239806145966053,1.1616776345193385,-0.25644451379776,0.5732994675636292,0.3520990908145904,walking
3.484701904296875,0.8267852432388811,0.2360819615036249,1.4737082787156104,-0.2494497001171112,0.5454992055892944,0.394504964351654,walking
3.494775634765625,0.9173968036647886,0.1061754786521196,1.6909779877215625,-0.2575808465480804,0.4498200714588165,0.4404162764549255,walking
3.504850830078125,1.009733653513342,-0.039327217260003,1.77479550409317,-0.2668138444423675,0.3216719031333923,0.4838002324104309,walking
3.5149248046875,1.1173569928862157,-0.2204407402575016,1.6426397810101507,-0.2832546234130859,0.2066606283187866,0.5237969160079956,walking
3.524999755859375,1.1435179276462644,-0.3550257363140582,1.384079445716739,-0.3052021563053131,0.1282710134983062,0.5652684569358826,walking
3.53507373046875,1.0614626717068254,-0.4213923516690731,1.025601523122191,-0.3249707818031311,0.1166929081082344,0.5872645378112793,walking
3.54514892578125,0.9512676552150398,-0.4624591060727834,0.6522241375595331,-0.3601699769496918,0.1419523805379867,0.5977956056594849,walking
3.55522265625,0.8914448354803025,-0.4736597145229578,0.3914344357788562,-0.4058322608470917,0.1879488974809646,0.616601824760437,walking
3.565296875,0.90619955621548,-0.4806254618823528,0.16078209810853,-0.4535072147846222,0.2402460873126983,0.6450477242469788,walking
3.575371826171875,0.9612349955432116,-0.5390507628440857,-0.0584136105239391,-0.5007056593894958,0.2818558514118194,0.6854425072669983,walking
3.58544677734375,1.0012996602322906,-0.5590589471280575,-0.26736732660532,-0.5232229828834534,0.3062350749969482,0.7267026305198669,walking
3.595520751953125,1.056397058880329,-0.5288613772630691,-0.5233429061025381,-0.505177915096283,0.3289033770561218,0.7828969359397888,walking
3.605595947265625,1.0418200327996163,-0.481874585160613,-0.790814862126112,-0.4540353417396545,0.3439125120639801,0.8417785167694092,walking
3.615669677734375,0.9932198872163892,-0.4129109390497207,-1.0231061991751194,-0.3796745836734772,0.3379281163215637,0.893648624420166,walking
3.625743896484375,0.8970359334856272,-0.3523474570155143,-1.2148270409047603,-0.2917816638946533,0.3410907089710235,0.9450234174728394,walking
3.635818603515625,0.790072884652391,-0.30643910779953,-1.3107646186590194,-0.198144644498825,0.3487875163555145,0.9861239790916444,walking
3.645893798828125,0.6566485298730432,-0.3146931414037943,-1.386231070792675,-0.1043716818094253,0.3796229958534241,1.0150004625320437,walking
3.655968017578125,0.5172484616849571,-0.3396341059148311,-1.520358386209607,-0.0098579609766602,0.5010362267494202,1.0326162576675415,walking
3.666041748046875,0.4320447516519576,-0.4328811294108629,-1.5444558856338262,0.0836129188537597,0.7368523478507996,1.0243229866027832,walking
3.676116943359375,0.62660454313457,-0.6885317147374153,-1.3384019826471805,0.1483445167541504,0.9123435020446776,1.0109835863113403,walking
3.686190673828125,0.9607325259137898,-0.9507301142722367,-0.9759604171186684,0.1667910069227218,0.8561309576034546,0.9994359016418456,walking
3.696265869140625,1.142629235178232,-1.0194833325028418,-0.5930372045755385,0.1303168833255767,0.6326086521148682,0.977304995059967,walking
3.70633984375,0.9728974493514746,-0.9054857819229364,-0.4458253666579723,0.0433498583734035,0.365631103515625,0.947324514389038,walking
3.716414794921875,0.5967183773063123,-0.660732438185811,-0.6064502283781766,-0.054399337619543,0.2298189401626587,0.9111209511756896,walking
3.72648876953125,0.2816872361198067,-0.5091343480080366,-1.0082342087358236,-0.1465158611536026,0.2599129974842071,0.8697452545166016,walking
3.73656396484375,0.2053194512322544,-0.413417719528079,-1.3652911586165428,-0.2136333733797073,0.3831920623779297,0.8272750377655029,walking
3.7466376953125,0.1703597084667533,-0.2266641448169946,-1.614597343352437,-0.2413349598646164,0.5398311018943787,0.7987446188926697,walking
3.756712890625,0.1389999629545956,0.0922942528158426,-1.6920318806886672,-0.2279504537582397,0.7222709655761719,0.7822383642196655,walking
3.766786865234375,0.1957773505788296,0.3496715158045291,-1.6636451596379278,-0.1788460612297058,0.9133902788162231,0.7812459468841553,walking
3.77686181640625,0.3787788062147796,0.4414981511086225,-1.4626315889060495,-0.087844505906105,1.0790362358093262,0.7824853658676147,walking
3.786935791015625,0.6305095877490937,0.4003881420850753,-1.09307989911139,0.0161145720630884,1.197856903076172,0.7686712741851807,walking
3.797010986328125,0.7952236915443092,0.3520622103333473,-0.5462444737404585,0.1164454370737075,1.2208133935928345,0.7437342405319214,walking
3.807084716796875,0.8950592996504158,0.4092863188117742,0.0360965647757053,0.1975855082273483,1.1279534101486206,0.7088224291801453,walking
3.817159912109375,1.0032171842914075,0.5192085827767848,0.5743956324696541,0.2435522079467773,0.9101260304450988,0.6997538208961487,walking
3.827233642578125,1.1938250963430852,0.5925292550534009,0.935250221067667,0.2483656257390976,0.6746141910552979,0.709195077419281,walking
3.837308837890625,1.3877663175359367,0.6568769318014382,1.1295061342328787,0.2152777016162872,0.4776217937469482,0.7366517782211304,walking
3.8473828125,1.4767603597626089,0.7799445085436105,1.16340957287848,0.1581456661224365,0.318865418434143,0.7794302105903625,walking
3.857457763671875,1.4451913554139435,0.9825245979398488,1.0822855333745478,0.0775277689099311,0.2134399265050888,0.8342969417572021,walking
3.86753173828125,1.3197894905053078,1.1720710182398557,0.9150088125497102,-0.0136369671672582,0.175552025437355,0.8880404829978943,walking
3.87760693359375,1.0996223064921795,1.3448942672759294,0.6931780792385339,-0.1149729117751121,0.2043807357549667,0.929906964302063,walking
3.8876806640625,0.865708263612166,1.4682383228719234,0.4444558318704366,-0.1915813386440277,0.2830918133258819,0.965574324131012,walking
3.897755859375,0.6255768805872649,1.5644535485237836,0.1880991441011428,-0.2345762103796005,0.3940132856369018,0.998972713947296,walking
3.90782958984375,0.3836152133952826,1.569018664482236,-0.0156850603878498,-0.2267655134201049,0.462759256362915,1.0188593864440918,walking
3.91790478515625,0.205950734873116,1.5228548792004584,-0.1053495492219924,-0.176566794514656,0.4497281312942505,1.0118485689163208,walking
3.927978759765625,0.1511015388324856,1.4043126709282396,-0.1371551388055086,-0.0976839587092399,0.3709473013877868,0.9801785945892334,walking
3.9380537109375,0.1447472013697028,1.3175176000505684,-0.175681561076641,-0.0020117643289268,0.3002033531665802,0.944123148918152,walking
3.948127685546875,0.1580547920364886,1.2797832049399611,-0.2132236484855413,0.0943667069077491,0.2775011658668518,0.9150879979133606,walking
3.958202880859375,0.1248307870224118,1.3227502400070428,-0.1498889481723308,0.1653378307819366,0.2863982617855072,0.894895076751709,walking
3.968276611328125,0.0532051551606506,1.328087509381771,-0.0017611644536256,0.2008290290832519,0.3114421665668487,0.8616254925727844,walking
3.978351806640625,0.0210826085824519,1.2493459811002017,0.2156196037113666,0.193556472659111,0.3589255511760711,0.820054292678833,walking
3.988425048828125,0.0460452004034072,1.1387883418411016,0.4818284079313278,0.1536097675561905,0.4115489423274994,0.7730540633201599,walking
3.998500244140625,0.0384352368563413,1.0607307041704654,0.7718862897723913,0.0918782278895378,0.4491804838180542,0.7155202031135559,walking
4.00857421875,0.0676961103931069,0.966466612586379,1.015436102938652,0.0221738796681165,0.4691294133663177,0.6542232632637024,walking
4.018649169921875,0.153427497562021,0.8929057018131017,1.224111586600542,-0.0359871610999107,0.4686852097511291,0.5945649743080139,walking
4.02872314453125,0.2920185874547809,0.8345067043364047,1.364108670833707,-0.093653492629528,0.4279026985168457,0.5435853600502014,walking
4.03879833984375,0.4294930213425308,0.7471089913904666,1.3799375236064195,-0.1320839822292328,0.3822763860225677,0.5018829107284546,walking
4.0488720703125,0.5898304444234818,0.6294990955322981,1.3307628660708666,-0.1612327396869659,0.3463250398635864,0.4686447083950043,walking
4.058947265625,0.7280369919780642,0.5493231505334377,1.2892811011254788,-0.1816354840993881,0.2910167574882507,0.4377403259277344,walking
4.069021240234375,0.8782426779493689,0.4416588946282863,1.2636135759055611,-0.2092954069375991,0.2113235294818878,0.4120563566684723,walking
4.07909619140625,1.0074369208782912,0.2983177606642246,1.1215613127082589,-0.2316073775291443,0.1534399986267089,0.3983288407325744,walking
4.089170166015625,1.0850029025744643,0.1132306578606367,0.9107184218794108,-0.2537922859191894,0.1175028085708618,0.3846911489963531,walking
4.099245361328125,1.0404060012832284,-0.047415831169486,0.6934674175739288,-0.2741758525371551,0.0883353352546691,0.3665012121200561,walking
4.1093193359375,0.9426607895851136,-0.201888600000739,0.4322907623022795,-0.2921895384788513,0.0837335661053657,0.3322051167488098,walking
4.119394287109375,0.7878365769676864,-0.315752879589796,0.1680588111132383,-0.2996695637702942,0.0971391201019287,0.2928827404975891,walking
4.12946826171875,0.6587605535909533,-0.3854740660697222,-0.0974842226743698,-0.2963272333145141,0.1494463831186294,0.2426353842020034,walking
4.139543212890625,0.5556371559858322,-0.426634928497672,-0.2778343600839376,-0.2754078507423401,0.2251752316951751,0.1907082647085189,walking
4.149617431640625,0.4945008424997329,-0.429303855445981,-0.3864630771070718,-0.238315612077713,0.2785361409187317,0.1442837715148925,walking
4.159692138671875,0.5948778640061616,-0.4703957442909479,-0.447088518461585,-0.1958096921443939,0.2900329828262329,0.1058066859841346,walking
4.169766357421875,0.7763830166697502,-0.5797013376623392,-0.4716331771314144,-0.1369353681802749,0.2901284694671631,0.0940040946006774,walking
4.17984130859375,0.9900364348746836,-0.6944605202645063,-0.4782078793466091,-0.0733963474631309,0.2573364377021789,0.0988363996148109,walking
4.189915283203125,1.1145987802192567,-0.7469213598638772,-0.4493441884338855,-0.0179679654538631,0.1687947809696197,0.1063350588083267,walking
4.199990234375,1.1017099994864314,-0.7907265993207693,-0.4370440943092107,0.0242617782205343,0.0617676600813865,0.1160894185304641,walking
4.210064208984375,0.9950761826075613,-0.8024684750407933,-0.4597112686693668,0.0488163903355598,-0.0303907636553049,0.1250584125518798,walking
4.22013916015625,0.7993133720107376,-0.7549392466247081,-0.5341659134119748,0.0581510365009307,-0.1211648732423782,0.1289205253124237,walking
4.23021337890625,0.5927784805741161,-0.7506091084659099,-0.6850345202714204,0.0575171932578086,-0.1052819788455963,0.1277562081813812,walking
4.2402880859375,0.5462539722211659,-0.9308218832314014,-0.8310247074395418,0.0568862929940223,-0.0134716304019093,0.1130677983164787,walking
4.2503623046875,0.575592660234496,-1.1825438969373705,-0.8214075687885284,0.0290811099112033,0.036340270191431,0.0809002742171287,walking
4.260437255859375,0.5123799788657576,-1.3475596870929003,-0.7033855849981308,-0.0354307703673839,-0.0585441663861274,0.043852511793375,walking
4.27051123046875,0.227363671388477,-1.3819681526511909,-0.6599743132948875,-0.1599592864513397,-0.2819812595844269,-0.0011887392029166,walking
4.280586181640625,-0.2155669236760586,-1.320439040455222,-0.8778285441905259,-0.3175829946994781,-0.4995095729827881,-0.0639623776078224,walking
4.290660400390625,-0.5984979907320812,-1.1850029805272817,-1.3553513638824224,-0.4532645642757416,-0.5019649267196655,-0.1414674669504165,walking
4.300735107421875,-0.8944339342936873,-0.9312585210829972,-1.8920102631539104,-0.5314533710479736,-0.2895375788211822,-0.2189899533987045,walking
4.310809326171875,-1.2268620543524622,-0.4416255768805742,-2.2825129710406062,-0.5446261167526245,0.0173809919506311,-0.2899320423603058,walking
4.32088427734375,-1.4336211829990149,0.0642681817710399,-2.434234395337105,-0.4786364734172821,0.392828106880188,-0.3366044461727142,walking
4.330958251953125,-1.383218737234175,0.4526046515345573,-2.249493914014101,-0.3350956439971924,0.7108655571937561,-0.3558118641376495,walking
4.3410322265625,-1.0319910049635916,0.5618973854243755,-1.7522540019392967,-0.1509875804185867,0.8084376454353333,-0.3481603562831878,walking
4.351107177734375,-0.5401936492688953,0.5349778143167495,-1.0811965690940617,0.0382941216230392,0.6603021025657654,-0.309290736913681,walking
4.36118115234375,-0.1891471187841147,0.5370277325838804,-0.5097475114703178,0.2112358063459396,0.3733366131782532,-0.2540168166160583,walking
4.37125634765625,0.096032854822278,0.6204834299057722,-0.1534714828342199,0.3649227917194366,0.1194073185324668,-0.1818530559539795,walking
4.381330078125,0.2192695775862783,0.72442428137362,0.0202355632990598,0.4732093214988708,-0.0108689293265342,-0.0956856906414032,walking
4.3914052734375,0.1160226997319608,0.9000281010389327,0.1446802736133337,0.5200281143188477,-0.0353020243346691,-0.0179309602826833,walking
4.40147900390625,-0.1121667549561709,0.9506640632987022,0.2701023045271635,0.5087016820907593,-0.0142255034297704,0.0459670647978782,walking
4.41155419921875,-0.3260126269932836,0.8545914609879255,0.4201251082122326,0.4484533369541168,0.0284503418952226,0.077148325741291,walking
4.421628173828125,-0.5084895472984761,0.6464736112087964,0.601880436244607,0.3563457727432251,0.027007708325982,0.0781488791108131,walking
4.431703125,-0.7047337847366929,0.4942319624304771,0.718361035811901,0.2553823292255401,-0.0313550941646099,0.0518393218517303,walking
4.441777099609375,-0.913304346719384,0.4009551283180713,0.6804442698717117,0.1616777032613754,-0.091757446527481,0.0074308458715677,walking
4.451852294921875,-1.0323026281960308,0.375522580897808,0.5427238983988761,0.0773711800575256,-0.1179723665118217,-0.0458842143416404,walking
4.461926025390625,-1.099552163865417,0.3764046244293451,0.3637871349185705,0.0351321138441562,-0.0902081131935119,-0.097577765583992,walking
4.472001220703125,-1.1042257816996426,0.4485053995221853,0.2445487610757351,0.0102353785187006,0.000828655436635,-0.1494875699281692,walking
4.482075439453125,-1.0115640838108957,0.5871124907016754,0.2513882517069578,0.003753776429221,0.1134947538375854,-0.2034586668014526,walking
4.492150146484375,-0.8386072715230286,0.6648901423871517,0.3934177185505628,-0.0028051200788468,0.2099727988243103,-0.2359744310379028,walking
4.502224365234375,-0.5554837189897894,0.7123369532167911,0.6196300279468298,-0.0083588762208819,0.23980313539505,-0.2320103198289871,walking
4.51229931640625,-0.2492596421804279,0.736017104011774,0.8908043456196785,-0.0179718043655157,0.2056215852499008,-0.2007357627153396,walking
4.522373291015625,0.001036941832304,0.7474971139252186,1.0791489889144896,-0.0230581760406494,0.1698137819766998,-0.1561235636472702,walking
4.5324482421875,0.1464192993003875,0.7527695013701915,1.1268763702511786,-0.007871096022427,0.1637899428606033,-0.1104003563523292,walking
4.542522216796875,0.2249350560020655,0.7498428002685308,1.1550357122868298,0.0085736569017171,0.1635451912879943,-0.0725922584533691,walking
4.55259716796875,0.2657147370927035,0.7318781045109033,1.2224170576423403,0.02361193113029,0.1395138800144195,-0.037733256816864,walking
4.56267138671875,0.3087404435444623,0.6719435680299997,1.2891390623062848,0.0305870156735181,0.112830601632595,0.0017680819146335,walking
4.57274609375,0.3549849659122526,0.6016454584449529,1.3316992701381445,0.0374340489506721,0.0887411460280418,0.0479534976184368,walking
4.5828203125,0.3955844681303948,0.5517611913353204,1.3916004888713358,0.0317735001444816,0.0469345785677433,0.0955820009112358,walking
4.592895263671875,0.4018370987843722,0.4606108478575945,1.4272148230880497,0.0161521788686513,-0.0144623266533017,0.1420264840126037,walking
4.60296923828125,0.3538322156805545,0.3065542586117982,1.3897224200397729,-0.0027645207010209,-0.0597991794347763,0.1717827767133712,walking
4.613044189453125,0.2485918989866971,0.1660123999774456,1.2313041284531354,-0.0134375439956784,-0.0558683164417743,0.1874539703130722,walking
4.6231181640625,0.0800183432843536,0.0558124881148338,1.040070777979493,-0.0168277472257614,-0.0455751977860927,0.1846832185983657,walking
4.633193115234375,-0.0618884470276534,-0.048570261901617,0.8939835601776838,-0.015793053433299,-0.0489738322794437,0.1609200090169906,walking
4.643267333984375,-0.1075079693648964,-0.1421820270568132,0.749310885348916,-0.0100278435274958,-0.0467591471970081,0.1354191750288009,walking
4.653342041015625,-0.1209838292706757,-0.1922135936826467,0.5816857894778251,-0.0058421529829502,-0.038055669516325,0.1219670102000236,walking
4.663416259765625,-0.0752393653795123,-0.2356979306221008,0.4196083908617496,0.0060081426054239,-0.0167929492890834,0.1227583289146423,walking
4.6734912109375,-0.0218784351352602,-0.2977244709461927,0.2923047839850187,0.0181214474141597,0.0171225368976593,0.1277014166116714,walking
4.683565185546875,-0.0058669923372566,-0.3599626081943511,0.2203290965765714,0.0349992290139198,0.0442135445773601,0.1232033371925354,walking
4.69364013671875,0.0185344584695994,-0.4635848952323198,0.2175695687353611,0.0390655770897865,0.0530392862856388,0.1110424622893333,walking
4.70371435546875,0.0783874541468918,-0.5788800844073295,0.1697556781589984,0.0351699031889438,0.0548734068870544,0.0988595709204673,walking
4.7137890625,0.1002395857971161,-0.6648287675887345,0.0155348382622003,0.0415316633880138,0.0783968418836593,0.1021070256829261,walking
4.72386328125,0.1599365871950984,-0.7438005974948406,-0.0593880085140466,0.0398211143910884,0.0949707552790641,0.096005193889141,walking
4.733938232421875,0.1935162737790495,-0.8226724741578102,-0.0821393540263175,0.0202130861580371,0.0962824076414108,0.0795727744698524,walking
4.74401220703125,0.1821438889585435,-0.8991682693392038,-0.0972825626224279,-0.0164035148918628,0.0969380810856819,0.0595061257481575,walking
4.75408740234375,0.1889887864172458,-0.9579805237919092,-0.1865682812720537,-0.0677246153354644,0.1299707442522049,0.042549155652523,walking
4.7641611328125,0.214023420561105,-1.005749406182766,-0.3340601051747798,-0.1101053580641746,0.1892623007297516,0.0313329882919788,walking
4.774236328125,0.2289279980957508,-0.9756190563350916,-0.4927390935242176,-0.1369840502738952,0.2737878561019897,0.0214293990284204,walking
4.784310302734375,0.2666057676482946,-0.9276672185927628,-0.5551672003865241,-0.1396144479513168,0.355392187833786,0.0134172793477773,walking
4.79438525390625,0.3744284289855509,-0.8446241937249899,-0.6068494568288326,-0.1233943849802017,0.4094190597534179,0.0215921215713024,walking
4.804459228515625,0.4569459686744958,-0.7733727289378642,-0.638143589758873,-0.0887983217835426,0.4234880208969116,0.041502445936203,walking
4.814534423828125,0.5701899974733591,-0.7098872219771146,-0.5798930608421564,-0.0497225001454353,0.4146071672439575,0.0684186518192291,walking
4.824608154296875,0.6134009242989122,-0.6511842731177806,-0.5177519542276859,-0.0179581772536039,0.3995288908481598,0.0962849035859108,walking
4.834683349609375,0.5827945544373244,-0.6090794078379869,-0.4183563449740409,-0.014029205776751,0.4536914229393005,0.1181563809514045,walking
4.844757080078125,0.739839438778907,-0.7008955217480659,-0.31401100435853,-0.0246466975659132,0.4523675441741943,0.1508011370897293,walking
4.854832275390625,0.986517174707353,-0.8622919523626565,-0.1740489914387464,-0.0793720409274101,0.3117071688175201,0.1990940272808075,walking
4.86490625,0.9883632409654556,-0.9142167853891848,-0.139487381145358,-0.1751691401004791,0.1826189905405044,0.2432276755571365,walking
4.874981201171875,0.7230981473363935,-0.7919535107672214,-0.3302320713192224,-0.2881815731525421,0.0985850244760513,0.2814572751522064,walking
4.88505517578125,0.4227829292446374,-0.6014221710830927,-0.721509270709753,-0.3775548636913299,0.1242837235331535,0.3050869703292846,walking
4.89513037109375,0.3310390037879347,-0.5428507396489382,-1.1692664822131396,-0.4167329668998718,0.2033457309007644,0.3340780436992645,walking
4.9052041015625,0.4361261026814579,-0.5275725064963102,-1.53247494046092,-0.402666687965393,0.201737180352211,0.3787821233272552,walking
4.915279296875,0.4070589981511235,-0.375278250747919,-1.7637644069910048,-0.3405044674873352,0.1451919823884964,0.4328929483890533,walking
4.925353271484375,0.13586086121127,-0.0589414337903261,-1.9483412221848964,-0.2206917703151703,0.1334138810634613,0.4769565463066101,walking
4.93542822265625,-0.218167388498038,0.3115624421626329,-2.1041548842310904,-0.0494089685380458,0.250764936208725,0.5010480284690857,walking
4.945502197265625,-0.4370369339160621,0.527213025534153,-2.1002754124492404,0.1515427827835083,0.4737285077571869,0.5110183954238892,walking
4.955577392578125,-0.4612758876375853,0.5903367134451866,-1.7591402543216943,0.3504554331302643,0.6739288568496704,0.5031817555427551,walking
4.965651123046875,-0.3234584855310619,0.551896215891838,-1.0476251388818023,0.5092805027961731,0.7224950790405273,0.4902845919132232,walking
4.975726318359375,-0.0744230805605649,0.4735346268385648,-0.1612380251824855,0.5992965698242188,0.5901633501052856,0.4808005392551422,walking
4.98580029296875,0.228914554092288,0.4135106585085392,0.6396329515337944,0.6225025057792664,0.3566712737083435,0.4886741638183594,walking
4.99587548828125,0.4750706042341888,0.4066542167425155,1.227263328629732,0.5775989294052124,0.1092610731720924,0.5152117609977722,walking
5.005949462890625,0.6307188465856015,0.4520253903418779,1.5670406424075365,0.473402738571167,-0.0939080193638801,0.5495502948760986,walking
5.0160244140625,0.6365887615323066,0.496665911579132,1.6870137602657078,0.3183910846710205,-0.2279890775680542,0.5820004940032959,walking
5.026098388671875,0.4955886377364397,0.5268272410869598,1.5775649590313434,0.1388806998729705,-0.2992832362651825,0.5988364219665527,walking
5.036173583984375,0.2180189930032938,0.6022662206918001,1.2956804467737677,-0.0206355452537536,-0.3296848833560943,0.6053130030632019,walking
5.046247314453125,-0.0530577825792133,0.7099018350243568,0.9162357239961624,-0.1412628889083862,-0.34013432264328,0.5942702293395996,walking
5.056321533203125,-0.3091379184294492,0.720983201009035,0.4575438615024089,-0.2002941966056823,-0.3122352957725525,0.5642709136009216,walking
5.066396240234375,-0.5198183121729641,0.7129699904233217,0.0259510183364152,-0.2063142657279968,-0.2472317814826965,0.5099107623100281,walking
5.076470703125,-0.7083036791127175,0.6973153251737356,-0.3292512435883283,-0.1725592315196991,-0.1677857041358947,0.4361411929130554,walking
5.08654541015625,-0.772942520827055,0.686627926942706,-0.5095534502029418,-0.1149585172533989,-0.094617486000061,0.3571909666061401,walking
5.096620361328125,-0.7034583579733967,0.6644459057509898,-0.553432923939824,-0.0279566030949354,-0.0185725837945938,0.2880020439624786,walking
5.106694580078125,-0.5481197660930455,0.7331704824090004,-0.4711655596196651,0.0547441393136978,0.0379319712519645,0.232695922255516,walking
5.116768798828125,-0.4194075345274061,0.8874678946733474,-0.2541401807636022,0.1226126849651336,0.0634393095970153,0.2040585130453109,walking
5.126843505859375,-0.2660281138908117,1.0287994423806666,0.0304103358328342,0.1678022742271423,0.0956481099128723,0.1938157379627227,walking
5.136917724609375,-0.0793416130665689,1.121407583451271,0.3317044819593429,0.199134960770607,0.1417551040649414,0.2007806003093719,walking
5.14699267578125,0.0752378310095518,1.1749474504590034,0.6660843206077813,0.2225470691919326,0.1737833470106125,0.2125528454780578,walking
5.157066650390625,0.208825559657067,1.1781471232831475,1.00057580293715,0.2270090579986572,0.185931995511055,0.2198103070259094,walking
5.1671416015625,0.2853027232032269,1.0862883392751217,1.3071072651952504,0.2145145684480667,0.1741962432861328,0.2199554443359375,walking
5.177215576171875,0.3297483063902706,0.9849661458730696,1.5671861883580684,0.1802349984645843,0.112636387348175,0.2234522849321365,walking
5.18729052734375,0.3713411304946988,0.8828706300109624,1.7834727315455674,0.1277536749839782,0.0224684178829193,0.2222008556127548,walking
5.19736474609375,0.4433087807271629,0.7667530185371637,1.864877341556549,0.0551879927515983,-0.0754505842924118,0.2141566127538681,walking
5.207439453125,0.4700773259915411,0.6709399439454078,1.7503350165754556,-0.0073369019664824,-0.1206947565078735,0.2093847543001175,walking
5.217513671875,0.373476754283905,0.6338467693477868,1.5137562114655971,-0.0711429268121719,-0.1154141277074813,0.1954013705253601,walking
5.227588623046875,0.255335089636594,0.6068126319497823,1.2603618806332348,-0.1279049962759018,-0.0916448831558227,0.1613986641168594,walking
5.23766259765625,0.2311511540379375,0.5209755924493074,1.024926984861493,-0.1724477112293243,-0.0671328157186508,0.1304042637348175,walking
5.247737548828125,0.3445756539702415,0.3981418244630098,0.7475415375888347,-0.1955980360507965,-0.0258303824812173,0.1060757562518119,walking
5.257811767578125,0.5003669580541551,0.264640531989932,0.4768365909934043,-0.1946601271629333,0.0157507918775081,0.0891967341303825,walking
5.267886474609375,0.5832284158099442,0.1585474709242582,0.2379705517292022,-0.1733646988868713,0.0299960430711507,0.0723003074526786,walking
5.277960693359375,0.6156709881227463,0.0998252328425645,0.1207400105774402,-0.1502885818481445,0.0148349972441792,0.052939124405384,walking
5.288035400390625,0.6740406864397227,-0.0201174898773431,0.0413818117022514,-0.1276141703128814,-0.0235872250050306,0.0374898612499237,walking
5.298109619140625,0.7401259275700897,-0.114628834220767,-0.0527507624566555,-0.1112702265381813,-0.0659596100449562,0.0246708244085311,walking
5.3081845703125,0.7698585102718323,-0.1951344495654106,-0.2081014831662178,-0.0954848676919937,-0.0959710329771041,0.0167135652154684,walking
5.318258544921875,0.7623796988237649,-0.240634217980504,-0.4026555024951696,-0.074608527123928,-0.0942078903317451,0.0135441403836011,walking
5.32833349609375,0.7710860062401741,-0.2573942141234874,-0.5661977129667997,-0.0464746318757534,-0.082819677889347,0.0157092902809381,walking
5.33840771484375,0.7961633104819804,-0.2855751834690571,-0.6460825660645961,-0.0336996875703334,-0.1046093553304672,0.0273908041417598,walking
5.348482421875,0.7555384546268731,-0.3623170623660087,-0.6944359703451395,-0.0294897630810737,-0.1836394518613815,0.0415662750601768,walking
5.358556640625,0.6190360806416719,-0.4663420849859714,-0.829438899552822,-0.0199252795428037,-0.2613071501255035,0.0470246896147728,walking
5.368631591796875,0.4011008203990757,-0.5230687653362751,-1.0954776079028845,0.0014199570287019,-0.2787625789642334,0.0351565778255462,walking
5.37870556640625,0.12087094348073,-0.4931722242444753,-1.3513409591972827,0.0274662412703037,-0.246129035949707,0.0006538117304444,walking
5.388780517578125,-0.2018438110109418,-0.4356313049018382,-1.496339212718606,0.0602833069860935,-0.1838779151439666,-0.046920895576477,walking
5.3988544921875,-0.4770501972114667,-0.3612853812307119,-1.5473796641260384,0.0890734568238258,-0.0447096638381481,-0.0865962207317352,walking
5.408929443359375,-0.5969885360172018,-0.412917953312397,-1.5056103144109247,0.1181296110153198,0.2068820893764495,-0.1421606689691543,walking
5.419003662109375,-0.5289024399258196,-0.6181552792191505,-1.219995383453369,0.1328246593475341,0.3121760189533233,-0.2027415782213211,walking
5.429078369140625,-0.3094919925641268,-0.8246978425055742,-0.7124532730728388,0.0980499014258384,0.156707614660263,-0.2429859340190887,walking
5.439152587890625,-0.0976600906979292,-1.0292495242357254,-0.35330665743649,0.0255899801850318,-0.142846867442131,-0.2670771479606628,walking
5.4492275390625,-0.1125496898591518,-1.0960019240379333,-0.3481155185341835,-0.0596173256635665,-0.4021681845188141,-0.2987756729125976,walking
5.459301513671875,-0.4254703416977077,-0.9586246669143438,-0.7063251455813646,-0.1355365067720413,-0.4442158937454223,-0.3602491617202759,walking
5.46937646484375,-0.7647972813595086,-0.7398071439445019,-1.1678887641191482,-0.1917718201875686,-0.3327479660511017,-0.4387133419513702,walking
5.479450439453125,-0.9617083852086216,-0.5204325716137885,-1.564829396098852,-0.216213658452034,-0.2180332541465759,-0.505060076713562,walking
5.489525390625,-1.0636433767467737,-0.2122153482258319,-1.8363789768248795,-0.191737875342369,-0.0930316522717475,-0.5550438761711121,walking
5.499599609375,-1.0245212536048145,0.1563262877434492,-1.9448826061636209,-0.119880698621273,0.0706199035048484,-0.5856480002403259,walking
5.50967431640625,-0.823161426718533,0.4844342065155506,-1.8564070348531008,-0.0091917384415864,0.2272451967000961,-0.582798957824707,walking
5.51974853515625,-0.4797081278417259,0.6140174487620592,-1.5940806250244377,0.1006040722131729,0.2915863394737243,-0.5444124937057495,walking
5.529823486328125,-0.0916588044565171,0.6009937165379524,-1.1837059264540672,0.1955505609512329,0.209521010518074,-0.4870711863040924,walking
5.5398974609375,0.1464524709176272,0.5793628994882106,-0.7791390373796224,0.2582055628299713,0.0023539380636066,-0.4211561977863312,walking
5.549972412109375,0.2321168572649359,0.6072556995421647,-0.4663339016795158,0.2859277427196502,-0.273868054151535,-0.3667914867401123,walking
5.560046630859375,0.2193962727058678,0.6794137577801942,-0.4556307213574647,0.2850646674633026,-0.4919339418411255,-0.3076040744781494,walking
5.570121337890625,0.1218426380570977,0.7941261786311864,-0.6982599125474691,0.2662792801856994,-0.5631809830665588,-0.2392961084842682,walking
5.580195556640625,-0.1172716038145124,0.9702999071389437,-1.0473603504657745,0.2470044195652008,-0.5185461640357971,-0.1797597259283065,walking
5.5902705078125,-0.4120649166796356,1.0979875448971983,-1.32255033352077,0.2326140403747558,-0.3364951312541961,-0.1462153494358062,walking
5.600344482421875,-0.7037403167199343,1.1499176386207342,-1.4460481183737517,0.2294126152992248,-0.0452108494937419,-0.1321206539869308,walking
5.61041943359375,-0.9533407351620494,1.2031442018955945,-1.298710023728013,0.2509216368198395,0.2253434062004089,-0.1405668705701828,walking
5.620493408203125,-1.042002549759671,1.2320108154177665,-0.8584545661568641,0.2862164676189422,0.3713279962539673,-0.162900224328041,walking
5.630568359375,-0.8965579407103359,1.1473802290976047,-0.2665010651648044,0.3213363885879516,0.3989444375038147,-0.1818880438804626,walking
5.640642578125,-0.6810122790180146,1.0261404523044824,0.338604762867093,0.3483984768390655,0.3146297931671142,-0.1942228078842163,walking
5.65071728515625,-0.5163721172418445,0.9273439779877662,0.8857090683072805,0.3540020585060119,0.1450591385364532,-0.2143400609493255,walking
5.66079150390625,-0.3608662790358066,0.9156400961905716,1.2273580211758612,0.3254693746566772,-0.0343321040272712,-0.2347500920295715,walking
5.670866455078125,-0.2583732882887125,0.9668500589460134,1.4140169033408163,0.2653439939022064,-0.1377788782119751,-0.2400452643632888,walking
5.6809404296875,-0.2092280760433524,1.0184604191958904,1.4594886147052049,0.1694497019052505,-0.1797837316989898,-0.2298385947942733,walking
5.691015380859375,-0.2232746485091745,1.0332453158736228,1.3459545899838208,0.0522543676197528,-0.1626960784196853,-0.2176240086555481,walking
5.70108935546875,-0.2404259820573031,1.0313082103312017,1.196918459248543,-0.0689255520701408,-0.0894093886017799,-0.212851271033287,walking
5.711164306640625,-0.2464426119983196,1.0178975246161222,1.005361283648014,-0.1672396063804626,-0.0156810991466045,-0.2057006806135177,walking
5.72123876953125,-0.2052115338783711,1.0053916787862778,0.8199187915354966,-0.2291024178266525,0.0085984515026211,-0.1840749233961105,walking
5.731313232421875,-0.1063791845306754,0.9955576825141906,0.602163929361105,-0.248565062880516,-0.01871332898736,-0.1573932468891143,walking
5.7413876953125,0.0092810385644435,0.9744611184716224,0.3115571814656257,-0.2205194234848022,-0.0745167806744575,-0.119183100759983,walking
5.751462646484375,0.0999182448882609,0.9640946227580308,-0.0322007263809442,-0.157438725233078,-0.0954476296901702,-0.0683297738432884,walking
5.76153662109375,0.1511412863209843,1.038023197799921,-0.3914659999608993,-0.0582779943943023,-0.0488811768591403,-0.0131116192787885,walking
5.771611572265625,0.1074539741553366,1.0739829844534396,-0.713702396351099,0.0653043985366821,0.0719421803951263,0.0399273633956909,walking
5.781685791015625,0.0482539624940603,1.0621294650524855,-0.8395166414529085,0.1971706449985504,0.18531034886837,0.0817166194319725,walking
5.791760498046875,-0.0775637897390872,0.9856190568238496,-0.7354664843916893,0.3037772476673126,0.2278290539979934,0.0908488631248474,walking
5.801834716796875,-0.160010967605561,0.850694453549385,-0.5320318239927292,0.3785994052886963,0.1962218135595321,0.0830702185630798,walking
5.81190966796875,-0.1957161949761211,0.740467069157958,-0.3803519007503986,0.4186238050460815,0.1589793711900711,0.0723331570625305,walking
5.821983642578125,-0.1884166856177151,0.7369429866850375,-0.3863578631669283,0.4365882575511932,0.164957970380783,0.066641978919506,walking
5.83205859375,-0.1599803532715886,0.7963859402567147,-0.5565583624839783,0.4481067061424255,0.1968192309141159,0.0770019441843032,walking
5.842132568359375,-0.0377612100522965,0.8975041355192661,-0.7550397843897342,0.4667489528656006,0.2717745304107666,0.1035627946257591,walking
5.85220751953125,0.0897946910850703,0.9244143542766572,-0.9310977775633336,0.4877751469612121,0.3631691634654999,0.1331505179405212,walking
5.86228173828125,0.2147590413592755,0.9264327083617448,-1.001700423052907,0.5057172775268555,0.4471027851104736,0.1651011705398559,walking
5.8723564453125,0.3503033109020441,0.9283546163350344,-1.0232307023376226,0.5333710312843323,0.5384587645530701,0.2016772925853729,walking
5.8824306640625,0.5446444181326776,0.8660913446456193,-0.9425614208638669,0.5716469287872314,0.6464182138442993,0.2492431998252868,walking
5.892505615234375,0.815645351999998,0.7230471478015184,-0.722495943659544,0.6077929735183716,0.6865422129631042,0.2964029908180237,walking
5.90257958984375,1.0540809639576822,0.6300666662871838,-0.4196025456428527,0.6117991209030151,0.561411440372467,0.3428248167037964,walking
5.912654541015625,1.052496398179978,0.6633423284232616,-0.1522410642564296,0.570940375328064,0.2526610493659973,0.3561866879463196,walking
5.9227275390625,0.8659059781413525,0.8047609698921442,-0.0839987181574106,0.4924002587795257,-0.0837833285331726,0.349037617444992,walking
5.932802734375,0.3878381648525595,1.102576626253128,-0.4255108929038047,0.4128953218460083,-0.2818562090396881,0.3232387900352478,walking
5.942876708984375,-0.2412348142221569,1.5923217986583709,-1.057643259549141,0.3596984446048736,-0.2895915508270263,0.2786202728748321,walking
5.95295166015625,-0.6560303979746996,2.0054419965445995,-1.6858897246718405,0.3425644636154175,-0.0899367779493331,0.2326445281505584,walking
5.963025634765625,-0.824124207336083,2.343061255505681,-2.074096430575848,0.3367714881896972,0.1909670978784561,0.1849157065153122,walking
5.973100830078125,-0.7474441416289657,2.502383802455664,-2.164167746645212,0.3327703475952148,0.4485195577144623,0.147715076804161,walking
5.983174560546875,-0.4093892677295953,2.358791324079037,-1.9962381148695945,0.3148270845413208,0.5479156374931335,0.1311172842979431,walking
5.99324951171875,0.0048100306302309,2.17116564270854,-1.5803981366306543,0.2449145764112472,0.3779907822608948,0.1600264310836792,walking
6.003323486328125,0.209564103064686,1.9150059388160705,-1.3131553131878375,0.0977159589529037,-0.0469215586781501,0.1826349794864654,walking
6.0133984375,0.1524076529949903,1.6685978136092423,-1.4245838900625705,-0.0971209034323692,-0.5602170825004578,0.1715453118085861,walking
6.02347265625,-0.172804325139895,1.5968758087009192,-1.9943150378525256,-0.2861024439334869,-0.8849718570709229,0.1269046068191528,walking
6.03354736328125,-0.6200915810439735,1.7633640094965697,-2.8193577482730148,-0.4468061029911041,-0.9259570837020874,0.0542980507016181,walking
6.04362158203125,-1.1066779971573502,1.9145552724391224,-3.729885616016388,-0.5516637563705444,-0.6823486089706421,-0.0421251580119133,walking
6.053696533203125,-1.5334624901935456,2.2069500727951525,-4.415081464329361,-0.57494056224823,-0.2675314247608185,-0.128451257944107,walking
6.0637705078125,-1.8604244538009165,2.593913500639796,-4.693296932685375,-0.5126469731330872,0.2249444872140884,-0.1961567103862762,walking
6.073845458984375,-1.8702365305021404,2.836088518321514,-4.544245604380965,-0.3689545392990112,0.5918700695037842,-0.2455530166625976,walking
6.08391943359375,-1.4744687416940927,2.8008465245485303,-4.071746750330925,-0.1741932481527328,0.7574068307876587,-0.2783515155315399,walking
6.093994384765625,-0.8669314487315714,2.5137369711190463,-3.357724035984277,0.0188933908939361,0.7728209495544434,-0.2801044285297394,walking
6.104068603515625,-0.4046295059818774,2.231321712985635,-2.5497604706585406,0.1852152943611145,0.6649666428565979,-0.2857404053211212,walking
6.114143310546875,-0.1032867714732885,2.1029531072258947,-1.751883999583125,0.30240398645401,0.4726504385471344,-0.2880152761936188,walking
6.124217529296875,0.1407189687669277,1.9967367120414967,-1.1346873362630605,0.3551248013973236,0.2546763718128204,-0.2910321056842804,walking
6.13429248046875,0.2872778957337141,1.9059703994452952,-0.6768892077386379,0.3535063862800598,0.0601979531347751,-0.2866562604904175,walking
6.144366455078125,0.3602146832592785,1.8873124607264995,-0.4075584721058606,0.3025137186050415,-0.1067156866192817,-0.2749584913253784,walking
6.15444140625,0.3560162086561322,1.9513088398188352,-0.3038368163466453,0.2078748345375061,-0.2431459575891494,-0.2602847218513489,walking
6.164515625,0.3241203104406595,1.9831535923689605,-0.4063713081479072,0.1064189001917839,-0.308245837688446,-0.241665169596672,walking
6.17459033203125,0.2728704540662467,1.9790303749591112,-0.6954127064228057,0.0256947614252567,-0.2929651737213135,-0.2230472862720489,walking
6.18466455078125,0.1169642914310097,2.008328950157761,-1.1145640011668203,-0.0090543469414114,-0.2395020574331283,-0.2121530771255493,walking
6.194739501953125,0.0201021461777389,2.062381442862749,-1.5125164405375715,0.0029077737126499,-0.183953046798706,-0.2083599418401718,walking
6.2048134765625,0.029640520504117,2.116551424467564,-1.8051380353868007,0.0566688925027847,-0.1557548642158508,-0.196492463350296,walking
6.214888671875,0.0618849398963153,2.1602111179739234,-1.9489584773004052,0.1552702933549881,-0.146198108792305,-0.1763818562030792,walking
6.22496240234375,0.0829097538769245,2.2006915969222782,-1.971785226136446,0.2655644714832306,-0.1527124643325805,-0.1567112207412719,walking
6.23503759765625,0.0758547207988798,2.241070953583717,-1.8452584488511083,0.3717739880084991,-0.1813893914222717,-0.144115000963211,walking
6.245111572265625,0.0552726821497082,2.2822294779241084,-1.6200193684011697,0.4567654132843017,-0.2176613509654998,-0.1337308883666992,walking
6.2551865234375,0.0642784109041094,2.3129414270520208,-1.3709089984983205,0.5051992535591125,-0.2472061961889267,-0.1369612962007522,walking
6.265261474609375,0.0623093027882277,2.319906589889526,-1.1142419296056032,0.5103427767753601,-0.2647950947284698,-0.1377350389957428,walking
6.27533642578125,0.0520610266268253,2.344327329918742,-0.8922837705224752,0.4858105182647705,-0.2776365876197815,-0.129740759730339,walking
6.285410400390625,0.0444597578428685,2.3412042294621465,-0.7413011818945408,0.4320893287658691,-0.2961971163749695,-0.1231818348169326,walking
6.2954853515625,0.0329747794933617,2.310810260242224,-0.7200310148507356,0.3747730553150177,-0.2925640344619751,-0.1145558580756187,walking
6.3055595703125,0.0121320440813899,2.266081476199626,-0.7397919463753699,0.3257873058319092,-0.2878535985946655,-0.1118946596980094,walking
6.31563427734375,-0.0394986283041536,2.2601550087600946,-0.793643948072195,0.2908255755901336,-0.290542870759964,-0.1186385825276374,walking
6.32570849609375,-0.0643470191609114,2.253786058250069,-0.8614233528345823,0.2820288836956024,-0.2754994928836822,-0.1277224421501159,walking
6.335783447265625,-0.0788390703719109,2.2513795816302298,-0.9069663758695125,0.2894242107868194,-0.2584848403930664,-0.1329536885023117,walking
6.345857421875,-0.0903298939403146,2.26529295617044,-0.8860334779560566,0.3047079741954803,-0.2597587406635284,-0.1406327337026596,walking
6.355932373046875,-0.1098597201228141,2.261292488357425,-0.8432114043176173,0.3087234795093536,-0.2545887529850006,-0.1499274224042892,walking
6.36600634765625,-0.0406472138173878,2.177453929197788,-0.7811527152895927,0.301196426153183,-0.193465307354927,-0.1627299636602401,walking
6.376081298828125,0.0880829187311232,2.0129893431842327,-0.6309463717311621,0.2763906717300415,-0.1009987518191337,-0.1783083826303482,walking
6.386155517578125,0.3079220398336649,1.8389374291360376,-0.4002665615320205,0.2231562435626983,-0.0449498817324638,-0.1877790242433548,walking
6.396230224609375,0.5635095698613674,1.6584475909948349,-0.0616015929102897,0.1272081434726715,-0.0937531068921089,-0.1781258732080459,walking
6.406304443359375,0.8339128300964832,1.4610077870965004,0.2315308740705251,-0.0057195085100829,-0.2521080672740936,-0.1450543850660324,walking
6.41637939453125,1.1395832185458392,1.230230946263671,0.3583352992534637,-0.159020647406578,-0.503609836101532,-0.09221912920475,walking
6.426453369140625,1.166959666575491,1.134958554419875,0.2768868501007557,-0.3581092059612274,-0.7567161321640015,-0.0546785928308963,walking
6.4365283203125,0.8275762474860996,1.235565293028951,-0.0693956077873706,-0.5789843201637268,-0.9682384729385376,-0.0194558911025524,walking
6.4466025390625,0.3136644559431821,1.4376017770677805,-0.7273714407414198,-0.7685202360153198,-1.0220682621002195,0.0153416879475116,walking
6.45667724609375,0.023465339000523,1.4902029019206762,-1.6073229684352874,-0.8707060217857361,-0.7856228351593018,0.0524317994713783,walking
6.466751708984375,-0.0887360488776117,1.429920574915409,-2.4436814381182197,-0.8492676615715027,-0.2702496945858001,0.0925505459308624,walking
6.476826416015625,-0.0442746105343103,1.375914259439707,-2.8449609760850665,-0.7100522518157959,0.3851435780525207,0.1411689519882202,walking
6.486900634765625,0.2132459333825856,1.1451309888660908,-2.589855165159702,-0.5056301951408386,0.8532895445823669,0.2019696235656738,walking
6.496975341796875,0.6619815614640713,0.7325117262393236,-1.771325197634101,-0.3210299909114837,0.932028830051422,0.2923807501792907,walking
6.507049560546875,1.022588678107038,0.1582698230266571,-0.8311573939085006,-0.2244729250669479,0.6184587478637695,0.3660633862018585,walking
6.517124267578125,1.2110055829204618,-0.402061628255248,-0.0924959128677845,-0.2009303122758865,0.135459303855896,0.4155119061470032,walking
6.52719873046875,1.222451471368596,-0.8520417765051126,0.3165338008344173,-0.2354939430952072,-0.2215800732374191,0.4245188236236572,walking
6.537273193359375,0.9807138952560722,-1.0328507635980844,0.4487789557665586,-0.3470497727394104,-0.3731954097747803,0.4035229980945587,walking
6.54734765625,0.5650714123506099,-0.9862731368184088,0.3669569971263408,-0.5396512150764465,-0.4229844212532043,0.3737730681896209,walking
6.55742236328125,0.1381807555261999,-0.845017576956749,0.1946241619557142,-0.7963210940361023,-0.4404433071613312,0.3554012477397918,walking
6.56749658203125,-0.2045884335439652,-0.6931196270495653,-0.1304752226501703,-1.026018142700195,-0.3587751984596252,0.3675141334533691,walking
6.5775712890625,-0.469622567961365,-0.4950672442108392,-0.6633236237227916,-1.167481541633606,-0.1313982456922531,0.3968991637229919,walking
6.587645751953125,-0.7035494703229517,-0.2059241391271352,-1.163554534307122,-1.1656105518341064,0.2211279273033142,0.4421190321445465,walking
6.59772021484375,-0.8306339545562863,0.0762958886951208,-1.4998311464875935,-1.0210325717926023,0.607422947883606,0.4905089437961578,walking
6.607794677734375,-0.8513161656443029,0.0910328545778989,-1.435114636427164,-0.7635481953620911,0.923505425453186,0.5216569900512695,walking
6.617869140625,-0.6784685128193348,-0.1246452013224363,-0.9546861584216356,-0.4701876938343048,1.0678621530532837,0.543449878692627,walking
6.627943603515625,-0.4418496679600328,-0.4844868134856224,-0.253204361218214,-0.2136252224445343,1.0117201805114746,0.5266225337982178,walking
6.638018310546875,-0.2633855634927749,-0.8750742770463228,0.5528700293600559,-0.0339419990777969,0.7739836573600769,0.4704852104187011,walking
6.648092529296875,-0.0474167079523205,-1.0438859523534774,1.1961223404347896,0.0665254965424537,0.4381051957607269,0.412479817867279,walking
6.658167236328125,0.1871769146896898,-1.0337602796584366,1.5677578507661818,0.089079812169075,0.1323418319225311,0.3820859491825104,walking
6.66824169921875,0.3396737072728574,-0.9062637805581092,1.695254934388399,0.0529771856963634,-0.0127468286082148,0.3788322806358337,walking
6.678316162109375,0.3502518729757517,-0.6829062760710716,1.6465326967954634,-0.0441909097135067,-0.0046606725081801,0.3836219608783722,walking
6.688390625,0.3019621815811842,-0.4266635700702667,1.498304959833622,-0.1752253025770187,0.0941251143813133,0.4134596586227417,walking
6.69846533203125,0.2889290239416062,-0.219768540084362,1.2585457711219787,-0.3084044158458709,0.2450999766588211,0.4737797379493713,walking
6.70853955078125,0.2814193058986217,-0.0729167676508426,0.9697031102895736,-0.4143650829792022,0.4170614182949066,0.5508295297622681,walking
6.718614501953125,0.2257327822510152,0.0220242002815008,0.6620382600873709,-0.4654746055603027,0.5398539304733276,0.615466833114624,walking
6.7286884765625,0.0866677181709557,0.0214285724759101,0.4790145195543765,-0.4579058587551117,0.5862792730331421,0.6467559337615967,walking
6.738763427734375,-0.0489152028817683,-0.0707949531912803,0.3533259466588497,-0.3973716795444488,0.5830550193786621,0.6422687768936157,walking
6.748837646484375,-0.1454627292279154,-0.1355827749222516,0.2648632348299026,-0.3086566030979156,0.5401393175125122,0.621691882610321,walking
6.758912353515625,-0.1597360961869359,0.017266192099452,0.1917196726858615,-0.1968355476856231,0.4524317979812622,0.5996816754341125,walking
6.768986572265625,-0.0871808553248643,0.0951736076444387,0.0210159000217914,-0.0771379917860031,0.4231981635093689,0.6070287823677063,walking
6.7790615234375,0.0725851245436817,0.1366255619734525,-0.0381692793965339,0.0335661470890045,0.4452587366104126,0.6296347975730896,walking
6.789135498046875,0.1163520778167992,0.2653857973992824,-0.0440595064789056,0.1118756607174873,0.4694190323352813,0.6582237482070923,walking
6.79921044921875,0.1091368857409805,0.3500672371238469,-0.0383773691892623,0.1426074653863906,0.4962674081325531,0.6882801651954651,walking
6.809284423828125,0.1747753329519182,0.3562316049724817,-0.0076040452629327,0.1307751834392547,0.5260875821113586,0.7074319124221802,walking
6.819359375,0.2153143371544778,0.2687204947799444,0.0277332255780696,0.0957876369357109,0.567307710647583,0.7273678183555603,walking
6.82943359375,0.191978031361103,0.1789765109688043,0.0815676916182041,0.043617233633995,0.5863744616508484,0.7376218438148499,walking
6.83950830078125,0.1191883972212672,0.1445364812284708,0.0421942971289157,-3.03798551612e-05,0.5374197363853455,0.7306014895439148,walking
6.84958251953125,-0.0051324675176292,0.1645265453338623,-0.183544549536705,-0.0220467615872621,0.4656139314174652,0.7163814306259155,walking
6.859657470703125,-0.126223045098409,0.2787088048309087,-0.4750958848059177,-0.0201937332749366,0.4313808381557464,0.692054033279419,walking
6.8697314453125,-0.2104960501525551,0.4179781593114137,-0.7496902400553226,-0.0067960210144519,0.4534623324871063,0.6680623292922974,walking
6.879806396484375,-0.2182635423488914,0.5644295342504978,-0.9758487734377383,0.0160557646304368,0.5220374464988708,0.6495190262794495,walking
6.889880615234375,-0.0928521058943122,0.7017436630100011,-1.1503221277683973,0.0438128300011158,0.6407781839370728,0.6428826451301575,walking
6.899955322265625,0.0572128564320504,0.795346660336852,-1.211821429347992,0.0685453414916992,0.785709798336029,0.6543329358100891,walking
6.910029541015625,0.2604539670202881,0.9008084377616644,-1.1024299112588167,0.0800517350435257,0.9429816603660583,0.6798820495605469,walking
6.9201044921875,0.5128038303010165,0.9309300197809934,-0.854431886512041,0.0562483929097652,1.0337164402008057,0.7204731106758118,walking
6.930178466796875,0.8096461115851998,0.8782505689948796,-0.5626157628268003,0.0022526010870933,1.0000548362731934,0.765748143196106,walking
6.94025341796875,1.0016434321686625,0.8418155660450458,-0.303701207268238,-0.079217754304409,0.8715866208076477,0.8198534250259399,walking
6.950327392578125,1.0487316388189791,0.8690414266228675,-0.1293102705240249,-0.1808847486972808,0.7145337462425232,0.8714718222618103,walking
6.96040234375,0.9125937142319976,0.9468424591839312,-0.1610322734773158,-0.2620914578437805,0.6303603053092957,0.9231011867523192,walking
6.9704765625,0.7325679134059697,1.1341805557847022,-0.3944932388275861,-0.2897520661354065,0.7094625234603882,0.989996075630188,walking
6.98055126953125,0.6005002339325844,1.3195990824997423,-0.5461567954570055,-0.2600631415843963,0.9186980724334716,1.074221968650818,walking
6.990625,0.6994225265860557,1.3074386891067027,-0.5419096594065428,-0.1884220689535141,1.1351407766342163,1.1656711101531982,walking
7.000699951171875,0.8720282604139298,1.0266735362678765,-0.2622913385152816,-0.1146711483597755,1.207271933555603,1.2485918998718262,walking
7.01077392578125,0.9876290084067731,0.6042167702376842,0.1612742655396461,-0.0663956105709075,1.056095838546753,1.313051700592041,walking
7.020848876953125,0.9357019834231584,0.1564051981985569,0.5008551799625158,-0.054572507739067,0.7692781686782837,1.3524569272994995,walking
7.0309228515625,0.7103739095155149,-0.3126636814028024,0.7583867567300796,-0.1012123599648475,0.4327473938465118,1.3497213125228882,walking
7.040997802734375,0.1554837725047022,-0.6767927616268395,0.9606132103830576,-0.2405100613832473,0.0537654645740985,1.267758011817932,walking
7.051072021484375,-0.6318563992481678,-0.9611772740066052,0.9178548496305942,-0.4954427480697632,-0.3048648536205292,1.1000200510025024,walking
7.061146728515625,-1.4047987008795142,-1.1245645861774682,0.6556295620888472,-0.8453584313392639,-0.5115245580673218,0.8831679224967957,walking
7.071220947265625,-1.9264941320359703,-1.0347650727868078,0.1905558896034956,-1.210233449935913,-0.4981265962123871,0.6786226630210876,walking
7.0812958984375,-2.1227000102251767,-0.7642074257075786,-0.6818360164910554,-1.4936950206756592,-0.256115585565567,0.530293881893158,walking
7.091369873046875,-2.040197083583474,-0.3714256669729948,-1.6781588381588457,-1.6211016178131104,0.1582913249731063,0.4713900983333587,walking
7.10144482421875,-1.6945640295147897,0.1490957519680261,-2.3622043473929164,-1.5523401498794556,0.6181995272636414,0.5167788863182068,walking
7.111518798828125,-1.1730658744961022,0.4933452427238226,-2.7048750445246696,-1.3128504753112793,0.9499843120574952,0.6171695590019226,walking
7.121593994140625,-0.699924119432643,0.4057897088676691,-2.650207050269842,-0.9655747413635254,1.0871319770812988,0.7242632508277893,walking
7.13166796875,-0.4030340534839779,0.1141670619279146,-2.269399222445488,-0.6067972779273987,1.0271347761154177,0.7868879437446594,walking
7.141742919921875,-0.3973815076149999,-0.1263847384661436,-1.694650538754463,-0.2742393016815185,0.7871336936950684,0.8006823062896729,walking
7.15181689453125,-0.4914776222210377,-0.3112906394839286,-1.1582815623402596,0.0074245724827051,0.5207709670066833,0.7862069010734558,walking
7.16189208984375,-0.649213776762411,-0.4022895917922258,-0.6428478219270706,0.2109728902578354,0.3678679764270782,0.7619305849075317,walking
7.1719658203125,-0.9015220659237354,-0.3304810776442289,-0.1821837825775146,0.3171279430389404,0.3434948027133941,0.7474433183670044,walking
7.182041015625,-1.13999450276047,-0.1558732832789421,0.2022866594076156,0.3420652449131012,0.3964346945285797,0.7440797686576843,walking
7.192114990234375,-1.286377634768933,-0.0597469049543142,0.52471945515275,0.3147099316120147,0.4842069745063782,0.7436921000480652,walking
7.20218994140625,-1.345532857440412,-0.0175713125258684,0.8020189777076244,0.2726024091243744,0.5517498254776001,0.7523593306541443,walking
7.212263916015625,-1.339340724802017,-0.0213110835760831,0.932113092085719,0.2501548528671264,0.5672393441200256,0.7527697086334229,walking
7.222339111328125,-1.3093724336482584,-0.032204818034172,0.9333113619595764,0.2741706967353821,0.5276509523391724,0.736774742603302,walking
7.232412841796875,-1.2710852269604802,-0.0088058222681283,0.8422767538160085,0.3549807667732239,0.4594551920890808,0.7052438259124756,walking
7.242488037109375,-1.1513806969106195,0.0814326670616865,0.7003957555323839,0.4773349165916443,0.3438164889812469,0.6611381769180298,walking
7.252561767578125,-0.8918797928314656,0.2635363701403141,0.4719505725175142,0.6219548583030701,0.2585781812667846,0.6344977617263794,walking
7.262636962890625,-0.5808030883591622,0.4993406837463379,0.3244306915640831,0.7625420689582825,0.2508957684040069,0.6233364343643188,walking
7.2727109375,-0.2557081607326865,0.7598866398990154,0.3532084577590227,0.8738886117935181,0.2753338515758514,0.6270895600318909,walking
7.282785888671875,0.0958546487111598,1.017795233285427,0.4099105881899595,0.9494893550872804,0.2922755479812622,0.6461862921714783,walking
7.29285986328125,0.5751959160018711,1.1529974844574928,0.4153571631580591,0.991875946521759,0.3563790321350097,0.6862481832504272,walking
7.30293505859375,1.1338567306578158,1.044004025775194,0.4713058448731899,0.9998606443405152,0.5195916295051575,0.7379177808761597,walking
7.3130087890625,1.6539175463497635,0.7450035435438156,0.6929319955229759,0.9587822556495668,0.7330358624458313,0.7723767161369324,walking
7.323083984375,1.9427499780490995,0.5361965424567461,1.1925906591773032,0.8403709530830383,0.8256043791770935,0.773382842540741,walking
7.33315771484375,1.9675228925168515,0.5448480509459972,1.7807044358760118,0.6126890182495117,0.6580770611763,0.7438661456108093,walking
7.34323291015625,1.7569634948045014,0.6058925944954157,2.1057710872560738,0.2924617528915405,0.3025186359882355,0.6781920790672302,walking
7.353306884765625,1.4228960831061004,0.663100920882821,2.009579242479801,-0.0594418682157993,0.0255023557692766,0.5835939645767212,walking
7.3633818359375,1.2381275447323918,0.8198013026356696,1.456110662704706,-0.3822705447673797,0.0006553281564265,0.478107750415802,walking
7.373455810546875,1.3898442928537726,1.0221773938924072,0.5489566553086042,-0.6134335398674011,0.2405947744846344,0.4164437651634216,walking
7.383531005859375,1.7785376132309436,1.326747785210609,-0.4481131853342056,-0.7332376837730408,0.6426002383232117,0.42022305727005,walking
7.393604736328125,2.2677160916641355,1.6613988420158623,-1.1004250011771917,-0.7324065566062927,1.0531880855560305,0.5051025152206421,walking
7.403679931640625,2.899245231719315,1.8259154504776,-1.4136995079547163,-0.6383527517318726,1.3901344537734983,0.6404163837432861,walking
7.41375390625,3.4122067368000746,1.7467863841831683,-1.3735586362242698,-0.5196675658226013,1.5578069686889648,0.7822975516319275,walking
7.423828857421875,3.6646909670501935,1.5306073930233717,-1.0468021320611238,-0.4044416546821594,1.483651041984558,0.908154547214508,walking
7.43390283203125,3.7669215074688194,1.1920920620054003,-0.6952320891588926,-0.3060927987098694,1.2376974821090698,0.9979933500289916,walking
7.44397802734375,3.698070089560747,0.9810650467813016,-0.4639291786253452,-0.2355201095342636,0.9708133339881896,1.0502671003341677,walking
7.4540517578125,3.3540091071143743,1.009925230562687,-0.385537778955698,-0.1943957209587097,0.7934801578521729,1.0803937911987305,walking
7.464126953125,2.8998931742340326,1.24780108974576,-0.4610194286584854,-0.1926992833614349,0.7869372963905334,1.12287437915802,walking
7.47420068359375,2.563593765699863,1.4701467868417502,-0.597234656265378,-0.2213661819696426,0.9166422486305236,1.1684138774871826,walking
7.48427587890625,2.3616522664681074,1.6260551414340734,-0.6313140359997749,-0.2603234350681305,1.102218747138977,1.23426616191864,walking
7.494349853515625,2.19183930516392,1.7952444178819655,-0.6977180607557296,-0.2702228724956512,1.2850987911224363,1.332579255104065,walking
7.5044248046875,2.1094123663678763,1.9418489375561476,-0.7617430814206599,-0.2423355728387832,1.445332169532776,1.4378803968429563,walking
7.5144990234375,1.9920584910973904,1.9791917030006645,-0.7244961775660514,-0.1846494078636169,1.5526692867279053,1.5183030366897583,walking
7.524573974609375,1.8287487742073836,1.86045543346107,-0.5177443554431199,-0.1375258266925811,1.572564959526062,1.5736082792282104,walking
7.53464794921875,1.692226234216988,1.7218389899313449,-0.218673730584979,-0.0986849293112754,1.5019311904907229,1.62091863155365,walking
7.544722900390625,1.589198552071303,1.630619672870636,0.0935100583463907,-0.0931322425603866,1.3697627782821655,1.6579240560531616,walking
7.554796875,1.4947566197022797,1.5051637396872042,0.2457540452122688,-0.1060003414750099,1.257331371307373,1.6882991790771484,walking
7.564871826171875,1.4679673969760536,1.399829972556233,0.2317202591627836,-0.1500365138053894,1.2585334777832031,1.7038723230361938,walking
7.574946044921875,1.3548779011517762,1.3497709334015846,0.2265162607789039,-0.2182000875473022,1.2985825538635254,1.7130732536315918,walking
7.585020751953125,1.2217260066382587,1.369908297023177,0.2428694296866655,-0.3231779038906097,1.268493890762329,1.7211215496063232,walking
7.595094970703125,1.095393948207423,1.435075473460555,0.1054839892566204,-0.4288375675678253,1.2079137563705444,1.7435851097106934,walking
7.605169921875,0.9551641511969268,1.627861314073205,-0.3034399259835481,-0.4885272681713104,1.243029236793518,1.7799750566482544,walking
7.615243896484375,0.7730452505491674,1.811508739462495,-0.775389329457283,-0.492601215839386,1.437117576599121,1.8236130475997925,walking
7.62531884765625,0.6793075209267437,1.9241613051742317,-1.062571948122978,-0.446686178445816,1.6977070569992063,1.8721065521240237,walking
7.63539306640625,0.7663703028298914,1.9191227264851327,-1.149128534069657,-0.3705548644065857,1.9042816162109373,1.9267146587371824,walking
7.6454677734375,1.041580451890081,1.733689002200961,-1.00583474637866,-0.2902387082576751,2.002531051635742,2.0034823417663574,walking
7.6555419921875,1.3109880521513522,1.4485358435362576,-0.6117717156618833,-0.2453211843967437,1.9464375972747805,2.0829689502716064,walking
7.665616943359375,1.382939335770905,1.1690507936358452,-0.1490554199576377,-0.2442466020584106,1.7957242727279663,2.1346545219421387,walking
7.67569091796875,1.228393063312024,0.901868175947666,0.2967641014814376,-0.30914106965065,1.575727105140686,2.145761728286743,walking
7.685765869140625,0.870301363556087,0.7471925780206918,0.6359066244870424,-0.4560490250587463,1.2240883111953735,2.116410732269287,walking
7.69583984375,0.4954743637070059,0.6894377236664295,0.6238216344177723,-0.6586872935295105,0.853323757648468,2.080118179321289,walking
7.705914794921875,0.2898333523701876,0.7363532040983438,0.1514244871765375,-0.8120608329772949,0.579261839389801,2.0609846115112305,walking
7.715989013671875,0.2667017023034393,1.0495201588481664,-0.717637397712469,-0.8483535051345825,0.5132061243057251,2.094510555267334,walking
7.726063720703125,0.1507414733484387,1.4713152460992336,-1.718996459981799,-0.7648671865463257,0.7123597264289856,2.144388198852539,walking
7.736137939453125,-0.1207730360642075,1.9333838915497064,-2.258300320804119,-0.6399308443069458,1.1271913051605225,2.1977248191833496,walking
7.746212890625,-0.419012763056159,2.293604858419299,-2.2179490211933848,-0.552713930606842,1.5834531784057615,2.228947639465332,walking
7.756286865234375,-0.7427374252427369,2.358056580063701,-1.8316881886601448,-0.566563069820404,1.8453176021575928,2.235896348953247,walking
7.766362060546875,-0.9340933061175049,2.117308380314708,-1.295653558766842,-0.641872227191925,1.827965497970581,2.2542145252227783,walking
7.776435791015625,-0.791383967250958,1.7605822698235511,-0.919593217730522,-0.7346330285072327,1.696027159690857,2.2890329360961914,walking
7.786510986328125,-0.5679543473757803,1.4933008679360151,-0.723191524708271,-0.8217074871063232,1.5404996871948242,2.3369593620300293,walking
7.7965849609375,-0.570527193538472,1.4707207873374222,-0.7903051590383052,-0.8892897963523865,1.4494585990905762,2.3949692249298096,walking
7.806659912109375,-0.7953627346888185,1.5325737246602773,-0.9392799149751664,-0.9452755451202391,1.4083987474441528,2.4522337913513184,walking
7.81673388671875,-0.9969068321008234,1.4633540579617024,-1.1086655907779932,-0.9966323375701904,1.3994832038879397,2.504150390625,walking
7.82680908203125,-1.188152384468913,1.3296499363929033,-1.241708618089557,-1.0402957201004028,1.381588578224182,2.550013303756714,walking
7.8368828125,-1.3573875458851457,1.1741431483387947,-1.3350620245695113,-1.073309063911438,1.3796716928482056,2.5844438076019287,walking
7.8469580078125,-1.5352251159518957,1.0253010788708925,-1.438481482511759,-1.0878757238388062,1.4117166996002195,2.6188340187072754,walking
7.857031982421875,-1.800680179195106,0.9209761965215204,-1.4726222370445727,-1.1080228090286257,1.4508506059646606,2.636147737503052,walking
7.86710693359375,-2.1808805426456037,0.8007207545906305,-1.367691205495596,-1.128861427307129,1.462633490562439,2.631619453430176,walking
7.877180908203125,-2.5097885257542134,0.5914321074664592,-1.2527274402320383,-1.1350200176239014,1.4667418003082275,2.59930157661438,walking
7.887256103515625,-2.77848622418046,0.3980298885211348,-1.1638619928210974,-1.1221561431884766,1.5051907300949097,2.5422351360321045,walking
7.897329833984375,-2.9725699956491587,0.2555237440764903,-1.0335112733334302,-1.09374737739563,1.563732028007507,2.4735796451568604,walking
7.907405029296875,-3.023426614922285,0.1335407477006316,-0.7885819885075092,-1.058037042617798,1.572561740875244,2.4009900093078613,walking
7.917479736328125,-3.0305025446578857,0.0273319513007998,-0.5278314496934413,-1.025804877281189,1.496253490447998,2.3336880207061768,walking
7.927553955078125,-2.9231963084101675,-0.168212248109281,-0.2438058337539434,-0.9966554641723632,1.354290246963501,2.2640066146850586,walking
7.9376279296875,-2.7418726497933266,-0.3450371340021491,-0.0596224017918109,-0.9532070755958556,1.1702662706375122,2.200141668319702,walking
7.947702880859375,-2.5761902124226093,-0.4747331889733672,-0.0843681359916925,-0.8709473609924316,0.9977651238441468,2.143345355987549,walking
7.95777685546875,-2.428087417014688,-0.5668474090471863,-0.2641822668284178,-0.7476645708084106,0.9180769324302672,2.088720321655273,walking
7.96785205078125,-2.2870322020307183,-0.5552791363283992,-0.4136111962735652,-0.5901623368263245,0.9191709160804749,2.037050247192383,walking
7.977926513671875,-2.239347198531032,-0.5002124981448054,-0.4233335488647222,-0.4330185055732727,0.9385104775428772,1.970611810684204,walking
7.9880009765625,-2.144451238784194,-0.4950558460339903,-0.343953722679615,-0.2948284149169922,0.9286064505577089,1.9031158685684204,walking
7.998075927734375,-1.984715727119148,-0.6236889479488134,-0.249545254188776,-0.1822686046361923,0.9219229817390442,1.8366762399673464,walking
8.00814990234375,-1.811777765662223,-0.8496694944158196,-0.133556822052598,-0.094735562801361,0.9365959763526917,1.7713409662246704,walking
8.018224853515624,-1.5987461326174437,-1.028890043273568,0.0237198982834815,-0.0466048121452331,0.9459862112998962,1.6987793445587158,walking
8.02829931640625,-1.3993787216573952,-1.1832093751087784,0.0821148041069507,-0.0252798162400722,0.9382553696632384,1.6135869026184082,walking
8.038373779296874,-1.2128368169356136,-1.3886676502898334,0.1101104800134897,-0.0407698862254619,0.9180842638015748,1.520919919013977,walking
8.0484482421875,-1.0836332216564566,-1.568067355106771,0.0545060816913843,-0.0731914788484573,0.9114500880241394,1.4256117343902588,walking
8.058522705078126,-1.0528155471317469,-1.6578043246552348,0.0119213239401578,-0.1182138994336128,0.8929402232170105,1.316184639930725,walking
8.06859716796875,-1.1402526422400028,-1.6673486903309822,-0.0363473246663808,-0.1889344155788421,0.8651610612869263,1.1957378387451172,walking
8.078671875,-1.1408755233787,-1.6504007704004644,-0.1190519113600254,-0.2551018297672272,0.8675689101219177,1.0864139795303345,walking
8.08874609375,-1.0229278469335288,-1.6183710166722536,-0.2964513822704553,-0.3138013482093811,0.9313359260559082,0.9963234663009644,walking
8.09882080078125,-0.8256260632663964,-1.6093068357288836,-0.5671756180882453,-0.3648439347743988,1.089357852935791,0.9225794672966005,walking
8.108895263671876,-0.5230535677671432,-1.7357023878499864,-0.65083122189641,-0.419927179813385,1.204728364944458,0.8737778067588806,walking
8.1189697265625,-0.1842491906747221,-1.880888272897899,-0.6334685836851597,-0.4739470779895782,1.1069386005401611,0.8556172251701355,walking
8.129044189453126,0.0804005475349724,-1.9978630857229231,-0.6587134995788335,-0.5179518461227417,0.7570618391036987,0.8433189988136292,walking
8.139118896484375,-0.0050289340779185,-1.929446552100777,-0.8789449809998273,-0.5399405360221863,0.2508276402950287,0.8221616744995117,walking
8.149193115234375,-0.6110144675537943,-1.524827056056261,-1.464958570548892,-0.5024594664573669,-0.2008388787508011,0.7721294164657593,walking
8.159267822265624,-1.4406938978642223,-0.9424097374334932,-2.3861440259069204,-0.4114956557750702,-0.3695785105228424,0.6870438456535339,walking
8.169342041015625,-1.9723523584999143,-0.3643140814021229,-3.22493059951961,-0.2562413513660431,-0.1837492436170578,0.6075902581214905,walking
8.179416748046876,-2.196561657510698,0.2260264314353466,-3.624761692243814,-0.033943373709917,0.3506897687911987,0.5664535164833069,walking
8.1894912109375,-2.058321938338876,0.6393737160757184,-3.4177193627417086,0.2168289273977279,0.9971937537193298,0.5607591271400452,walking
8.199565673828126,-1.7279460746347903,0.6594602262929081,-2.670032863724232,0.4214724600315094,1.4345207214355469,0.5575436949729919,walking
8.20964013671875,-1.3005598893783985,0.3590308803021907,-1.5276801073998212,0.5433480739593506,1.4652615785598757,0.5832421779632568,walking
8.219715087890625,-0.7677217174388468,-0.0801946496993303,-0.4915443307816982,0.5871599316596985,1.1357908248901367,0.6260619759559631,walking
8.2297890625,-0.2122379984490573,-0.5415589462727308,0.1510100611567497,0.570614755153656,0.5664719939231873,0.6731109619140625,walking
8.239864013671875,-0.0694100747041404,-0.7693325136363506,0.5025134685635566,0.5090256333351135,-0.012395734898746,0.6820482611656189,walking
8.249938232421876,-0.5644800953939557,-0.6726230747267603,0.5313181227654218,0.4055072367191314,-0.4494039714336395,0.6267855167388916,walking
8.260012939453125,-1.3624704021073877,-0.4303521954551338,0.1359112762242555,0.26095050573349,-0.6670491695404053,0.5216946005821228,walking
8.270087158203125,-1.9615709983751175,-0.2165510393425822,-0.4154360736131668,0.119116686284542,-0.7356846928596497,0.4256788790225982,walking
8.280161865234374,-2.269812479421496,0.1353174019843339,-0.9774801740318536,-0.0121690174564719,-0.6455938816070557,0.3471983671188354,walking
8.290236083984375,-2.5571909129202366,0.4756935584381222,-1.4977169308125973,-0.1109403297305107,-0.4030826687812805,0.281361311674118,walking
8.30031103515625,-2.7817750365927814,0.8092468831345438,-1.861999740293622,-0.1567490994930267,-0.0630068480968475,0.2338920533657074,walking
8.310385009765625,-2.876369090783596,1.1580042067036032,-2.057696499916911,-0.1373242735862732,0.3131881058216095,0.1968240439891815,walking
8.3204599609375,-2.774198463858664,1.4284963873311876,-1.974735892635584,-0.0463134571909904,0.6527548432350159,0.1744754165410995,walking
8.3305341796875,-2.444093379919976,1.5679674018636345,-1.4908791937470436,0.0846983566880226,0.8564983606338501,0.1669349372386932,walking
8.34060888671875,-1.965746676624566,1.5678101654753087,-0.8484323538362979,0.2217561602592468,0.9323991537094116,0.1884072124958038,walking
8.35068310546875,-1.577828578403592,1.4863333670109509,-0.1840162587016821,0.3403238356113434,0.9508894681930542,0.2214293479919433,walking
8.360758056640625,-1.2927524304978548,1.3653601321995257,0.4998866271913051,0.4203904867172241,0.8971407413482666,0.2588528096675873,walking
8.37083203125,-1.0725336624279618,1.1958882394179702,1.1632651959717273,0.462499588727951,0.7375478744506836,0.2853991985321045,walking
8.380906982421875,-0.9146127989694476,1.0071242016673088,1.6292162358134985,0.4620565474033355,0.4759507775306701,0.2986422777175903,walking
8.39098095703125,-0.767392193223536,0.8774123646050691,1.8665397218108173,0.4352022707462311,0.1507577747106552,0.3036074936389923,walking
8.401055908203125,-0.6856523599088191,0.8585971894979476,1.847806379768252,0.4056970477104187,-0.1413607150316238,0.3163517713546753,walking
8.411130126953125,-0.6993858478374779,0.9315209714114664,1.624785559889674,0.372053325176239,-0.294311374425888,0.3260605931282043,walking
8.421204833984374,-0.8124372036084532,1.0813649113982915,1.244563422998786,0.3190170228481293,-0.2945870459079742,0.3435901403427124,walking
8.431279052734375,-0.9421715447634458,1.1593988759323954,0.8860720564007759,0.2526713013648987,-0.2290660887956619,0.349294900894165,walking
8.44135400390625,-1.0609937390208244,1.084359124778211,0.5777256536751986,0.1919400840997696,-0.1631351262331009,0.3539396226406097,walking
8.451427978515625,-1.098981962762028,0.9492606262415648,0.3350269043803214,0.1481009870767593,-0.150852620601654,0.3483922481536865,walking
8.4615029296875,-1.0664797692164778,0.7820014410734176,0.1135983221292495,0.1139941811561584,-0.2195485979318618,0.3337361812591553,walking
8.471576904296874,-1.117708875063807,0.6907604967027903,-0.1514320859611034,0.1002695858478546,-0.3153377175331116,0.3055458068847656,walking
8.48165185546875,-1.1972739946879445,0.6626181058019399,-0.4977174664586782,0.109306015074253,-0.387360155582428,0.2707480788230896,walking
8.49172607421875,-1.29147948795259,0.6434545556485652,-0.967279682534933,0.1487128138542175,-0.3730800151824951,0.2332845777273178,walking
8.50180078125,-1.3698948530197144,0.6453788017094135,-1.3363637548178433,0.2235021442174911,-0.2843029201030731,0.1978785693645477,walking
8.511875,-1.391181094415486,0.6241138953626155,-1.5224842923223971,0.3172464966773987,-0.1218311935663223,0.1654561758041381,walking
8.521949951171875,-1.339963825136423,0.5926648641318083,-1.4865630841135975,0.4216688275337219,0.0512034557759761,0.1381962448358535,walking
8.53202392578125,-1.2271157368525862,0.6620283232152462,-1.3133172257512806,0.5030528903007507,0.1864113360643386,0.1303340494632721,walking
8.542098876953125,-0.960747504287213,0.6081295597672463,-0.9365870226293802,0.5669211745262146,0.262103796005249,0.1499991863965988,walking
8.552173095703125,-0.5707252003286033,0.4737625903755426,-0.4065630313277244,0.5824428796768188,0.1842947751283645,0.1878352612257003,walking
8.562247802734374,-0.3264518951933831,0.3350076151579618,0.0490717816829681,0.5484541654586792,-0.0898075252771377,0.220672994852066,walking
8.572322021484375,-0.3545657906521111,0.2032335848689079,0.2406336334586143,0.4785486161708832,-0.4279791712760925,0.2219403982162475,walking
8.58239697265625,-0.5440184682540595,0.0727139385551214,0.136768185314536,0.3922446966171264,-0.6592532396316528,0.184709683060646,walking
8.592470947265625,-0.7674876894872635,-0.0349894803166389,-0.1884907737672329,0.3110342621803283,-0.7080426216125488,0.1267718076705932,walking
8.6025458984375,-0.9669371527075769,-0.030229718568921,-0.5432505526214838,0.2346227467060089,-0.6487171053886414,0.058224618434906,walking
8.612619873046874,-1.1623719003938138,0.0700046795964241,-0.8767787428766488,0.1761674135923385,-0.5799729228019714,-0.0019540307112038,walking
8.62269482421875,-1.277042089538276,0.1470557705730199,-1.1381330928027629,0.1501986235380172,-0.4559115469455719,-0.0554504580795764,walking
8.63276904296875,-1.384699915702641,0.2210954047739505,-1.343973645299673,0.1841179728507995,-0.1917661726474762,-0.1086716055870056,walking
8.64284375,-1.4261575691200792,0.3144721921294927,-1.3357511758774518,0.2657638788223266,0.1714739650487899,-0.1668995767831802,walking
