seconds_elapsed,acc_x,acc_y,acc_z,gyro_x,gyro_y,gyro_z,label
0.057134765625,0.3590776420533657,-0.3215454915165901,1.6660288399040697,0.4549204409122467,0.1707257032394409,0.3016148507595062,walking
0.06720947265625,0.4582295056790113,-0.3686339904278516,1.7759499348253012,0.2088502347469329,0.4779050946235657,0.2980334162712097,walking
0.07728369140625,0.5816016183257102,-0.4190419891506433,1.8766116184920072,0.0093472329899668,0.6508369445800781,0.2763233482837677,walking
0.087358642578125,0.7544441565841435,-0.4764128126233816,1.8951193350851532,-0.123271495103836,0.6214972138404846,0.2419712841510772,walking
0.0974326171875,0.9812482943937182,-0.6187620129406451,1.7799813822984694,-0.185627281665802,0.4441258907318115,0.2059842646121978,walking
0.107507568359375,1.090508002796769,-0.7024830832004547,1.6174106472074985,-0.172759935259819,0.2327545285224914,0.1677059382200241,walking
0.117582763671875,1.0677699551574886,-0.6036778410553932,1.4103712403148412,-0.1077614873647689,0.0390018410980701,0.1399078667163849,walking
0.127656494140625,0.9509348430640996,-0.459863828882575,1.2662567838907242,-0.0187701508402824,-0.1264089941978454,0.1178532466292381,walking
0.137731689453125,0.9075902068562806,-0.2385790390163659,1.2280740604907274,0.041140854358673,-0.2388963848352432,0.1144177690148353,walking
0.1478056640625,0.8896886394627391,-0.1268611238062381,1.2265385214865208,0.045031763613224,-0.2808800041675567,0.1354048997163772,walking
0.157880615234375,0.8700533801443874,-0.0642243426293134,1.1650503258228302,-0.0157096143811941,-0.2352832555770874,0.1850795149803161,walking
0.167954833984375,0.7706148085318505,0.0803168147742748,1.0764894143164156,-0.11175187677145,-0.1726972907781601,0.2512319982051849,walking
0.178029541015625,0.6453804091446101,0.0990349592477083,0.790943456941843,-0.2176937460899353,-0.0978651195764541,0.3224396109580993,walking
0.1881044921875,0.4938040924072265,0.0446931282073259,0.3490098370254039,-0.2698115408420563,0.0070890318602323,0.3783469200134277,walking
0.1981787109375,0.3099589524887502,0.0053325931996107,0.0127425771951675,-0.2782878279685974,0.0761884748935699,0.4117442667484283,walking
0.20825341796875,0.2097619637243449,-0.0288859027445316,-0.3104360684812068,-0.2562447488307953,0.1252679824829101,0.4282630681991577,walking
0.21832763671875,0.1783478576764464,-0.0598532879382371,-0.6016881285429001,-0.204591691493988,0.1798342913389206,0.4513870179653168,walking
0.228402587890625,0.119194242440164,0.0176730193346738,-0.589203910022974,-0.1560677587985992,0.2745273113250732,0.4768541753292084,walking
0.2384765625,-0.0947461760126054,0.019233692780137,-0.439781410318613,-0.1250541806221008,0.3742453753948211,0.4800955057144165,walking
0.248551513671875,-0.2932446951836347,0.0032423429220914,-0.3839776900321245,-0.1173239797353744,0.4771132171154022,0.4592172503471374,walking
0.25862548828125,-0.5376280365645885,-0.0771422763913869,-0.3581155190229416,-0.1062412336468696,0.5679720044136047,0.4086318612098694,walking
0.268700439453125,-0.6690316261060536,-0.1227630408376455,-0.4112181636571884,-0.0697364881634712,0.5734789371490479,0.2972722947597503,walking
0.278775634765625,-0.98320293559283,-0.2335790387719869,-0.8216653429418802,0.0406105257570743,0.547907292842865,0.1158913001418113,walking
0.288849365234375,-0.4240056029073893,-0.6769049898296594,-1.5000228696674107,0.2463763803243637,0.561156690120697,-0.024092698469758,walking
0.298924560546875,-0.1525464769437909,-1.9489701677381992,-1.6302917560905217,0.4473268091678619,0.5094306468963623,-0.1557668447494506,walking
0.30899853515625,0.5172726462781428,-2.763787252220512,-0.8356459374994039,0.5929636359214783,0.3070003092288971,-0.2742933928966522,walking
0.319073486328125,0.5673914527960121,-1.5300368996590374,-0.1850724897563457,0.563845157623291,-0.0653048083186149,-0.3806128799915313,walking
0.3291474609375,-0.3445144253022968,-1.6703993100732564,0.0750572868108749,0.4805509448051452,-0.1305875331163406,-0.4698872864246368,walking
0.33922265625,0.0925378523133695,-1.6165923165619371,0.3428033836007118,0.3621577322483063,-0.1332898437976837,-0.5628537535667419,walking
0.34929736328125,0.5549867292530835,-1.526454949519038,0.883718186751008,0.1106146425008773,-0.3254476189613342,-0.6372722387313843,walking
0.35937158203125,0.8814468808181584,-1.656544972243905,1.1660194631159304,-0.2236488312482834,-0.4856889843940735,-0.6322572231292725,walking
0.369446533203125,1.3374994808495044,-1.5373533601522444,1.0205974312245845,-0.586937427520752,-0.5680692195892334,-0.5359022617340088,walking
0.3795205078125,1.2585456249915064,-1.1123200216323137,0.6000526362955569,-0.9623799920082092,-0.6259444952011108,-0.4173700213432312,walking
0.389595458984375,0.839421510515362,-0.689004008424282,-0.00576280131042,-1.291774868965149,-0.603630542755127,-0.3206757307052612,walking
0.399669677734375,0.4956218093536794,-0.3693535368740558,-0.7423568284273148,-1.532961368560791,-0.4859768450260162,-0.244309052824974,walking
0.409744384765625,0.2691279065370559,-0.1349333711028099,-1.5630793375611305,-1.6399757862091064,-0.3664626479148865,-0.1769219189882278,walking
0.419818603515625,0.1737884408064186,-0.0105395141929388,-2.484072485217452,-1.578452229499817,-0.2550452947616577,-0.1216589286923408,walking
0.4298935546875,0.0491340332642197,0.0712055798187851,-3.4287808549821377,-1.3102930784225464,-0.1251511871814727,-0.0725847706198692,walking
0.439968505859375,-0.1332565239317715,0.2433116204962134,-4.054029307332635,-0.8520207405090332,0.0546438843011856,-0.0463353283703327,walking
0.450042236328125,-0.2294925001107156,0.4069520306453109,-3.995116515114903,-0.3038399517536163,0.1944092065095901,-0.0515804141759872,walking
0.460117431640625,-0.2315248827211558,0.4600841936349868,-3.296082695585489,0.211681455373764,0.2450161874294281,-0.0606436841189861,walking
0.470191162109375,-0.10785787878111,0.4011898138567805,-2.214641211819649,0.5993982553482056,0.1708943247795105,-0.054980844259262,walking
0.480266357421875,-0.0041597500279545,0.3039946372568607,-1.1447113021492958,0.8196943998336792,0.0160349681973457,-0.0176739525049924,walking
0.490340087890625,-0.0764313516430556,0.220434310516715,-0.3476052309244871,0.9038808941841124,-0.1523495614528656,0.0326668955385685,walking
0.500415283203125,-0.3643354164510965,0.1607557946234941,0.1263344695836305,0.878150224685669,-0.3450596332550049,0.0470897778868675,walking
0.5104892578125,-0.8122720761746167,0.1456628549098968,0.14226269107759,0.7984024286270142,-0.5150647163391113,0.0116936275735497,walking
0.520564208984375,-1.356396927412599,0.0725479343384504,-0.1202916822880506,0.704505205154419,-0.5672011375427246,-0.0969689339399337,walking
0.530639404296875,-1.7562832574553786,0.0397229385793209,-0.465607925492525,0.6226750612258911,-0.5256277918815613,-0.2652176320552826,walking
0.54071337890625,-2.0199416465401647,0.0987275007337331,-0.6769079124391079,0.5612199306488037,-0.3598470687866211,-0.4723756313323974,walking
0.550788330078125,-2.009331697459519,0.282453252056241,-0.6068026950776577,0.492205947637558,-0.139442890882492,-0.6598049998283386,walking
0.5608623046875,-1.6445580357216298,0.5689157397538424,-0.4039537256121635,0.4332086741924286,0.0886190459132194,-0.7779771685600281,walking
0.5709375,-0.9967090445064009,0.8146405588716268,-0.120175362432003,0.388988196849823,0.2634292244911194,-0.8115678429603577,walking
0.58101123046875,-0.279825533901155,0.9891483999937772,0.2398088730722665,0.3686656355857849,0.3415237665176391,-0.7583182454109192,walking
0.59108642578125,0.3025488223627209,0.961731400758028,0.6157084705889224,0.3865363895893097,0.3329405188560486,-0.6604607105255127,walking
0.601161376953125,0.7835204673342406,1.0555471640527248,1.0885820031702518,0.4101751446723938,0.3588200807571411,-0.5097782611846924,walking
0.6112353515625,0.8008812058493494,1.2542010199159384,1.592384927022457,0.3909030258655548,0.2939689755439758,-0.3673882484436035,walking
0.621310302734375,0.9780253868244588,1.0885042617589236,2.058045459485054,0.3512389659881592,0.2462140023708343,-0.2155050039291381,walking
0.63138427734375,1.09717359816581,0.812542125287652,2.4727695854365823,0.279716283082962,0.1733946055173874,-0.0792793333530426,walking
0.641459228515625,0.907200476886332,0.5770674820274114,2.772581384050846,0.1778589040040969,0.0633533373475074,0.0131195681169629,walking
0.651533447265625,0.6057543550685047,0.3677759122937917,2.9360850160777567,0.0593187920749187,-0.0423218160867691,0.0619564279913902,walking
0.661608154296875,0.3817850022934377,0.1982598881095647,2.899657027390599,-0.0713891461491584,-0.1652493327856063,0.0803365036845207,walking
0.671682373046875,0.1901004009209573,0.0968745663434267,2.582246443721652,-0.1881326586008072,-0.2627843022346496,0.0875179022550582,walking
0.68175732421875,0.0336589623652398,0.0780272425323724,2.0328759469151496,-0.2604769170284271,-0.2773706912994385,0.1052420437335968,walking
0.691832275390625,-0.1255376201175153,0.1400175424993038,1.4888859741032123,-0.2939366996288299,-0.2102537900209427,0.1200659871101379,walking
0.701906494140625,-0.2771383406437933,0.1351227561950683,1.085924182137847,-0.2973585724830627,-0.0921340733766555,0.1239648461341857,walking
0.7119814453125,-0.2956044100522995,0.0929267055004835,0.8139338719069957,-0.2754444777965545,0.0499344170093536,0.1247438192367553,walking
0.722055419921875,-0.1751591446377337,0.0375964479446411,0.7054694055348635,-0.2352310270071029,0.1690485626459121,0.1259206682443618,walking
0.73213037109375,-0.1153546642772853,-0.0251443781286478,0.6472767442852259,-0.1732210665941238,0.2599910199642181,0.136187806725502,walking
0.74220458984375,-0.0286634921655058,-0.0900432590186595,0.5804769982099532,-0.0929278284311294,0.3488226234912872,0.1580398380756378,walking
0.752279296875,-0.0114164431579411,-0.2104179434150457,0.6564549069970845,0.0017190496437251,0.4095589518547058,0.1693542748689651,walking
0.762354248046875,-0.0101435006126761,-0.3581698795586824,1.0111024576485157,0.0807246565818786,0.4015798568725586,0.1585125476121902,walking
0.772428466796875,-0.0265881471961736,-0.5330331099897623,1.3522516443014143,0.1304956078529358,0.3568152189254761,0.1283901631832122,walking
0.782503173828125,-0.0086420100085437,-0.7091209137797355,1.6170324615448712,0.1544419527053833,0.3035661280155182,0.0849151164293289,walking
0.792577392578125,0.1052009345315396,-0.9298708661168812,1.7480992203474044,0.1460186541080474,0.269909143447876,0.0491168946027755,walking
0.80265234375,-0.0656968993999063,-0.5766513024419546,1.5331366192400455,0.1296809613704681,0.1684216558933258,-0.0005675689317286,walking
0.812726318359375,0.0507940754309296,-0.5212836354851722,0.8906418485343456,0.1756334453821182,0.2407775670289993,-0.0170115362852811,walking
0.82280126953125,0.3196918264739215,-0.6993482923060655,0.3723194009423256,0.2553716897964477,0.3579878211021423,0.0040798992849886,walking
0.832875244140625,0.3355539969943463,-0.7983511028498411,0.0307470204412937,0.3433271050453186,0.4327594935894012,-0.0005870134336873,walking
0.8429501953125,0.2881348048239946,-0.8170452819257974,-0.1850561231434345,0.432508647441864,0.5239642262458801,-0.0108606899157166,walking
0.853025390625,0.1132331420786678,-0.5897586212962865,-0.2493237203925848,0.5301761031150818,0.5794885158538818,-0.0234750192612409,walking
0.86309912109375,0.2198771150253713,-0.6375941391825676,-0.0242015443205833,0.6070569753646851,0.6353429555892944,-0.0126067455857992,walking
0.87317431640625,0.4135553744331002,-0.763572634935379,0.4333528385758399,0.6301034092903137,0.6003617644309998,-9.288778528571128e-07,walking
0.883248291015625,0.498588696335256,-0.941838951808214,0.8682675196409225,0.585398256778717,0.513465166091919,0.0137428464367985,walking
0.8933232421875,0.515943589631468,-1.0388152249604463,1.1553057613998652,0.4925483167171478,0.413974404335022,0.0156671442091465,walking
0.903397216796875,0.315352920486778,-0.6888730755209922,1.02427991912961,0.3794614374637604,0.2867189645767212,0.0007166904397308,walking
0.913472412109375,0.5452637921400368,-0.688455726891756,0.5026274503320455,0.3107998967170715,0.2740507125854492,0.0307435579597949,walking
0.923546142578125,0.7959313283570111,-0.7018237425088882,-0.0668476768702268,0.2747364342212677,0.3188189566135406,0.0906178131699562,walking
0.933621337890625,0.6810602098129689,-0.5087637611299752,-0.483967173525691,0.2627838253974914,0.4444095492362976,0.1361874341964721,walking
0.9436962890625,0.5485805154725909,-0.5160416431784629,-0.6863789206176996,0.255985826253891,0.7476117610931396,0.1574999094009399,walking
0.953770263671875,0.6942660206057131,-0.8700982421994209,-0.4729150336354971,0.2319146394729614,1.01296865940094,0.1532134562730789,walking
0.96384521484375,0.8717270124450326,-1.0249322455585002,0.0617863018274307,0.150350272655487,1.045396327972412,0.1492703855037689,walking
0.973919189453125,0.9133990392655134,-1.2002402971476316,0.4726362166941165,0.0259163919836282,0.8943918347358704,0.1355268657207489,walking
0.983994140625,0.8853323439493774,-1.3957564395070077,0.6899620398014783,-0.1099271923303604,0.6839041113853455,0.1124804094433784,walking
0.994068359375,0.4078983715847134,-0.7761264115601778,0.6480483131796121,-0.2754680514335632,0.3585450649261474,0.0508607365190982,walking
1.00414306640625,0.662228229701519,-0.8103057445377111,0.1766921994239091,-0.4062993228435516,0.22932930290699,0.0244270004332065,walking
1.01421826171875,1.0784537001267074,-0.8734276788830757,-0.3984966292500496,-0.4886164665222168,0.1448068022727966,0.0429532714188098,walking
1.024292236328125,0.9365285704404116,-0.4461602977007627,-1.031022379127145,-0.503851056098938,0.163378894329071,0.0613213628530502,walking
1.0343671875,0.5424316374540329,0.3546773612678051,-1.5740028826355934,-0.4412179291248321,0.2833360135555267,0.0771848484873771,walking
1.044441162109375,0.5771896471023559,0.6988350820869207,-1.8781126707047224,-0.3205764889717102,0.4835825562477112,0.1251595616340637,walking
1.054516357421875,1.0572259109199047,0.5597521900892257,-1.696711562937498,-0.1876518875360489,0.6548737287521362,0.2194634079933166,walking
1.064590087890625,1.2242924961254,0.3815174373984337,-1.1445862144649028,-0.0576952099800109,0.6747472882270813,0.2990913987159729,walking
1.074665283203125,1.1848445750951766,0.1815998452097177,-0.5229033456414938,0.0442986153066158,0.6444834470748901,0.349358856678009,walking
1.084739501953125,0.7341413732677697,0.6284077931642532,-0.0319219094395637,0.104712426662445,0.4899095892906189,0.3624472320079803,walking
1.094814208984375,0.8420549277588725,0.4839899698793888,0.1771861204206943,0.1320536881685257,0.411054402589798,0.3921710252761841,walking
1.104889404296875,1.2911971638798714,0.2081464913517236,0.6536854422837496,0.1359589397907257,0.422926515340805,0.4374242424964905,walking
1.11496337890625,1.1569207953810692,0.704037911427021,1.2336030530452728,0.0401417203247547,0.0944129079580307,0.4513494670391083,walking
1.125038330078125,1.2490613189399242,0.5897732343435287,1.261666533491015,-0.090796060860157,-0.0643868595361709,0.4976796805858612,walking
1.1351123046875,1.4450561847269534,0.4494575856804848,1.0564508348941803,-0.2306433767080307,-0.196768045425415,0.587716817855835,walking
1.1451875,0.9836468799680472,0.5360509965062141,0.4416542184531688,-0.3538641333580017,-0.2879599928855896,0.6358782052993774,walking
1.15526123046875,0.4972936880886554,0.4671393728435039,-0.4545388344675302,-0.4168668389320373,-0.2885445654392242,0.6364349126815796,walking
1.16533642578125,0.2251522789493203,0.1294055475920438,-1.43734166482687,-0.3728674352169037,-0.1823504865169525,0.575808048248291,walking
1.17541015625,-0.2182546283900737,0.1168260520040988,-1.7490519910275937,-0.2773089706897735,0.011764895170927,0.4421234130859375,walking
1.1854853515625,-0.4862167060181498,0.5874608657479286,-1.106063883846998,-0.2239834368228912,0.0776291340589523,0.3137417137622833,walking
1.195560302734375,-0.0840402192115783,0.8793395332753657,-0.1713940930157899,-0.239066481590271,0.028556128963828,0.2904247641563415,walking
1.20563427734375,0.5549067958846688,0.9335358183652162,0.6260650294303893,-0.3143138587474823,-0.1223170086741447,0.3888855576515198,walking
1.215709228515625,0.9035267568096518,0.921242153981328,0.8128513373672962,-0.3959631621837616,-0.2848528921604156,0.5569512844085693,walking
1.225783447265625,0.7560470617361367,1.025122799694538,0.4386784175127744,-0.4139658510684967,-0.373551607131958,0.7073306441307068,walking
1.2358583984375,0.2992721387796104,1.182430499690771,-0.126290630441904,-0.3517317771911621,-0.3648441433906555,0.7998427152633667,walking
1.245932373046875,-0.0732322633408009,1.2559797200262546,-0.528386160966754,-0.2432255446910858,-0.2991572916507721,0.8279750347137451,walking
1.256007568359375,-0.155199183409661,1.1176841790139675,-0.6998240931242704,-0.1193388700485229,-0.2206881642341613,0.8188387155532837,walking
1.266082275390625,-0.1802168664187192,0.938189197129011,-0.6352981371998787,-0.0067904880270361,-0.1313646882772445,0.7859417796134949,walking
1.276156494140625,-0.2457002691984176,0.8452659987598657,-0.3741998078614473,0.0681255683302879,-0.065706543624401,0.7314428091049194,walking
1.2862314453125,-0.2625349380128085,0.8065642199218273,0.0464314963072538,0.1042897030711174,-0.0290851425379514,0.6692159175872803,walking
1.296305419921875,-0.2187554175190627,0.7274392452806234,0.5409732553392649,0.092809185385704,-0.0167487692087888,0.5982145071029663,walking
1.30638037109375,-0.1614051984429359,0.6620061113834381,1.0235212097167967,0.0457109212875366,-0.0381579212844371,0.5222963094711304,walking
1.316454345703125,-0.1132305117301642,0.6000409458577632,1.3675807308584451,-0.0467172227799892,-0.0493010804057121,0.4498316645622253,walking
1.326529296875,-0.056325844464451,0.5805307742238044,1.5149515587300062,-0.1540026664733886,-0.027729207649827,0.3917321264743805,walking
1.336603515625,0.009400427160412,0.6183037477791309,1.5712053608715533,-0.279862105846405,0.0165151413530111,0.3610400855541229,walking
1.34667822265625,0.0542145513989031,0.6086310795485973,1.5106494776219128,-0.3848673403263092,0.0532044470310211,0.3549300134181976,walking
1.356753173828125,0.1311469844318926,0.5433581046491861,1.2967431075692175,-0.4468457698822021,0.1005890816450119,0.3547265231609344,walking
1.366827392578125,0.1610882414482533,0.3820417535334825,1.0096002363920211,-0.4659669995307922,0.1128971427679061,0.3516633510589599,walking
1.376902099609375,0.0898790083676576,0.1754220333576202,0.6282149009406566,-0.4357078671455383,0.1209047809243202,0.3278362452983856,walking
1.386976318359375,0.0368093892201781,0.0121136316418647,0.3231125947028398,-0.3727898597717285,0.1261283010244369,0.2935310006141662,walking
1.39705126953125,0.0416660354711115,-0.0968605378180742,0.2203162370949983,-0.2997448146343231,0.0967676043510437,0.2469868510961532,walking
1.407125244140625,0.1233968086965382,-0.2216138756901025,0.1163058275222778,-0.2307087481021881,0.0471742115914821,0.2070903033018112,walking
1.4172001953125,0.1545773982495069,-0.2975871083021164,-0.0168804076522588,-0.1668886989355087,0.0077115301974117,0.1896568983793258,walking
1.4272744140625,0.1883168785050511,-0.329947409158945,-0.0974339537918567,-0.1192681863903999,-0.0367113277316093,0.1775235384702682,walking
1.43734912109375,0.2239221526324749,-0.3748912972569465,-0.1286807404488325,-0.0895600840449333,-0.1012460738420486,0.163596510887146,walking
1.44742431640625,0.3049221273653209,-0.4115238686054944,-0.1741045210182666,-0.0794584527611732,-0.1521295011043548,0.1568033248186111,walking
1.45749853515625,0.3306161022007465,-0.4688812480747699,-0.2297194407343864,-0.0782337486743927,-0.1938930004835128,0.1560142189264297,walking
1.4675732421875,0.2482777184709906,-0.5443792643904686,-0.3657680796027183,-0.0939293578267097,-0.2147940248250961,0.1473200619220733,walking
1.4776474609375,0.1081409335061907,-0.5875690022975206,-0.5048258371591567,-0.1109795942902565,-0.2055751383304596,0.1269248872995376,walking
1.487722412109375,-0.035512481277436,-0.6105874743133783,-0.5531202047288417,-0.1405012756586074,-0.1820296049118042,0.0921400040388107,walking
1.49779638671875,-0.1568101257376372,-0.5883318033635616,-0.6044172612458467,-0.1706875115633011,-0.1330458968877792,0.055880170315504,walking
1.507871337890625,-0.2060536107257008,-0.4998392809182405,-0.6483177777707576,-0.1906036883592605,-0.0906060263514518,0.0223003737628459,walking
1.5179453125,-0.1709814205616712,-0.4294149146050214,-0.7268196520775556,-0.1843392103910446,-0.0667663142085075,-0.0001041669747792,walking
1.528020263671875,-0.0560338757805526,-0.3525888645559549,-0.8234650858402252,-0.1500329077243805,-0.0419872030615806,-0.0120441829785704,walking
1.538095458984375,0.2294191426135599,-0.4039548946559429,-0.9116460581183432,-0.0936172604560852,0.0306676365435123,-0.0081897126510739,walking
1.548169189453125,0.5752567793436348,-0.5648229174822569,-0.9553039980590344,-1.54060762724e-05,0.1338422149419784,0.0196072980761528,walking
1.558244384765625,0.8629929402388632,-0.6232143161743879,-0.707816260921955,0.0877533257007598,0.1074012592434883,0.0504272729158401,walking
1.568318359375,0.9951746745459736,-0.5721066447496413,-0.3264320945143699,0.1248849779367446,-0.142172634601593,0.0656357854604721,walking
1.578393310546875,0.8882317186526953,-0.5064122295677662,-0.085294018664956,0.0943389981985092,-0.5438090562820435,0.0652422532439231,walking
1.58846728515625,0.7062529571279883,-0.4705804532080888,-0.2187099709421396,0.0308625530451536,-0.9165256023406982,0.0637053400278091,walking
1.59854248046875,0.4215881665021181,-0.3316945450872182,-0.7135024898648261,-0.0468729808926582,-1.0913580656051636,0.043691411614418,walking
1.608617431640625,-0.0040760172672569,0.0063093292772769,-1.3691332209974527,-0.1006078496575355,-1.0557407140731812,0.0232812110334634,walking
1.61869140625,-0.4078333435244858,0.4762006311774253,-1.9083575868427751,-0.1234210506081581,-0.7958306074142456,0.0034165964461863,walking
1.6287666015625,-0.5956622193168848,0.9349117828935384,-2.1490490879684687,-0.1209536343812942,-0.3796626627445221,0.0068848310038447,walking
1.63884033203125,-0.4580518110245466,1.25516781912148,-2.0086346551060674,-0.105848453938961,0.0646846145391464,0.0451680570840835,walking
1.64891552734375,-0.0574086712650954,1.267321782773733,-1.5870926658332347,-0.0964107438921928,0.4001379907131195,0.1386801749467849,walking
1.6589892578125,0.3678885788880288,1.0924188048541543,-1.0057295324385165,-0.1035596132278442,0.5211889743804932,0.2620602548122406,walking
1.669064453125,0.5619292418673634,0.8358627951204777,-0.4811860183745622,-0.1177974045276641,0.3914122879505157,0.3729894161224365,walking
1.679138427734375,0.6038854924567043,0.6707090577989816,-0.3264858705282211,-0.1055954173207283,0.1271184682846069,0.4644722044467926,walking
1.689213623046875,0.5109057415947318,0.6637760436654091,-0.5033768073946238,-0.044672418385744,-0.0858017951250076,0.5476203560829163,walking
1.699288330078125,0.2160755307853221,0.7607832964777946,-0.7130781269729137,0.0337083488702774,-0.1954175382852554,0.6203920841217041,walking
1.709362548828125,-0.0915302827060222,0.830932937502861,-0.7883066786974668,0.0931690111756324,-0.2242366671562194,0.6769691109657288,walking
1.719437255859375,-0.3295304258558899,0.8267980296552181,-0.6869593508541584,0.1344959586858749,-0.1350692510604858,0.7245195508003235,walking
1.729511474609375,-0.5780486020192503,0.7262035660058259,-0.4643219773352146,0.1612545996904373,0.0204590912908315,0.7568902969360352,walking
1.73958642578125,-0.830569730213657,0.6008727205067873,-0.0931710356503725,0.1546698212623596,0.1823882162570953,0.7504493594169617,walking
1.749660400390625,-1.027062535585463,0.4072971908211708,0.3781494222700595,0.1335978209972381,0.3450045585632324,0.6955903768539429,walking
1.7597353515625,-1.0640802337940782,0.2358341242223978,0.8711100495904683,0.1028504893183708,0.4528249502182007,0.6008559465408325,walking
1.7698095703125,-0.9718650375638156,0.1077437508821487,1.1836702706187965,0.0908689275383949,0.5198236703872681,0.5019152760505676,walking
1.77988427734375,-0.8403826836977154,0.0472439817339181,1.5366560255378483,0.0970552116632461,0.5691584944725037,0.405701220035553,walking
1.78995947265625,-0.6449059965658932,-0.0118850835829973,1.9818658906459807,0.0995932072401046,0.5373800992965698,0.3143917918205261,walking
1.80003369140625,-0.4034648461166769,-0.0760877989023923,2.373782556983828,0.0810875594615936,0.4123046100139618,0.2310386598110199,walking
1.8101083984375,-0.0684349460616707,-0.1731967585235834,2.6031705738067625,0.0605601780116558,0.2270879000425338,0.1600316017866134,walking
1.8201826171875,0.1983731392256915,-0.2370224572241306,2.6128672074347734,0.0353007353842258,0.0278626792132854,0.1059407889842987,walking
1.830257568359375,0.3776880153033882,-0.2504781511247158,2.470789809796214,0.0064746807329356,-0.1409060955047607,0.0646378248929977,walking
1.84033154296875,0.4191334668263792,-0.1715139200031757,2.2612983335763213,-0.0164423789829015,-0.2710126638412475,0.03532350435853,walking
1.850406494140625,0.344047976834327,-0.0522942508608102,2.07961197912693,-0.0521383248269557,-0.3478808104991913,0.0141329960897564,walking
1.86048046875,0.2529883803799748,0.00796352622509,1.9190496612489223,-0.101182147860527,-0.3708943724632263,0.0002208196092396,walking
1.870555419921875,0.2068273715771734,0.0445756393074989,1.7046277428895231,-0.1625842601060867,-0.3574209213256836,-0.0021730959415435,walking
1.880630615234375,0.1160481994993984,0.0944090530127286,1.518437647280097,-0.2195204198360443,-0.3541315197944641,-0.0059800911694765,walking
1.890704345703125,0.1093655799303203,0.0552577768415212,1.194787876960635,-0.248922511935234,-0.341436505317688,-0.0083090253174304,walking
1.900779541015625,0.1049111578047275,-0.0427092609137296,0.7482984934359789,-0.2319088578224182,-0.2693830728530884,0.0035970942117273,walking
1.910853515625,-0.0075691931452602,-0.0032388357907533,0.3643020987033843,-0.1775891631841659,-0.1849739104509353,0.0210578422993421,walking
1.920928466796875,-0.1614410734739154,0.0780611448019742,0.1638479154199361,-0.0911402627825737,-0.0958418697118759,0.0430902615189552,walking
1.93100244140625,-0.2639364023085683,0.1036240406036377,0.1310702659338712,0.0031998245976865,-0.0015356114599853,0.064863197505474,walking
1.94107763671875,-0.2163139426510781,0.0052063364714384,0.2720499314635992,0.0843443945050239,0.0723101049661636,0.0952727496623992,walking
1.9511513671875,-0.1010754520993679,-0.1435702665448188,0.4900128834307193,0.1468354761600494,0.0806982666254043,0.1197770312428474,walking
1.9612265625,-0.0025532646793872,-0.3684907825648784,0.5918903726279735,0.1922420859336853,0.0422133542597293,0.1388277113437652,walking
1.971301513671875,0.0363655909754335,-0.5649515122979879,0.5727765068352222,0.2292637526988983,0.0038036454934626,0.1403281390666961,walking
1.98137548828125,-0.0021337971583008,-0.6335913332819938,0.4637818791091442,0.2711518406867981,-0.0114985005930066,0.1323911845684051,walking
1.991450439453125,-0.0724895552147179,-0.6769102505266666,0.3947989437758922,0.3022868633270263,0.0110190585255622,0.1079923659563064,walking
2.001524658203125,-0.0889504953458905,-0.7221165889531374,0.34911037479043,0.3103065192699432,0.0654070079326629,0.0756525471806526,walking
2.011599365234375,-0.0231538618985563,-0.7718243304520845,0.3597451660513878,0.2941115796566009,0.1399443596601486,0.0543650984764099,walking
2.021673583984375,0.0813859053105115,-0.8019517576903105,0.3596270926296711,0.2515083253383636,0.2305934280157089,0.0380059257149696,walking
2.03174853515625,0.1793930558804422,-0.8760989439189434,0.3770604579895734,0.1926173120737075,0.3258443176746368,0.0269599296152591,walking
2.041822509765625,0.3728000240661203,-0.9455413134574888,0.3957400240182876,0.12603060901165,0.4162238240242004,0.0406391620635986,walking
2.0518974609375,0.5244683299358934,-1.0114432339102029,0.4043348338842392,0.0561029352247715,0.4656091928482055,0.0700447186827659,walking
2.06197216796875,0.5781920290779322,-1.062993972927332,0.3781815709739923,-0.0105117838829755,0.4520174562931061,0.1034397035837173,walking
2.07204638671875,0.5611695826064795,-1.1312047548443078,0.158825703343749,-0.0487726218998432,0.4159031212329864,0.1314071714878082,walking
2.082121337890625,0.4224338235460221,-1.129170034146309,-0.0742915631353855,-0.0521718226373195,0.4150424301624298,0.1457444727420807,walking
2.0921953125,0.2666534792475402,-1.0666624323070049,-0.272855987149477,-0.0395503044128418,0.4153468310832977,0.1406208127737045,walking
2.102270263671875,0.2113011559903621,-1.1054016205459831,-0.3731692957699298,-0.035301849246025,0.5296216607093811,0.1255635768175125,walking
2.112344482421875,0.4752059941168874,-1.365271869394183,-0.212774735674262,-0.0574668049812316,0.7690214514732361,0.1130704060196876,walking
2.122419189453125,0.8664529444996267,-1.60125680026412,0.3589057926177978,-0.1505644917488098,0.8401156663894653,0.1236970424652099,walking
2.132493408203125,1.1023327344946563,-1.8217150761783123,0.90980598320961,-0.3341756165027618,0.6382049322128296,0.1416542083024978,walking
2.142568359375,1.1553953393794596,-2.022644475758076,1.0326339059770109,-0.5727019309997559,0.1416982114315033,0.1552449166774749,walking
2.152643310546875,0.9680558545392006,-2.066879923325777,0.4910089087307452,-0.7940571904182434,-0.451229065656662,0.1537966877222061,walking
2.16271728515625,0.4665579196937382,-1.8330775971919295,-0.8011597305297851,-0.9163356423377992,-0.8465095162391663,0.1207301020622253,walking
2.17279248046875,-0.28021475241445,-1.3396353238344192,-2.418413725870848,-0.9094721674919128,-0.9333969950675964,0.0448060408234596,walking
2.1828662109375,-0.8897375201057642,-0.6966559844821691,-3.866143513721227,-0.7705796360969543,-0.7127091884613037,-0.053849346935749,walking
2.19294140625,-1.3274655780911444,-0.0422585945367813,-4.617552248132228,-0.5246779918670654,-0.2052555680274963,-0.1377407908439636,walking
2.203015380859375,-1.4150520916074514,0.5692512553185224,-4.439088947382569,-0.2347224056720733,0.4365842044353485,-0.1809415817260742,walking
2.21309033203125,-1.0860638098042457,0.9684405430078504,-3.466584223675728,0.019571928307414,0.93398916721344,-0.1654169410467147,walking
2.22316455078125,-0.3518734097629785,0.9429390220046044,-2.091339826321602,0.1938764303922653,1.1274875402450562,-0.0939828231930732,walking
2.2332392578125,0.380970324909687,0.645989627084136,-0.7432809575349092,0.2745933532714844,1.060489058494568,0.0154994623735547,walking
2.243314453125,0.8627639537885785,0.2915758851885795,0.2624105809807777,0.2788224518299103,0.8093898892402649,0.1139405518770217,walking
2.253388427734375,1.0513735316298902,0.1093260516375303,0.9099620505541562,0.2431912422180175,0.4854102432727813,0.1683345437049865,walking
2.26346337890625,0.9187133661560714,0.1456944190919399,1.2153840902656317,0.1771446019411087,0.1749879121780395,0.1697330772876739,walking
2.273537353515625,0.5941524723410606,0.2949889085024595,1.220489888972044,0.0870258957147598,-0.0617788285017013,0.1414316594600677,walking
2.283612548828125,0.3061277037627994,0.5501783060580492,0.9550187513768672,-0.0101394392549991,-0.1860537528991699,0.1328011304140091,walking
2.293686279296875,0.0251245043843984,0.8129378466069698,0.6153045659631491,-0.1104306206107139,-0.2338351160287857,0.1537921726703643,walking
2.303761474609375,-0.216759275265783,0.9326642962276936,0.2538093413740396,-0.1944813877344131,-0.2100945264101028,0.1721087098121643,walking
2.31383544921875,-0.4783326747700572,1.0338736769050358,-0.1566518664360046,-0.2335970997810363,-0.1055287048220634,0.1864077448844909,walking
2.323910400390625,-0.7143259350769221,1.1596925981819628,-0.4230085546940564,-0.2324974238872528,0.0484646670520305,0.1867123246192932,walking
2.333985595703125,-0.8715912572361528,1.1853969482809303,-0.3693903617531061,-0.208046406507492,0.2168174684047699,0.1583664417266845,walking
2.3440595703125,-0.9129514416284858,1.1696055049091576,-0.0515478164076805,-0.1964520663022995,0.3328311443328857,0.1276226341724395,walking
2.354134521484375,-0.7848368106298148,1.0957529177129268,0.2471744334042072,-0.2005016654729843,0.3329997360706329,0.1004669144749641,walking
2.36420849609375,-0.577804125738889,1.0913666654527188,0.4636263962864875,-0.1940770447254181,0.2763724029064178,0.0900476649403572,walking
2.37428369140625,-0.4471713744394481,1.2110106974869963,0.6366244173675775,-0.1754578202962875,0.1760402023792266,0.0951494798064231,walking
2.384357421875,-0.4293137923181057,1.322352765122056,0.771605134743452,-0.1481066942214965,0.0544119998812675,0.1198843717575073,walking
2.3944326171875,-0.4546411257982253,1.4077519977271555,0.8521732939302921,-0.1191751733422279,-0.0536438971757888,0.149940550327301,walking
2.40450634765625,-0.5025580383576452,1.4529150815337897,0.9480822301119566,-0.0921097174286842,-0.1172220781445503,0.1786836087703704,walking
2.41458154296875,-0.5591830118991434,1.5192103852182626,1.0916565883100031,-0.0656919553875923,-0.1356940269470214,0.2087653428316116,walking
2.424656494140625,-0.6404223483458161,1.5712310798346996,1.2997943118333817,-0.0631609931588172,-0.1575658172369003,0.2285083085298538,walking
2.43473046875,-0.5760046751014888,1.4590198281496762,1.3740782761842012,-0.0757209956645965,-0.2332163602113723,0.2308457642793655,walking
2.44480517578125,-0.5059670430835336,1.2913807037532328,1.1937702243506907,-0.0725085735321044,-0.2759360373020172,0.2311060577630996,walking
2.454879150390625,-0.5570709881812334,1.2707406513065098,0.9276929375559092,-0.0249016433954238,-0.2904129922389984,0.2351977378129959,walking
2.4649541015625,-0.7157903085410594,1.3611439758092163,0.7813403468161821,0.0489793866872787,-0.2722620964050293,0.2321145236492157,walking
2.475028076171875,-0.8697920257944614,1.3043968371927737,0.8248135778397321,0.1165163442492485,-0.2520039677619934,0.2049702554941177,walking
2.485103271484375,-0.8833789448592811,1.0934656835585832,0.9676151980996132,0.1467030048370361,-0.2332838177680969,0.1607407331466674,walking
2.495177001953125,-0.861845377638936,0.846253840753436,1.202511164689064,0.142861396074295,-0.2301364988088607,0.0994512736797332,walking
2.505252197265625,-0.7865192838240415,0.6609452041536569,1.431742529645562,0.0864525213837623,-0.2570430934429168,0.0243763960897922,walking
2.5153271484375,-0.6492997745454311,0.5332569818735122,1.5247347015976904,0.0040247575379908,-0.2898156940937042,-0.043215699493885,walking
2.525401123046875,-0.5218426576074212,0.4218529549181461,1.5251415288329124,-0.0975887179374694,-0.3177200555801391,-0.0855664312839508,walking
2.53547607421875,-0.4341928695965558,0.3118172937065362,1.4148656291246413,-0.1965768039226532,-0.3276035785675049,-0.1109913662075996,walking
2.545550048828125,-0.4363939598374068,0.143163439309597,1.2138052966415882,-0.2869563996791839,-0.339533120393753,-0.1366324722766876,walking
2.555625,-0.4827214112482965,-0.0663765522271394,0.91836630628407,-0.3559674322605133,-0.338083803653717,-0.1763239502906799,walking
2.56569921875,-0.5197843368381262,-0.2776099036782979,0.5833563530385494,-0.4009284973144531,-0.3156280517578125,-0.2390810549259185,walking
2.57577392578125,-0.5793201563250273,-0.381429174593091,0.2036526870638132,-0.4076138138771057,-0.2701330184936523,-0.3067168295383453,walking
2.58584814453125,-0.6229289233617484,-0.4157195667296647,-0.1221434476345777,-0.382706731557846,-0.2040158659219741,-0.3753035962581634,walking
2.595923095703125,-0.6088868809405714,-0.4861813424438237,-0.2514490419834852,-0.3355315029621124,-0.1626087576150894,-0.4385587573051452,walking
2.605998046875,-0.5080870309121907,-0.6348112304657697,-0.3272276288062334,-0.2930319011211395,-0.1960382908582687,-0.4903578460216522,walking
2.616072021484375,-0.3965396499633788,-0.8157301076740026,-0.4607610699832439,-0.2499544769525528,-0.2749959528446197,-0.5314823985099792,walking
2.626147216796875,-0.3211067347731441,-0.9530939207941294,-0.6631394993275403,-0.1928829401731491,-0.3658374547958374,-0.5631139278411865,walking
2.636220947265625,-0.2952707941837608,-0.982792893487215,-0.8265870172530412,-0.1251513063907623,-0.4470039308071136,-0.587279736995697,walking
2.646296142578125,-0.2610863466396927,-0.941451413795352,-0.90165599450171,-0.0581610314548015,-0.5234473347663879,-0.603392481803894,walking
2.656369873046875,-0.1873367083612829,-0.9205050718784332,-0.8920867866456508,-0.0037683665286749,-0.5879104733467102,-0.6029407978057861,walking
2.666445068359375,-0.0914773104097694,-0.9215522428438068,-0.8172235611021518,0.0366732776165008,-0.630287230014801,-0.5901647210121155,walking
2.676519287109375,0.0029908523790538,-1.0516019335582851,-0.7124988657802342,0.0523329302668571,-0.5736881494522095,-0.5746139883995056,walking
2.686593994140625,0.208471704718098,-1.275028411628306,-0.532448003578186,0.0479360781610012,-0.5043919086456299,-0.5641593933105469,walking
2.6966689453125,0.2492548198748379,-1.3943801827177404,-0.366288888606429,0.0128566529601812,-0.5568386316299438,-0.5513860583305359,walking
2.7067431640625,0.0226525613129138,-1.3199462885022162,-0.2135918972760438,-0.0379824675619602,-0.7221525311470032,-0.5499684810638428,walking
2.71681787109375,-0.3842595026481896,-1.1686316914409398,-0.1522200214684009,-0.1158676743507385,-0.9413400292396544,-0.5744357109069824,walking
2.72689208984375,-0.7172844195563346,-1.1571899677112698,-0.2936772413820028,-0.2146801203489303,-1.1142486333847046,-0.6281538605690002,walking
2.736967041015625,-0.8856817419089377,-1.1371847060367464,-0.493847931548953,-0.326526790857315,-1.2474085092544556,-0.6935526132583618,walking
2.747041015625,-1.0938450382649898,-1.0508180897042154,-0.7542576941013336,-0.4391652345657348,-1.3660873174667358,-0.7699134349822998,walking
2.757115966796875,-1.50408091288656,-0.8147828899517655,-1.1915203995972872,-0.5619742274284363,-1.4396086931228638,-0.8745764493942261,walking
2.767190185546875,-1.9277859254121776,-0.3802119077578186,-1.6994330968558786,-0.6571628451347351,-1.3687840700149536,-1.0078749656677246,walking
2.777264892578125,-2.166806570716202,0.1441685246989131,-2.1844003873348234,-0.6991193890571594,-1.0921159982681274,-1.1395717859268188,walking
2.78733984375,-2.056128958339244,0.6132207454264164,-2.508436526623368,-0.6629601716995239,-0.613031804561615,-1.2332347631454468,walking
2.7974140625,-1.602116339702904,0.9898433965206146,-2.370976851913333,-0.5665755867958069,-0.0567909553647041,-1.247854709625244,walking
2.80748876953125,-0.921084113875404,1.1758631039991974,-1.6810189037650822,-0.4823731780052185,0.3601819574832916,-1.17355215549469,walking
2.81756298828125,-0.2658693431325257,1.076750111079216,-0.7225619946330786,-0.4526413977146148,0.4700349569320678,-1.0405664443969729,walking
2.82763818359375,0.3267163913484662,0.8679536313861608,0.0094821140944957,-0.4449315965175628,0.3324203193187713,-0.8779032230377197,walking
2.8377119140625,0.8829676606446504,0.6605445143982768,0.2283539976000785,-0.4139092266559601,0.0752082020044326,-0.6973899006843567,walking
2.847787109375,1.163645281330496,0.6005120705008506,0.0714005178689956,-0.3316783607006073,-0.1804510802030563,-0.5024544596672058,walking
2.85786083984375,1.0141448940843345,0.6816179898262024,-0.240574596747756,-0.2143868803977966,-0.4081036746501922,-0.3088554441928863,walking
2.86793603515625,0.5222189070412889,0.7374842539548874,-0.6226736334264278,-0.0838340818881988,-0.5903213024139404,-0.1289367079734802,walking
2.878010986328125,-0.1028088152306154,0.6832645879894494,-0.9085597825407982,0.0483878664672374,-0.6781795024871826,0.0133304093033075,walking
2.8880849609375,-0.7363881292812526,0.5451935033828019,-1.109085277494788,0.1584020555019378,-0.657390296459198,0.0994979590177536,walking
2.898159912109375,-1.4233677922710777,0.4104579929396509,-1.210999007049203,0.2482395321130752,-0.5394628643989563,0.1132947281002998,walking
2.908234130859375,-2.0210459545202557,0.3489586913600563,-1.0531740051805971,0.296496570110321,-0.377255767583847,0.0568678565323352,walking
2.918308837890625,-2.401192103565484,0.252592659060657,-0.6776011554002761,0.3009776175022125,-0.2119331359863281,-0.0502540692687034,walking
2.928383056640625,-2.497389647430181,0.1149050208136439,-0.2427022564262151,0.2746756970882416,-0.0851099416613578,-0.1940088272094726,walking
2.9384580078125,-2.3384343263573943,0.0344818230554461,0.1422778886467218,0.2382892221212387,-0.0252223741263151,-0.3383926451206207,walking
2.948531982421875,-2.047947843840718,0.0477004933297634,0.5168371774703264,0.1965624541044235,-0.0562112592160701,-0.4529634416103363,walking
2.95860693359375,-1.7042609554037451,0.1402943136140704,0.8256155418723821,0.1388240605592727,-0.1615201085805893,-0.5341541767120361,walking
2.968680908203125,-1.3912259564705192,0.2697296718224883,0.95824005151093,0.0642958506941795,-0.2745815813541412,-0.5780483484268188,walking
2.978755859375,-1.1767403982903808,0.3857312557011843,0.930607948219776,-0.0092239091172814,-0.3380140960216522,-0.5838927030563354,walking
2.9888310546875,-1.026866720752418,0.4459007699817419,0.791637284424901,-0.0847916007041931,-0.335647314786911,-0.5719935894012451,walking
2.99890478515625,-0.9100253250487148,0.4261307783678174,0.6771861448585986,-0.1542995721101761,-0.2924175560474396,-0.5469899773597717,walking
3.00897998046875,-0.8174944869980215,0.3386050551280379,0.6303548355787992,-0.2082295715808868,-0.2438840270042419,-0.5261523723602295,walking
3.019053955078125,-0.7580595706023275,0.2760325713589787,0.6893354323357344,-0.2504787743091583,-0.2145756781101226,-0.4944215714931488,walking
3.02912890625,-0.702317517375201,0.1951443864375352,0.8303811488389968,-0.2809216678142547,-0.236577421426773,-0.4614672660827636,walking
3.039202880859375,-0.6834516349941492,0.1018774891972541,0.9263660728663206,-0.288073867559433,-0.2726355791091919,-0.425200343132019,walking
3.049278076171875,-0.7092595185328274,-0.0088207275763154,0.9614648587763308,-0.2796029150485992,-0.3020566701889038,-0.3992312252521515,walking
3.059351806640625,-0.7219369946025311,-0.1568199164792895,0.8738543798625469,-0.2376267313957214,-0.3082847595214844,-0.3875601887702942,walking
3.069427001953125,-0.7442062556862831,-0.3084662297129631,0.7772042699247598,-0.1635865867137909,-0.2728047370910644,-0.3833012580871582,walking
3.079502197265625,-0.8360526186041534,-0.4164011192530393,0.848523539251089,-0.0752127766609191,-0.2175079435110092,-0.4115094542503357,walking
3.089575927734375,-0.9070122608378528,-0.5400412351861595,0.973674936529994,0.0043826862238347,-0.1955155432224273,-0.4634158909320831,walking
3.099651123046875,-0.9097302876248956,-0.701574151661992,0.9632780456781388,0.0836274400353431,-0.1734853386878967,-0.5310519933700562,walking
3.10972509765625,-0.8358706131007522,-0.8027206962361931,0.9573848959863184,0.1798180937767028,-0.1072379946708679,-0.605742871761322,walking
3.119800048828125,-0.7471506385751068,-0.8417407472431659,1.0520698433309792,0.2715778648853302,-0.0357286594808101,-0.6745030283927917,walking
3.1298740234375,-0.5097888663940131,-0.8122671077385545,1.2719395057022571,0.3389026820659637,-0.044889211654663,-0.7168867588043213,walking
3.13994921875,-0.1278359236551448,-0.8095794760897755,1.4921657264262438,0.3615131974220276,-0.1461074352264404,-0.7285466194152832,walking
3.15002294921875,0.2702413476716727,-0.8634867151051759,1.5765613349467515,0.3591910004615783,-0.242616057395935,-0.7187214493751526,walking
3.16009814453125,0.5123327421905473,-0.8955755055442451,1.5207634598791595,0.3276402652263641,-0.2729936838150024,-0.7006953358650208,walking
3.170173095703125,0.6094738870482892,-0.9030983022645116,1.473207343456149,0.2728893458843231,-0.2237737774848938,-0.6856172680854797,walking
3.1802470703125,0.6166315037179738,-0.9664362174481153,1.4656646729916334,0.1837506592273712,-0.165229246020317,-0.6723752617835999,walking
3.190322021484375,0.7018945427227765,-1.0660910621598363,1.4037515299141403,0.0694788917899131,-0.1437189728021621,-0.6576969027519226,walking
3.20039599609375,0.8102646818749606,-1.1797516358703375,1.2429828758090733,-0.0543993823230266,-0.1555724292993545,-0.6398558616638184,walking
3.21047119140625,0.8408530046232044,-1.2781234550341962,0.949191068136692,-0.1637838333845138,-0.2243838608264923,-0.6296932101249695,walking
3.220545166015625,0.820694890474528,-1.2586354952320455,0.4934826053678989,-0.2590514719486236,-0.286076009273529,-0.6315787434577942,walking
3.2306201171875,0.7605150739956646,-1.0916633103117346,-0.043012627774477,-0.3111039698123932,-0.2938227653503418,-0.6382150650024414,walking
3.240694091796875,0.7487059051930904,-0.9592296470701694,-0.606242723107338,-0.3443207740783691,-0.2482848316431045,-0.6363309025764465,walking
3.250769287109375,0.8655825183406471,-0.8631324948400259,-1.2032856561928986,-0.3414873480796814,-0.1458622515201568,-0.6261413097381592,walking
3.260843994140625,1.1180272933632134,-0.8275272207126021,-1.7637527165532112,-0.2766827940940857,0.0872692838311195,-0.5981307625770569,walking
3.270918212890625,1.4312687746539712,-0.751276632463932,-2.091016585716605,-0.1615598350763321,0.3579181432723999,-0.5451794266700745,walking
3.2809931640625,1.842998979486525,-0.6916039617896079,-2.1891613181263208,-0.0104573974385857,0.5312905311584473,-0.4642491042613983,walking
3.291067138671875,2.3323561754874884,-0.7654957119524478,-2.1802239784330126,0.1598561555147171,0.6098541021347046,-0.3402414917945862,walking
3.30114208984375,2.754402168759704,-0.9034846712335944,-2.044169494345784,0.3309171199798584,0.6385509967803955,-0.1819407939910888,walking
3.31121630859375,3.0394664800971745,-0.9862219911530612,-1.6473779154479502,0.4444121718406677,0.5528011918067932,-0.0084350733086466,walking
3.321291015625,3.0060125387847423,-1.0356611448436974,-1.0964373928457498,0.4660399556159973,0.3302093744277954,0.1440311670303344,walking
3.331365234375,2.620112648518383,-1.005081589923799,-0.5944990938216448,0.3778920173645019,-0.1295190304517746,0.2635486125946045,walking
3.341440185546875,1.8055127139180895,-0.9547139232113956,-0.6247030934274196,0.2024195492267608,-0.6811337471008301,0.3292650282382965,walking
3.35151416015625,0.8093073080848902,-0.8859887620314956,-1.3631155681431293,0.0366804040968418,-1.017890453338623,0.3303807079792022,walking
3.361589111328125,-0.1392418819516897,-0.605854600572586,-2.489570498111844,-0.035169817507267,-0.9592025876045228,0.2671250402927398,walking
3.371663818359375,-0.9257125043284148,0.0066404609277844,-3.3398628006011246,-0.0009044032194651,-0.5792882442474365,0.1586868166923523,walking
3.381738037109375,-1.1252944348219782,0.7416977799966931,-3.5064679057747123,0.1080321967601776,-0.1238945797085762,0.0497824326157569,walking
3.39181298828125,-0.7582206063829362,1.14283849401474,-3.0603730745255944,0.2334227263927459,0.2685236632823944,-0.02319847792387,walking
3.401886962890625,0.0382642276709899,1.1354831628158688,-2.065160259926319,0.3348681330680847,0.4757434129714966,-0.0285764653235673,walking
3.4119619140625,0.8514354811750352,1.0344058840855956,-0.9425538220793008,0.3608356416225433,0.349269688129425,0.0247714482247829,walking
3.4220361328125,1.314686322147399,0.9479331770300864,-0.161867555257678,0.3181933760643005,0.0094721838831901,0.1072482094168663,walking
3.43211083984375,1.4674895503312348,0.8644546833544969,0.0289461084991693,0.2460698932409286,-0.3303450345993042,0.1739071458578109,walking
3.44218505859375,1.224139351390302,0.967257470703125,-0.2092839709490537,0.1699410825967788,-0.5809963345527649,0.2185873389244079,walking
3.452260009765625,0.6597716303296387,1.1718921545416117,-0.6799018335580825,0.0984321311116218,-0.7260993719100952,0.2174955308437347,walking
3.462334716796875,0.1325103817395866,1.4182389049500226,-1.1591770498752594,0.0461148582398891,-0.6857910752296448,0.1774306744337082,walking
3.472408935546875,-0.2711445801217109,1.67100779736042,-1.4688976635634898,0.0073339976370334,-0.4521311521530151,0.1258372515439987,walking
3.48248388671875,-0.5371078486153855,1.949305975563824,-1.5193693751722572,-0.0013271345524117,-0.0989120751619339,0.0761631727218627,walking
3.492557861328125,-0.4907185109494253,2.231422250750661,-1.2440741781771183,-0.0012563822092488,0.2068275213241577,0.0506884343922138,walking
3.5026328125,-0.0656265010448172,2.337237956179678,-0.7591606637120246,0.0230225920677185,0.4014513492584228,0.0542235150933265,walking
3.512706787109375,0.4447087471855804,2.295977432769537,-0.1730477054417133,0.0672961696982383,0.5251763463020325,0.1014907136559486,walking
3.52278173828125,0.7532548006691038,2.249528108544648,0.4701794711917638,0.1225884482264518,0.5773289799690247,0.1611125022172927,walking
3.53285595703125,0.870616420854628,2.191258874927461,1.0971265441536904,0.1511558145284652,0.5543517470359802,0.2050610333681106,walking
3.5429306640625,0.9754903884541244,2.131074747599661,1.6195312926232814,0.1687270849943161,0.4721311926841736,0.2361694276332855,walking
3.553005859375,1.0827927522443237,2.0513582368060943,1.9956419025421144,0.1738246083259582,0.3882579803466797,0.2607671022415161,walking
3.563079833984375,1.119587382286787,2.006983088506758,2.2074404866605994,0.1630441397428512,0.3153563439846039,0.2815696001052856,walking
3.57315478515625,1.1098857802227138,1.9477572848170996,2.347472642207145,0.1258678436279297,0.2568969428539276,0.2870887219905853,walking
3.583228759765625,1.0607393258683382,1.9108868130594487,2.298726439216733,0.069845050573349,0.2338811010122299,0.2937668561935425,walking
3.593303955078125,1.0793628508608788,1.8515327068150045,2.188446447855234,0.0052604032680392,0.2492085695266723,0.3058638274669647,walking
3.603377685546875,1.124989752786979,1.788620908088982,2.0930764408558606,-0.0671450868248939,0.2634900212287903,0.3306163251399994,walking
3.613452880859375,1.2509835191741585,1.7003183552578092,1.9479636210441589,-0.1463014036417007,0.2370160818099975,0.370289534330368,walking
3.623526611328125,1.4084592692136764,1.5856754925116896,1.622961851593852,-0.2042070478200912,0.1977400481700897,0.4300988018512726,walking
3.633601806640625,1.449384715450555,1.4536299518048763,1.0409411310732364,-0.204188123345375,0.1947181969881057,0.5051159858703613,walking
3.64367578125,1.3741310292847453,1.3868001028522847,0.5118646497547626,-0.1441743224859237,0.2286000102758407,0.5693615674972534,walking
3.653750732421875,1.2749170602083206,1.2902376711979509,0.2425292379468679,-0.0500313527882099,0.2606467604637146,0.6195399761199951,walking
3.663825927734375,1.217705518950522,1.1161477632269263,0.1654126805186271,0.0431350767612457,0.2741367518901825,0.6508259773254395,walking
3.67389990234375,1.236170273184776,0.9277204100847244,0.1948199767887592,0.1149946451187133,0.2692490816116333,0.6764142513275146,walking
3.68397509765625,1.2161717335119844,0.7434142285257578,0.2778969039261341,0.1600678563117981,0.2239609658718109,0.6974260807037354,walking
3.694048828125,1.197016220534593,0.6058733052730559,0.3221118932276964,0.1846200078725814,0.1786054372787475,0.7191370725631714,walking
3.7041240234375,1.1441133362561464,0.5299453731074929,0.378124287828803,0.1896523088216781,0.1485993415117263,0.7374758720397949,walking
3.71419775390625,1.0772247428536414,0.4523676279082894,0.3371493033617734,0.1714337766170501,0.1168235167860984,0.756415069103241,walking
3.72427294921875,0.9634290715213863,0.4605336909681558,0.2452852586567401,0.1384377479553222,0.1097613498568534,0.779866635799408,walking
3.734346923828125,0.8354111058302223,0.2591568398818373,0.0607955372244119,0.1075775101780891,0.120306558907032,0.7817783355712891,walking
3.744421875,0.9776597683824598,-0.0635702626347541,-0.1887286741763353,0.0923061445355415,0.2142351865768432,0.8001512289047241,walking
3.754496826171875,0.9365968133710324,-0.1062491284102201,-0.3687590781122445,0.0821124836802482,0.2795237898826599,0.8097147345542908,walking
3.764571044921875,0.8704321503289043,-0.1462789409816265,-0.5229939465343952,0.0838430076837539,0.3581666946411133,0.8226938843727112,walking
3.774645751953125,0.9279230930499732,-0.3216387227579951,-0.6088146194219589,0.1016865074634552,0.4301772117614746,0.8547873497009277,walking
3.784719970703125,0.9709583710476756,-0.5332990674495697,-0.6477917080700397,0.1170753240585327,0.4689115583896637,0.8878459334373474,walking
3.794794921875,0.93270813536942,-0.741720284089446,-0.6765759040057658,0.1324601620435714,0.4514095783233642,0.8972621560096741,walking
3.804868896484375,0.7446010271575302,-0.8984320640191436,-0.7109843695640563,0.1580089330673217,0.4242756962776184,0.878662645816803,walking
3.814944091796875,0.4640613901702687,-0.944962929047644,-0.7312655255705117,0.1876425594091415,0.3724765479564667,0.8179611563682556,walking
3.825017822265625,0.1856921560246497,-0.9071607293978332,-0.7808452567756176,0.2282075583934784,0.289217084646225,0.7315115332603455,walking
3.835093017578125,0.0423167909974232,-0.8371338379696011,-0.9026987815529108,0.2813767492771148,0.2424987405538559,0.6469789743423462,walking
3.84516796875,0.0586528626399114,-0.7070411848962307,-0.9740753340244293,0.3562128841876983,0.3195083141326904,0.5845859050750732,walking
3.855241943359375,0.1863925228463485,-0.634722967660427,-0.9144780666738748,0.420477032661438,0.5326610803604126,0.5459491014480591,walking
3.86531689453125,0.5919471808491275,-0.7949135296165942,-0.5653928263247012,0.4555782973766327,0.7244009971618652,0.5429956912994385,walking
3.87539111328125,0.9929171048775316,-1.000951065990329,-0.0632025983661413,0.4314031302928924,0.6967654824256897,0.5742486715316772,walking
3.8854658203125,1.172282761294395,-1.1843261041790247,0.3118845137238502,0.3498880267143249,0.5370634198188782,0.6067994236946106,walking
3.8955400390625,0.9714582103285938,-1.1996177813351154,0.3703390407800674,0.2545656263828277,0.3216683864593506,0.6217902898788452,walking
3.905614990234375,0.4879140479879453,-1.0770300970643758,0.0553039540708065,0.1697063893079757,0.1304955035448074,0.5994298458099365,walking
3.91568896484375,-0.0523190565085038,-0.8765624697774648,-0.4934948803275823,0.1235530450940132,0.0365858636796474,0.5436609387397766,walking
3.925763916015625,-0.3721997566180303,-0.6578115823030471,-1.0110966124296188,0.1213815063238143,0.0660457536578178,0.4679502248764038,walking
3.935838134765625,-0.4296590255592018,-0.4315525111556053,-1.3339631234169005,0.1690781861543655,0.1737599521875381,0.4019541442394256,walking
3.945912841796875,-0.3342014133416116,-0.1960907273769378,-1.3917723383069038,0.2330193519592285,0.2940743863582611,0.3558468520641327,walking
3.955988037109375,-0.0560907935995608,-0.0458346994578838,-1.2280863354504108,0.297707587480545,0.3563534915447235,0.3472481071949005,walking
3.966061767578125,0.2133733226219192,0.0759907682687044,-1.126968724709749,0.3484588861465454,0.3336316645145416,0.376123696565628,walking
3.976136962890625,0.2883354419626295,0.2402110241323709,-1.04044954816401,0.3881736397743225,0.2380565553903579,0.4274450242519378,walking
3.9862109375,0.2515413599094376,0.4152852669656276,-1.0419915169090033,0.401240199804306,0.0820467099547386,0.4827556908130646,walking
3.9962861328125,0.0246368669979274,0.6050275020986795,-1.3000643609464169,0.3981137573719024,-0.0388353876769542,0.5372622013092041,walking
4.00635986328125,-0.2976382174348458,0.8035533476680516,-1.630281819218397,0.3755562603473663,-0.0539661385118961,0.5796724557876587,walking
4.01643505859375,-0.5879363743051886,0.9117617934525012,-1.8534253886938092,0.3585328459739685,0.0246080327779054,0.5941449403762817,walking
4.0265087890625,-0.7939442461930215,1.0214987639784812,-1.8747464091420167,0.3413155078887939,0.2084830552339553,0.5887973308563232,walking
4.036583984375,-0.8682754837516695,1.1169330683857202,-1.664510252034664,0.3307859599590301,0.4304344356060028,0.5726435780525208,walking
4.046658935546875,-0.8072982332848012,1.1654553994923829,-1.275954586562514,0.3323127627372741,0.6048611402511597,0.5414084196090698,walking
4.05673291015625,-0.5360189574001356,1.1406062049180268,-0.6847738235086203,0.3435508906841278,0.7015396356582642,0.5143341422080994,walking
4.066807861328125,-0.1984662426029332,1.1277648435235024,-0.0913753844052553,0.3562112748622894,0.7223026752471924,0.5032827854156494,walking
4.076882080078125,0.062427230079472,1.1380243717312812,0.3915314664125442,0.3703370988368988,0.6909193396568298,0.5117663741111755,walking
4.086956787109375,0.2167955156229436,1.1970792027682065,0.787120099261403,0.3840920627117157,0.6572244763374329,0.5244928002357483,walking
4.097031005859375,0.3199645790006965,1.2004507250279188,1.1909949144184588,0.3872963786125183,0.6063826084136963,0.5388033986091614,walking
4.10710595703125,0.4388501208178699,1.1323749676674604,1.528829277434945,0.3746578097343445,0.5518293380737305,0.5384625196456909,walking
4.117179931640625,0.5469772084617986,1.0838660805642604,1.7695371451735495,0.3510985076427459,0.5253635048866272,0.537634015083313,walking
4.1272548828125,0.6381257618412375,1.0646300496965646,1.9580431165099144,0.3194495141506195,0.5471500158309937,0.5338405966758728,walking
4.137329833984375,0.7146119124114513,0.9913356809049844,2.229135016596317,0.2607516944408417,0.5629265904426575,0.5312458872795105,walking
4.14740380859375,0.8932923630431294,0.851183113849163,2.506985743293166,0.1711722463369369,0.5204704999923706,0.5304772853851318,walking
4.157478759765625,1.15665140385516,0.6796627641052008,2.610307001557946,0.0601973310112953,0.4427931010723114,0.5390733480453491,walking
4.167552734375,1.318987234211713,0.5856517704993486,2.51290870360136,-0.0484865382313728,0.3793605864048004,0.5649097561836243,walking
4.177627685546875,1.372414726886153,0.5478215137988328,2.347266890501976,-0.147145003080368,0.3505728244781494,0.600252091884613,walking
4.187701904296875,1.328822253397107,0.5535235248327255,2.1948498851567506,-0.2497818917036056,0.3231092393398285,0.6359928250312805,walking
4.197776611328125,1.2926913479603823,0.4628314465165138,2.0638965236008167,-0.3560349941253662,0.2762168943881988,0.6620806455612183,walking
4.207850830078125,1.1772310313515364,0.3449690372020006,1.6933277657181025,-0.4483119249343872,0.2672260701656341,0.6845462322235107,walking
4.217926025390625,1.0387001472134143,0.3357283306479454,1.1768687739104031,-0.5198866128921509,0.2992886006832123,0.7046487927436829,walking
4.227999755859375,0.8922942919164896,0.3252840935230255,0.6465753180176019,-0.562459409236908,0.364458292722702,0.7193337082862854,walking
4.238074951171875,0.6766258806273341,0.2449059039503335,0.1079606085032224,-0.5784876346588135,0.4730994999408722,0.7227973341941833,walking
4.24814990234375,0.4864417469456791,0.2138572702139616,-0.292274388846755,-0.5625838041305542,0.6008089780807495,0.7074982523918152,walking
4.258223876953125,0.3904814459029584,0.1610901411443948,-0.5695826792299747,-0.5197408199310303,0.7226386666297913,0.6750578284263611,walking
4.268298828125,0.3654729325810447,0.1419803670048713,-0.6619663638949393,-0.4595876932144165,0.8201069235801697,0.6336550116539001,walking
4.278373046875,0.427205385329388,0.0733113199263811,-0.5783657051444053,-0.4001145660877228,0.8657662272453308,0.5959692597389221,walking
4.28844775390625,0.5854548596877605,-0.0413923330962657,-0.3666781801849603,-0.3631089031696319,0.8663574457168579,0.5639410018920898,walking
4.29852197265625,0.6467662374798208,0.1349281104058027,-0.271252059084177,-0.3338240087032318,0.7923441529273987,0.5404958128929138,walking
4.3085966796875,0.8826785415049642,0.2674614346295595,-0.3475608072608709,-0.2916328608989715,0.7620381712913513,0.5387594103813171,walking
4.3186708984375,1.2382384577609598,0.3493599656373262,-0.4254103551387787,-0.2338131219148636,0.7894079089164734,0.5968955755233765,walking
4.328745849609375,1.414890471304953,0.4055360263675451,-0.3813923497140407,-0.1793123185634613,0.8185676336288452,0.6854829788208008,walking
4.33881982421875,1.4494894909992813,0.4170464314192533,-0.2255623210549354,-0.1399957984685897,0.8290549516677856,0.7760637402534485,walking
4.348894775390625,1.4320534952908754,0.4326280314326286,-0.1344423727154731,-0.1123151704668998,0.8271787762641907,0.8527382612228394,walking
4.358969970703125,1.4463495855383577,0.367335182788968,-0.0810030434727668,-0.0946333780884742,0.829613447189331,0.9208547472953796,walking
4.369043701171875,1.4974679244875908,0.2856780593216419,-0.0316015914440155,-0.0812680423259735,0.8490630388259888,0.9835386276245116,walking
4.379118896484375,1.489566942104697,0.2259393376737833,-0.0026858780831098,-0.0818459764122963,0.8558031916618347,1.037638545036316,walking
4.38919287109375,1.4998758624121546,0.171806180948019,0.0044867900252342,-0.0871696323156356,0.8597276210784912,1.088211178779602,walking
4.399267822265625,1.466577403922379,0.1121329257518052,0.0474672690957784,-0.0900991633534431,0.8558340072631836,1.1270805597305298,walking
4.409341796875,1.411101746546477,-0.0320791458278894,0.1195586918383836,-0.0989214181900024,0.8239130973815918,1.1533631086349487,walking
4.4194169921875,1.365732472643256,-0.1949719524800777,0.1670014110147953,-0.1051628068089485,0.7856713533401489,1.1613174676895142,walking
4.42949072265625,1.264083093113452,-0.3171335202932357,0.1373345870256423,-0.1191651746630668,0.7655373215675354,1.149083971977234,walking
4.43956591796875,1.1067695478983224,-0.3479349012702703,0.0340519072055816,-0.1348914355039596,0.7577716112136841,1.1172971725463867,walking
4.449640869140625,1.0100346092212944,-0.3748685009032487,-0.118854927483201,-0.1464442312717437,0.7994490265846252,1.0713075399398804,walking
4.45971484375,1.102815476510301,-0.5075502936869859,-0.2415636077851057,-0.1570216715335846,0.943489909172058,1.0229032039642334,walking
4.469789794921875,1.4247031325280666,-0.768936207795143,-0.1939882021397352,-0.1831185221672058,1.0585448741912842,0.9933538436889648,walking
4.47986376953125,1.7976991175577044,-0.952350408950448,-0.0130786772817373,-0.2509001195430755,1.0093525648117063,0.9867181777954102,walking
4.489938720703125,1.976611331118643,-1.022607017481327,-0.0456628500223159,-0.3331398665904999,0.8549103140830994,0.9945052266120912,walking
4.500012939453125,1.9295245857730507,-0.9497557162821292,-0.3939548941671848,-0.3999999165534973,0.6948883533477783,1.0021846294403076,walking
4.510087646484375,1.7374531770400703,-0.7408686356961727,-0.9203174403518438,-0.4321767687797546,0.5694342851638794,1.0045872926712036,walking
4.520161865234375,1.5509607374832033,-0.5316875405997038,-1.4874638323456049,-0.4283949136734009,0.5020447373390198,1.0006470680236816,walking
4.53023681640625,1.3468451090827585,-0.2568845110356808,-1.9967530786544083,-0.3876829147338867,0.4915340542793274,0.9996832609176636,walking
4.540310791015625,1.0316950176917017,0.1284101068139076,-2.325377130255103,-0.3016466200351715,0.5796242356300354,0.9970731735229492,walking
4.5503857421875,0.7474134542297571,0.5639134014219045,-2.432244682824612,-0.1664986610412597,0.7820244431495667,0.9777827858924866,walking
4.5604609375,0.696859032773599,0.939620106714964,-2.1508803950488566,-0.0135593600571155,1.0770857334136963,0.9672926664352416,walking
4.570534912109375,0.9541377307586372,1.0417226368397474,-1.3414543559551235,0.1137652993202209,1.3231849670410156,0.9785471558570862,walking
4.58060986328125,1.4390005379498003,0.868089240464568,-0.2085562411963939,0.1856915205717086,1.397419810295105,1.0214512348175049,walking
4.59068408203125,1.8920023721084,0.5134142172843218,0.8401473405718803,0.2192579954862594,1.3014520406723022,1.0730595588684082,walking
4.6007587890625,2.136675636346638,0.3165443222284317,1.5761492470145224,0.2003223896026611,1.0346254110336304,1.1230928897857666,walking
4.6108330078125,2.113225494915247,0.2453361120611429,1.953068250706792,0.143114224076271,0.6370970010757446,1.1393035650253296,walking
4.620907958984375,1.949145524305105,0.253907541051507,1.885907270103693,0.0607184506952762,0.2223264276981353,1.1068764925003052,walking
4.63098193359375,1.6694596911355852,0.3785714470744132,1.3450450739234685,-0.019627520814538,-0.0743268057703971,1.0547019243240356,walking
4.641056884765625,1.357908939410746,0.6488356641650199,0.4826034839570522,-0.0795927345752716,-0.2264381945133209,1.0093915462493896,walking
4.651130859375,1.108925849149376,0.8829074548900127,-0.3787321905940771,-0.1058195456862449,-0.2111953198909759,0.9529162645339966,walking
4.661205810546875,0.951610185042396,1.147245204541087,-1.0786223346918822,-0.1079478189349174,-0.0680806264281272,0.909750521183014,walking
4.671281005859375,0.9164555042266844,1.3933674985438584,-1.4453846860289572,-0.1055821329355239,0.1407934874296188,0.891215980052948,walking
4.681354736328125,1.0172749357383697,1.574988386541605,-1.5421967085301875,-0.1154833883047103,0.3453714847564697,0.9010269045829772,walking
4.691429931640625,1.210883637041226,1.6686381456196306,-1.4893500844836234,-0.1339814513921737,0.5057297348976135,0.949404001235962,walking
4.70150390625,1.409908883500099,1.7564210584908724,-1.3951824390113352,-0.1338928192853927,0.5927780270576477,1.0107468366622925,walking
4.711578857421875,1.5195513076104223,1.8396634053230283,-1.4111708662599325,-0.0918803811073303,0.6530163288116455,1.0770046710968018,walking
4.72165283203125,1.457664614148438,1.9764608167320488,-1.4034575154036282,-0.0008807916310615,0.7248121500015259,1.1384257078170776,walking
4.73172802734375,1.3733598987817763,2.0832178946644064,-1.209672726881504,0.1054594963788986,0.7803113460540771,1.1776039600372314,walking
4.7418017578125,1.3332698804557324,2.081152194306254,-0.9140016813337802,0.1986934840679168,0.7754371762275696,1.2028241157531738,walking
4.751876953125,1.253344549217075,2.0076842225134373,-0.6301251184761524,0.2851852178573608,0.7636452317237854,1.2053905725479126,walking
4.761951904296875,1.1794494380533695,2.000455440303683,-0.289321968781948,0.3405620157718658,0.7714055180549622,1.1906819343566897,walking
4.77202587890625,1.2362187885016205,2.044278799939156,0.1103787755608558,0.3570030331611633,0.746016800403595,1.1707918643951416,walking
4.782100830078125,1.400882111957669,2.02951903770268,0.5100573080718517,0.3239527344703674,0.6979531049728394,1.16846764087677,walking
4.7921748046875,1.5985782287046313,1.97474290689826,0.7566711849838494,0.2470528781414032,0.6481006145477295,1.1944341659545898,walking
4.802249755859375,1.635089804022014,1.9496055430322885,0.7680956653177737,0.1476756036281585,0.6224494576454163,1.2274760007858276,walking
4.812323974609375,1.4920114126473665,1.9145751461833715,0.5728443113744258,0.060538038611412,0.6286982893943787,1.2534981966018677,walking
4.822398681640625,1.3499942207634448,1.8011796531498432,0.339485052832961,0.0068418127484619,0.6758538484573364,1.2548696994781494,walking
4.832472900390625,1.250349605184793,1.6152414864748716,0.2504699678182602,-0.0182978957891464,0.7057033777236938,1.2301230430603027,walking
4.8425478515625,1.2213343039069324,1.4104483972042798,0.3018009266048669,-0.039008941501379,0.6931796669960022,1.1921823024749756,walking
4.85262255859375,1.2524762419499456,1.2316302916675803,0.3254091812074184,-0.0667947679758071,0.6446579694747925,1.1506422758102417,walking
4.86269677734375,1.2007680473487825,1.0496318025290965,0.2873930465459823,-0.0761630237102508,0.5887816548347473,1.1060175895690918,walking
4.872771728515625,1.0906241765223443,0.9021271191447972,0.1943669723242521,-0.0831977650523185,0.5447143316268921,1.0520955324172974,walking
4.882845703125,1.021276864856109,0.7320686586469412,0.1428805307149887,-0.0904497653245925,0.4960168600082397,0.9837923049926758,walking
4.892920654296875,1.0213885816022754,0.5225251599788665,0.1138718783736228,-0.1101523637771606,0.4461289048194885,0.9008199572563172,walking
4.902994873046875,1.0624493446566163,0.3670136957496404,0.0206862296760082,-0.1418647468090057,0.3921798765659332,0.8252096176147461,walking
4.913069580078125,1.0865991587899624,0.31623043397367,-0.1564355933368205,-0.1611364483833313,0.3800904750823974,0.7590838670730591,walking
4.923143798828125,1.0712905304990707,0.308981193497777,-0.3163742263585329,-0.1823914647102356,0.3966898620128631,0.7054785490036011,walking
4.933218505859375,1.0647101291954515,0.2761024217247962,-0.4065051636606455,-0.2021510601043701,0.4426549673080444,0.6546862125396729,walking
4.943292724609375,1.0764622340485452,0.2203080537885427,-0.511349101448059,-0.2183339893817901,0.5127347707748413,0.6085382103919983,walking
4.95336767578125,1.0534608592979608,0.1983651020497083,-0.6112754565775395,-0.2147102355957031,0.5937739610671997,0.5710760354995728,walking
4.96344287109375,1.1003424374602735,0.1258978317320346,-0.6191647485226393,-0.1864587515592575,0.6587664484977722,0.5297273397445679,walking
4.973516845703125,1.259967182227224,0.0158937347024679,-0.4759522093743085,-0.1401250809431076,0.6865725517272949,0.4980679750442505,walking
4.983591796875,1.446884569197893,-0.0610860446035861,-0.297000248324871,-0.103942759335041,0.6514646410942078,0.4913517832756042,walking
4.993665771484375,1.5983873823076489,-0.1419014565497636,-0.2106096665948629,-0.0722609981894493,0.6011822819709778,0.5075333714485168,walking
5.00374072265625,1.6746584288224575,-0.2608867324143648,-0.1925941174328327,-0.0450867153704166,0.5536381602287292,0.528748095035553,walking
5.01381494140625,1.6701893205843863,-0.3759305771768093,-0.1767582503974437,-0.0330020897090435,0.492981493473053,0.5392177700996399,walking
5.0238896484375,1.5908435427993537,-0.5019955821692943,-0.2247024893552064,-0.0353828147053718,0.4591826200485229,0.5415383577346802,walking
5.0339638671875,1.4698637321166694,-0.5728139162361622,-0.3123509621918201,-0.0394585169851779,0.452383816242218,0.5348386764526367,walking
5.044038818359375,1.335197049126029,-0.5709200653135776,-0.4398761028647422,-0.0339642912149429,0.4779873192310333,0.5159985423088074,walking
5.05411279296875,1.226515432871878,-0.5671487300813198,-0.5142477454990149,-0.0201110634952783,0.5140424966812134,0.4866946935653686,walking
5.064187744140625,1.1775896355308593,-0.5434375996261834,-0.540654106387496,-0.0062894076108932,0.5294992923736572,0.4556071758270263,walking
5.074262939453125,1.2235666660688818,-0.4288607878535985,-0.6151040749549865,0.0233574341982603,0.598025918006897,0.4510800838470459,walking
5.084336669921875,1.381545835585892,-0.4439093039035797,-0.5759972224473953,0.0692458674311637,0.7635800838470459,0.4647949039936065,walking
5.094411865234375,1.6376868347778917,-0.5747586205631494,-0.2790226930856704,0.0925072506070137,0.8584674596786499,0.4894959926605224,walking
5.104485595703125,1.8513744475133715,-0.7600923916041851,0.1599538305908441,0.0549562238156795,0.8530529141426086,0.5289411544799805,walking
5.114560791015625,1.87594438675493,-0.9936410352379084,0.4699468314796686,-0.033468447625637,0.7189649343490601,0.5765510201454163,walking
5.124634765625,1.551070481467992,-1.107511160045862,0.4624895012110471,-0.1412778496742248,0.47576504945755,0.5927045941352844,walking
5.134709716796875,0.881521261228621,-1.0748515839815138,-0.0658516515702009,-0.2234664559364318,0.3037032783031463,0.5562344193458557,walking
5.14478369140625,0.1367621208999306,-0.8575169930458069,-0.6821084036916494,-0.2792035937309265,0.2385688722133636,0.4775015711784363,walking
5.15485888671875,-0.3576049391523003,-0.6439280183792114,-1.18772919062078,-0.3076059222221374,0.2058846950531005,0.3739717006683349,walking
5.1649326171875,-0.5432168695475906,-0.3491863626360893,-1.6102864944159985,-0.3100267946720123,0.2527853548526764,0.2743269503116607,walking
5.1750078125,-0.5253326916802674,0.0297661927103996,-1.9627093547552823,-0.2759393751621246,0.3724467754364013,0.2053739875555038,walking
5.1850830078125,-0.3547038839485496,0.3918722426742315,-2.153651028805971,-0.2208300530910492,0.5206364393234253,0.1817465126514434,walking
5.19515576171875,-0.3922389570947736,0.3782686647355556,-2.1490251225709915,-0.1560174971818924,0.6477581858634949,0.204152226448059,walking
5.205230712890625,-0.1447727742023766,0.7094587674319743,-2.125643662461638,-0.0971725061535835,0.7323219180107117,0.2621123790740967,walking
5.2153046875,0.1966788294631987,0.9058996234208344,-2.0011504368305206,-0.024952633306384,0.7763264179229736,0.3562804162502289,walking
5.2253798828125,0.5221165061127394,1.0905606097668408,-1.9281074124515056,0.0723056867718696,0.8096294403076172,0.4868419766426086,walking
5.235453857421875,0.7709975242391228,1.3342816878467798,-1.9152724807977677,0.1941740661859512,0.7991940975189209,0.6338213086128235,walking
5.24552880859375,0.8774320191536098,1.5696142922878265,-1.7983435529410838,0.3108102083206177,0.7621820569038391,0.795495867729187,walking
5.255603759765625,0.8926995117165147,1.6881728671729563,-1.5735603995651006,0.4020397067070007,0.7005136609077454,0.9419036507606506,walking
5.265677978515625,0.8207352224849164,1.6791688919842245,-1.2867518749088047,0.4540764093399048,0.6250991821289062,1.04692542552948,walking
5.275752685546875,0.5986567980229854,1.5966624582111837,-0.9697264911651612,0.4627878665924072,0.560796320438385,1.1046353578567505,walking
5.285826904296875,0.2667506560117006,1.4330588729411362,-0.6343330915600061,0.4315478503704071,0.5219692587852478,1.1159621477127075,walking
5.29590185546875,-0.0886208250001072,1.2434727051526306,-0.366630249390006,0.3635778725147247,0.5134098529815674,1.0846902132034302,walking
5.305975830078125,-0.4004144455701112,1.0688058740764856,-0.1464274095416069,0.2762258946895599,0.5447166562080383,1.019469141960144,walking
5.31605078125,-0.5987043634917587,0.9469365672081708,-0.0203062904477119,0.1754034012556076,0.5901091694831848,0.9401002526283264,walking
5.326124755859375,-0.7226365211740136,0.8714350437611341,0.105883802229166,0.0720705986022949,0.6254085898399353,0.8550459742546082,walking
5.33619970703125,-0.6730886464118957,0.8723404681682586,0.1470949335396289,-0.0012547537917271,0.6434829235076904,0.7884440422058105,walking
5.34627392578125,-0.556025278520584,0.9487158518403768,0.0851017109632492,-0.0412918627262115,0.6824657320976257,0.7501226663589478,walking
5.3563486328125,-0.3577748158264905,1.097225912874937,-0.0582213028222322,-0.043647963553667,0.7025219798088074,0.7417691349983215,walking
5.366423828125,-0.130070002850145,1.2856798617631195,-0.1407458567738533,-0.0271407142281532,0.6939252018928528,0.7667341828346252,walking
5.376497802734375,0.0964919237013906,1.3990969821065664,-0.1040735379368066,0.0029426207765936,0.6963667869567871,0.8066509366035461,walking
5.38657275390625,0.2987031797852367,1.501560746759176,-0.0449555785357952,0.0444621928036212,0.7085362672805786,0.851036787033081,walking
5.396646728515625,0.4335924194853752,1.5304524947226046,0.1050228014856576,0.0752411410212516,0.6990703344345093,0.8806058764457703,walking
5.406721923828125,0.5006830382660031,1.4976058716535567,0.3698702542245388,0.0778371021151542,0.6499077081680298,0.9137505292892456,walking
5.416795654296875,0.5577940417587757,1.3910107062846422,0.7104471939474344,0.048469889909029,0.5754547715187073,0.9377972483634948,walking
5.426870849609375,0.5683285875156522,1.255156713205576,1.022602925828099,-0.0147379841655492,0.4820014238357544,0.954659938812256,walking
5.43694482421875,0.497791919934377,1.1558651488482952,1.2176052734464409,-0.0879006087779998,0.4044219553470611,0.9671416282653807,walking
5.447019775390625,0.4413386496979743,1.058704166778922,1.1642349177867173,-0.1462408602237701,0.3981451392173767,0.9756435751914978,walking
5.45709423828125,0.3409749991297722,1.0174398439764976,0.9226531898230312,-0.1867054551839828,0.4387330412864685,0.9833641052246094,walking
5.46716943359375,0.2877997276507318,1.0277174923628567,0.698218996015191,-0.2082712650299072,0.46479332447052,0.9997566938400269,walking
5.477244384765625,0.306685191515088,0.9934130717009304,0.5743582230687141,-0.2089383900165558,0.4879175722599029,1.0239251852035522,walking
5.487318359375,0.3759934863451868,0.9364584278136492,0.5360597643345594,-0.1933818310499191,0.4705201089382171,1.067094326019287,walking
5.4973935546875,0.4162407410595565,0.9044096771240234,0.5688754077434539,-0.1755029708147049,0.4022475779056549,1.116909384727478,walking
5.50746728515625,0.445487366875261,0.8081634718120098,0.7077543016016483,-0.171147808432579,0.2962557375431061,1.1681158542633057,walking
5.51754248046875,0.4302804453931748,0.5804121162801981,0.8043541426569223,-0.1696718782186508,0.1941067427396774,1.196846842765808,walking
5.5276162109375,0.310786854680255,0.2746796954452991,0.7470294964134693,-0.1490183025598526,0.1284943670034408,1.192418932914734,walking
5.53769140625,0.0664325932633131,-0.0207376676023006,0.4644675232857465,-0.0946602523326873,0.084119439125061,1.1556822061538696,walking
5.547765380859375,-0.2518588648933917,-0.257812731796503,0.0997451533436775,-0.0154436072334647,0.0520687587559223,1.0831953287124634,walking
5.55784033203125,-0.5069624107964337,-0.5213409186303615,-0.1810042174041271,0.074300393462181,0.0286254845559597,0.9749075174331664,walking
5.5679150390625,-0.6596249884005636,-0.7551648720741272,-0.4065530944555998,0.1719017475843429,0.0312651321291923,0.845715343952179,walking
5.577989501953125,-0.731983026190102,-0.93132807918787,-0.7228805590629577,0.2604550421237945,0.0683009102940559,0.7083351016044617,walking
5.58806396484375,-0.694265655279532,-0.9410083462029696,-0.9001654636830091,0.3159074187278747,0.1347407698631286,0.5802624225616455,walking
5.598138427734375,-0.5596078862477094,-0.9212444920688868,-0.9161702575445174,0.3048760592937469,0.2340551018714904,0.4855247735977173,walking
5.608213134765625,-0.32347587505728,-0.8875421289533376,-0.768690124079585,0.2479480504989624,0.3553095161914825,0.4346849322319031,walking
5.618287353515625,-0.0359547816848382,-0.7838654813796281,-0.5538496880471706,0.1599526852369308,0.4804306924343109,0.4014495015144348,walking
5.628362060546875,0.1672325528895482,-0.6591553981274366,-0.353034270235896,0.070410668849945,0.5917331576347351,0.3780582249164581,walking
5.6384365234375,0.3661177332906052,-0.5159288304537535,-0.1987596543252468,0.0111223114654421,0.6864660382270813,0.3634843528270721,walking
5.648510986328125,0.5000994662243873,-0.32939737406075,-0.1500719035238027,-0.0036204156931489,0.7929155230522156,0.3565646708011627,walking
5.65858544921875,0.5837820311047136,-0.0841775818556547,-0.1755143878161907,0.0249931178987026,0.928496241569519,0.361397236585617,walking
5.668660400390625,0.6577947042334824,0.1688824024558067,-0.2300929502218961,0.0964459702372551,1.123231291770935,0.3811415433883667,walking
5.678735107421875,0.7803224750105291,0.4392138395637273,-0.2712567352592945,0.1951048970222473,1.3548762798309326,0.4080810248851776,walking
5.688809326171875,0.936326398931816,0.6286486161828041,-0.1563870780199766,0.2838304042816162,1.5710045099258425,0.4506169557571411,walking
5.69888427734375,1.1994111528471112,0.7445990543961525,0.2409744097203016,0.3178216516971588,1.6652628183364868,0.5075026154518127,walking
5.708958251953125,1.579970412737876,0.8062287043571472,0.8402192367643118,0.2992699146270752,1.661384344100952,0.5961360931396484,walking
5.719033203125,2.0189856609895824,0.7858955259025097,1.441179635554552,0.24660325050354,1.653253436088562,0.7364130616188049,walking
5.729107177734375,2.469258362445235,0.6380787078291177,1.826202450725436,0.1856537610292434,1.733432054519653,0.9051623344421388,walking
5.73918212890625,2.857045966154337,0.3538350652247667,1.953567432400584,0.1083208844065666,1.7458186149597168,1.0689997673034668,walking
5.74925634765625,3.014417086775601,0.206737793597579,2.2364754424870013,-0.0239367838948965,1.49998939037323,1.2027723789215088,walking
5.7593310546875,2.6893849221870303,0.2311579491049051,2.66029998973906,-0.2384381592273712,0.9407867789268494,1.2881392240524292,walking
5.7694052734375,2.059587720490992,0.0911766469627618,2.927609448677301,-0.4886410534381866,0.3182713687419891,1.292062282562256,walking
5.779480224609375,1.451793384027481,-0.2128080534219741,2.6225989123761653,-0.682006299495697,-0.118472158908844,1.206809401512146,walking
5.78955517578125,0.8952335602387785,-0.26714345472157,1.7138485756993294,-0.7581198215484619,-0.2925453186035156,1.1032458543777466,walking
5.799629150390625,0.2764734469942748,0.070336688029766,0.3137123136729002,-0.7242265939712524,-0.1591550260782241,0.9845525026321412,walking
5.809704345703125,-0.2761567822605371,0.5444178428351879,-0.9206430190443992,-0.6123208999633789,0.1656214296817779,0.8584588170051575,walking
5.819778076171875,-0.6919042599104345,1.0170476297885178,-1.6827233695954082,-0.4713379144668579,0.5688884854316711,0.7584323287010193,walking
5.829853271484375,-0.6991971203323454,1.2938023779422043,-1.8829618643015624,-0.3542333245277405,0.8303829431533813,0.7112123966217041,walking
5.839927001953125,-0.2331913546286523,1.248375090241432,-1.4812725764900443,-0.2979439496994018,0.8426334857940674,0.7220490574836731,walking
5.850002197265625,0.5712299349803477,0.890007057762146,-0.6990946098059415,-0.3101947903633117,0.5930716395378113,0.7776413559913635,walking
5.860076171875,1.2810732447504996,0.5002712425947189,0.0717944856226444,-0.3682921826839447,0.1487650275230407,0.8585245013237,walking
5.870151123046875,1.565649041918665,0.2930938885360956,0.4964022922068834,-0.4442309141159057,-0.3592181205749511,0.9258049726486206,walking
5.88022509765625,1.40621470515728,0.2328822886794805,0.4457815275162458,-0.5149838924407959,-0.7938545346260071,0.9337576627731324,walking
5.89030029296875,0.8440242550704627,0.283823955887556,-0.0048988779574632,-0.5572044849395752,-0.9904239177703856,0.9124463200569152,walking
5.900375244140625,0.2263472974201664,0.4735352113604545,-0.8361948035538196,-0.5576457977294922,-0.936898410320282,0.8870866298675537,walking
5.91044921875,-0.3628571971246973,0.7578764691203832,-1.7756190954357385,-0.4981118142604828,-0.6843436360359192,0.8752011656761169,walking
5.9205244140625,-0.8671423150032758,1.0637111812859772,-2.5600498094826936,-0.3735733330249786,-0.2751379907131195,0.8507238030433655,walking
5.93059814453125,-1.220614026808366,1.2846902662038802,-2.994944032281637,-0.2124988287687301,0.1626685708761215,0.7950766682624817,walking
5.94067333984375,-1.467035961344838,1.391001353934407,-2.852338226854801,-0.0648150965571403,0.4547334611415863,0.6880958676338196,walking
5.950747314453125,-1.5527546351626516,1.3450427358359098,-2.161640858516097,0.0290189012885093,0.5078762173652649,0.5597187280654907,walking
5.960822265625,-1.341270816081762,1.2246417479544878,-1.1155191099345685,0.0556976497173309,0.3503888547420501,0.4607764482498169,walking
5.970896240234375,-0.9229872440829872,1.1158768373310566,-0.1578869611889123,0.0391906946897506,0.1050606369972229,0.3952665328979492,walking
5.980971435546875,-0.4618418874898925,1.1457605189412832,0.5311170472353697,0.0052796006202697,-0.1243632361292839,0.3553257584571838,walking
5.991046142578125,-0.1169626109305769,1.2530033345639704,0.9063076196998358,-0.0354590378701686,-0.3040008544921875,0.3280656337738037,walking
6.001120361328125,0.0478273711124435,1.3333698336988686,0.9759218386739492,-0.0656824558973312,-0.3714526295661926,0.3019770383834839,walking
6.0111953125,0.0660287434364669,1.4191647876232862,0.7826239568859338,-0.0678164437413215,-0.3183891177177429,0.2680560946464538,walking
6.021269287109375,0.0380206921055447,1.5393150156140327,0.5756710592329501,-0.0777853950858116,-0.182634949684143,0.2305714786052703,walking
6.03134423828125,0.0196141251987777,1.5869780995428562,0.4584387645155191,-0.1031900867819786,-0.0393545180559158,0.205077052116394,walking
6.041418212890625,0.1364547537175007,1.5754203482180833,0.5085521642059088,-0.1693214327096939,0.0963500440120697,0.2016263902187347,walking
6.0514931640625,0.3217360456526279,1.531443843847513,0.6605319471776485,-0.2675871551036834,0.203424721956253,0.2131955176591873,walking
6.0615673828125,0.4701111186632886,1.3978081113398075,0.8649632173985242,-0.3908526301383972,0.2842207849025726,0.2295321375131607,walking
6.071642333984375,0.5516871031858027,1.211893910062313,1.0441372967660427,-0.5178563594818115,0.3147821724414825,0.2526453733444214,walking
6.08171630859375,0.6879010156184434,0.9752782800734042,1.1439724664807318,-0.6186362504959106,0.2794915735721588,0.2850035727024078,walking
6.09179150390625,0.8023891261942684,0.7696727053761482,1.1118448053359984,-0.683228075504303,0.2091536372900009,0.3183870911598205,walking
6.1018662109375,0.8976021160010248,0.6437602605968713,0.917194924417138,-0.6984248757362366,0.1095349043607711,0.3619172573089599,walking
6.1119404296875,0.9117628894310444,0.5521411305636167,0.6223363642960786,-0.6774041056632996,0.0123661616817116,0.4103201329708099,walking
6.122015380859375,0.8984401011951267,0.4927776719689369,0.3082838588833809,-0.6150869727134705,-0.0723505914211273,0.4711480438709259,walking
6.13208935546875,0.9292021000098436,0.3952010948359966,-0.0254635270804166,-0.5354554057121277,-0.147646814584732,0.5380107164382935,walking
6.142164306640625,0.9124890848137438,0.2374035654962062,-0.2556254508852958,-0.46657595038414,-0.2120668292045593,0.5970412492752075,walking
6.15223828125,0.8529497581955044,0.0170855748355388,-0.3318482743442058,-0.4240718483924866,-0.2541505992412567,0.633947491645813,walking
6.162313232421875,0.6817969265896826,-0.2218944461971521,-0.3488321423709392,-0.3975909650325775,-0.2545143961906433,0.6354303359985352,walking
6.172387451171875,0.4017771487580612,-0.5288619617849588,-0.4042097461998462,-0.3983915448188782,-0.2027366757392883,0.5950093865394592,walking
6.182462158203125,0.0828125040475279,-0.8498398825466632,-0.4747095158368349,-0.4190582036972046,-0.1000560969114303,0.5154114961624146,walking
6.192537353515625,-0.2687445149763487,-1.197273848557472,-0.5375555558502674,-0.4694817364215851,0.0198867358267307,0.3991636037826538,walking
6.202611328125,-0.4775337064120918,-1.4340712648540734,-0.4475374312728643,-0.549710750579834,0.068697951734066,0.2727414965629577,walking
6.212686279296875,-0.5698834157422185,-1.6385498813480135,-0.2820300582081079,-0.6365482211112976,0.0158419292420148,0.14729905128479,walking
6.22276025390625,-0.4659389110125601,-1.8305688292413949,-0.2807470326602458,-0.6727017164230347,-0.0486462451517581,0.0616874806582927,walking
6.23283544921875,-0.1933194360326975,-1.9251447632536287,-0.6698831283688544,-0.6200401782989502,-0.0289460830390453,0.0485242679715156,walking
6.2429091796875,-0.0449210186790674,-1.802787672868371,-1.3294383394688367,-0.4910236299037933,0.0499713718891143,0.0589444190263748,walking
6.252984375,-0.0532297598789446,-1.6281103203982117,-1.92131117644012,-0.3010662496089935,0.1947606652975082,0.0701996609568595,walking
6.263058349609375,-0.0924227380337193,-1.560231546914577,-2.190703286871314,-0.1031417176127433,0.368784636259079,0.0504515245556831,walking
6.27313330078125,-0.1479865303508006,-1.6822604282587763,-2.0986375821143386,0.0561293810606002,0.5160555839538574,-0.0159617774188518,walking
6.283207275390625,-0.2609044507341459,-1.882693861015141,-1.6667752743571995,0.1304043978452682,0.6043859720230103,-0.1234307065606117,walking
6.293282470703125,-0.3229000479307025,-2.0383596390232444,-0.97297351026237,0.1416220366954803,0.6379079222679138,-0.230887308716774,walking
6.303357177734375,-0.2287889914838597,-2.049112503705919,-0.3493932833850383,0.1106593236327171,0.6543846130371094,-0.3159361481666565,walking
6.313431396484375,-0.0286363849628716,-1.8949352106899024,0.1393903505116701,0.0635362192988395,0.8009291887283325,-0.3646322190761566,walking
6.32350634765625,0.2790924886525608,-1.786444440832734,0.3902519479960203,0.0043309568427503,1.0433237552642822,-0.3822240233421325,walking
6.333580322265625,0.6850973563745617,-1.9647914217263456,0.6682429599463939,-0.0893884673714637,1.0041998624801636,-0.3539035022258758,walking
6.3436552734375,1.0942389329534024,-1.9962299315631389,1.1879629993766545,-0.2091154009103775,0.6644324660301208,-0.2744960486888885,walking
6.353729248046875,1.4843746341586113,-2.086803936457634,1.5743980194330214,-0.3032441437244415,0.1197496503591537,-0.1646047830581665,walking
6.36380419921875,1.7001171335972844,-2.162500690215826,1.4874270074665543,-0.3292866349220276,-0.3782202005386352,-0.0793745815753936,walking
6.37387841796875,1.3562553269848228,-1.8570035394415256,0.7393184836447239,-0.2768047749996185,-0.6775685548782349,-0.0473856553435325,walking
6.383953125,0.7094635897375643,-1.2734227299973369,-0.3668143737852573,-0.158730611205101,-0.7780174016952515,-0.0578532107174396,walking
6.39402734375,0.2628723898062482,-0.865655583576858,-1.421487093091011,0.0235906112939119,-0.7174995541572571,-0.0842369645833969,walking
6.404102294921875,0.0253151863845996,-0.5040948925361037,-2.3343998101443053,0.2514823675155639,-0.5419354438781738,-0.1138811483979225,walking
6.414177001953125,-0.169789836156927,-0.0273807588785886,-2.843601378169656,0.471571683883667,-0.270263671875,-0.15218485891819,walking
6.424251220703125,-0.3151058503905311,0.4594692766070365,-2.9559476544111964,0.6211243867874146,0.0128135755658149,-0.1742243766784668,walking
6.434326171875,-0.3318995296074077,0.796288617362082,-2.6154250752240418,0.6829957365989685,0.2193148136138916,-0.1794184297323227,walking
6.444400146484375,-0.1553211110225878,0.868700942622125,-1.9203987377703189,0.6409316658973694,0.3410561680793762,-0.1543138772249221,walking
6.454475830078125,0.0439568498220294,0.7176724690258502,-1.0717173776090143,0.5225533843040466,0.3856385946273803,-0.1192433312535286,walking
6.464550048828125,0.1424938329523429,0.6175456228882074,-0.2818716527760028,0.3464689254760742,0.3167482018470764,-0.0911578983068466,walking
6.474624755859375,0.1438327899385243,0.6023562370628118,0.2507125444024801,0.1653880774974823,0.1126188114285469,-0.0549434497952461,walking
6.484698974609375,0.1294932076091878,0.6807108118534088,0.3836865981310606,0.0460590235888958,-0.0556168034672737,0.0101466039195656,walking
6.49477392578125,0.0946335276846774,0.777218882972002,0.038670799177885,0.0207138322293758,-0.1260696351528167,0.071332037448883,walking
6.504848876953125,-0.0611880984722636,0.8442740651130676,-0.5711626418977975,0.0667764022946357,-0.0782935842871666,0.0849498435854911,walking
6.5149228515625,-0.370506287105754,0.8821411466926335,-1.0413660784870389,0.157508984208107,0.0658492892980575,0.0464195758104324,walking
6.524998046875,-0.6677306265100836,0.9754834472566842,-1.2531792756527662,0.2630729675292969,0.2576200664043426,-0.0152003802359104,walking
6.53507177734375,-0.8467845866292715,1.1068167480409146,-1.134535360571742,0.3569690883159637,0.4248183369636535,-0.0637506917119026,walking
6.54514697265625,-0.7828339463748037,1.2363520594924688,-0.6694505821704864,0.4081582427024841,0.5422581434249878,-0.0858072564005851,walking
6.555220703125,-0.5433846638625487,1.2875287045001982,-0.0081166709601879,0.4250926673412323,0.5939878225326538,-0.0817736387252807,walking
6.5652958984375,-0.2117117460852488,1.245854047331214,0.7053986783862114,0.4129859209060669,0.5917643308639526,-0.0501781590282917,walking
6.575369873046875,0.1453655159311369,1.186794540119171,1.3254513156592844,0.3918341994285583,0.5588504672050476,-0.0116303246468305,walking
6.58544482421875,0.4076961635434999,1.1381149726241826,1.8088889123529197,0.351849764585495,0.4911723732948303,0.0322077013552188,walking
6.595518798828125,0.6020942251257598,1.091013614231348,2.193605438053608,0.2991183400154114,0.3954722881317138,0.0673017650842666,walking
6.605593994140625,0.7581481987338513,0.9792477682262658,2.452178632828593,0.2204738855361938,0.2748787403106689,0.1113035753369331,walking
6.6156689453125,0.904166954409331,0.8490718207836151,2.601433959272504,0.1207760497927665,0.1437267810106277,0.1505742967128753,walking
6.625742919921875,0.948634164906293,0.7432634218782186,2.6159610817968844,0.0183540657162666,0.0372783616185188,0.1748407632112503,walking
6.635818115234375,0.8949475098390132,0.6603560060888528,2.483877839428186,-0.0766075700521469,-0.0430755615234375,0.1886890232563018,walking
6.645891845703125,0.7582105233803391,0.5986000993996858,2.1854338220357894,-0.1552848070859909,-0.0602316446602344,0.2033340036869049,walking
6.655967041015625,0.6125321055751294,0.6297282281130552,1.7633301072269678,-0.1973514854907989,0.0010446107480674,0.226285919547081,walking
6.666041015625,0.4256709788363427,0.6616887159973383,1.2380272992283106,-0.1911990493535995,0.0888903141021728,0.2456681430339813,walking
6.676115966796875,0.2573558914070948,0.7064777057945728,0.7566746921151876,-0.1485334187746048,0.1969399601221084,0.2475499361753463,walking
6.68618994140625,0.1574121467513963,0.6962871511697769,0.5053554139912129,-0.08701653778553,0.2783613204956054,0.2420947253704071,walking
6.69626513671875,0.132206247693859,0.5961521217256784,0.4476233559906482,-0.0260654166340827,0.3416379690170288,0.2388253211975097,walking
6.7063388671875,0.2096240896236151,0.4972428346842527,0.5184118794411421,0.0194919481873512,0.4048358201980591,0.2550836503505707,walking
6.7164140625,0.3154368724431842,0.447938997811079,0.6231032570153474,0.0590422004461288,0.4837825000286102,0.2778598070144653,walking
6.726489013671875,0.4082710042893886,0.4399900846332311,0.686684041044116,0.094693936407566,0.5736234784126282,0.3214661478996277,walking
6.73656298828125,0.5061112007945776,0.4131026622295379,0.7401490892499685,0.1114704832434654,0.6197932958602905,0.3528745770454407,walking
6.746637939453125,0.6014688597690314,0.3125941232979297,0.8448042264670134,0.1114230826497078,0.623806893825531,0.3769900500774383,walking
6.7567119140625,0.7783052169039845,0.1077326449662447,0.9579203180372714,0.0964363738894462,0.5732318758964539,0.3987314701080322,walking
6.766786865234375,0.9771269766800104,-0.1749871490716934,1.0029285035431383,0.0658204108476638,0.5193044543266296,0.4007964730262756,walking
6.776861083984375,1.0220398120526224,-0.3799018188953399,1.016424529454112,0.0279479008167982,0.4703236520290375,0.389875203371048,walking
6.786935791015625,0.9357233915373684,-0.4709767590492963,0.931708602938056,-0.0177064035087823,0.4297453165054321,0.3720077872276306,walking
6.797010009765625,0.8194973512530327,-0.5565940183192492,0.7757990793019532,-0.076541282236576,0.3916287124156952,0.3449640274047851,walking
6.8070849609375,0.6401536874722689,-0.6010527532488107,0.5657727655529976,-0.1250787228345871,0.3897660970687866,0.3080938756465912,walking
6.817158935546875,0.4884465839620679,-0.6466308475971222,0.3180330994814634,-0.1530404388904571,0.4566329717636108,0.2720444500446319,walking
6.827234130859375,0.4247612435802817,-0.6749784056812524,0.0207972888350486,-0.1615838706493377,0.5374523997306824,0.2375442534685135,walking
6.837308837890625,0.4431437263585627,-0.6881365779399872,-0.2440805590420961,-0.1546663045883178,0.5925366282463074,0.2276535630226135,walking
6.847383056640625,0.5996347762096673,-0.6885492503941059,-0.3425929557204246,-0.131303459405899,0.6149186491966248,0.2458408176898956,walking
6.857457763671875,0.8502252286024391,-0.7136562191218138,-0.3697539343684911,-0.095714159309864,0.5908089876174927,0.2829465568065643,walking
6.867531982421875,1.0048326566640289,-0.7253916651010512,-0.3721487205505371,-0.0504209734499454,0.5361135005950928,0.3210688829421997,walking
6.877606689453125,1.0548229414314032,-0.7041133147507905,-0.3819207575023174,-0.0063376990146934,0.4696718752384186,0.3549431562423706,walking
6.88768115234375,0.9954078987799584,-0.6400105526745319,-0.4634861110329628,0.0368894003331661,0.5217188000679016,0.3873567581176758,walking
6.897755859375,0.9643814768753944,-0.6130278532028198,-0.6177145497143268,0.0670721977949142,0.6755112409591675,0.4191488623619079,walking
6.907830078125,1.2382716293781997,-0.8780646910339593,-0.5208271238893271,0.0257553793489933,0.6088331341743469,0.4730922281742096,walking
6.917905029296875,1.5766836461521685,-1.172290213948488,-0.1118774896860122,-0.0797297656536102,0.4023773968219757,0.5280641317367554,walking
6.927979736328125,1.5257418328136203,-1.2680752314895392,0.1053390278279781,-0.2351097762584686,0.1007421761751174,0.57292640209198,walking
6.938053955078125,1.0701162260226904,-1.140716095033288,-0.142674779009819,-0.3672136068344116,-0.0895096734166145,0.5781306028366089,walking
6.94812890625,0.5204295759391039,-0.9249240573644636,-0.956945920047164,-0.430207222700119,-0.0533322319388389,0.5557299852371216,walking
6.958202880859375,0.2314497716583311,-0.8656494460970163,-1.990666452217102,-0.4209830462932586,0.1033647805452346,0.5383777618408203,walking
6.96827783203125,0.0476172720257192,-0.7479144625544547,-2.8432319603353737,-0.3539214432239532,0.3268780410289764,0.5153704881668091,walking
6.97835205078125,-0.1458797855962067,-0.4651636888563633,-3.286112505713105,-0.2355421930551529,0.5721768736839294,0.4939083158969879,walking
6.9884267578125,-0.310396247927472,-0.1298182200461625,-3.3139819248914715,-0.0856592133641243,0.7263531684875488,0.4760869741439819,walking
6.9985009765625,-0.3173674021143466,0.2183423066735267,-2.865204722690582,0.0550794750452041,0.7349165081977844,0.4781366288661957,walking
7.008575927734375,-0.0479950192969292,0.392699341148138,-2.0764087991714475,0.1687168180942535,0.6380184292793274,0.4954815208911896,walking
7.01864990234375,0.2828592755738646,0.446012413662672,-1.241189562651515,0.2545197606086731,0.5058546662330627,0.512618899345398,walking
7.028724853515625,0.4857005731895565,0.5856248824924231,-0.4946025493085384,0.300656646490097,0.3659580647945404,0.5264750719070435,walking
7.038800048828125,0.5147372825816273,0.8248059790551662,0.0788286220431327,0.303263247013092,0.2516497373580932,0.5339058041572571,walking
7.048873779296875,0.4665941600508987,1.058230119526386,0.4591869525343179,0.2690621316432953,0.1898673325777053,0.5461494326591492,walking
7.058948974609375,0.4113124178119003,1.2783593096166848,0.6890799962699413,0.1937216222286224,0.1917781978845596,0.5591071844100952,walking
7.069022705078125,0.3437833345487713,1.4436661916732787,0.8227350180000066,0.0996153652667999,0.2466640770435333,0.5883790254592896,walking
7.079097900390625,0.3100583942752331,1.571837813556194,0.8353414015948772,-0.0011777670588344,0.3485390245914459,0.6306813955307007,walking
7.089171875,0.3358416548293084,1.6341098530739544,0.8192904305040836,-0.1078972890973091,0.4253909289836883,0.6829225420951843,walking
7.099246826171875,0.358069926315546,1.5997417195260524,0.8509995739758014,-0.1892311424016952,0.4079424142837524,0.7327539324760437,walking
7.10932080078125,0.347970484040305,1.4917431171000004,0.8483534433811902,-0.2285013198852539,0.3303701281547546,0.7711859941482544,walking
7.11939599609375,0.2420201193809509,1.4009148451834916,0.681657737314701,-0.2186833322048187,0.2379209250211715,0.7911345958709717,walking
7.1294697265625,0.0278247763190418,1.3408733411967753,0.418337640273571,-0.1887853443622589,0.1364648640155792,0.7960782051086426,walking
7.139544921875,-0.2202805812597274,1.3511667716741562,0.2075485254585742,-0.1599699556827545,0.0365906953811645,0.7895225286483765,walking
7.149619873046875,-0.4393956989366561,1.3673843315035104,0.0463110847979784,-0.1272996217012405,-0.0103147597983479,0.7729139924049377,walking
7.15969384765625,-0.5863618915300816,1.3429016321539875,-0.138664958846569,-0.0872521325945854,0.0215768218040466,0.7598299980163574,walking
7.169768798828125,-0.7283461309924721,1.329414958593249,-0.3149766345202923,-0.0557993985712528,0.1094374358654022,0.7384445667266846,walking
7.1798427734375,-0.889092500200495,1.3481255042821167,-0.3184878575116395,-0.0231725759804248,0.2121838927268982,0.7034791111946106,walking
7.189917724609375,-1.0065626222617925,1.3138608311086892,-0.173439919629693,-0.0045773196034133,0.2719044685363769,0.6602333188056946,walking
7.199991943359375,-1.010231227771938,1.193730476862192,0.1303238314807415,0.0010521885706111,0.2892470955848694,0.6125794053077698,walking
7.210066650390625,-0.855210981125757,1.0022183094471693,0.5135007265239954,0.0036114864051342,0.2579938471317291,0.567739725112915,walking
7.220140869140625,-0.6220300017606467,0.8132926513940095,0.8885217876404523,0.0006890839431434,0.1992843747138977,0.5247083306312561,walking
7.230216064453125,-0.4564728712700307,0.6949976958811283,1.2052537413954734,-0.0118059348315,0.1247587576508522,0.4824543297290802,walking
7.240289794921875,-0.3566073794823139,0.6105857207477092,1.4420704469144343,-0.0350907258689403,0.0083844717592,0.4367242157459259,walking
7.250364990234375,-0.3010186171207576,0.4980371999323368,1.61826580273211,-0.0736327916383743,-0.1408659964799881,0.3853800594806671,walking
7.26043994140625,-0.1857070613328367,0.3557102114468812,1.7172236050903795,-0.1128410920500755,-0.2839631736278534,0.337451696395874,walking
7.270513916015625,-0.0455080978520214,0.2291395950198173,1.7281038955450057,-0.166700854897499,-0.3774443864822387,0.2891187667846679,walking
7.2805888671875,-0.0042651100985705,0.1071387707263231,1.653823438325524,-0.2200853675603866,-0.4193839132785797,0.2366456240415573,walking
7.2906630859375,-0.0229724409170448,0.0031803836017847,1.447248141813278,-0.2589659094810486,-0.3777248859405517,0.1899223178625106,walking
7.30073779296875,-0.0642546281697228,-0.0729132605195045,1.1847311778485774,-0.2960594594478607,-0.3060594797134399,0.1308279335498809,walking
7.31081201171875,-0.1794663768449798,-0.128785954388976,0.9679179804384708,-0.3223509788513183,-0.2356178015470504,0.0619069226086139,walking
7.320886962890625,-0.2674977480519563,-0.1773994709104299,0.8454302494108676,-0.3529686629772186,-0.1767807155847549,-0.0114427469670772,walking
7.3309609375,-0.248331932876259,-0.2748965530663728,0.8043582343101501,-0.3791984021663666,-0.1362095773220062,-0.0809006467461586,walking
7.341035888671875,-0.1537461350571364,-0.4308879097670316,0.7485054141849279,-0.3930326998233795,-0.1227819174528122,-0.1427926868200302,walking
7.35110986328125,-0.0115385351676493,-0.5077735810488462,0.6577016921877861,-0.3793618977069855,-0.1251398772001266,-0.191465675830841,walking
7.361184814453125,0.0735395026590675,-0.5435048196434974,0.4299649497032165,-0.3265302181243896,-0.1298007667064666,-0.2155628502368927,walking
7.371260009765625,0.1705144606370478,-0.4891881230443716,0.1342354519665241,-0.2319070547819137,-0.1596880853176117,-0.2235922813415527,walking
7.381333740234375,0.272752709438093,-0.4696352813124656,-0.0709042587846517,-0.1082310378551483,-0.2187003791332245,-0.2067707926034927,walking
7.391408935546875,0.3773665647966787,-0.5625953045606613,-0.2384580429852008,0.0256660412997007,-0.288405179977417,-0.1660750210285186,walking
7.40148291015625,0.481178675318323,-0.7266191610693931,-0.3775812669932842,0.1525607258081436,-0.3405672609806061,-0.1278612464666366,walking
7.411557861328125,0.5200131406253203,-0.8611895440787076,-0.4917132576078176,0.2650374472141266,-0.3661807477474212,-0.0982788503170013,walking
7.4216318359375,0.4778909954171627,-0.987609938380122,-0.5910796407669783,0.3515538871288299,-0.3694097399711609,-0.0836948305368423,walking
7.43170703125,0.4183155015069991,-1.0822674131959675,-0.6771364604979753,0.385466605424881,-0.3695988059043884,-0.0732006505131721,walking
7.44178076171875,0.366980633730255,-1.1636311066746712,-0.7586842783719301,0.4006361365318298,-0.3632323145866394,-0.0510112047195434,walking
7.45185595703125,0.2907733366340398,-1.1484171709299087,-0.9143944800436496,0.4166404008865356,-0.3221005797386169,-0.0211188178509473,walking
7.46192919921875,0.2011550615618005,-1.0750094048917294,-1.1522948891460896,0.4398553967475891,-0.2474608123302459,-0.0034134902525693,walking
7.472004150390625,0.0567067883397452,-0.9853928468525408,-1.3132266248583793,0.4676508009433746,-0.0605982467532157,-0.0065459003672003,walking
7.482079345703125,-0.0367570014458149,-1.0180109218627214,-1.430196469247341,0.489730030298233,0.1615211516618728,-0.0403320081532001,walking
7.492153076171875,0.1411865132134407,-1.3966682936549186,-1.2657938425540924,0.4370644092559814,0.1710885465145111,-0.0837519168853759,walking
7.502228271484375,0.369510955925472,-1.7767291025042533,-0.7377882053375243,0.2820527255535126,-0.0323481932282447,-0.1287317276000976,walking
7.512302490234375,0.4018034522430971,-2.080547798672318,-0.2910889784544706,0.0506639517843723,-0.364999383687973,-0.2033138275146484,walking
7.522377197265625,0.2246457907319068,-2.0387831251323223,-0.1332195529222488,-0.1762555539608001,-0.6093500852584839,-0.3034065067768097,walking
7.532451416015625,-0.1201790339601226,-1.5659470019519328,-0.491861726167798,-0.3259640634059906,-0.5829616189002991,-0.3947124481201172,walking
7.5425263671875,-0.4052201653514057,-0.9051105188697576,-1.3079355327129365,-0.3983041048049927,-0.3677489459514618,-0.4595499634742737,walking
7.552600341796875,-0.4462430075481534,-0.384931629756093,-1.9950784234404564,-0.3992372751235962,-0.1331689357757568,-0.4942064583301544,walking
7.56267529296875,-0.3099634460007772,0.1146703352749347,-2.3622476020127534,-0.3304326832294464,0.0818859934806823,-0.4770872294902801,walking
7.57275048828125,-0.17056995368395,0.687633304592967,-2.52633750949502,-0.1912481635808944,0.2506054937839508,-0.4160182774066925,walking
7.58282421875,-0.0303605418743565,1.3294938690483569,-2.380215804901719,-0.0387000739574432,0.320027083158493,-0.3225903213024139,walking
7.5928994140625,0.1656026866653934,1.892519381719828,-1.965295279595256,0.090934082865715,0.2746596038341522,-0.1889430433511734,walking
7.60297314453125,0.4172694265201687,2.187496599784493,-1.4080465967595577,0.1652712225914001,0.1370767802000045,-0.016150064766407,walking
7.61304833984375,0.591000182322599,2.2509534651726484,-0.8881260663211346,0.1814089119434356,-0.0208936724811792,0.1408683210611343,walking
7.623122314453125,0.4771673207851126,2.0931915916681287,-0.4652987134128808,0.1509826928377151,-0.1782501190900802,0.2407103031873703,walking
7.633197265625,0.0901702098665759,1.8779858294546603,-0.2245803242802619,0.1074179038405418,-0.3068477809429168,0.2748453915119171,walking
7.643271240234375,-0.2609298774363472,1.5753601424634456,-0.3512865497857332,0.0883193016052246,-0.3203261196613312,0.2752544581890106,walking
7.653346435546875,-0.4807036782177165,1.2872019567638635,-0.6982330245405435,0.1042074561119079,-0.2074179351329803,0.2583284676074981,walking
7.663420166015625,-0.7125260460481048,1.1880974394112824,-0.963329483604431,0.1123524084687233,-0.0681042894721031,0.2139317840337753,walking
7.673495361328125,-1.035972183554247,1.1984592589497565,-0.9650012162089348,0.0930096060037612,0.0460433177649974,0.1281734704971313,walking
7.6835703125,-1.3161425123050807,1.1842851876467466,-0.7516781990021467,0.0841156765818595,0.1668503433465957,0.0244467314332723,walking
7.693644287109375,-1.3673843315035104,1.1292886920899152,-0.5629238058626651,0.0908287093043327,0.3100967407226562,-0.0874779373407363,walking
7.70371923828125,-1.1903479948170483,1.03657066090405,-0.2944429650574922,0.1035739779472351,0.4178486764431,-0.1838556081056594,walking
7.71379345703125,-0.8120847369089722,1.0449380917549134,0.1214969664245843,0.105819821357727,0.476315975189209,-0.242229163646698,walking
7.7238681640625,-0.3327576077414676,1.0934732823431492,0.6218816062659025,0.0921492502093315,0.50649094581604,-0.255909115076065,walking
7.7339423828125,0.1078400143308564,1.1309744532197714,1.0807014790534972,0.0613958686590194,0.4906027913093567,-0.2404068559408188,walking
7.744017333984375,0.5132308600740507,1.1543337014973163,1.5429104097574948,0.0049098352901637,0.4246014952659607,-0.2003609985113144,walking
7.75409130859375,0.8634930717807263,1.0728531036406754,1.92878896497488,-0.0598901994526386,0.3168494701385498,-0.1507135480642318,walking
7.764166259765625,1.114278316093236,0.8901958583325147,2.175954046028852,-0.1367558240890503,0.1983956843614578,-0.1029454097151756,walking
7.774240234375,1.266291416812688,0.68854165160954,2.255632562899589,-0.2161087095737457,0.0757917389273643,-0.0662683546543121,walking
7.784315185546875,1.361642865242064,0.5604343271344899,2.2002584662020204,-0.2952757775783539,-0.053612396121025,-0.0238021239638328,walking
7.79439013671875,1.3587813383311032,0.4765881691902875,2.017780084592104,-0.3576259613037109,-0.129155620932579,0.0226026587188243,walking
7.804464111328125,1.2505495116710663,0.3804290576398372,1.5986170994102953,-0.391958624124527,-0.1050110980868339,0.0593485087156295,walking
7.8145390625,1.0799931846536694,0.2777490198880434,1.0661375316500663,-0.3993491530418396,-0.0255346503108739,0.0802559182047844,walking
7.82461328125,0.8875823148332536,0.2064946324914693,0.6090706400096416,-0.3841093182563782,0.0821276977658271,0.0910148471593856,walking
7.83468798828125,0.7917346073195338,0.0929874957770109,0.3189858701616525,-0.3405003249645233,0.1727281659841537,0.1130881905555725,walking
7.844762451171875,0.8014585673458874,-0.0208826290309429,0.0806342101603746,-0.2703568339347839,0.2508247494697571,0.1372230798006057,walking
7.854837158203125,0.8417313218276947,-0.1016015948653221,-0.0749941584467887,-0.1812130957841873,0.294510155916214,0.1739307641983032,walking
7.864911376953125,0.8300351118803024,-0.1537356867283582,-0.1452759014189243,-0.0791218280792236,0.294152557849884,0.2094529718160629,walking
7.874986083984375,0.8198322092305869,-0.205398653948307,-0.1124146653026342,0.0163674056529998,0.2781243324279785,0.2408170253038406,walking
7.885060302734375,0.8738638052780181,-0.2613841605424881,-0.0620651187688112,0.1030565276741981,0.2928345799446106,0.2811892926692962,walking
7.89513525390625,0.90648166109249,-0.3275251504480838,0.0472539186060428,0.1577511876821518,0.3195466101169586,0.3221907913684845,walking
7.905210205078125,0.8755863912869244,-0.4052864355206489,0.2040074918508529,0.1826650500297546,0.3315526843070984,0.3556786179542541,walking
7.9152841796875,0.8347907089095562,-0.5184241544008255,0.4256874185144901,0.1888883262872696,0.3544904589653015,0.3854884505271911,walking
7.925359130859375,0.7688270483322441,-0.677597648268938,0.5505354489326477,0.1829686164855957,0.3713618218898773,0.4011576175689697,walking
7.935433349609375,0.6627768034949898,-0.8151835797071456,0.6208364811271428,0.1714357882738113,0.3479070961475372,0.407149463891983,walking
7.945508056640625,0.5603031750354915,-0.9047112904191016,0.6269768835783004,0.1653182953596115,0.2945654094219208,0.4060809016227722,walking
7.955582275390625,0.5278343723028898,-0.9642039283514022,0.5947106907457113,0.167915403842926,0.2523146271705627,0.4079301953315735,walking
7.9656572265625,0.4609006976496428,-0.990189433479309,0.44528877556324,0.1771650165319442,0.2247944623231887,0.4173474013805389,walking
7.975731201171875,0.3805004423756152,-0.9826783271968365,0.2325391743302345,0.1804156750440597,0.2247164398431778,0.4192332029342651,walking
7.98580615234375,0.2976799742173403,-0.9802233352601528,0.0498895278066396,0.1824922114610672,0.2517420053482055,0.4136950671672821,walking
7.99588037109375,0.2619293733350932,-1.0270581516712904,-0.1227595337063074,0.184988647699356,0.2929903864860534,0.4102577269077301,walking
8.005955078125,0.278412233037129,-1.0814999359548092,-0.2722936770915985,0.1894920766353607,0.315479964017868,0.4211208522319793,walking
8.0160302734375,0.3732529554653913,-1.1038380244910715,-0.3750046945035457,0.1934388875961303,0.312793880701065,0.439235657453537,walking
8.026104248046876,0.4753212910596281,-1.0898340490579606,-0.3950947118520736,0.1932674348354339,0.2837900221347809,0.4569237530231476,walking
8.03617919921875,0.4697178450293838,-1.0756856967180968,-0.4207178134083748,0.1690156310796737,0.2339662760496139,0.4654296338558197,walking
8.046253173828125,0.3697710316337644,-0.9972294151186942,-0.4823959786862135,0.1353594213724136,0.1991327404975891,0.4650622010231018,walking
8.056328369140624,0.1966127054244279,-0.8978507569998502,-0.6641857935100793,0.0980940833687782,0.2643482387065887,0.4585683345794678,walking
8.066402099609375,0.0700451577372849,-0.7824778264135122,-0.9609212534189224,0.0580607876181602,0.4952829778194427,0.4559935331344604,walking
8.076477294921874,0.1753849162176251,-0.9076414986521004,-1.1714309667706488,-0.0109912483021616,0.5562629699707031,0.462006151676178,walking
8.086551025390625,0.5170295582372695,-1.1993471477001905,-1.0375894825577736,-0.1170970648527145,0.4506362676620483,0.4736287891864776,walking
8.096626220703126,0.6736240684628486,-1.342405373069644,-0.8741051397532225,-0.203885480761528,0.3273609280586242,0.472851425409317,walking
8.1067001953125,0.5475073332831263,-1.224760405898094,-1.0287491734981535,-0.2610535621643066,0.2806090414524078,0.4599054455757141,walking
8.116775146484375,0.3060159870166331,-0.8949708176493644,-1.5039841745138167,-0.2600657939910888,0.3065167963504791,0.4532129168510437,walking
8.126850341796874,0.2097502732865512,-0.6337053150504827,-2.0176514897763727,-0.2019599229097366,0.328238308429718,0.4540748000144958,walking
8.13692431640625,0.2581917942419648,-0.4416425280153751,-2.3548972392499445,-0.0897843837738037,0.3501997888088226,0.4574823081493377,walking
8.146999267578124,0.0810851687982678,-0.0489753355711698,-2.564629538488388,0.0618902407586574,0.4172267019748688,0.437987357378006,walking
8.1570732421875,-0.2563662593152374,0.5352420182108879,-2.578509010758996,0.239918828010559,0.5749401450157166,0.4161140024662018,walking
8.1671484375,-0.4528535117290914,1.1143453899800777,-2.396862988319993,0.4136449992656708,0.8090539574623108,0.4126705527305603,walking
8.17722216796875,-0.3232461579546332,1.4189718953996897,-1.8696616532236336,0.5437204241752625,1.026559352874756,0.423755943775177,walking
8.18729736328125,-0.0140854431714862,1.4863397967517376,-0.99660339217484,0.6113556027412415,1.1529823541641235,0.4512989819049835,walking
8.19737109375,0.3215522865835577,1.4922177488744257,0.074443538826704,0.607067883014679,1.120525598526001,0.4788981080055237,walking
8.2074462890625,0.6158274207934736,1.4839771592736244,1.1493863082230091,0.5332000255584717,0.9397937655448914,0.5177341103553772,walking
8.217520263671876,0.8523489427581429,1.4072510624676942,2.0131395653098823,0.3929827809333801,0.6401556730270386,0.5659309029579163,walking
8.22759521484375,1.03848657752797,1.3563456356167791,2.5305162564843893,0.2246813774108886,0.2963343858718872,0.6249423027038574,walking
8.237670166015626,1.1091352541163564,1.3504741132348774,2.6414199327021834,0.0492522977292537,0.0047920178622007,0.6976585984230042,walking
8.247744384765625,1.0419679168377072,1.4319658170074223,2.297525246733427,-0.1069009378552436,-0.1966149508953094,0.7563409805297852,walking
8.257819091796875,0.7852667995449155,1.532343423035741,1.5758172385811804,-0.2297597527503967,-0.2984451651573181,0.7820194363594055,walking
8.267893310546874,0.3861353795226663,1.593748616591096,0.7365086869210005,-0.315945953130722,-0.3210921585559845,0.7755203247070312,walking
8.27796826171875,-0.0130039315450936,1.556502297258377,-0.0486801520168781,-0.3559072315692901,-0.2923129796981811,0.7636447548866272,walking
8.288042236328126,-0.3833956523604691,1.5276625717431307,-0.7886340109556913,-0.3446367979049682,-0.1989601552486419,0.7407562136650085,walking
8.298117431640625,-0.7505056480914354,1.5441595330357551,-1.4826526326715943,-0.2747325599193573,-0.05174221098423,0.7051041722297668,walking
8.30819140625,-1.068745376060903,1.5426462058633563,-1.986356187802553,-0.1535895019769668,0.1401975452899933,0.6510615348815918,walking
8.318266357421875,-1.2865864552140236,1.4914520251989365,-2.196741982513666,-0.0214439760893583,0.3189228177070617,0.5851022005081177,walking
8.32834033203125,-1.4580267254590988,1.4449398648709058,-1.993484432247281,0.0824598222970962,0.4465377926826477,0.5052764415740967,walking
8.33841552734375,-1.5059890845954418,1.3724807778596877,-1.433800046697259,0.1352338045835495,0.4993075132369995,0.4270221292972564,walking
8.348490234375,-1.4111832873500882,1.2212176187247037,-0.6572936959087848,0.1210781931877136,0.5072236061096191,0.3619738221168518,walking
8.358564453125,-1.2081212596558033,1.0327461341798303,0.1218348200768232,0.0610268414020538,0.4797006845474243,0.3016827702522278,walking
8.368639404296875,-0.9836636849723756,0.8348574174702167,0.7332149060726165,-0.0068185776472091,0.4373342096805572,0.2374833673238754,walking
8.37871337890625,-0.7630844860922544,0.7124310612410306,1.1245768611371516,-0.0619478747248649,0.3890420496463775,0.1888977289199829,walking
8.388788330078125,-0.5691339125491678,0.6287403861194849,1.34711252784729,-0.1090755835175514,0.3091553747653961,0.1445082426071167,walking
8.3988623046875,-0.4184656505674123,0.6142968502253293,1.444547650682926,-0.1289598196744918,0.2251118719577789,0.1170659661293029,walking
8.408937255859374,-0.3317527780804783,0.5931985326170921,1.380311617615819,-0.1157577857375145,0.1602169573307037,0.1002047806978225,walking
8.419011474609375,-0.2935012272279709,0.6190519357979297,1.251280748555064,-0.0846765637397766,0.1163120791316032,0.0871584862470626,walking
8.429086181640624,-0.2827626102663576,0.663647448849678,1.157183830231428,-0.0482470095157623,0.087215855717659,0.0670636147260665,walking
8.439160400390625,-0.2865131949715316,0.6637415568739176,1.1033815128952265,-0.0218036826699972,0.079384833574295,0.0460653826594352,walking
8.4492353515625,-0.2030035755053162,0.6175923846393824,1.108064702275395,-0.0048876074142754,0.073754608631134,0.0283818133175373,walking
8.459311279296875,-0.045779681335017,0.5349737226635217,1.1534878983229395,-0.0071374461986124,0.0459413565695285,0.0311613548547029,walking
8.46938525390625,0.0659123687814921,0.4872206223636865,1.2074205640405415,-0.0235703010112047,-0.0048408987931907,0.0413343533873558,walking
8.479460205078125,0.137877534795925,0.4453337837487459,1.2178051799327134,-0.0469491258263587,-0.0624589212238788,0.0485666990280151,walking
8.4895341796875,0.1278147712692618,0.3547276301503181,1.1515127988576888,-0.0616511404514312,-0.118419200181961,0.040822148323059,walking
8.499609130859374,0.0804488436561077,0.2237047104895115,0.971007763147354,-0.0616532713174819,-0.1659457087516784,0.0174553077667951,walking
8.509683349609375,-0.0257375947814434,0.1292044720619916,0.6794909146696329,-0.0476137362420558,-0.1918051242828369,-0.0115199759602546,walking
8.519758056640624,-0.0536092789821326,0.04882569796741,0.3815156838327646,-0.0263782236725091,-0.2404560148715973,-0.0354551374912261,walking
8.529832275390625,-0.0287942789383232,0.0307622180104255,0.0928536402642726,0.0171607956290245,-0.3008263111114502,-0.0491209812462329,walking
8.5399072265625,0.0193644064877182,0.0075678049057722,-0.2167857248812914,0.0990950763225555,-0.3218479752540588,-0.0557008534669876,walking
8.549981201171875,0.0887755041051655,0.040410920843482,-0.613454554182291,0.2012297809123993,-0.2982701957225799,-0.0568750202655792,walking
8.56005615234375,0.1363582162741571,0.0578735122978687,-0.9453016594827176,0.304289847612381,-0.3121111690998077,-0.0581637248396873,walking
8.570130126953124,0.2460403148077428,0.0464724128395318,-1.142191428282857,0.4027540683746338,-0.3687467873096466,-0.0447913780808448,walking
8.580205322265625,0.3482676403559744,0.0304705415874719,-1.2949655765026806,0.4889480769634247,-0.408317893743515,-0.0121058691293001,walking
8.5902802734375,0.3296775427090004,0.1065425583988428,-1.3446236336410045,0.5488244295120239,-0.434577465057373,0.0141262672841548,walking
8.600354248046875,0.1149002715732902,0.2790028193414211,-1.316938338857889,0.570768415927887,-0.45771524310112,0.0240788552910089,walking
8.61042919921875,-0.2136588250324129,0.477668950164318,-1.1668769567281008,0.5405938029289246,-0.4497230052947998,0.0266742780804634,walking
8.62050341796875,-0.5257694391297176,0.5512871440827847,-0.930074864256382,0.4512463212013244,-0.4422147572040558,-0.0118760429322719,walking
8.630578125,-0.8615952753353864,0.5828033953309059,-0.6216144797623158,0.3254057765007019,-0.4097455441951751,-0.073632538318634,walking
8.64065234375,-1.1199662986017762,0.5484019440352916,-0.3365074983268976,0.1959092915058136,-0.3364454805850982,-0.1517547667026519,walking
