seconds_elapsed,acc_x,acc_y,acc_z,gyro_x,gyro_y,gyro_z,label
0.07838330078125,0.0163889708735048,-0.8578378955632447,0.2088011558681726,-0.1674813330173492,0.0347480997443199,0.1909359097480774,walking
0.088458251953125,0.3829309574581682,-0.7121981292679905,0.4118295735538005,-0.1377797126770019,0.1013078987598419,0.2776905298233032,walking
0.0985322265625,0.4455747528977692,-0.919548501805961,0.3929091845065355,-0.129573181271553,0.2251717895269394,0.2818264067173004,walking
0.108607421875,0.0648586950100958,-1.4771213020294904,0.1814700813502073,-0.1202218160033226,0.2563785910606384,0.1727165132761001,walking
0.118681396484375,-0.250220376971364,-1.737219514414668,0.1674386333882808,-0.0925097614526748,0.2632154822349548,0.1079194173216819,walking
0.12875634765625,-0.1492113411717116,-1.46995126426965,0.2638520119607448,-0.0603082180023193,0.2458868026733398,0.0882179737091064,walking
0.138830322265625,-0.0483611491955816,-1.408120246517658,0.3730401164323091,-0.0411105528473854,0.1770723164081573,0.075021743774414,walking
0.148905517578125,0.1489176189221441,-1.4288824640393256,0.3947895914256572,-0.0193843785673379,0.1169381141662597,0.070409670472145,walking
0.158979248046875,0.2805921343594789,-1.4004098182708025,0.3830991536319255,-0.0106233758851885,0.0867463871836662,0.0666618049144744,walking
0.16905322265625,0.3205500507384538,-1.3319319098502396,0.4135416381686925,-0.0236459672451019,0.0644320324063301,0.0657717734575271,walking
0.179128173828125,0.3471368827603757,-1.2746949418902396,0.4069675204753875,-0.0415253639221191,0.0645374879240989,0.0854091271758079,walking
0.1892021484375,0.3936285848222672,-1.2066133393108844,0.3415285413593054,-0.0517457537353038,0.0851360261440277,0.1183402687311172,walking
0.19927734375,0.4145532994292676,-1.1247264987409114,0.2439993104994297,-0.0279959477484226,0.1196692362427711,0.1521221995353698,walking
0.20935107421875,0.3724824825495481,-1.0738237022385,0.164950323703885,0.0071454867720603,0.1853894293308258,0.1710470765829086,walking
0.21942626953125,0.3080884824417531,-1.0781284136950968,0.2217109063237905,0.0436925776302814,0.2443629950284958,0.174570694565773,walking
0.2295,0.3033082624278962,-1.1922583584830164,0.3927209684580564,0.0640267878770828,0.2824062407016754,0.1616926044225692,walking
0.2395751953125,0.3043916737504303,-1.3164634148225187,0.6312164208441973,0.0709667205810546,0.2723927795886993,0.1317757219076156,walking
0.2496494140625,0.3452411321416497,-1.413341196036339,0.8875608336538076,0.0633437559008598,0.2232496738433838,0.0930147692561149,walking
0.25972412109375,0.4636680434711277,-1.471570097643137,1.0446212808907032,0.0551875568926334,0.1515158414840698,0.0657208263874054,walking
0.26979833984375,0.5843393727265298,-1.4609031576782463,1.123557454961538,0.0413464531302452,0.0825393199920654,0.0397770255804061,walking
0.279873291015625,0.6585457417964935,-1.4087500688537955,1.1671341463595628,0.0220457259565591,0.0089737605303525,0.0341441743075847,walking
0.289947265625,0.7683037551105022,-1.334779115974903,1.1151666432350873,-0.0005002205725759,-0.0502608306705951,0.0516605637967586,walking
0.300022216796875,0.8297736844651401,-1.2670818365380168,0.9944704717993736,-0.0229890178889036,-0.0637185797095298,0.0762330219149589,walking
0.310096435546875,0.8134190542526543,-1.2164692551538347,0.857658447343111,-0.0455362349748611,-0.0720423460006713,0.0932684689760208,walking
0.32017041015625,0.7425441676929593,-1.2040250763833522,0.7683481787741184,-0.072608858346939,-0.1043270528316497,0.098601184785366,walking
0.330245361328125,0.7535797948397696,-1.2772013717532158,0.6018272447526455,-0.0918524786829948,-0.1212345585227012,0.0998910367488861,walking
0.3403193359375,0.7022577500119805,-1.3360261934265494,0.4122802399307489,-0.0953044667840004,-0.1105411648750305,0.0834175273776054,walking
0.350394287109375,0.6278218099698424,-1.3496113589257002,0.2203460477113723,-0.090645357966423,-0.0933603718876838,0.0587260276079177,walking
0.360468505859375,0.5793934407569468,-1.3066285417675971,0.1078472112566232,-0.0806763470172882,-0.0951169952750206,0.0284072719514369,walking
0.370543212890625,0.6058585460953414,-1.3072484272316098,0.040295185509324,-0.0712037906050682,-0.1181410476565361,0.0088492035865783,walking
0.380617431640625,0.7061784305870532,-1.2702917384952306,-0.0355962140381336,-0.0601524747908115,-0.1476669758558273,-0.0072714434936642,walking
0.3906923828125,0.7484132058568298,-1.185823064738512,-0.0407382531017065,-0.0629981160163879,-0.1789419054985046,-0.0099435755982995,walking
0.400766357421875,0.7903992670625448,-1.110164889425039,-0.0560369445204734,-0.0660178735852241,-0.1990546286106109,-0.0022374531254172,walking
0.41084130859375,0.8191365551166236,-1.0229989394083618,-0.1461538532972335,-0.0625285878777504,-0.1806467026472091,0.0105574242770671,walking
0.420915283203125,0.7808997634418309,-0.9478887533664704,-0.2729226226449012,-0.0493251644074916,-0.1425280719995498,0.0225746724754571,walking
0.430990234375,0.7091657758347689,-0.8961094662904738,-0.4280459643393755,-0.0176381431519985,-0.1135382354259491,0.0389374941587448,walking
0.441064453125,0.703854956075549,-0.8855068237334489,-0.6220458569169044,0.0468151494860649,-0.1060076132416725,0.0596718043088912,walking
0.45113916015625,0.7079368185617029,-0.8708256796911358,-0.821335672596097,0.1281118839979171,-0.1142239496111869,0.0782256051898002,walking
0.46121337890625,0.6778861098214983,-0.857509394261241,-0.9434908106684684,0.2306007146835327,-0.1446883827447891,0.096866138279438,walking
0.47128759765625,0.6727117759235203,-0.8012953396081924,-1.0660229653596878,0.3408823311328888,-0.1348035633563995,0.1312919557094574,walking
0.4813623046875,0.6921824923299252,-0.839304752267897,-1.0876748251974582,0.4297704100608825,-0.0305884648114442,0.168363943696022,walking
0.4914365234375,0.7621184906043111,-1.0387067961499097,-0.8439391340702772,0.4758549332618713,0.0428070314228534,0.1882501244544983,walking
0.501511474609375,0.7491516031339764,-1.1732836089000105,-0.4149100039124488,0.4739566147327423,0.0034817301202565,0.1913215517997741,walking
0.51158544921875,0.5893152614429593,-1.1519739866286516,-0.0399842198640108,0.4238157570362091,-0.1261183768510818,0.1769791841506958,walking
0.521660400390625,0.2382888238981366,-1.0576827147766947,0.2512555652379989,0.3385530412197113,-0.3293596506118774,0.1402262300252914,walking
0.531734375,-0.2975695726454258,-0.8767068466842174,0.3431079195052385,0.2270616441965103,-0.5199844837188721,0.0733754560351371,walking
0.541809326171875,-0.8336356936555356,-0.6338961614474654,0.1541968744993209,0.1284985840320587,-0.6020793914794922,-0.0032721827737987,walking
0.551883544921875,-1.2247834214475004,-0.3558572187021374,-0.2292325340002775,0.0665004178881645,-0.5270082950592041,-0.07899871468544,walking
0.561958251953125,-1.4019836434587836,-0.0200660519510507,-0.5764262615144252,0.0526975244283676,-0.3464579284191131,-0.1241408884525299,walking
0.572032470703125,-1.3493161753714085,0.302052563278377,-0.8165998762458563,0.0764115229249,-0.1384321600198745,-0.1407947987318039,walking
0.582107421875,-1.1713411695953455,0.4992810625135898,-0.8533990363329649,0.1294867247343063,0.008507490158081,-0.1341832280158996,walking
0.592181396484375,-0.8943584579046815,0.5297527731448411,-0.6963397581398487,0.1769812256097793,0.0640019923448562,-0.1174065768718719,walking
0.60225634765625,-0.6508817830398679,0.4138119795426726,-0.4704349072575569,0.226916566491127,0.0597324073314666,-0.1032468155026435,walking
0.612330322265625,-0.5749485171120613,0.3149810184344649,-0.1925397568970918,0.263543039560318,-0.0041906479746103,-0.1037980914115905,walking
0.622404296875,-0.6310285701218992,0.3493196336269378,0.0124123223274946,0.2849190533161163,-0.1122521087527275,-0.1195200383663177,walking
0.6324794921875,-0.741826667073369,0.4697574463874101,0.1018137763112783,0.3035058677196502,-0.1824287474155426,-0.1366931647062301,walking
0.642552978515625,-0.784380445164442,0.6482321453139186,0.1186398234277963,0.3087342083454132,-0.1905377954244613,-0.1434128582477569,walking
0.652628173828125,-0.8751005805313586,0.7946569245070219,0.0978068787574768,0.3080139756202698,-0.1379567980766296,-0.1346868425607681,walking
0.662701904296875,-0.9597911534104496,0.9051365300938486,0.1662427016019821,0.2891342937946319,-0.0569642223417758,-0.1320138275623321,walking
0.672777099609375,-0.9999293947923928,0.962990168647468,0.3438923478811979,0.2525233030319214,0.0081988517194986,-0.1273505538702011,walking
0.68285107421875,-0.977394687705487,0.9160945619598032,0.600239098778367,0.1955055594444275,0.030671402812004,-0.122390940785408,walking
0.692926025390625,-0.8859452151507139,0.8335629937455058,0.8175941479802131,0.1356936395168304,0.0086758714169263,-0.1124729663133621,walking
0.703,-0.8309248272616415,0.7720157613709568,1.0115414335876702,0.0789054706692695,-0.0463048219680786,-0.1064526289701461,walking
0.7130751953125,-0.8607837397567928,0.7500058818757533,1.0922785196006295,0.0307660736143589,-0.11359603703022,-0.1113927885890007,walking
0.72314892578125,-0.904424436301738,0.7486363470882177,1.1021230372667312,-0.0144836958497762,-0.1579278111457824,-0.1241812855005264,walking
0.73322412109375,-0.9343479384656996,0.7451289234891534,0.9909954891651868,-0.0467880889773368,-0.1755567044019699,-0.1358816474676132,walking
0.743298095703125,-0.9084880324788392,0.7560957231834531,0.8470265786916017,-0.0594199933111667,-0.1888109892606735,-0.1415744125843048,walking
0.753373046875,-0.853221633939445,0.7671545850753784,0.692603494220972,-0.0504521168768405,-0.1578395813703537,-0.1477659046649933,walking
0.763447021484375,-0.811122248552367,0.7496168825581669,0.587128272792697,-0.040033034980297,-0.095632404088974,-0.1556555181741714,walking
0.773522216796875,-0.762471249564737,0.744135528537631,0.5239689290463924,-0.0204037819057703,-0.0044792955741286,-0.1636532396078109,walking
0.783595947265625,-0.6760351481925696,0.7170104979857802,0.5495528676360846,-0.0133511992171406,0.1111983060836792,-0.1539894193410873,walking
0.793670166015625,-0.6159473939113319,0.6341425374239683,0.654675037842989,-0.0238989684730768,0.2087188959121704,-0.1372945308685302,walking
0.803744873046875,-0.6388878322549164,0.5081082198306918,0.8032242618441581,-0.0442071668803691,0.2428286671638488,-0.1193365603685379,walking
0.813819091796875,-0.6281974383492023,0.3627610067412257,0.956401145645976,-0.0597453564405441,0.2207396477460861,-0.1024288609623909,walking
0.82389404296875,-0.6459357049398123,0.2463824062436819,1.0720827037900686,-0.0643353089690208,0.1622750163078308,-0.094956561923027,walking
0.833968017578125,-0.6828370102271437,0.1372887020573019,1.1023422329753636,-0.0605274066329002,0.0612885914742946,-0.097909927368164,walking
0.84404296875,-0.7392353354059159,0.0354246568635106,1.0667606319844722,-0.0485349260270595,-0.0409544222056865,-0.1099570021033287,walking
0.854116943359375,-0.774122962783277,-0.0528966006681323,0.9547370118260384,-0.0374670810997486,-0.1135011911392211,-0.1329865753650665,walking
0.86419189453125,-0.8791125195864588,-0.1265147945865988,0.8959978226095437,-0.0439689233899116,-0.1533836275339126,-0.1727864444255828,walking
0.87426611328125,-1.0168615326318888,-0.1541246860459446,0.8474106095731258,-0.0610113143920898,-0.156477153301239,-0.2102498710155487,walking
0.8843408203125,-1.1494614192858337,-0.1536249198302626,0.7978209414958953,-0.0910834595561027,-0.1146479621529579,-0.2450374215841293,walking
0.8944150390625,-1.2698429718144235,-0.1286027067765593,0.7337626030832529,-0.1219604611396789,-0.0552437119185924,-0.2793022692203522,walking
0.904489990234375,-1.2991753031522035,-0.0760147336661815,0.7144079142719507,-0.1429927796125412,-0.0050564417615532,-0.3014286160469055,walking
0.91456396484375,-1.2785191763535142,-0.0378305489614605,0.6437064845830202,-0.1455787867307663,0.0573806837201118,-0.308524340391159,walking
0.924638916015625,-1.2051997461859136,-0.0088180972278118,0.56380994104743,-0.1104926988482475,0.1234843358397483,-0.3071230053901672,walking
0.934713134765625,-1.1274163954120129,-0.0456523286283016,0.4610147524833679,-0.0506472773849964,0.1863972544670105,-0.3047209680080414,walking
0.944786865234375,-1.0578829135239125,-0.1059960304319858,0.4350742555409669,0.0288201160728931,0.2388772368431091,-0.3031257390975952,walking
0.954862060546875,-0.9616993981845676,-0.1902370329126715,0.5279314029365778,0.1043472439050674,0.2393644899129867,-0.2954798936843872,walking
0.964935791015625,-0.8712091260507703,-0.2646303028568625,0.7048936514735221,0.1591561585664749,0.1887657642364502,-0.2954892218112945,walking
0.975010986328125,-0.8089576909296214,-0.3386839655831456,0.8669722191333771,0.1988410651683807,0.104103073477745,-0.2896127998828888,walking
0.9850849609375,-0.754216923699528,-0.3869724879339337,0.8690519480168819,0.2227735519409179,-0.0072628622874617,-0.2682231068611145,walking
0.995159912109375,-0.7016498472467064,-0.4153220918446779,0.7759551466464996,0.2552458345890045,-0.1194235160946846,-0.2280836254358291,walking
1.00523388671875,-0.6518665562935173,-0.4950292502880096,0.5114133988559246,0.2883989810943603,-0.1456098407506942,-0.1939530819654464,walking
1.01530908203125,-0.6830347247563302,-0.6171838038384914,0.2462140639394521,0.3244999647140503,-0.0874970629811286,-0.1731134057044983,walking
1.0253828125,-0.7672874176748097,-0.7484387786895036,0.0341717341929674,0.3507558107376098,0.0107573401182889,-0.1665676236152649,walking
1.0354580078125,-0.7616128791697323,-0.8949790009558201,-0.0582405920445919,0.3764050006866455,0.1199544519186019,-0.1648135781288147,walking
1.04553173828125,-0.6594236936748027,-1.031391212439537,0.0053811085164546,0.3855814635753631,0.2031795680522918,-0.157460331916809,walking
1.05560693359375,-0.4673242278911173,-1.200067863190174,0.1860392889618873,0.3763565421104431,0.2011435031890869,-0.1398925185203552,walking
1.065680908203125,-0.2751864759236574,-1.3634396855309605,0.3104764004915952,0.3589464128017425,0.1459825038909912,-0.1152407079935073,walking
1.075755859375,-0.1602892000250518,-1.5365955275222658,0.3657926295220852,0.3313795626163482,0.0501907840371131,-0.1058253720402717,walking
1.085829833984375,-0.1673661526739597,-1.6765446809604765,0.3455816161423921,0.2953547239303589,-0.0645597651600837,-0.1144353747367858,walking
1.095904052734375,-0.2633909703202545,-1.715792695504427,0.230617266356945,0.2533085346221924,-0.1738259196281433,-0.1472505778074264,walking
1.105978759765625,-0.4414683404922485,-1.659814203172922,-0.0345090033233165,0.2249514907598495,-0.2316255718469619,-0.1727937459945678,walking
1.116052978515625,-0.5358503593675792,-1.5259166048586368,-0.4558779741168022,0.1928163915872573,-0.1041119173169136,-0.1936749815940857,walking
1.126128173828125,-0.417294122570008,-1.648113243985176,-0.7438859376907349,0.1469793915748596,0.1662575155496597,-0.2126859426498413,walking
1.136201904296875,-0.07736030305624,-1.9553648372113703,-0.6338099444687366,0.0424962490797042,0.2871068120002746,-0.2107737213373184,walking
1.146277099609375,0.1075856377109885,-2.088576206827164,-0.3498118010580539,-0.1141591370105743,0.1971950381994247,-0.2129338085651397,walking
1.156350830078125,-0.1073655652195215,-2.053836317357421,-0.2049310364365577,-0.2892751395702362,-0.0867347419261932,-0.2415143102407455,walking
1.166426025390625,-0.4815957682192325,-1.875524700038135,-0.4970686471611261,-0.4520302414894104,-0.4227242171764374,-0.2958731651306152,walking
1.1765,-0.8094317381821572,-1.67474727614969,-1.252608782288432,-0.5427258014678955,-0.6168620586395264,-0.3604395389556885,walking
1.186574951171875,-0.9362453695848584,-1.4709776847079394,-2.253203289926052,-0.5345853567123413,-0.6486623287200928,-0.4144902527332306,walking
1.19664892578125,-1.0975197812549768,-1.1454691347792745,-3.253531255581975,-0.4387634694576263,-0.4962407648563385,-0.4608907997608185,walking
1.20672412109375,-1.32869570440799,-0.6509624470606445,-3.90382997803688,-0.2572256326675415,-0.1850693076848983,-0.4886675477027893,walking
1.2167978515625,-1.4818926080845296,-0.0796314628586173,-4.069395803290606,-0.036034844815731,0.1635619699954986,-0.482634425163269,walking
1.226873046875,-1.4095985023766755,0.3629167818248272,-3.740284260433912,0.1923440098762512,0.4583603143692016,-0.4362948834896087,walking
1.23694677734375,-1.0894618547447026,0.4976885326251387,-2.8965806886851784,0.3794868290424347,0.6219543218612671,-0.3694242537021637,walking
1.24702197265625,-0.7400166950419544,0.4313967360720038,-1.84797822920382,0.5109449625015259,0.6247082948684692,-0.3038423061370849,walking
1.257095947265625,-0.5164243588857352,0.332273221758008,-0.8473252693772315,0.5901405215263367,0.5118434429168701,-0.272233784198761,walking
1.267169921875,-0.4332103613652289,0.23898177459836,-0.0418050055503845,0.6311423182487488,0.3403683602809906,-0.2721067667007446,walking
1.277244873046875,-0.3992565077066421,0.2096697553962469,0.5030225871294737,0.6316492557525635,0.1494502872228622,-0.2979620397090912,walking
1.287319091796875,-0.4357727591991424,0.239274620065093,0.9029068713456392,0.5864439606666565,-0.0290747117251157,-0.3296765387058258,walking
1.297393798828125,-0.52627209142223,0.2986421703130006,1.123307864114642,0.5001415014266968,-0.2203016728162765,-0.3533037304878235,walking
1.307468017578125,-0.6029053953781723,0.4039502184808254,1.1766858185589313,0.3961620926856994,-0.4088039398193359,-0.3676986396312713,walking
1.31754296875,-0.6745100575171411,0.5085749605596065,0.9071300419986248,0.2930432856082916,-0.5113117098808289,-0.3733896017074585,walking
1.3276171875,-0.854737883721292,0.6559907966166735,0.5056424142390489,0.2115812003612518,-0.5221885442733765,-0.3880892097949981,walking
1.33769189453125,-1.073152378848195,0.8281739941835403,0.1103688386887312,0.1350945383310318,-0.4606501460075378,-0.4084097146987915,walking
1.34776611328125,-1.2137846922449766,0.9782879832834004,-0.1858376289099454,0.0910927355289459,-0.3513588011264801,-0.4190394580364227,walking
1.3578408203125,-1.216271394494176,1.1248474947720766,-0.4219377105921507,0.0800192281603813,-0.2325880974531173,-0.4164439737796783,walking
1.367915283203125,-1.1107178471326828,1.2277701091080904,-0.5399848288238048,0.1030478477478027,-0.150535836815834,-0.3885822296142578,walking
1.37798974609375,-0.9281135010555386,1.260805532747507,-0.5482394469499587,0.1568783074617386,-0.1109356135129928,-0.344419002532959,walking
1.388064208984375,-0.82066785633713,1.2704413760989903,-0.4704904368370771,0.2404759973287582,-0.1059997081756591,-0.2968403100967407,walking
1.398137939453125,-0.7763026449099183,1.2677777098476886,-0.3552139523625374,0.327242761850357,-0.1325598657131195,-0.254200279712677,walking
1.408213134765625,-0.8132986427433788,1.19110480453372,-0.189698980513215,0.4047940075397491,-0.1773968487977981,-0.2290230095386505,walking
1.418287109375,-0.8670723185069859,1.1188836179316044,-0.0070282912015914,0.46443971991539,-0.2156668007373809,-0.2161142379045486,walking
1.428362060546875,-0.9054849051401018,1.06752927826941,0.2028594908595085,0.4968434572219848,-0.2427902966737747,-0.2062738537788391,walking
1.43843603515625,-1.0307485306218267,1.0096627802342175,0.4060404687583446,0.5096235275268555,-0.2630099058151245,-0.19617460668087,walking
1.44851123046875,-1.1490361796110868,0.9726520232230425,0.6101929220378398,0.5058649778366089,-0.297565221786499,-0.1908229887485504,walking
1.4585849609375,-1.285610011397302,0.907979936826229,0.7680091560781002,0.4966416954994201,-0.3594193756580353,-0.1996556371450424,walking
1.46866015625,-1.4670891528367995,0.7789911533415317,0.8093839535176753,0.4923460185527801,-0.4153921008110046,-0.2300492227077484,walking
1.478734130859375,-1.575310750363767,0.6626140141487121,0.8039274416774511,0.4887494146823883,-0.4573446214199066,-0.2829851508140564,walking
1.48880908203125,-1.6681157291807234,0.5680722746670246,0.8450760291457176,0.4708979725837707,-0.4997600018978119,-0.3485721349716186,walking
1.498883056640625,-1.7318460046827793,0.4587415468543768,0.931111806088686,0.4436149299144745,-0.5371608138084412,-0.4266872406005859,walking
1.508958251953125,-1.7799311134159563,0.3908084128350019,0.9735878427684308,0.4069426655769348,-0.5520492196083069,-0.5166328549385071,walking
1.519031982421875,-1.8202242530986663,0.3620201252460479,1.0276455961704254,0.3693969249725342,-0.5591583847999573,-0.6143823266029358,walking
1.529107177734375,-1.773938448872417,0.3870616275221109,1.0570242508679628,0.328843891620636,-0.5644192099571228,-0.7099352478981018,walking
1.539180908203125,-1.703489824900776,0.4531815746396779,1.0332260266512632,0.3003540635108948,-0.5532246828079224,-0.7942209243774414,walking
1.549255126953125,-1.5594450727120042,0.516021184912324,0.9743529819220303,0.2802216112613678,-0.530532956123352,-0.8624798655509949,walking
1.559330078125,-1.3772665508314967,0.5911386774778365,0.9475935698121786,0.2618182599544525,-0.5123975276947021,-0.91411954164505,walking
1.569404052734375,-1.2135818631492554,0.6208277132987976,1.0024152933239936,0.2352412194013595,-0.5255231857299805,-0.9559154510498048,walking
1.57947900390625,-1.076734182857722,0.6356950275629758,1.027429907593131,0.2047061771154403,-0.5700117349624634,-0.9899981021881104,walking
1.589552978515625,-0.9445166465848684,0.6070400109648704,0.922379633578658,0.1809374690055847,-0.6235525012016296,-1.022050857543945,walking
1.5996279296875,-0.8425475335814059,0.6078776308327913,0.7359995683550834,0.1752389222383499,-0.6648010611534119,-1.0518063306808472,walking
1.6097021484375,-0.7296595516785979,0.5922428393274546,0.468687186807394,0.1930538713932037,-0.7115930914878845,-1.0702050924301147,walking
1.61977685546875,-0.5635990747757256,0.5835112513393164,0.1001455508381128,0.2483722418546676,-0.7921806573867798,-1.0747655630111694,walking
1.62985107421875,-0.4055843955539167,0.5640186153620481,-0.5638122791349888,0.3645062744617462,-0.8079532384872437,-1.061678171157837,walking
1.639926513671875,-0.3915435952417552,0.5453472326397896,-1.1606301712930205,0.5034165978431702,-0.7376676201820374,-1.0430642366409302,walking
1.650000244140625,-0.3328089360699057,0.567116581377387,-1.3636772936791182,0.6016483306884766,-0.6719738245010376,-1.026100993156433,walking
1.660075439453125,-0.323036752987653,0.4995931972026824,-1.2841601048499345,0.6314541101455688,-0.6579967141151428,-1.0100523233413696,walking
1.6701494140625,-0.2563517193332314,0.437179703387618,-1.0437316385746,0.5741732120513916,-0.6911072731018066,-0.984101176261902,walking
1.680224365234375,-0.1899633305378258,0.3395470121532678,-0.8170780151516198,0.4585908651351928,-0.7163261771202087,-0.9499272704124452,walking
1.69029833984375,-0.1609022173568606,0.2556184366226196,-0.6894061594843864,0.3166403770446777,-0.6951450109481812,-0.9079292416572572,walking
1.70037353515625,-0.2594603528730571,0.2353594924479722,-0.6830208423614501,0.1898992657661438,-0.6175690293312073,-0.8653614521026611,walking
1.710447265625,-0.4695559324659407,0.2746633288323879,-0.8085399039089679,0.0984479114413261,-0.4573439657688141,-0.8155611753463745,walking
1.720521484375,-0.6669426910027861,0.2757259896278381,-0.8925123185813426,0.0440952889621257,-0.2055394947528839,-0.7801748514175415,walking
1.73059619140625,-0.6362482775315642,0.072332245761156,-0.814880797368288,0.0178911164402961,0.049054455012083,-0.7580466270446777,walking
1.74067041015625,-0.4311583972714841,-0.3429045058876276,-0.4640928447544574,-0.006212756037712,0.1573843657970428,-0.7400999665260315,walking
1.750745361328125,-0.1095540151745081,-0.8384697627484798,0.0293354000777006,-0.052921138703823,0.0202643293887376,-0.7351393103599548,walking
1.7608193359375,0.0969952701136469,-1.2555191167771815,0.48715807852149,-0.1295323669910431,-0.3676192164421081,-0.7448982000350952,walking
1.77089453125,-0.0232553495116531,-1.5129928258776664,0.6759943047255277,-0.2260200232267379,-0.9243940114974976,-0.7881266474723816,walking
1.780968505859375,-0.5452389499597251,-1.522678353589773,0.5042395617038011,-0.3374118506908417,-1.4944669008255005,-0.8826900720596313,walking
1.79104345703125,-1.2843925984315574,-1.3694266509860753,-0.0175742351353168,-0.4791679084300995,-1.8913341760635376,-1.0272514820098877,walking
1.801117431640625,-2.0080957259237766,-0.8859586591541767,-0.6655898150891065,-0.6252147555351257,-1.9674500226974487,-1.1768475770950315,walking
1.811192626953125,-2.5587480792343613,-0.1463140122950077,-1.3745558305680752,-0.7321308255195618,-1.7117737531661987,-1.3025665283203125,walking
1.821266357421875,-2.7987089279979465,0.515750551277399,-2.115887992122769,-0.7469009160995483,-1.14576518535614,-1.3663833141326904,walking
1.831341552734375,-2.726867972885072,1.0627987426161765,-2.5391841315865515,-0.6664300560951233,-0.456219732761383,-1.3642122745513916,walking
1.841415283203125,-2.3408644761137665,1.3649837001025675,-2.4003613518297677,-0.5226351022720337,0.0548651441931724,-1.3166582584381104,walking
1.8514892578125,-1.725455280732363,1.2788766114890575,-1.9266566291213036,-0.3630528748035431,0.1685182154178619,-1.2485167980194092,walking
1.861564453125,-1.10793946846053,1.0041185901105405,-1.374336050337553,-0.2069272398948669,-0.0261585731059312,-1.150954246520996,walking
1.87163818359375,-0.5446991439945995,0.5980056406378745,-0.8713988034039736,-0.0599188841879367,-0.361503005027771,-1.0468885898590088,walking
1.88171337890625,-0.2287009113416075,0.3330114729046821,-0.5119575887352228,0.0559467822313308,-0.7160844206809998,-0.9507376551628112,walking
1.891787353515625,-0.277403713581711,0.2514145551919937,-0.231956406006217,0.1152561828494072,-1.0394665002822876,-0.8687074780464172,walking
1.9018623046875,-0.6717664578974246,0.2567015556842089,0.0109755675226449,0.0758586302399635,-1.2529655694961548,-0.8164384365081787,walking
1.9119365234375,-1.2386278954699634,0.2335445519804954,0.2674339621007442,-0.0577985011041164,-1.3109551668167114,-0.803356409072876,walking
1.92201123046875,-1.8347098745688797,0.2305634903430938,0.4049345533430576,-0.2438171207904815,-1.2698867321014404,-0.8232437968254089,walking
1.93208544921875,-2.3270167141556737,0.2708586758524179,0.0904606076478958,-0.3775176405906677,-1.096806883811951,-0.8736270666122437,walking
1.942160400390625,-2.7858032691955565,0.3326768341228365,-0.5955471415698528,-0.3921537101268768,-0.7282792329788208,-0.9506362676620485,walking
1.952234375,-3.068554042893648,0.4266179773628711,-1.025589248162508,-0.3128591477870941,-0.3517873287200928,-1.057336926460266,walking
1.962309326171875,-3.1078166704848407,0.4605310606196522,-1.0714525891929865,-0.1723287254571914,-0.1430195719003677,-1.1762561798095703,walking
1.972383544921875,-2.783810634073615,0.4645832586199045,-0.8007517342507838,-0.0139159206300973,-0.109553761780262,-1.264223337173462,walking
1.982457275390625,-2.250486139921844,0.466365173600614,-0.3372819898307323,0.1379828304052353,-0.1908215284347534,-1.3061530590057373,walking
1.992532470703125,-1.751831684873998,0.5161453958138823,0.0485322679787874,0.2691752314567566,-0.3019640445709228,-1.307584524154663,walking
2.002606201171875,-1.3984863028623162,0.5990674246504902,0.386496394854784,0.3609189987182617,-0.4125459790229797,-1.2770259380340576,walking
2.012681396484375,-1.1907789335802197,0.6955319488883018,0.6875836202323437,0.3941390216350555,-0.5031789541244507,-1.2358771562576294,walking
2.02275537109375,-1.113285944055021,0.6936015653476119,0.9352589888960122,0.3767891228199005,-0.5648137927055359,-1.191498637199402,walking
2.032830322265625,-1.0346838242441416,0.6551908784106374,1.1654559840142726,0.3087552189826965,-0.5938044190406799,-1.148404240608215,walking
2.042904296875,-0.984591905733198,0.5489455493927001,1.2841893309444188,0.2241087108850479,-0.6146002411842346,-1.0983073711395264,walking
2.0529794921875,-0.9762352885372936,0.4174593961343169,1.2621978638887406,0.1285920441150665,-0.6157776713371277,-1.0567889213562012,walking
2.06305322265625,-1.0504118469908832,0.3039627808138728,1.1540163061112163,0.0531435795128345,-0.6137528419494629,-1.020670771598816,walking
2.07312841796875,-1.1256639257214962,0.2137155236557125,0.9654097970098257,0.0031539143528789,-0.6274446845054626,-1.00003182888031,walking
2.0832021484375,-1.2148214879468082,0.1528340617135167,0.704918201392889,-0.0140115013346076,-0.6449127197265625,-0.9788972735404968,walking
2.09327734375,-1.3218889470025896,0.0629901246592402,0.4151128330081701,-0.0014024996198713,-0.6685946583747864,-0.9696683287620544,walking
2.103351318359375,-1.404062203298509,-0.0033794133052229,0.1797428191661834,0.0356668904423713,-0.7143319249153137,-0.9650878310203552,walking
2.11342626953125,-1.482695448900014,-0.0312380188286304,-0.1019862102687358,0.0881857573986053,-0.7401488423347473,-0.9665035605430604,walking
2.123500244140625,-1.5666349842160938,-0.0665785045400261,-0.3116659025371074,0.1370530873537063,-0.7323209047317505,-0.9654814004898072,walking
2.13357421875,-1.630791668436676,-0.1197170972704887,-0.3795411688894033,0.1642016172409057,-0.7274771332740784,-0.960110366344452,walking
2.143649169921875,-1.6159728694893418,-0.1732975885495543,-0.4035609269022941,0.1632279753684997,-0.7256867289543152,-0.9576621055603028,walking
2.153723388671875,-1.6534781320191918,-0.2641281985536217,-0.5489671767026185,0.1575778126716613,-0.6600847840309143,-0.9564008116722108,walking
2.163798095703125,-1.7041591024644671,-0.2809887324616313,-0.6343757616579532,0.1494448632001876,-0.5454792380332947,-0.9632545113563538,walking
2.173872314453125,-1.7348922405108809,-0.2460521513760089,-0.6681511900097131,0.1451188176870346,-0.425553947687149,-0.9674060940742492,walking
2.183947265625,-1.6415050778917968,-0.2586623343631625,-0.6502145513027906,0.1460078507661819,-0.2899635732173919,-0.9626729488372804,walking
2.194021240234375,-1.4562021403804422,-0.3416404773011803,-0.5389572393417358,0.1472805738449096,-0.2101278901100158,-0.9482138752937316,walking
2.20409619140625,-1.2410321801327169,-0.4045210041061043,-0.4078735294044017,0.1613621860742569,-0.2143777310848236,-0.9188241958618164,walking
2.21417041015625,-1.0976021988414226,-0.4500760098397731,-0.2960515692979097,0.1836331337690353,-0.2758147418498993,-0.875217080116272,walking
2.2242451171875,-0.9911540407277644,-0.4791436988919973,-0.2456850716292858,0.2173869013786316,-0.3753859102725982,-0.8166384696960449,walking
2.2343193359375,-0.8983888093993068,-0.5329454317063093,-0.3403974915027618,0.2641749083995819,-0.4507879912853241,-0.7552089095115662,walking
2.244394287109375,-0.8019071878962218,-0.6471528256446123,-0.5309469513654709,0.3179592788219452,-0.4695639014244079,-0.6978586912155151,walking
2.25446826171875,-0.6817969996549189,-0.8307648874595761,-0.6254115339577198,0.3579245507717132,-0.5028249621391296,-0.6412010192871094,walking
2.264543212890625,-0.5342293340370059,-1.0517395884633065,-0.6076274554640054,0.356339693069458,-0.5727365016937256,-0.5997317433357239,walking
2.2746171875,-0.4831517654895782,-1.2998890043795108,-0.577780598732829,0.3154428601264953,-0.7501677870750427,-0.5794919729232788,walking
2.284691162109375,-0.749506700181961,-1.4737030180186033,-0.718476771146059,0.206444501876831,-1.0576053857803345,-0.6056249737739563,walking
2.294766357421875,-1.3139388647809624,-1.4600895032078027,-1.1101514454215764,0.0512077696621418,-1.3988151550292969,-0.6848787665367126,walking
2.304840087890625,-1.7784917282626032,-1.3469815949440005,-1.8579928427398205,-0.095316357910633,-1.566441774368286,-0.7873762249946594,walking
2.314915283203125,-1.9925465668752789,-1.042467609988153,-2.8328035053014755,-0.1772623509168625,-1.4755035638809204,-0.8803381323814392,walking
2.324989013671875,-2.1576003509536386,-0.5345557895123958,-3.7714959757775066,-0.1682101637125015,-1.172493577003479,-0.9425307512283324,walking
2.335064208984375,-2.3742133496165274,0.1227338147431612,-4.2703947609752415,-0.0757446736097335,-0.6864083409309387,-0.9646272659301758,walking
2.34513818359375,-2.421326106186211,0.7116951481819153,-4.183443622753024,0.0731069147586822,-0.1582114696502685,-0.953118860721588,walking
2.355213134765625,-2.3350556437045333,1.0652584107279777,-3.5680525475502014,0.2468510121107101,0.2565638720989227,-0.9396581649780272,walking
2.365287109375,-1.982639213106036,1.0955053726926445,-2.53454302778244,0.4147124290466308,0.4651395380496979,-0.9389753341674804,walking
2.3753623046875,-1.474681653792411,0.9465376310184598,-1.3226444415450096,0.55615234375,0.4646252691745758,-0.9421274065971376,walking
2.38543603515625,-1.0254434099510312,0.7377633631572127,-0.2227940253853798,0.65819251537323,0.3269278109073639,-0.9553534388542176,walking
2.39551123046875,-0.5973872164785862,0.5685124196499586,0.7398340319514274,0.7052074074745178,0.1272631883621215,-0.9713579416275024,walking
2.40558544921875,-0.3034374417655169,0.4597998237356543,1.541336292308569,0.689227819442749,-0.1095864847302436,-0.9947698712348938,walking
2.415659423828125,-0.1124111581712961,0.4530567792162299,2.076979292535782,0.5981042981147766,-0.3483617603778839,-1.013792872428894,walking
2.425734375,0.0601420417517423,0.5216378557503223,2.353261162480712,0.4590602219104767,-0.560406506061554,-1.010650396347046,walking
2.435808349609375,0.1791641424953937,0.6182827049911022,2.369208673197031,0.2836495339870453,-0.7166429758071899,-0.9797160029411316,walking
2.44588330078125,0.2407235036991536,0.7288117026776075,2.108354089486599,0.1064129918813705,-0.8339770436286926,-0.92985862493515,walking
2.45595751953125,0.2246269399009645,0.8179267409354448,1.6137293283462524,-0.0415881909430027,-0.8995749950408936,-0.8832716941833496,walking
2.4660322265625,0.0821330704160034,0.8589093241870402,0.984191654369235,-0.1394571810960769,-0.9046858549118042,-0.8527182340621948,walking
2.4761064453125,-0.1405519416369497,0.9231231454223394,0.3325041079044342,-0.1804232597351074,-0.8670356869697571,-0.8375387787818909,walking
2.486181396484375,-0.3569502746358514,0.9518138178557156,-0.2506125911593437,-0.1685623228549957,-0.8046854734420776,-0.8321422934532166,walking
2.49625537109375,-0.5158065192483365,0.983533190460503,-0.7082125667631626,-0.1180597320199012,-0.7339247465133667,-0.8359293341636658,walking
2.506330322265625,-0.6294252996437251,0.9492267239719628,-1.0788713410168886,-0.0412012040615081,-0.6906536817550659,-0.8371976017951965,walking
2.516404296875,-0.6373394337691366,0.8819263348981737,-1.3167080372333526,0.0476042963564395,-0.6803182363510132,-0.834846556186676,walking
2.526479248046875,-0.6258709681630135,0.8178139282107353,-1.4517390234917402,0.134096011519432,-0.6725918650627136,-0.8337467312812805,walking
2.536553466796875,-0.5970161912091076,0.7689534511908889,-1.4620622645854948,0.2085843682289123,-0.6595485210418701,-0.8374919295310974,walking
2.54662744140625,-0.560698092637211,0.7128259057775139,-1.3908832805126905,0.2509710490703583,-0.6264883279800415,-0.838610053062439,walking
2.556702392578125,-0.5338154925391078,0.6924459655717015,-1.2636340341717005,0.2694211602210998,-0.553227424621582,-0.834875226020813,walking
2.566776611328125,-0.5439674687191843,0.6656237173587083,-1.08392277918756,0.2693231105804443,-0.4607500433921814,-0.8315917253494263,walking
2.576851318359375,-0.5687972279407084,0.6385150534197688,-0.8456208035469055,0.2525047063827514,-0.3771161139011383,-0.8343427777290344,walking
2.586925537109375,-0.5658874779738485,0.5951888296514749,-0.5454547846674919,0.2359519898891449,-0.3246565759181976,-0.8384345769882202,walking
2.59700048828125,-0.4758258065156638,0.5408198183432221,-0.231370715072751,0.2255286425352096,-0.3114835023880005,-0.8476732969284058,walking
2.607074462890625,-0.284598885782808,0.4771685994267463,-0.0064823477566242,0.232652947306633,-0.3283442258834839,-0.838709831237793,walking
2.6171494140625,-0.095224314918369,0.397253643451631,0.1414724174827337,0.256873071193695,-0.3724376559257507,-0.81718510389328,walking
2.627223388671875,0.0736202397450804,0.3090884532645344,0.2552320676535368,0.2847343385219574,-0.443206250667572,-0.7941686511039734,walking
2.63729833984375,0.1072847550682723,0.2114274127185344,0.3828267664313316,0.2998978495597839,-0.5283978581428528,-0.7760477066040039,walking
2.64737255859375,0.0861066502220928,0.1300555359333753,0.4838789107203483,0.2924979925155639,-0.6550419330596924,-0.7590518593788147,walking
2.657447265625,-0.0013923311412334,0.0888017345249652,0.5022814133733511,0.2793616950511932,-0.7596756815910339,-0.7416901588439941,walking
2.667521484375,-0.1559355348601937,0.0451011244863271,0.4003250137209892,0.2611589729785919,-0.7972959876060486,-0.7331557869911194,walking
2.6775966796875,-0.3363214742355048,0.0352694663017988,0.2306634435862302,0.2355007380247116,-0.7639918327331543,-0.7405335307121277,walking
2.68767041015625,-0.4727678802497684,0.0092588267326354,0.0864057792991399,0.2212394624948501,-0.6732877492904663,-0.7571184635162354,walking
2.697744384765625,-0.5893349890567362,0.0068207859307527,0.0021738369077444,0.2133027166128158,-0.5504515767097473,-0.7747970819473267,walking
2.7078193359375,-0.5854429500542581,0.0738105016201734,0.0235942260771989,0.2187883108854293,-0.448812872171402,-0.7896119952201843,walking
2.717893310546875,-0.5081494286239147,0.1203349369078874,0.1439811854332685,0.224901333451271,-0.401178777217865,-0.7889648079872131,walking
2.727968505859375,-0.3641555298395454,0.1523766733348369,0.3189361858010291,0.2526712417602539,-0.3982816636562347,-0.7701404690742493,walking
2.738042236328125,-0.1967249336272478,0.1919903063207864,0.4749836566030979,0.2888790667057037,-0.4090509414672851,-0.7386925220489502,walking
2.748117431640625,-0.0788894123196601,0.2586976979374885,0.567280832028389,0.3279085457324981,-0.4096377789974212,-0.7003187537193298,walking
2.75819140625,-0.0682376699239015,0.3090565968215465,0.6532149021625518,0.365725427865982,-0.3858823776245117,-0.6606712341308594,walking
2.768266357421875,-0.1008386476688086,0.3129623720884323,0.7396662741690874,0.3837170600891113,-0.3754304647445678,-0.6244285702705383,walking
2.77834033203125,-0.0724795452773571,0.285358910369873,0.7532113999187946,0.3953838348388672,-0.3482915163040161,-0.5851402878761292,walking
2.78841552734375,-0.0334027956470847,0.230354231506586,0.7704349219202995,0.4050688445568084,-0.3082573711872101,-0.54586261510849,walking
2.798489501953125,-0.004366816907376,0.195978499174118,0.8305611815810203,0.3974436819553375,-0.2696191668510437,-0.5134490132331848,walking
2.808564453125,-0.0187830264031887,0.1210188275188207,0.8889642707109451,0.3751164972782135,-0.2401190102100372,-0.4811582565307617,walking
2.818638427734375,0.0071611238010227,0.0318763167321681,0.9339742097824812,0.3442459106445312,-0.2120080143213272,-0.4469015002250671,walking
2.82871240234375,0.0816002787135541,-0.1048445223093032,0.9341267699956892,0.3130552172660827,-0.1771287620067596,-0.4108774363994598,walking
2.83878759765625,0.1265185939788818,-0.2413520108610391,0.9258575388222932,0.2838917374610901,-0.1287428587675094,-0.3866210877895355,walking
2.848861328125,0.1683634931482374,-0.3609492811441421,0.9403712173432112,0.2573568224906921,-0.1278260350227356,-0.3571913242340088,walking
2.8589365234375,0.279323721858859,-0.5065554374307394,0.947568435370922,0.2327646762132644,-0.123900793492794,-0.3254666626453399,walking
2.86901025390625,0.3710002811677754,-0.7501800693988799,0.9473042314767836,0.207513228058815,-0.1259861141443252,-0.2900507748126983,walking
2.87908544921875,0.4739719953425228,-0.9905389775693416,0.8434101417601108,0.1909885704517364,-0.2090732753276825,-0.2548352777957916,walking
2.889159423828125,0.5240148140147328,-1.1658528743773695,0.5716062940120696,0.2096852958202362,-0.3229506015777588,-0.231331005692482,walking
2.899234375,0.4510540610916912,-1.2055366499900817,0.2006786396890878,0.262226790189743,-0.3940870761871338,-0.2030122876167297,walking
2.909308349609375,0.2969609392277896,-1.1142454367369412,-0.2261988653928041,0.3398455381393432,-0.4221271276473999,-0.1763158738613128,walking
2.919383544921875,0.220133135613054,-0.948922188067436,-0.5807441247135401,0.4243614673614502,-0.3191695809364319,-0.1307443976402282,walking
2.929457275390625,0.4068313268750905,-1.0842927815437315,-0.676540248170495,0.4915533065795898,-0.1548738479614257,-0.0623360387980937,walking
2.939532470703125,0.754814085875079,-1.381802732956409,-0.3415817328512668,0.509319543838501,-0.115425243973732,0.0037076913286,walking
2.9496064453125,0.8214444667328149,-1.6249457188874483,0.1869113956212997,0.4453949928283691,-0.2756567895412445,0.0248764604330062,walking
2.959680419921875,0.5132153337113559,-1.7353437836706638,0.6258662919878959,0.2899798452854156,-0.6942146420478821,-0.0047035361640155,walking
2.96975537109375,0.0947678033225238,-1.7642185804992914,0.3861918589502572,0.125504121184349,-1.144076585769653,-0.0646718889474868,walking
2.979829345703125,-0.2875897381618619,-1.67548406599164,-0.4824404023498296,0.0255607534199953,-1.3068439960479736,-0.1483734548091888,walking
2.989904296875,-0.7486512523964047,-1.2498638674944638,-1.506803908109665,0.0048888572491705,-1.2213062047958374,-0.2369469553232193,walking
2.999978515625,-1.2981671490229665,-0.4406880037695169,-2.301723282945156,0.0498326309025287,-1.0566471815109253,-0.2908634543418884,walking
3.01005322265625,-1.741414628016949,0.4226344606846571,-2.737334714102745,0.1419774442911148,-0.7738274335861206,-0.2943105101585388,walking
3.02012744140625,-1.9681562219843267,1.1269979508042336,-2.868157142755389,0.2753922343254089,-0.3719492256641388,-0.261793851852417,walking
3.030202392578125,-1.9818284812450409,1.511727920508385,-2.622539875665307,0.4171131551265716,0.0124821215867996,-0.2262919545173645,walking
3.0402763671875,-1.8435829168543216,1.680922457653284,-1.990231567931175,0.52425616979599,0.2711613476276397,-0.2193669378757476,walking
3.050351318359375,-1.572571096266806,1.5496441019266842,-1.1290157203674316,0.5750079154968262,0.3666923940181732,-0.2373628765344619,walking
3.06042529296875,-1.2286126974120737,1.2976274891883135,-0.1777420007377863,0.5420249700546265,0.2601552903652191,-0.2555008828639984,walking
3.070500244140625,-0.6793105166014284,0.975241455194354,0.4152513646960258,0.4572441577911377,0.0382081381976604,-0.2423715740442276,walking
3.080574462890625,-0.0849228472650051,0.6719716250807046,0.6147434249490499,0.3720099627971649,-0.1551384180784225,-0.1906082481145858,walking
3.090649169921875,0.1943711370427161,0.5380816255509853,0.5475011958032846,0.2966409623622894,-0.2985739111900329,-0.1300505548715591,walking
3.100723388671875,0.0976296955596655,0.636940643709898,0.2907172225326299,0.2517363131046295,-0.3560752868652344,-0.0976310893893241,walking
3.11079736328125,-0.20040420666188,0.8490952016592025,-0.108192663693428,0.243760660290718,-0.283510684967041,-0.0919163227081298,walking
3.120872314453125,-0.4906075613882392,0.9685457569479942,-0.4821557401895522,0.2578067183494568,-0.141782060265541,-0.1111161187291145,walking
3.1309462890625,-0.6628100481774658,0.9816887316375972,-0.4949614457488059,0.2691661715507507,-0.0382477939128875,-0.1692405641078949,walking
3.141021484375,-0.690469989323616,0.8401344810903072,-0.164508425155282,0.2692671120166778,-0.0220459196716547,-0.2739805579185486,walking
3.15109521484375,-0.649151744376868,0.6789923174977303,0.1496954714268445,0.2629887759685516,-0.028824720531702,-0.3960652649402618,walking
3.16117041015625,-0.722498062551394,0.6656506053656339,0.5330179124206305,0.2492732256650924,-0.0320410206913948,-0.515184223651886,walking
3.171244140625,-0.7213749037403613,0.7115776592820883,0.9519313067555428,0.2058598697185516,-0.0660676285624504,-0.6191186904907227,walking
3.1813193359375,-0.5946664862778037,0.7180009703278541,1.3519441857874392,0.1439600139856338,-0.1438329964876175,-0.7057334780693054,walking
3.191393310546875,-0.3510281180452555,0.7030126600325107,1.5866437530219557,0.0775916427373886,-0.2172725945711136,-0.7747024297714233,walking
3.20146826171875,-0.0036032121237367,0.6982096436649561,1.8179811503469945,0.0143718319013714,-0.271673321723938,-0.8423182368278503,walking
3.211542236328125,0.3811285842113197,0.6347311509668827,2.2198072162806985,-0.0533408485352993,-0.4198791682720184,-0.9039323925971984,walking
3.221617431640625,0.4578307886850088,0.7828332157224416,2.20581668485105,-0.1335890889167785,-0.501013994216919,-0.928470253944397,walking
3.231691162109375,0.4673995581496507,1.0776549509644509,2.155450771704316,-0.215820163488388,-0.5256877541542053,-0.8725119829177856,walking
3.241765380859375,0.5564147162295877,1.1414870794057843,1.8143015850514173,-0.2989808320999145,-0.4788422286510467,-0.7648524045944214,walking
3.251840087890625,0.5980529869109392,0.8375795359104872,1.307450964066386,-0.361795425415039,-0.3717410564422607,-0.6708412766456604,walking
3.261914306640625,0.4023997741684317,0.4027075249433517,0.7148048046350479,-0.3755538463592529,-0.2329986244440078,-0.6550766825675964,walking
3.2719892578125,0.0401496395587921,0.0461614471942186,0.412604649579525,-0.3607717752456665,-0.1119887605309486,-0.7092152237892151,walking
3.282063232421875,-0.2903505081120878,-0.0026665888607501,0.5947200430959463,-0.3308881819248199,-0.1276942193508148,-0.7582306861877441,walking
3.29213818359375,-0.2617604465089738,0.3214537215799093,1.114779689744115,-0.3131141662597656,-0.2928893864154815,-0.7239382863044739,walking
3.30221240234375,0.1684285942737013,0.4264695088028907,1.5455261452138422,-0.311848908662796,-0.546043872833252,-0.5787848234176636,walking
3.312287353515625,0.6604062749713658,0.3167886523783206,1.6259189478337763,-0.3092595636844635,-0.7222335934638977,-0.3650732636451721,walking
3.322361328125,0.5648927678480744,0.3001262713909149,1.2109592595607042,-0.2813706696033478,-0.7093542814254761,-0.1735182255506515,walking
3.3324365234375,0.113154523884505,0.2759066068917513,0.7558277198970318,-0.2613967061042785,-0.6111326217651367,-0.065223179757595,walking
3.34251025390625,-0.3723397130779922,0.0569523057997226,0.4533481633782386,-0.2538479566574096,-0.4663919508457184,-0.0317653566598892,walking
3.35258544921875,-0.7111521273463964,-0.2219546519517898,0.3060848875343799,-0.2299553751945495,-0.3068008720874786,-0.0543599650263786,walking
3.3626591796875,-0.977735025575757,-0.4770744914025068,0.3044499798089266,-0.2148094475269317,-0.1613730788230896,-0.1115068718791008,walking
3.3727333984375,-1.1087509309738874,-0.6429641417831182,0.5658318022638559,-0.228284403681755,-0.0756037905812263,-0.177790030837059,walking
3.382808349609375,-1.0299018506646156,-0.766888627615571,0.968413655000925,-0.2853668630123138,-0.0626994371414184,-0.2292263209819793,walking
3.39288232421875,-0.7802079817853868,-0.8992413345754146,1.3543074077874422,-0.3706349730491638,-0.1213590800762176,-0.2533380389213562,walking
3.402957275390625,-0.4741158607926219,-0.9953045845359564,1.5131214206933974,-0.4638192355632782,-0.209659919142723,-0.2484181076288223,walking
3.41303125,-0.1813929244607686,-1.0534276876807211,1.4263655127823351,-0.5489739775657654,-0.2682864665985107,-0.2262749373912811,walking
3.423106201171875,0.0274525089405477,-1.06930096411705,1.1328244650006294,-0.5945262908935547,-0.272642582654953,-0.1848545223474502,walking
3.4331806640625,0.1201958937633782,-1.0409463917702435,0.61604866232872,-0.5971787571907043,-0.1968042403459549,-0.1306582987308502,walking
3.443255126953125,0.0991926340274512,-1.0248556731909513,-0.0047533320069313,-0.5352938175201416,-0.0579326376318931,-0.0787660703063011,walking
3.45332958984375,0.0281758547790348,-1.0441431419849394,-0.4635638524442911,-0.4392637610435486,0.0789042934775352,-0.0468661002814769,walking
3.463404296875,0.0098741090867668,-1.1328899314522742,-0.6358528484731912,-0.3331056237220764,0.1701212972402572,-0.0466644987463951,walking
3.473478515625,0.0433537693623453,-1.3033026122152804,-0.590613776820898,-0.2314638644456863,0.2203325778245926,-0.0639710575342178,walking
3.48355322265625,0.1574478391192853,-1.424618376854062,-0.4013964423447847,-0.1504582315683365,0.2022561132907867,-0.0754524767398834,walking
3.493627685546875,0.2891667782202363,-1.4619728327363728,-0.3157867818593978,-0.0876179337501525,0.1554203182458877,-0.0689953714609146,walking
3.5037021484375,0.3301132672451436,-1.424374046704173,-0.3114052057743072,-0.0474393516778945,0.1101577654480934,-0.0512169003486633,walking
3.513776611328125,0.3941450099118053,-1.3509089975208044,-0.2591021870851516,-0.0405439361929893,0.0962481200695037,-0.0259619578719139,walking
3.523850341796875,0.5035290753468871,-1.305375326836109,-0.157240479978919,-0.0656804516911506,0.1369944810867309,0.0145636312663555,walking
3.533925537109375,0.7195008534967899,-1.372578977537155,0.0314659823656082,-0.1257449090480804,0.2153850942850113,0.0740450248122215,walking
3.54399951171875,1.1027208570294085,-1.64713592338562,0.4076151707291602,-0.223786249756813,0.1756355464458465,0.1510167717933654,walking
3.554074462890625,1.2438354009851813,-1.8972849886864425,0.7727034513741731,-0.3869077861309051,-0.0583569556474685,0.2083359360694885,walking
3.5641484375,1.0242157678522168,-1.908822281745076,0.8834323555469512,-0.5813574194908142,-0.4419312477111816,0.2220639884471893,walking
3.5742236328125,0.6275795256465673,-1.8080606448352337,0.4102437656670809,-0.7421673536300659,-0.760983943939209,0.208903357386589,walking
3.58429736328125,0.2290226175766438,-1.69016141064167,-0.6768120508491993,-0.8035374879837036,-0.7944396138191223,0.1774333119392395,walking
3.59437255859375,-0.1784801788192242,-1.512332608403265,-1.9976269388794896,-0.7512641549110413,-0.5669447779655457,0.1254725754261016,walking
3.6044462890625,-0.5019924403641373,-1.1915753446549175,-2.915940638193488,-0.6168496012687683,-0.2792413532733917,0.0581923350691795,walking
3.614521484375,-0.6377482337657362,-0.8192498062327503,-3.3143145178467037,-0.4357277154922485,-0.060022048652172,-0.0101792020723223,walking
3.624595458984375,-0.5848123240005224,-0.526839808307588,-3.2008535583615303,-0.2516646683216095,0.0117386914789676,-0.0706752985715866,walking
3.63467041015625,-0.3909088775347918,-0.2417144144326448,-2.806997448393702,-0.1022030934691429,-0.0157568156719207,-0.1114959493279457,walking
3.644744384765625,-0.2258377769954502,0.03110825496912,-2.341224687728286,0.026592968031764,-0.0114331729710102,-0.1316582113504409,walking
3.654818603515625,-0.1616677218366414,0.323738909907639,-1.8800410084187984,0.1363096237182617,0.1143263503909111,-0.136155754327774,walking
3.664893310546875,-0.0678730743952095,0.6389166199579834,-1.307192020869255,0.2190343290567398,0.3074899315834045,-0.1407401263713836,walking
3.674967529296875,0.1216681582730263,0.8780079924106597,-0.4687994150102138,0.2544872462749481,0.4652734696865082,-0.1368435770273208,walking
3.68504248046875,0.4014329018976539,0.9612491701990366,0.3767167591184377,0.2361894845962524,0.5459877848625183,-0.1140138953924179,walking
3.695116455078125,0.6175058753997087,0.9285662132591008,1.0380021550118923,0.1905933320522308,0.5528053641319275,-0.0845879912376403,walking
3.70519140625,0.833079959468916,0.847171540120244,1.5462299095690248,0.1257725208997726,0.4913729131221771,-0.0582029931247234,walking
3.715265380859375,1.0558145097520202,0.7695841503098607,1.8417033867180344,0.0564545132219791,0.3396437168121338,-0.0335293263196945,walking
3.72534033203125,1.2957213633060454,0.7310816934362053,1.8846043708115816,-0.0081883957609534,0.1392525732517242,0.0011937636882066,walking
3.73541455078125,1.4782491370156408,0.7356316118255257,1.6779373043626546,-0.0653794184327125,-0.0335833244025707,0.0473921485245227,walking
3.7454892578125,1.4986995121091604,0.7976113903984426,1.28267658829391,-0.097678504884243,-0.1638017743825912,0.1015579104423523,walking
3.7555634765625,1.2996847139790653,0.9220201526165008,0.8063029386371373,-0.1174969598650932,-0.2263126969337463,0.1442533433437347,walking
3.765638427734375,1.023764516953379,1.074717143946886,0.3533236085712909,-0.1189577057957649,-0.2264293432235717,0.1777066439390182,walking
3.77571240234375,0.7588163803189992,1.1593597129657864,0.0035147301226854,-0.092893436551094,-0.1636653542518615,0.2050282806158065,walking
3.785786376953125,0.5624565536770969,1.193183948895335,-0.1691816776633262,-0.0656905844807624,-0.0974684953689575,0.2143597304821014,walking
3.795861328125,0.3607238748904317,1.1908663196027278,-0.2858896562457084,-0.0369864851236343,-0.0271411966532468,0.2094796001911163,walking
3.805935302734375,0.2168541870076209,1.1139002765610813,-0.2684118672221899,-0.0129530569538474,0.0454805381596088,0.188732236623764,walking
3.816010498046875,0.1504014277391135,1.0506479938343167,-0.1413110894411802,0.0016128155402839,0.0834002122282981,0.157449722290039,walking
3.826084228515625,0.157908661564067,0.9589236498609184,0.0441693965941667,0.0102590341120958,0.1100344806909561,0.1177896708250045,walking
3.836159423828125,0.1795461275503039,0.9112079589620232,0.1579781466037035,0.0282127559185028,0.1521052569150924,0.0804467722773552,walking
3.8462333984375,0.1937023709356784,0.8933876401111484,0.2875771709412336,0.0428353734314441,0.1754167079925537,0.0526524260640144,walking
3.856308349609375,0.2483621818840503,0.8829036554977298,0.4528852220416068,0.0559892579913139,0.1690309792757034,0.0260762106627225,walking
3.86638232421875,0.3172816965922713,0.8663596401929855,0.5293564673036336,0.0749682784080505,0.1656591445207595,0.0088359704241156,walking
3.87645751953125,0.3722196668948977,0.8373927811667322,0.580498040997982,0.0980875939130783,0.1927537769079208,-0.0059039145708084,walking
3.88653125,0.3720975748851895,0.8441405018612742,0.7069482459157704,0.105642981827259,0.2350517064332962,-0.0208951141685247,walking
3.8966064453125,0.4383271198570728,0.8151686743989587,0.9324439314752816,0.0854050293564796,0.2599777281284332,-0.0217168815433979,walking
3.90668017578125,0.5521631962649524,0.738031366443634,1.1262632067888974,0.0477708391845226,0.2612839937210083,-0.0080878902226686,walking
3.91675537109375,0.6929578606165945,0.5808402785643935,1.2773100928246974,0.0062184175476431,0.2511556446552276,0.0129475099965929,walking
3.926829345703125,0.7599732952691615,0.4379617936760187,1.3279022159427405,-0.0228808782994747,0.2242883443832397,0.031551819294691,walking
3.9369033203125,0.7871625501636416,0.3376961235895753,1.3421417536973952,-0.0414184965193271,0.1727969944477081,0.0522349365055561,walking
3.946978515625,0.8907569262813776,0.1918637573316693,1.3654209224760532,-0.0541646517813205,0.094942420721054,0.078927531838417,walking
3.95705224609375,1.0000595239780845,0.0396411055147647,1.3355454241722822,-0.0526196807622909,0.0146824745461344,0.1182593926787376,walking
3.96712744140625,1.0436742092989384,-0.0953410731658339,1.1564297969937325,-0.0267974063754081,-0.0445363745093345,0.1578006744384765,walking
3.977201416015625,0.9689069914758204,-0.2115320421367883,0.9452414537280798,0.0114978794008493,-0.0775177031755447,0.1877804100513458,walking
3.9872763671875,0.7975533766008913,-0.3216904529452323,0.7963689891219139,0.045014027506113,-0.109438881278038,0.194860965013504,walking
3.997350341796875,0.6392532315012067,-0.459761245290935,0.7301794838994741,0.0511106960475444,-0.1530563682317733,0.189073383808136,walking
4.007425537109375,0.490087994493544,-0.6221817582562565,0.7047019282937049,0.0372428148984909,-0.1997293382883072,0.1725585907697677,walking
4.017499267578125,0.3235671335373073,-0.7911518389955162,0.619159487825632,0.0054543409496545,-0.2520802319049835,0.1502939313650131,walking
4.027574462890625,0.1665825280155986,-0.9165949126973748,0.4691033663928508,-0.0298964586108922,-0.3000368475914001,0.1094205379486084,walking
4.0376484375,-0.0234587631292641,-1.0316884418204426,0.2297814000546932,-0.0626609548926353,-0.3239707052707672,0.0685324668884277,walking
4.047723388671875,-0.2064098768174648,-1.0989347626194357,-0.0200806649982929,-0.0772734507918357,-0.339906245470047,0.0201393701136112,walking
4.05779736328125,-0.2582341720789671,-1.1241896153852342,-0.3035001317381858,-0.0661646202206611,-0.3403802216053009,-0.0191227998584508,walking
4.067871337890625,-0.3403995373293757,-1.057573409183323,-0.5683136822074651,-0.0208858251571655,-0.3085176050662994,-0.0535268448293209,walking
4.0779462890625,-0.4264657094106078,-0.9950035557627678,-0.7320049457609653,0.0507917664945125,-0.2529125511646271,-0.0824086219072341,walking
4.0880205078125,-0.4671554471954703,-0.9597036943227052,-0.7735089225381613,0.1279808282852172,-0.2251978367567062,-0.1143614947795867,walking
4.09809521484375,-0.4914111328560858,-1.0114800587892532,-0.7395242353498935,0.207149475812912,-0.2399298995733261,-0.1469200700521469,walking
4.10816943359375,-0.4655279921241104,-1.139822653324902,-0.7136977201759814,0.2864387035369873,-0.2921294569969177,-0.1772372275590896,walking
4.118244384765625,-0.4215149551354348,-1.2654355306357146,-0.6855787101507187,0.3512313663959503,-0.3473897278308868,-0.2115456759929657,walking
4.128318359375,-0.4144077534787356,-1.3794728287041187,-0.6455249321818352,0.3965173661708832,-0.3983778059482574,-0.2551517486572265,walking
4.138393310546875,-0.5371355038072914,-1.4394985505998137,-0.6587456482827663,0.4234194159507751,-0.373926967382431,-0.3069663941860199,walking
4.14846728515625,-0.606110036638379,-1.5559885025173426,-0.6969307097703218,0.4299627840518951,-0.1570867747068405,-0.355375200510025,walking
4.158542236328125,-0.3463879640892148,-1.925610919460654,-0.4657476262241601,0.3738054037094116,-0.0542276166379451,-0.4087154567241668,walking
4.168616455078125,-0.1861243368968367,-2.1896219213753936,0.1108569144666194,0.201176106929779,-0.1737449616193771,-0.4800671339035034,walking
4.178691162109375,-0.4201718699634075,-2.1950743415623903,0.6265326469421386,-0.0486563667654991,-0.4915753901004791,-0.5654813647270203,walking
4.188765380859375,-0.8958302840229123,-1.96060682951808,0.6232517255753278,-0.3004204332828522,-0.824269711971283,-0.6619234681129456,walking
4.198839111328125,-1.5177683697164055,-1.5285574747562407,0.0084194532990455,-0.514106810092926,-0.997643768787384,-0.7986395359039307,walking
4.208914306640625,-1.983995303890109,-1.099143144673109,-0.980083050006628,-0.6690503358840942,-0.9075655341148376,-0.9512962102890016,walking
4.21898828125,-2.356754995945841,-0.5016036602422594,-1.988952049514651,-0.7329537272453308,-0.616096556186676,-1.0856422185897827,walking
4.2290634765625,-2.5327216575741764,0.286841550143063,-2.706742007440329,-0.6991571187973022,-0.2163584679365158,-1.154500961303711,walking
4.23913720703125,-2.3084771411195395,0.9873764218851924,-2.9089316362142563,-0.5999159812927246,0.1333566308021545,-1.1472837924957275,walking
4.24921240234375,-1.6730626840636134,1.357237616020441,-2.626694657257199,-0.4925066828727722,0.2538723647594452,-1.067009210586548,walking
4.2592861328125,-0.8509337421979755,1.4449986093208194,-2.1778695242613555,-0.3777262568473816,0.109816201031208,-0.9317530393600464,walking
4.269361328125,-0.3247310627501458,1.4987982963085174,-1.883670889353752,-0.2556144893169403,-0.1476028263568878,-0.7723168134689331,walking
4.279435302734375,-0.117040279276669,1.6046163398250937,-1.8429776444375516,-0.0942621082067489,-0.34359011054039,-0.6085302829742432,walking
4.28951025390625,-0.3032469606947153,1.7769231637716292,-1.9152356559187171,0.0763173550367355,-0.4288232624530792,-0.4663292169570923,walking
4.299584228515625,-0.7770186111595481,1.903878395602107,-1.9275351655215025,0.2243083715438842,-0.4073029160499573,-0.3632970154285431,walking
4.309659423828125,-1.2659905341699718,1.8639406452283265,-1.7394699236899611,0.3313815593719482,-0.292185366153717,-0.3000618517398834,walking
4.319733154296875,-1.5285238647475838,1.6858520230099558,-1.3438988264977931,0.4029712080955505,-0.1894423216581344,-0.2754111886024475,walking
4.3298076171875,-1.5490901213057338,1.498459565873444,-0.8246797223269939,0.4435471296310425,-0.1508906632661819,-0.2621691823005676,walking
4.339882080078125,-1.5616303077965974,1.3638108569309115,-0.2602542797297239,0.4678809344768524,-0.17730513215065,-0.2530286610126495,walking
4.34995654296875,-1.5942355233252048,1.2553124882891773,0.2937345245271921,0.4606733620166778,-0.2610820531845093,-0.2648096978664398,walking
4.36003125,-1.764467294563353,1.1376526158094404,0.6753793876975774,0.4266165494918823,-0.3390686511993408,-0.3145627975463867,walking
4.37010546875,-2.023024414986372,0.991533833825588,0.918319544532895,0.3918111622333526,-0.3732053339481354,-0.3979905843734741,walking
4.38018017578125,-2.1482342644542456,0.927072175309062,1.0834639295041562,0.3494702875614166,-0.3616356253623962,-0.5217282176017761,walking
4.390254638671875,-2.103627207095176,0.9205398509308697,1.2331237450957298,0.2993805110454559,-0.3137168288230896,-0.6510007381439209,walking
4.4003291015625,-1.8442793746858837,0.9293877587750552,1.4237246428847312,0.236967995762825,-0.2619841396808624,-0.7559290528297424,walking
4.410403564453125,-1.492831204597652,0.9879103826314212,1.6560650797724723,0.1484250873327255,-0.2330624610185623,-0.8243310451507568,walking
4.42047802734375,-1.1459488080549984,1.0671323879063128,1.8694144004642963,0.0520623065531253,-0.2520591020584106,-0.8551089763641357,walking
4.430552490234375,-0.8305133238513022,1.1720502677127718,1.968303229239583,-0.052868902683258,-0.2982452511787414,-0.8528980612754822,walking
4.440627197265625,-0.5346990704406053,1.2934002268821,1.9185516485989091,-0.1397563219070434,-0.3459097146987915,-0.8248529434204102,walking
4.450701416015625,-0.2705112506542355,1.297812782627344,1.7171119614094494,-0.1992718428373336,-0.3704728484153747,-0.7717002630233765,walking
4.4607763671875,-0.0815019329056143,1.26559335154593,1.4604758721768856,-0.2330420613288879,-0.369012713432312,-0.7123469114303589,walking
4.4708505859375,0.0075591101426631,1.219441256701946,1.2276315774202349,-0.2567324638366699,-0.3530297577381134,-0.647250771522522,walking
4.48092431640625,0.071223188540712,1.1313780655846,1.0990221486419438,-0.282007098197937,-0.321114033460617,-0.58393394947052,walking
4.49099951171875,0.0970301952965557,0.9787377728775144,0.975077204543352,-0.291129469871521,-0.2865640521049499,-0.5112648010253906,walking
4.5010732421875,0.0523668777056038,0.7811410248517989,0.7739969983160495,-0.2726835012435913,-0.2558909058570862,-0.4380208849906921,walking
4.5111484375,-0.0855604875814169,0.5792717140734195,0.6057961483836174,-0.228541612625122,-0.2511904239654541,-0.3867435753345489,walking
4.521222412109375,-0.2444277650445699,0.3990338048666715,0.4950748429954051,-0.1625396907329559,-0.2666111886501312,-0.3555824756622314,walking
4.53129736328125,-0.3595528583496808,0.2123968422725796,0.4132452855706214,-0.0816067680716514,-0.2840695381164551,-0.3477849960327148,walking
4.541371337890625,-0.3968031232051551,-0.0070715458214282,0.396395857578516,-0.0018666468095034,-0.2882324457168579,-0.3427673578262329,walking
4.551446533203125,-0.3958626274846494,-0.2224506187751889,0.4202916969507932,0.0590795278549194,-0.303724855184555,-0.3474886119365692,walking
4.561520263671875,-0.4561684814959764,-0.4110317011743783,0.4883867435336113,0.0890717282891273,-0.3389524817466736,-0.3585967421531677,walking
4.571595458984375,-0.500364839162305,-0.5613599175468087,0.4994862296968698,0.0935586243867874,-0.3808820843696594,-0.3714909553527832,walking
4.581669677734375,-0.5478942137088626,-0.7037903664067388,0.4073936369329691,0.0811006724834442,-0.3831813037395477,-0.3995124101638794,walking
4.591744384765625,-0.685109558269009,-0.8157394600242376,0.2468722355872392,0.0549463033676147,-0.3414162993431091,-0.4412550628185272,walking
4.601818603515625,-0.7753773467585444,-0.8786661640584469,0.09873334595263,0.0276508443057537,-0.2689304649829864,-0.491598904132843,walking
4.611892333984375,-0.791689964460209,-0.8877472961366176,0.0025683891832828,0.0072590191848576,-0.1800544112920761,-0.5309644341468811,walking
4.621967529296875,-0.7252604399368167,-0.8858417547762394,-0.0869616596162319,0.0047899349592626,-0.1024176776409149,-0.5594524145126343,walking
4.63204150390625,-0.5722830972950905,-0.8916334899201989,-0.1319599082499742,0.0093924105167388,-0.0501499436795711,-0.5766737461090088,walking
4.642115966796875,-0.361829205783829,-0.9398591761678456,-0.1380389359027147,0.0325710326433181,-0.0269234403967857,-0.5873954892158508,walking
4.65218994140625,-0.0874125451888889,-0.973314871045947,-0.1076239238947629,0.0525274313986301,-0.0180548466742038,-0.5788600444793701,walking
4.66226513671875,0.1487617707733065,-1.0325301533415914,-0.0155418525248765,0.0537411533296108,-0.0218481458723545,-0.558724045753479,walking
4.6723388671875,0.2675212019927799,-1.1051868087515235,0.145188807657361,0.0175743605941534,-0.0422200001776218,-0.5416467785835266,walking
4.6824140625,0.3549612927757203,-1.19673725746274,0.3265115894913673,-0.0520628653466701,-0.0925298258662223,-0.5252950191497803,walking
4.69248779296875,0.4065927688788622,-1.2183221895441412,0.3879161985248327,-0.1479348093271255,-0.1474452763795852,-0.5092238783836365,walking
4.70256298828125,0.4080805962838232,-1.1966767594471572,0.237260357633233,-0.2430849224328994,-0.1389273554086685,-0.492785781621933,walking
4.712636962890625,0.4403123023249208,-1.0864213180050253,-0.0226730195790529,-0.322262555360794,-0.0330134481191635,-0.4616353213787079,walking
4.7227119140625,0.4836277124382555,-0.9186150203481316,-0.3295429200112819,-0.3598922193050384,0.1452017128467559,-0.4155428409576416,walking
4.732785888671875,0.6005748335387557,-0.7520476168364286,-0.5308820694357157,-0.3665381371974945,0.3485726416110992,-0.343709647655487,walking
4.74285986328125,0.833771010472998,-0.6130208389401436,-0.544635869500041,-0.3341777622699737,0.5178698897361755,-0.246697649359703,walking
4.752934814453125,1.164130799825117,-0.6151739253208041,-0.3759066117793321,-0.3081653416156769,0.5804576277732849,-0.1346978694200515,walking
4.763009033203125,1.6026907785899935,-0.8069140562728047,-0.0537608162820339,-0.3021354079246521,0.55157870054245,-0.0095848571509122,walking
4.773083740234375,2.018387987357378,-1.1484200935393571,0.2914595653325319,-0.328520655632019,0.3205423355102539,0.1137125790119171,walking
4.783157958984375,2.0398397945784037,-1.2977283192142843,0.5486877752393484,-0.4174390435218811,-0.1857344359159469,0.1907329559326172,walking
4.79323291015625,1.4798432743392884,-1.1428449237555265,0.420068409588933,-0.5356759428977966,-0.7424254417419434,0.1946081221103668,walking
4.803306884765625,0.5590824010688811,-0.7617118094995617,-0.4578641794979572,-0.5807309150695801,-1.001601219177246,0.1713528931140899,walking
4.813382080078125,-0.1140545414641499,-0.2774000603199005,-1.7289210571467877,-0.5191532969474792,-0.8849790096282959,0.1491977870464325,walking
4.8234560546875,-0.6229761235043406,0.2959381720513105,-2.793467520213127,-0.3420470058917999,-0.4972376525402069,0.1529428958892822,walking
4.833531005859375,-1.013451285796985,0.8984469693273306,-3.3881741193056105,-0.0695702284574508,0.0637354105710983,0.1810752004384994,walking
4.84360498046875,-1.09748617124632,1.3699278785064817,-3.2074738532841205,0.241356685757637,0.6156732439994812,0.2213031500577926,walking
4.85368017578125,-0.7387535432383417,1.4817776034027337,-2.15423204356432,0.5108126401901245,0.940724551677704,0.2592843472957611,walking
4.86375390625,-0.0593891044925898,1.2138777773559093,-0.6927829424411058,0.697035551071167,0.8804625868797302,0.3258246481418609,walking
4.873827880859375,0.643288478366658,0.870234143538773,0.696719697368145,0.7726874351501465,0.5442115664482117,0.4111810624599457,walking
4.88390283203125,1.2765068136177955,0.4942494980871677,1.8012322601199149,0.7480785846710205,0.0573607683181762,0.5026204586029053,walking
4.893976806640625,1.6425222921103235,0.1714651124253869,2.4165017547696825,0.6572280526161194,-0.4477884173393249,0.5824630856513977,walking
4.904052001953125,1.5926679817475378,-0.0230123345360159,2.565020583632588,0.5007123351097107,-0.8401899933815002,0.6152450442314148,walking
4.914125732421875,1.0911677818797527,-0.0193441674172878,2.2515093454897404,0.2954928576946258,-1.0877044200897217,0.5919244885444641,walking
4.924200927734375,0.4323397890757769,0.0371422744363546,1.6179688656121491,0.0719913393259048,-1.1238619089126587,0.5265972018241882,walking
4.93427490234375,-0.0926272841624915,0.0764984255298972,0.8490034317225217,-0.1131044775247573,-0.9329593181610109,0.4410878717899322,walking
4.944349853515625,-0.4740803145552054,0.2923337178185582,-0.0004711246430873,-0.2423956543207168,-0.6379281878471375,0.3604095876216888,walking
4.954424072265625,-0.7162539074648171,0.4838111061811447,-0.6901403189778328,-0.2995883524417877,-0.328340470790863,0.2932689189910888,walking
4.964498779296875,-0.759683080150932,0.5284820225566625,-1.0960270584791898,-0.2868083417415619,-0.0666849240660667,0.230100616812706,walking
4.974572998046875,-0.5936919421572238,0.501015046699345,-1.2513766101449728,-0.2188005298376083,0.0696271061897277,0.1570373177528381,walking
4.98464794921875,-0.3044253933569416,0.4517565102726221,-1.15719902780056,-0.108865775167942,0.0849191024899482,0.0866978093981742,walking
4.994721923828125,0.0585299303799867,0.4957321378603577,-0.9442495200812816,0.0120459990575909,0.0522703453898429,0.0456734150648117,walking
5.0047958984375,0.3920025179903954,0.6208028711184859,-0.7016665061205625,0.1293150782585144,0.0277896262705326,0.0419829674065113,walking
5.01487109375,0.5804030196582898,0.7691016274899244,-0.3860270237773656,0.2137245088815689,0.045495118945837,0.0648517981171608,walking
5.02494482421875,0.7652659217845648,0.872977597028017,0.0459790763646364,0.2569116652011871,0.0541145876049995,0.0974913388490676,walking
5.03502001953125,0.9228174404740332,0.8986611965999006,0.4971773682326078,0.2507144808769226,0.0748888403177261,0.1349463015794754,walking
5.04509375,1.0506957784987985,0.8179422307655215,0.9350497300595044,0.2018114477396011,0.0889111384749412,0.1768371164798736,walking
5.0551689453125,1.1059481485128402,0.7389604639872908,1.2908721697092056,0.1270852833986282,0.0895921066403389,0.2205781936645507,walking
5.065242919921875,1.1031530379015952,0.6459145160213112,1.495458922752738,0.0400095358490943,0.0595651604235172,0.2604850828647613,walking
5.07531787109375,1.0056474071130157,0.5283008207708597,1.599043800389767,-0.0422613695263862,0.0209322813898324,0.2898155152797699,walking
5.085391845703125,0.9008987463936208,0.4147638734400272,1.5248539440631863,-0.0986515507102012,-0.0102486982941627,0.3087469637393951,walking
5.095467041015625,0.7880098877079784,0.3414651207342744,1.3130927693456411,-0.1184705346822738,-0.037952497601509,0.3197434246540069,walking
5.105540771484375,0.6637391457211226,0.2395812017962336,1.0650257710158824,-0.1194430366158485,-0.0380841754376888,0.3199524879455566,walking
5.115615966796875,0.6125766023039817,0.1564855699583888,0.855957488644123,-0.1022568568587303,-0.0017975412774831,0.3032565712928772,walking
5.125689697265625,0.5554175584184006,0.0711865828573703,0.7396119136333466,-0.0931497290730476,0.0695760920643806,0.2887559533119201,walking
5.13576416015625,0.5748758902672678,-0.0104965518340468,0.7133417463451623,-0.0908655375242233,0.1435437947511673,0.2776612043380737,walking
5.1458388671875,0.628387261832878,-0.0722138800784945,0.8060989404976368,-0.1114079505205154,0.1979613900184631,0.2755532264709472,walking
5.1559130859375,0.7112799915097654,-0.1545320978030562,0.9577917232215404,-0.1464745998382568,0.2318828701972961,0.283005028963089,walking
5.16598779296875,0.8335552488304674,-0.1853708881810307,1.0685480999231338,-0.1898641586303711,0.2248373329639434,0.303765058517456,walking
5.176062255859375,0.9993062944579868,-0.2376402968615293,1.1447487115502355,-0.2307426184415817,0.1721304506063461,0.3432285785675049,walking
5.18613671875,1.198950184271857,-0.2848711268529296,1.114355911374092,-0.2532761991024017,0.0969940200448036,0.3993410468101501,walking
5.196211181640625,1.3031830774888395,-0.3533747542366385,0.9593547347545625,-0.2603450417518616,0.0177663061767816,0.4650012850761413,walking
5.20628564453125,1.3047848135970532,-0.4202779606863856,0.8029723329097032,-0.260648101568222,-0.0917103514075279,0.519236147403717,walking
5.216360107421875,1.233847821586579,-0.4988607912749052,0.6039315235555172,-0.2567532360553741,-0.2057524919509887,0.558686375617981,walking
5.226434814453125,1.0593590504910797,-0.590901069329679,0.3467974216729402,-0.2533982992172241,-0.27151620388031,0.5846839547157288,walking
5.236509033203125,0.9017875849921256,-0.7380529937535524,-0.0361585240960121,-0.2352038472890854,-0.2560064792633056,0.6046041250228882,walking
5.246583740234375,0.6426213196948171,-0.8099129458278417,-0.5144914911270141,-0.2092905789613723,-0.1793337017297744,0.6089673638343811,walking
5.256658203125,0.3597751958634704,-0.7607496864691377,-0.8720201501727104,-0.1711666285991668,-0.0794462487101554,0.5992404818534851,walking
5.26673193359375,0.1483290327786933,-0.6900812822669744,-1.120592759937048,-0.1268521249294281,0.0144291575998067,0.5854328274726868,walking
5.27680712890625,0.1050671794835012,-0.6585010258719325,-1.3167244038462638,-0.0616872422397136,0.1133038103580474,0.5812575221061707,walking
5.286880859375,0.1258798576839268,-0.6759773535907269,-1.477336406084895,0.0291160624474287,0.2437526881694793,0.5821650624275208,walking
5.2969560546875,0.1409540744307451,-0.6463268962144851,-1.4828297428041697,0.1193050816655159,0.381075382232666,0.5782803297042847,walking
5.307030029296875,0.1849690476481802,-0.6023255496636033,-1.224799568864703,0.1949597150087356,0.4627058804035187,0.568011462688446,walking
5.31710498046875,0.3501562671141698,-0.6137523680850863,-0.8238456095904111,0.2474610060453415,0.4937420785427093,0.56793212890625,walking
5.327178955078125,0.6752269736148416,-0.6872218011826277,-0.4167606002151965,0.2775409817695617,0.5334875583648682,0.5808269381523132,walking
5.337254150390625,1.0637997363522649,-0.8855801812306046,-0.056446109843254,0.290593683719635,0.5912134647369385,0.6127137541770935,walking
5.347327880859375,1.4079996888779105,-1.1219359912395477,0.4028326126277446,0.2546735405921936,0.6357941031455994,0.6343810558319092,walking
5.357403076171875,1.607360962358117,-1.343507489092648,0.9353186101287604,0.1383682340383529,0.5289222598075867,0.6519690752029419,walking
5.367476806640625,1.6871603291295467,-1.4865300586268304,1.48215754263103,-0.0595925040543079,0.1990038603544235,0.6596449613571167,walking
5.377552001953125,1.3900555975168942,-1.4921253944158552,1.7066063494861126,-0.2975126504898071,-0.2808652818202972,0.6487502455711365,walking
5.3876259765625,0.6587659604184329,-1.236707741062343,1.278041914230585,-0.5115432739257812,-0.7210831642150879,0.5985750555992126,walking
5.397699951171875,-0.1145000932745635,-0.8234501805320381,0.1074602577656507,-0.6427702903747559,-0.8845397233963013,0.5106281638145447,walking
5.40777490234375,-0.7716206245735288,-0.3626642683684826,-1.3243079908430575,-0.6545074582099915,-0.6891855597496033,0.3981123566627502,walking
5.41784912109375,-1.2224725141566246,0.2156491220667958,-2.599831784772873,-0.5374833941459656,-0.2407558411359787,0.3058570027351379,walking
5.427923828125,-1.334639415243268,0.6601382716849445,-3.432997011372447,-0.3226957619190216,0.3612352609634399,0.2609578669071197,walking
5.437998046875,-1.056333930516243,0.9742314013689756,-3.430664184510708,-0.0700701624155044,0.8389075398445129,0.2685364186763763,walking
5.4480732421875,-0.3809177910048514,1.1096943493038416,-2.642763164004683,0.1463707834482193,0.9345495104789734,0.3293136358261108,walking
5.45814697265625,0.4129068473964929,1.0288654933542012,-1.617573728814721,0.3009422421455383,0.7337242364883423,0.4322807788848877,walking
5.46822216796875,1.0757417377542704,0.8540344116270542,-0.8301917637467384,0.4128130376338959,0.3972519040107727,0.5551366806030273,walking
5.4782958984375,1.4370194471351805,0.7379854814752936,-0.4401356305837631,0.5072034001350403,0.0638968497514724,0.6702595353126526,walking
5.48837109375,1.3289406190797686,0.7732064324602484,-0.2945353195160627,0.5762557983398438,-0.1816496700048446,0.7523823976516724,walking
5.498445068359375,0.9097645552206785,0.940220410695672,-0.3648720075458288,0.612098753452301,-0.3096425235271454,0.7957759499549866,walking
5.50852001953125,0.4502848668174818,1.0139549244701862,-0.4823953941643237,0.6064211130142212,-0.3220055997371673,0.8067456483840942,walking
5.518593994140625,0.178761881837435,0.9355024422630668,-0.5222270538151264,0.5637197494506836,-0.2219543904066085,0.8008970618247986,walking
5.528667724609375,-0.0723903143576346,0.8056570419490336,-0.4948059629261493,0.4957655072212219,-0.0501167029142379,0.7726553082466125,walking
5.538742919921875,-0.3300004910530522,0.7458937703818083,-0.356818464949727,0.4049810171127319,0.16110260784626,0.717246413230896,walking
5.54881689453125,-0.5517283850442618,0.6638418023779988,-0.0574894814163446,0.3007664680480957,0.340203195810318,0.624687910079956,walking
5.55889208984375,-0.6336212900288403,0.4929319857478141,0.3503554064154625,0.187174916267395,0.471153199672699,0.50722736120224,walking
5.568966064453125,-0.421367363358289,0.3106023649588227,0.7597539534300565,0.0802744850516319,0.542366623878479,0.4043720960617065,walking
5.579041015625,-0.0651171450168825,0.2444073067784309,1.077007300710678,0.0050598913803696,0.5568782091140747,0.3300406038761139,walking
5.589114990234375,0.3674073712423443,0.2595724349454045,1.283491411808133,-0.0454151108860969,0.5223886966705322,0.2948988676071167,walking
5.59918994140625,0.7656313210308552,0.3077045976907014,1.3830577014535663,-0.0716805383563041,0.4631504118442535,0.2897544503211975,walking
5.60926416015625,1.0340355164032429,0.3236424637958407,1.3497206645190716,-0.0740616917610168,0.4064345955848694,0.3008395135402679,walking
5.6193388671875,1.1926725653070955,0.3267234786763787,1.2424024455726146,-0.0481392852962017,0.3798030018806457,0.3120484948158264,walking
5.6294130859375,1.3127733281329272,0.3369634254008531,1.120143262603879,-0.0179832987487316,0.3713654577732086,0.3160768449306488,walking
5.639488037109375,1.4025696266531944,0.3476294885829091,1.0964029060542584,-0.006311462726444,0.3573212623596191,0.3246152102947235,walking
5.649561279296875,1.551280470956862,0.3550008941337466,1.1275474013805389,-0.0116878151893615,0.3380271196365356,0.3480517566204071,walking
5.659635498046875,1.6651117250591516,0.3439975618213415,1.0989759714126586,-0.0302154254168272,0.3230505883693695,0.3945745229721069,walking
5.669710205078125,1.7075234643310306,0.3885717398241162,0.9774854347288608,-0.0462753139436244,0.2965955138206482,0.4493041634559631,walking
5.679784423828125,1.7046930632106958,0.4856207859516143,0.8111684988468885,-0.0551566891372203,0.2833247184753418,0.5114639401435852,walking
5.689859375,1.6356394007287918,0.5401408961683511,0.6383750604271888,-0.0591093078255653,0.3046920001506805,0.5721678733825684,walking
5.699933349609375,1.5597215515658258,0.5341185671389103,0.4585749581158161,-0.0454962961375713,0.3441102504730224,0.6275192499160767,walking
5.71000830078125,1.4110329190939663,0.5074176072180271,0.2972960164010524,-0.020802279934287,0.4023520946502685,0.674702525138855,walking
5.720082275390625,1.3132925297014415,0.4612728188976645,0.2194236721694469,0.0101729463785886,0.4699942469596863,0.7138363718986511,walking
5.7301572265625,1.267623542199284,0.4435381325036287,0.2281698732048273,0.0467541366815567,0.513176441192627,0.7403964400291443,walking
5.7402314453125,1.2384452323794364,0.3858987212225794,0.3026286096006632,0.0802132934331893,0.5197070837020874,0.7572904825210571,walking
5.75030615234375,1.2839813872821628,0.3303220876902342,0.3628653438985347,0.1056904196739196,0.5212706327438354,0.7725586295127869,walking
5.76038037109375,1.3552350440263747,0.2476402973502874,0.4284183047831058,0.1274196803569793,0.5204804539680481,0.788523256778717,walking
5.770455322265625,1.3672748797796666,0.1637780650541186,0.4884463647663593,0.1296791136264801,0.5183070302009583,0.7960338592529297,walking
5.780529296875,1.3713795386195182,0.0862649095237255,0.5571995829969644,0.1108443364500999,0.50394606590271,0.8002141714096069,walking
5.790603271484375,1.4037531373493373,0.028987609553337,0.6041086336880922,0.0656918734312057,0.4795956313610077,0.7948948740959167,walking
5.80067822265625,1.4577832720920445,-0.0066843000695109,0.5713257235050201,0.0096158236265182,0.4583009779453277,0.7902814745903015,walking
5.810752197265625,1.4864057015947996,0.0267687644600868,0.4379781602889299,-0.0618043504655361,0.4550385177135467,0.7929300665855408,walking
5.820827392578125,1.4924069878362118,0.0846004834428429,0.2352063477128744,-0.1380309462547302,0.4702741801738739,0.8036346435546875,walking
5.830901123046875,1.4979215134739874,0.1137318853810429,-0.0113888244986534,-0.2020524144172668,0.499979704618454,0.8245509266853333,walking
5.840976318359375,1.444025964896381,0.1725683974921703,-0.3449076624035835,-0.236258327960968,0.5828335881233215,0.8510876893997192,walking
5.85105029296875,1.3540598627671598,0.2434557051420211,-0.6673708532869815,-0.2427606731653213,0.7041720747947693,0.8769872784614563,walking
5.861125244140625,1.33367042408064,0.2739510889098048,-0.9050012132763862,-0.2122845202684402,0.8267768025398254,0.8957855105400085,walking
5.87119921875,1.3337559104070067,0.2654790286406874,-1.0546557681709527,-0.1516880095005035,0.9191772937774658,0.9155104756355286,walking
5.8812744140625,1.4042143251203,0.2580848267361522,-1.0732535011351108,-0.0654335618019104,0.9655442833900452,0.9400392174720764,walking
5.89134814453125,1.4438216744959351,0.2826587115004658,-1.0039899952948093,0.0166883692145347,0.9569731950759888,0.964153528213501,walking
5.901422607421875,1.446467951221019,0.3179454211980104,-0.8692460092842579,0.0927786082029342,0.9273340702056884,0.9934485554695128,walking
5.9114970703125,1.3338845052227375,0.3364923007577657,-0.7452969735324383,0.1528565734624862,0.9374088048934937,1.0074713230133057,walking
5.921571533203125,1.197192015492916,0.3621490123227238,-0.6335732131034135,0.1914598941802978,1.0107200145721436,1.0145875215530396,walking
5.931646240234375,1.1338470129813998,0.3704167821913957,-0.4608581006169319,0.1849842220544815,1.167323112487793,1.0164240598678589,walking
5.941720458984375,1.399501032862812,0.1125622570797801,-0.1566635568737983,0.1483218073844909,1.28419029712677,1.0394996404647827,walking
5.951795166015625,1.933231623597443,-0.2704021642565727,0.3213537683367729,0.0742400512099266,1.2173365354537964,1.0878814458847046,walking
5.961869384765625,2.2396143250346183,-0.3736459733709693,0.7127700839370489,-0.0285856612026691,0.9832274317741394,1.1474488973617554,walking
5.9719443359375,2.0845389141350985,-0.2488467505306005,0.8659756093114614,-0.1674048900604248,0.629779577255249,1.1931411027908323,walking
5.9820185546875,1.5676197574697437,0.0555088289931416,0.7085732167690992,-0.3133053779602051,0.2156209796667099,1.220233678817749,walking
5.99209326171875,0.8855263321515172,0.3755938925683498,0.0732727414816618,-0.4086447656154632,-0.0618639439344406,1.227555513381958,walking
6.00216748046875,0.2848017879437655,0.5548024587273598,-0.9228805688381194,-0.4122674763202667,0.0238829143345356,1.1993629932403564,walking
6.012242431640625,-0.2341767854694277,0.7700906385272741,-1.8912737655729053,-0.3030803501605987,0.46648970246315,1.158984899520874,walking
6.02231640625,-0.5643896771641448,0.9836080092623828,-2.446960605919361,-0.1231795474886894,1.063973903656006,1.130851984024048,walking
6.032391357421875,-0.4001036991205066,1.081136363339424,-2.1790625334382057,0.0514281466603279,1.4733436107635498,1.1094553470611572,walking
6.042465576171875,0.2731702041978016,0.8924585425674915,-1.2399907082557675,0.1802223473787307,1.497851014137268,1.1191985607147217,walking
6.052539306640625,1.0565374902643263,0.5505237584948539,-0.1660498093783855,0.240033283829689,1.2327378988265991,1.1604013442993164,walking
6.062614501953125,1.7112278718069194,0.1801876403242349,0.6785439892083406,0.2312192916870117,0.8117474317550659,1.2028132677078247,walking
6.072688232421875,2.014775057557225,-0.0454480382278561,1.0857722064465285,0.1751258224248886,0.3522479236125946,1.2167134284973145,walking
6.082763427734375,1.8797104612901805,0.0165747027039527,1.0429109698414802,0.0813359394669532,-0.0115936752408742,1.19231379032135,walking
6.092837646484375,1.4087746187731622,0.2477344053745269,0.530980269113183,-0.0287092570215463,-0.2007932811975479,1.1352488994598389,walking
6.102912353515625,0.8738039648495614,0.5215840797364711,-0.2420090134650468,-0.132087841629982,-0.2173280417919159,1.063347578048706,walking
6.112986572265625,0.5184660207811743,0.8646063667848706,-0.9634598319858312,-0.2030714899301529,-0.0797114074230194,1.010505437850952,walking
6.1230615234375,0.3330629473635926,1.25166127230525,-1.6531909856408833,-0.2288138717412948,0.1720675677061081,0.9912756085395812,walking
6.133135498046875,0.3894645970106125,1.6092852084189653,-2.2331688021570444,-0.1889049261808395,0.4964121580123901,1.0209695100784302,walking
6.14321044921875,0.6974100177198648,1.8065104927837847,-2.482591306748986,-0.1031873524188995,0.7881478667259216,1.095556378364563,walking
6.153284423828125,1.0906764912314713,1.8806468653574584,-2.3139199166953563,0.0004335776320658,0.94031423330307,1.18643057346344,walking
6.1633583984375,1.4030059722438455,1.881173519580066,-1.8035206633180376,0.103186585009098,0.9410226345062256,1.2893778085708618,walking
6.17343359375,1.5580156244307757,1.852141194102168,-1.1991793899178504,0.1982335299253463,0.8411619067192078,1.387292504310608,walking
6.18350732421875,1.605576417028904,1.7391171647295354,-0.617201339495182,0.2825811803340912,0.6957778334617615,1.458390712738037,walking
6.19358251953125,1.5839388779774308,1.572373527868092,-0.1694844600021839,0.3478981256484985,0.5851296186447144,1.4950827360153198,walking
6.203656494140625,1.439840788166225,1.4715446709409354,0.2385246784806251,0.3938983976840973,0.5052641034126282,1.5023128986358645,walking
6.2137314453125,1.3251314360551536,1.410785666334629,0.6093523795604705,0.4057195484638214,0.443225234746933,1.4923707246780396,walking
6.223805419921875,1.2462265339054166,1.3523805313780903,0.9845002819269896,0.3770500719547272,0.3794422745704651,1.4840060472488403,walking
6.233880615234375,1.260178925281763,1.2464926374956964,1.277158117133379,0.3128937184810638,0.3267269432544708,1.492729902267456,walking
6.243954345703125,1.2376361079536378,1.0867591716572642,1.4632342309743165,0.2107178121805191,0.2926347553730011,1.4979207515716553,walking
6.254029541015625,1.1245612251766026,0.931149215489626,1.5798048469126225,0.0974229425191879,0.2092528939247131,1.496203899383545,walking
6.264103271484375,1.009162137235701,0.7253764675319194,1.5345324575126171,-0.018869049847126,0.107702299952507,1.4727377891540527,walking
6.274178466796875,0.8784170116029679,0.4772159456998109,1.3275883276879787,-0.1128917559981346,0.0126050757244229,1.4161698818206787,walking
6.28425244140625,0.7451867911562323,0.2612321848511695,0.9800035550296308,-0.1768707334995269,-0.0539169609546661,1.333674430847168,walking
6.294326416015625,0.6067586367402226,0.073699442461133,0.4965115978002548,-0.200136199593544,-0.0622351318597793,1.2324343919754028,walking
6.3044013671875,0.4796399579763412,-0.0094531802609562,0.0368605348855257,-0.1844557821750641,-0.0156732238829135,1.118773341178894,walking
6.314475341796875,0.3963512877844274,0.0011757657811045,-0.3277420080691576,-0.1340014040470123,0.0625079795718193,1.0098919868469238,walking
6.32455029296875,0.4079842597698792,0.0553214897274971,-0.5071691854149103,-0.0834985524415969,0.1351784616708755,0.91069495677948,walking
6.33462451171875,0.5352453061465173,0.0739402654796838,-0.5041390239387751,-0.035966008901596,0.188077837228775,0.8302988409996033,walking
6.34469921875,0.6908199718050658,0.1095639520466327,-0.3859007670491933,-0.0025145770050585,0.2161012142896652,0.7645171880722046,walking
6.3547734375,0.8700990459170191,0.1336950614795088,-0.2128431247353553,0.0130289364606142,0.2047225385904312,0.7126126289367676,walking
6.364848388671875,0.9799039671126752,0.1920893827810883,-0.0827285520911216,0.0253857374191284,0.1928656101226806,0.6682957410812378,walking
6.37492236328125,0.9926666372478008,0.2464759297460317,-0.094604283323884,0.042183831334114,0.2086167633533477,0.6190764904022217,walking
6.384997314453125,0.9777563606247304,0.3154381145521998,-0.0890554170250892,0.0616075992584228,0.2417787015438079,0.5756409168243408,walking
6.395071533203125,0.9944937065444888,0.3433876132294535,-0.0608212561875581,0.0705103352665901,0.268382728099823,0.5363011360168457,walking
6.405146240234375,1.1175586529381571,0.3485404659479856,-0.0027606968849897,0.0851377472281456,0.2770270705223083,0.5126208066940308,walking
6.415220458984375,1.2872574863433837,0.3051975833058357,0.0430383467376232,0.0980384722352027,0.2541464865207672,0.5078667402267456,walking
6.425294189453125,1.40220006268844,0.2137228301793336,-0.0031453122884035,0.1197957023978233,0.2028183192014694,0.5098939538002014,walking
6.435369384765625,1.4212325338080525,0.1130932952165603,-0.1574696125596761,0.1601673513650894,0.1322374492883682,0.517011284828186,walking
6.445443359375,1.316850222183019,0.0759340696454048,-0.4193225596576929,0.2117152214050293,0.0862494558095932,0.5065777897834778,walking
6.455518310546875,1.106936136636883,0.0353565600633621,-0.6867290492296219,0.2675669491291046,0.0883564874529838,0.4815419912338257,walking
6.46559228515625,0.8947639699656516,-0.0303600669503211,-0.8741746978580951,0.3070283532142639,0.186920091509819,0.4382230043411255,walking
6.47566748046875,0.8579457398518919,-0.1854775634258985,-0.928146526542306,0.3227323591709137,0.3345291912555694,0.3997655212879181,walking
6.4857412109375,1.0617927073787896,-0.4529425051867962,-0.673420070323348,0.2986475229263305,0.4028680622577667,0.3750817477703094,walking
6.49581640625,1.2219390648670494,-0.6301479148298501,-0.2127496012330055,0.2054617255926132,0.3635177910327911,0.3440895080566406,walking
6.50589013671875,1.1170140246674418,-0.714053109484911,0.2155231575995683,0.0478419959545135,0.1595441550016403,0.2945411205291748,walking
6.51596533203125,0.6947700246050953,-0.6347557008862496,0.4371908093035221,-0.1677420437335968,-0.1373187005519867,0.2084295600652694,walking
6.526039306640625,0.1082105646762996,-0.4660743739604949,0.17096505394876,-0.3844740986824035,-0.3168876767158508,0.088532730937004,walking
6.5361142578125,-0.2717000585800037,-0.2221089657306671,-0.5141898778319358,-0.5449463725090027,-0.2561414837837219,-0.0309285931289196,walking
6.546188232421875,-0.4405024546021595,0.1794070113405585,-1.280341423344612,-0.5996621251106262,0.0111237606033682,-0.1107302159070968,walking
6.556262451171875,-0.4672975225472822,0.6926832814589142,-1.9167554128319024,-0.5423277616500854,0.4294138848781585,-0.1111454963684082,walking
6.566337158203125,-0.240630747381784,1.1534963738903403,-2.194964451447129,-0.3846486210823059,0.8953437805175781,-0.0251299161463975,walking
6.576411376953125,0.2430742132774554,1.38146604834795,-1.982068719741702,-0.1734098494052887,1.2305567264556885,0.1203288361430168,walking
6.586486328125,0.8158661551438271,1.2730875066936016,-1.222727438765764,0.0053553655743598,1.2598499059677124,0.2641589939594269,walking
6.596560302734375,1.1876170354831963,1.0004825716957448,-0.3347866658836603,0.1316779404878616,1.0065890550613403,0.3911657035350799,walking
6.606635498046875,1.4190353160247209,0.6207528944969177,0.3452057685673236,0.1979855895042419,0.5814877152442932,0.4817792475223541,walking
6.616709228515625,1.5101337831847368,0.3467690723612904,0.6368599796891212,0.2305626273155212,0.1066544950008392,0.5480512976646423,walking
6.626784423828125,1.2981363154932857,0.3405915527701377,0.4432786047846078,0.2385411858558654,-0.2678796947002411,0.586768627166748,walking
6.6368583984375,0.8092170725181699,0.4890028296053409,-0.1437947229504585,0.2155457586050033,-0.4452901184558868,0.6092849969863892,walking
6.646933837890625,0.2106749869160354,0.6211918704360723,-0.7931272307217121,0.1623483151197433,-0.4114189445972442,0.6098752021789551,walking
6.6570078125,-0.2713576566168107,0.730007926724851,-1.435411573547125,0.1024718508124351,-0.2058028280735016,0.609072744846344,walking
6.66708203125,-0.7108519753560424,0.9169371502637864,-1.977766054111719,0.0565032958984375,0.0965338572859764,0.6001165509223938,walking
6.67715673828125,-1.0548462492417543,1.0551125720277428,-2.289087673255801,0.0251839309930801,0.417744517326355,0.591598629951477,walking
6.68723095703125,-1.2023907531797886,1.095454227027297,-2.298853280466795,0.0161720607429742,0.679861307144165,0.5784705281257629,walking
6.697305908203125,-1.1063935541927814,1.0007488214164972,-2.0145897641181945,0.0332375280559062,0.8524208664894104,0.556603729724884,walking
6.7073798828125,-0.8608991828300059,0.9055524174183608,-1.5099807845801114,0.0828724578022956,0.9492331147193908,0.5331617593765259,walking
6.717455078125,-0.5422100671252236,0.8718933089226484,-0.900824219852686,0.1491489559412002,0.9881470799446106,0.5191177129745483,walking
6.72752880859375,-0.2509638888150453,0.8843430406510829,-0.2445604515135288,0.2098668962717056,0.9668545722961426,0.5106275677680969,walking
6.73760400390625,0.0242685588419204,0.8745546370863914,0.394549352928996,0.2537804543972015,0.8903481960296631,0.5162491202354431,walking
6.747677978515625,0.2853148520324379,0.8262526707321405,0.9515022676885128,0.2865501046180725,0.7860630750656128,0.534339964389801,walking
6.7577529296875,0.5083074687298387,0.7759732668250798,1.4217431136786938,0.2822686433792114,0.660417377948761,0.5470297932624817,walking
6.767826904296875,0.6936598714061081,0.7384767721235752,1.786176145285368,0.241832822561264,0.5156612396240234,0.5599815249443054,walking
6.777902099609375,0.8083491305772215,0.7133189499914646,2.0138713867157696,0.1687305569648742,0.3794339895248413,0.5741379857063293,walking
6.787975830078125,0.8812061308648437,0.6846604262620211,2.12045603069067,0.0579470582306385,0.2739933133125305,0.6013482809066772,walking
6.7980498046875,0.927681100987643,0.663901131349802,2.048684925943613,-0.0725659281015396,0.1968781948089599,0.6370894908905029,walking
6.808124755859375,0.918590908820182,0.6834720932602882,1.8878028745919464,-0.2101669311523437,0.1246266439557075,0.6838769912719727,walking
6.81819873046875,0.9124522599346936,0.7038268990248441,1.5546926174879072,-0.3226888477802276,0.0764502510428428,0.7202078700065613,walking
6.82827392578125,0.8247763876345008,0.6968021149545908,1.1262637913107871,-0.4008440971374511,0.0877915918827056,0.7610389590263367,walking
6.838347900390625,0.7374002289332449,0.7073708552420139,0.5438204614639282,-0.4155149459838867,0.1595640033483505,0.808788537979126,walking
6.8484228515625,0.585723301365599,0.7351207396939397,0.0178191498070955,-0.3717696070671081,0.2611947357654571,0.8576303720474243,walking
6.8584970703125,0.4821942455690354,0.7078744208499789,-0.279831086859107,-0.3019193112850189,0.3497656881809234,0.8959740400314331,walking
6.86857177734375,0.4264566858539357,0.6126064129203558,-0.3719797937244176,-0.2096596956253051,0.3958609998226166,0.9216846823692322,walking
6.87864599609375,0.4157011177575215,0.5028080675959586,-0.3449035707503557,-0.1208792701363563,0.4234415590763092,0.9398817420005798,walking
6.888720947265625,0.4205526859745383,0.4028063091427087,-0.2355214050114154,-0.0418848507106304,0.4340097606182098,0.9558929204940796,walking
6.898794921875,0.4527840997546911,0.3275722044602036,-0.0950508580476045,0.0083746025338768,0.4342370927333832,0.9707742929458618,walking
6.908869873046875,0.4791667875066399,0.2310568268179893,0.0623427666664123,0.0374536588788032,0.4460910856723785,0.981590986251831,walking
6.91894384765625,0.5170615242781117,0.148614690452814,0.2347527587264776,0.0462493784725666,0.4712489545345306,0.9836036562919616,walking
6.92901806640625,0.5150029477804899,0.0544213260173797,0.3719932377278804,0.0346925929188728,0.4892503321170807,0.969601035118103,walking
6.939093017578125,0.5288781092021614,0.0139937463000416,0.4775742576181888,0.0254668872803449,0.4994736015796661,0.9632954597473145,walking
6.9491669921875,0.6151200031764805,-0.029202129086852,0.469742833340168,0.0237741824239492,0.534799337387085,0.9716777205467224,walking
6.959241943359375,0.6145953217152506,-0.0772451522439718,0.3275473622798919,0.0440852083265781,0.5838110446929932,0.9834876656532288,walking
6.96931591796875,0.5964030642794445,-0.11101444311589,0.1998749220907688,0.0811172649264335,0.6418783664703369,0.9840101599693298,walking
6.979390869140625,0.5570550964923575,-0.1641618036746978,0.1670861666887998,0.1149977222084999,0.6915677189826965,0.9793425798416138,walking
6.989465087890625,0.5605792885631322,-0.2931593549877405,0.1703296786546707,0.1419640928506851,0.7208574414253235,0.968570113182068,walking
6.999539794921875,0.5907613320654258,-0.399713603824377,0.2149170083999633,0.1632296442985534,0.7323224544525146,0.9617100358009338,walking
7.009614013671875,0.6363770915430039,-0.4358066614687442,0.2720774039924145,0.1722407191991806,0.735654890537262,0.9492775797843932,walking
7.01968896484375,0.6388247038908302,-0.5048275907248259,0.2820253820329904,0.1672031581401825,0.7466480731964111,0.9316800832748412,walking
7.029762939453125,0.678896602038294,-0.5836757942512631,0.3146066321641206,0.1518191397190094,0.7682414650917053,0.9104810357093812,walking
7.039837890625,0.799159277427569,-0.6557739389955997,0.3375537925094365,0.1323854476213455,0.7762807607650757,0.8902549743652344,walking
7.049912109375,0.956853784784302,-0.7100082180082797,0.3519324464738368,0.1045796647667884,0.7958022952079773,0.875257134437561,walking
7.059986083984375,1.1041657220754773,-0.7367436647206544,0.3177612968027591,0.0757932364940643,0.8399722576141357,0.8673689365386963,walking
7.07006103515625,1.197852963619679,-0.6551724659711122,0.2876876455783844,0.051735833287239,0.8796989321708679,0.8729554414749146,walking
7.080135009765625,1.2378656789258122,-0.5456827482044696,0.2237362746715545,0.0297562349587678,0.917653739452362,0.8884792923927307,walking
7.0902099609375,1.1508473206862806,-0.4320119453608989,0.1525719036459922,0.006797389127314,0.9350807070732116,0.8999034762382507,walking
7.1002841796875,1.0828150371413676,-0.2759346639424562,0.1530810222119092,-0.017370393499732,0.9759634137153624,0.9080120921134948,walking
7.11035888671875,1.1185547513034193,-0.2522591893225908,0.0969412018388509,-0.053819216787815,1.0872793197631836,0.922208607196808,walking
7.12043310546875,1.296768242010474,-0.4026175085723399,0.17277414919734,-0.1367061138153076,1.136391282081604,0.9439133405685424,walking
7.130508056640625,1.4980466011583804,-0.5568126295059919,0.4068447708785533,-0.2885667383670807,0.9854668974876404,0.9590470194816588,walking
7.14058203125,1.659145802392065,-0.5542477474540471,0.4337731098145246,-0.4499816000461578,0.759734570980072,0.9770634770393372,walking
7.150656982421875,1.6011488098450004,-0.3604781565010547,0.123735685262084,-0.5494704246520996,0.624424397945404,1.0134373903274536,walking
7.16073095703125,1.2763944392845037,0.0518014989078044,-0.3911486045747995,-0.5989778637886047,0.5743826627731323,1.0638012886047363,walking
7.170805908203125,0.8294264053974301,0.4791021978378295,-0.859340701341629,-0.6166865825653076,0.5106476545333862,1.1132665872573853,walking
7.180880126953125,0.4976106816159561,0.7784390724167227,-1.2379916433930396,-0.610453724861145,0.4582021236419678,1.1529064178466797,walking
7.190953857421875,0.2737108869457617,0.8897221033409237,-1.6033482195854185,-0.565102756023407,0.4861674308776855,1.177470326423645,walking
7.201029052734375,0.0207522441169247,0.946596667729318,-1.984728294339776,-0.4784204959869385,0.5971484184265137,1.168786883354187,walking
7.21110302734375,-0.2899952284010127,1.0729805294126271,-2.24020819927454,-0.3725499808788299,0.7542892694473267,1.140146017074585,walking
7.221177978515625,-0.4346386040700599,1.2228025498285888,-2.2529577907323834,-0.2516374289989471,0.9482561349868774,1.1082124710083008,walking
7.231251953125,-0.2559623181568458,1.2727706958293914,-2.079794934478402,-0.1267804503440857,1.176113247871399,1.1089915037155151,walking
7.2413271484375,0.1879114760419353,1.2223530524954198,-1.6012527086108923,-0.0148920221254229,1.3310543298721311,1.150493860244751,walking
7.25140087890625,0.6993908162735403,1.1300754585534334,-0.8672685717314481,0.0608791708946228,1.291172981262207,1.2260288000106812,walking
7.26147607421875,1.128273962089419,1.0018833784043788,-0.1010199955850839,0.0944221466779708,1.0606448650360107,1.3113707304000854,walking
7.2715498046875,1.4510504567056894,0.785989926187694,0.4196767799228429,0.0833934694528579,0.7232035398483276,1.3885486125946045,walking
7.281625,1.6073095244318245,0.5117877851262689,0.6052274085849523,0.0358788929879665,0.3546816110610962,1.4307560920715332,walking
7.291698974609375,1.4212043306268751,0.3598419044241309,0.4452706553846597,-0.038428895175457,0.0314819812774658,1.4314244985580444,walking
7.30177294921875,0.9679417266402393,0.3349225672230124,-0.0295814837932586,-0.1205265298485755,-0.1546343117952346,1.3964771032333374,walking
7.311846923828125,0.5136597530106082,0.3020405805796384,-0.7070622276842594,-0.1879258006811142,-0.1509780436754226,1.3347753286361694,walking
7.321921875,0.1723839808359742,0.2937017913013696,-1.3589987804740666,-0.2253104597330093,-0.0120170880109071,1.2621548175811768,walking
7.331995849609375,-0.1553772433903068,0.4733735910579562,-1.8709435097277165,-0.2224206626415252,0.1915216594934463,1.1935328245162964,walking
7.342071044921875,-0.3460466033056378,0.6506023815765977,-2.212985845828056,-0.1694577485322952,0.4393387138843536,1.1360466480255127,walking
7.352144775390625,-0.4470319659687578,0.7376870830506086,-2.2952350899696348,-0.0804258733987808,0.6617845296859741,1.0803894996643066,walking
7.362219970703125,-0.4023983128637075,0.7433271347641944,-2.002406574371457,0.02533945068717,0.7806615829467773,1.028386473655701,walking
7.3722939453125,-0.3301330679241567,0.6673571170225739,-1.4446516955792903,0.123919554054737,0.7857673764228821,0.9736323952674866,walking
7.382368896484375,-0.2359531109595671,0.6046729895725846,-0.8255372159391641,0.2056000679731369,0.7378188371658325,0.9126138687133788,walking
7.39244287109375,-0.1986610893215984,0.5749915525361895,-0.2663064193755388,0.260483831167221,0.6795046925544739,0.8501739501953125,walking
7.402516845703125,-0.1800108955178409,0.5960264495193958,0.187585933881998,0.2896114885807037,0.6566072106361389,0.7870673537254333,walking
7.412591796875,-0.2002828087719157,0.6462599684581161,0.61050973290205,0.2811911106109619,0.6729089617729187,0.727461576461792,walking
7.422666015625,-0.1903329675678163,0.6656795391991734,1.009391562077403,0.2337984293699264,0.6895867586135864,0.667048990726471,walking
7.43274072265625,-0.1126009816549718,0.6920502442523837,1.3556909711003302,0.1653892695903778,0.703891932964325,0.6155610084533691,walking
7.44281494140625,-0.0557412129769101,0.7103317508742213,1.6119681638926266,0.0805284604430198,0.7211642861366272,0.5689772367477417,walking
7.452889892578125,0.0038686215942725,0.7263011811614036,1.782552109569311,0.0128261074423789,0.7237136960029602,0.5276257991790771,walking
7.4629638671875,0.0559844836808741,0.7734598226994276,1.807964783245325,-0.0400645621120929,0.7232822179794312,0.4969751834869385,walking
7.4730390625,0.1234586218863725,0.8029287860289216,1.8290140010148288,-0.0725918859243393,0.7105198502540588,0.4756347239017486,walking
7.48311279296875,0.2710929595323279,0.8207932362824678,1.8131553376257417,-0.0813830494880676,0.6683868765830994,0.4610456526279449,walking
7.49318798828125,0.4227670740883797,0.8309820373415946,1.7539923700392246,-0.0819990411400795,0.6309122443199158,0.4574927091598511,walking
7.503261962890625,0.5518200088504701,0.7840516516014933,1.7404805620372297,-0.0764020383358001,0.5925421118736267,0.4651752412319183,walking
7.513335693359375,0.6611763094957918,0.7470008548408746,1.819506752479076,-0.0871705263853073,0.5389885902404785,0.4721511304378509,walking
7.523410888671875,0.7405235485855489,0.649986295504868,1.8799772955328224,-0.1151584610342979,0.4656390845775604,0.4761789739131927,walking
7.533484619140625,0.7976131439641118,0.4923649995148181,1.8784516934007405,-0.1655124425888061,0.4007593989372253,0.4819519221782684,walking
7.543559814453125,0.8853026063982397,0.3702487321481108,1.84935886990726,-0.2225624024868011,0.3333919644355774,0.4880205690860748,walking
7.5536337890625,0.9591624270528556,0.2444064299955964,1.7160358566105365,-0.280287504196167,0.2713432312011719,0.5009922981262207,walking
7.563708984375,0.9924647580001502,0.1374067754790186,1.5140806211143731,-0.3250642120838165,0.2094541639089584,0.5242777466773987,walking
7.57378271484375,1.0109170911442489,0.061254094646871,1.238925124850869,-0.3548599481582641,0.1474142372608184,0.553168773651123,walking
7.58385791015625,0.9986465884402392,-0.0467874701380729,0.8186790206074714,-0.3345889449119568,0.0930855423212051,0.5854134559631348,walking
7.593931884765625,0.9455203437346964,-0.1315682785838842,0.310644742795825,-0.2716144919395447,0.0620818212628364,0.6177911162376404,walking
7.6040068359375,0.921174933964014,-0.2365048630908131,-0.1285819562494754,-0.1820284128189087,0.0278483610600233,0.6472306251525879,walking
7.6140810546875,0.8572459940847009,-0.3552674361154437,-0.4650467844784259,-0.0846203565597534,-0.0119754839688539,0.6666916608810425,walking
7.62415576171875,0.7644818587347865,-0.487905974279344,-0.7013029335051775,0.0041334293782711,-0.0436277836561203,0.6730287671089172,walking
7.63422998046875,0.6448683679692446,-0.642032121630013,-0.903326558062434,0.0807850584387779,-0.0620747059583663,0.6701554656028748,walking
7.644303955078125,0.5842609006628394,-0.8085901727914809,-0.9299860169291496,0.1265288293361663,-0.1066547408699989,0.6557831168174744,walking
7.654378662109375,0.5195572135513649,-0.9403232865482568,-0.900523775601387,0.1399655491113662,-0.2046819627285003,0.6342983245849609,walking
7.664453125,0.4197171849984675,-1.0437696324974295,-0.9022802638798952,0.13380928337574,-0.3325172364711761,0.6064174175262451,walking
7.67452880859375,0.2552882182875648,-1.085541320300102,-1.0091840568065642,0.1037693545222282,-0.4566996097564697,0.5709111094474792,walking
7.684602783203125,-0.000448839746043,-1.1188026616498827,-1.2840835324823856,0.0621483586728572,-0.5314485430717468,0.5110944509506226,walking
7.694677734375,-0.261423634036351,-1.1402563685670497,-1.689057833313942,0.02506810054183,-0.5186222195625305,0.4267734587192535,walking
7.704751708984375,-0.530734879517369,-1.023206152418256,-2.0571604933440684,0.0088884616270661,-0.3697778880596161,0.3360210955142975,walking
7.71482666015625,-0.6412848834592849,-0.8629714590594172,-2.3396523238450286,0.0144534027203917,-0.0737134739756584,0.266828715801239,walking
7.72490087890625,-0.4991825340425595,-0.8783242187529802,-2.291363801494241,0.0133519200608134,0.1158774942159652,0.2237350344657898,walking
7.7349755859375,-0.2038528127457946,-0.9503224102541804,-1.8907558791786432,-0.0341266505420208,0.0776824355125427,0.1936668753623962,walking
7.7450498046875,-0.0030170553993899,-1.0738710485115646,-1.511611600652337,-0.0997482761740684,-0.0589858070015907,0.1513438075780868,walking
7.75512353515625,-0.0640235958928242,-1.002780327244103,-1.4277859009742735,-0.1385039240121841,-0.194189965724945,0.1016614809632301,walking
7.76519873046875,-0.380360705111362,-0.7066536468833684,-1.706319933760166,-0.135544016957283,-0.2255662679672241,0.0403013564646244,walking
7.775272705078125,-0.6308838278889656,-0.3881105520531535,-2.082418853241205,-0.0958690494298935,-0.1480733305215835,-0.0282811690121889,walking
7.78534765625,-0.6563271889641881,-0.1852478463232517,-2.2549591936826703,-0.0324440635740757,-0.0236915852874517,-0.0764471665024757,walking
7.795421630859375,-0.6245293442957103,0.0600038023248314,-2.1741297532111403,0.0367320775985717,0.0835943892598152,-0.108267143368721,walking
7.805496826171875,-0.5791228071220219,0.3385971640825271,-1.8988608597010368,0.1009660959243774,0.1548986136913299,-0.1214892044663429,walking
7.815570556640625,-0.5108391791645437,0.533255520568788,-1.536544966378808,0.1605258285999298,0.2168357372283935,-0.1168856620788574,walking
7.825645751953125,-0.3941002574546262,0.6535574319899082,-1.1389186902225017,0.2040607333183288,0.2752278447151184,-0.1106433942914009,walking
7.8357197265625,-0.2768181139797903,0.7469877030983567,-0.6727016929209232,0.2281482368707656,0.3033777177333832,-0.0929908975958824,walking
7.845794677734375,-0.1654298143165186,0.8049073926255107,-0.2096487126082181,0.2363089919090271,0.2735900580883026,-0.0670356377959251,walking
7.855868896484375,-0.0914422025637701,0.8315741580158471,0.1989987237781286,0.2270427793264389,0.1911971718072891,-0.0390969477593898,walking
7.86594384765625,-0.0663382295107468,0.8526195763930677,0.5334340920060873,0.2053877264261245,0.0761064812541008,-0.0128634739667177,walking
7.876017822265625,-0.0769253822376951,0.8814514108628034,0.7872966248720884,0.1676371544599533,-0.0619208998978138,0.0063674780540168,walking
7.886092041015625,-0.0795590734758414,0.8864286147534847,0.902483677497506,0.1062678173184394,-0.1631137728691101,0.0116640646010637,walking
7.896166748046875,-0.1303599987726658,0.8404811025708914,0.8665344122380018,0.0512969829142093,-0.1869551986455917,0.0086296582594513,walking
7.906240966796875,-0.2015711680820211,0.7932973265916109,0.7570633991718292,0.003386867698282,-0.1287862360477447,-0.0101178726181387,walking
7.91631591796875,-0.3156858787681907,0.8160922189846634,0.6063888535797596,-0.0234412848949432,-0.0421102046966552,-0.0405993461608886,walking
7.926389892578125,-0.3878193870868534,0.904712459462881,0.3770733174711466,-0.0114122405648231,0.0689887776970863,-0.0647536814212799,walking
7.93646484375,-0.3979733725609257,0.9736088855564594,0.1755494591295719,0.0437151901423931,0.2012993991374969,-0.0770955681800842,walking
7.9465390625,-0.2775223167263903,1.0367010092854498,0.1980266638755798,0.1147684082388877,0.2983265221118927,-0.0823161527514457,walking
7.95661376953125,-0.0124947033813223,1.007519046203792,0.411315778812766,0.1806912273168563,0.3181897103786468,-0.0760641098022461,walking
7.96668798828125,0.2758198419237509,0.9634992872133852,0.7091185756921767,0.2219255268573761,0.291222482919693,-0.0498191155493259,walking
7.9767626953125,0.4643398783180862,0.9065060648813844,1.008174002981186,0.2415524870157241,0.2476712763309478,-0.0078258588910102,walking
7.9868369140625,0.5398202493792399,0.8229381393566727,1.2561702741622924,0.2337522208690643,0.1923271715641021,0.0236208327114582,walking
7.996911865234375,0.5295590406710282,0.7519289588928222,1.4497797061175106,0.196710854768753,0.1513206213712692,0.0418621562421321,walking
8.00698583984375,0.557993107994832,0.658009442962706,1.5830518660098314,0.1406797468662262,0.1295772790908813,0.0520305633544921,walking
8.017059814453125,0.5733500689394772,0.5583528446853161,1.613347635552287,0.0746520012617111,0.1291181445121765,0.0609026178717613,walking
8.027135009765624,0.5513875357173383,0.4576555051833391,1.5271990458846092,0.0089318715035915,0.1425429284572601,0.0617914088070392,walking
8.037208740234375,0.5279288821859285,0.4543342518061399,1.4281108951449393,-0.0440876707434654,0.154576689004898,0.0578307509422302,walking
8.047283935546876,0.5234361373439431,0.4491413593381643,1.3794634763538836,-0.088928572833538,0.1405960470438003,0.0593732632696628,walking
8.05735791015625,0.56792234480232,0.4511263956755399,1.3106173191428183,-0.1202446818351745,0.1236418187618255,0.0787134021520614,walking
8.067432861328125,0.6459362894617021,0.4294076080814004,1.186480651864409,-0.1304476410150528,0.1227656602859497,0.1052404269576072,walking
8.077507080078124,0.6521664890881628,0.4572691362142562,1.0340893654823302,-0.1132814437150955,0.1404429376125335,0.136552020907402,walking
8.087581787109375,0.6318371830910444,0.4986079855576157,0.9135200352966784,-0.0815261751413345,0.1689371615648269,0.1679237931966781,walking
8.097656005859376,0.6117047879055142,0.4797594927027821,0.8767331501692534,-0.0301016010344028,0.1895441710948944,0.2100611180067062,walking
8.10773095703125,0.6231348211973905,0.4142217293873429,0.8224749057590961,0.020083874464035,0.2048991620540619,0.2504097819328308,walking
8.117804931640626,0.6787123315125704,0.3364785644933581,0.8060118467360734,0.0710748881101608,0.2165323793888092,0.2926666736602783,walking
8.1278798828125,0.6778625828154384,0.2065241508468985,0.8170423593163489,0.1145900711417198,0.2316796332597732,0.3223626017570495,walking
8.1379541015625,0.6107611503798515,0.047184652762115,0.87606796425879,0.1372924596071243,0.2469382137060165,0.3347998559474945,walking
8.14802783203125,0.5510714555054903,-0.106514209087193,0.9571826514124868,0.136269137263298,0.2618141174316406,0.3312941193580627,walking
8.15810302734375,0.4661134273292496,-0.232730312988162,1.078072884115577,0.1077626645565033,0.2559879124164581,0.3163367509841919,walking
8.1681767578125,0.4494109700597822,-0.377378437897563,1.1388158143699167,0.0637051090598106,0.2372907400131225,0.2983464300632477,walking
8.178251953125,0.4718836447611451,-0.4900122989088296,1.094461708858609,0.0177301559597253,0.2241280674934387,0.2827520370483398,walking
8.188325927734375,0.5063051159314811,-0.5582087600395083,0.9362696272432804,-0.0209326967597007,0.223269835114479,0.2783720195293426,walking
8.19840087890625,0.5624707283329218,-0.5715531025201082,0.6520891130030155,-0.0303917117416858,0.2416062355041504,0.2912068665027618,walking
8.208474853515625,0.6165954094912857,-0.5829685227647423,0.330495690691471,-0.0235203448683023,0.2733533978462219,0.3043369352817535,walking
8.218550048828124,0.6556495819635689,-0.6223655903905629,0.100874449634552,0.0059456680901348,0.3226479887962341,0.3237029314041137,walking
8.228623779296875,0.7034361461415887,-0.6690536918073893,-0.0601584083646535,0.040059644728899,0.3844848871231079,0.3454868495464325,walking
8.238698974609376,0.7362173027589917,-0.7111594338700175,-0.1195534311413764,0.0772714614868164,0.4342836141586303,0.3686062693595886,walking
8.248772705078125,0.7729860677078366,-0.7922294050991535,-0.0871697494089603,0.0981942415237426,0.455236941576004,0.3886774480342865,walking
8.258846923828125,0.8463507252566516,-0.9158964090391992,0.004149520894885,0.1177793890237808,0.4701290726661682,0.4144235551357269,walking
8.268921875,0.9007191520430147,-1.07657475451231,0.0910544818878173,0.1313765496015548,0.472057044506073,0.4358184337615967,walking
8.278995849609375,0.8892940871872007,-1.2081833651065823,0.1833037265181541,0.1333030760288238,0.4480166733264923,0.4453357756137848,walking
8.28907080078125,0.8038106834299862,-1.2964280502706766,0.2891577181309461,0.1245518922805786,0.3990763425827026,0.4412517249584198,walking
8.299144775390625,0.710035325210914,-1.3620458930850028,0.3481295470595359,0.0990316197276115,0.328700453042984,0.4281353950500488,walking
8.3092197265625,0.6116732967887073,-1.3806827890157698,0.2903016274690628,0.0645705312490463,0.2454127967357635,0.4164032936096191,walking
8.3192939453125,0.4528430634003132,-1.2732663703918456,0.0437029481261968,0.0318575985729694,0.2067413032054901,0.4036890864372253,walking
8.32936865234375,0.2641845318507403,-1.125892619910836,-0.3800397660613059,0.0035198112018406,0.3334901630878448,0.3895604610443115,walking
8.33944287109375,0.3380245518263429,-1.1964432429522276,-0.7297463531792163,-0.0162877161055803,0.5338999629020691,0.3910454511642456,walking
8.349517822265625,0.7200571722052991,-1.5756518188863993,-0.6836386819988489,-0.0755363702774047,0.4855513870716095,0.3875552117824554,walking
8.359591796875,0.8850554997693747,-1.8241244754076005,-0.5242325484186411,-0.201084166765213,0.2484842389822006,0.3615568876266479,walking
8.369666748046875,0.7430323165360838,-1.8679285458207129,-0.7145955457985401,-0.3356807231903076,-0.0163196995854377,0.3203684687614441,walking
8.379740966796875,0.4733712529703974,-1.6565630924224852,-1.3769073621302843,-0.410444974899292,-0.1179118305444717,0.2683100700378418,walking
8.389814697265624,0.2614893014173954,-1.3946394181758164,-2.275502800017595,-0.4073007702827453,-0.0212927535176277,0.209518164396286,walking
8.399889892578125,0.1773020749505609,-1.1109873117238285,-3.0584032357573507,-0.3303079903125763,0.1823226809501648,0.1696011126041412,walking
8.409963623046876,0.1222788375172764,-0.7213257308363914,-3.543507304358482,-0.1940091401338577,0.4428834319114685,0.1572801917791366,walking
8.420038818359375,0.0857035493139177,-0.2212251686334609,-3.5361551880300044,-0.0162026565521955,0.7182561159133911,0.1769692152738571,walking
8.43011279296875,0.1458022633805871,0.2698722951635718,-3.0739982797741887,0.1525767743587494,0.937548279762268,0.2118486315011978,walking
8.440187744140625,0.3728697283014655,0.5729141617402435,-2.210359004455805,0.2785863578319549,1.037899613380432,0.2635704278945923,walking
8.45026171875,0.7030998999245465,0.6060463237524032,-1.224833471134305,0.3543774783611297,1.0235440731048584,0.3297464847564697,walking
8.4603369140625,0.9286473156712948,0.5923293485671282,-0.2872919242590666,0.394220232963562,0.9226921796798706,0.3795795738697052,walking
8.47041064453125,1.0028908749464898,0.6292407368570566,0.4892191027045249,0.3855198919773102,0.7526169419288635,0.3994578719139099,walking
8.48048583984375,1.053661569501832,0.7434107213944197,1.0701555351197718,0.3432952165603637,0.5306006669998169,0.4181852042675018,walking
8.4905595703125,1.1039820360716432,0.8933131135702133,1.433514215493202,0.2736406028270721,0.3182195127010345,0.4466374516487121,walking
8.500634765625,1.1378166472647335,1.0525579191088676,1.5174106423199176,0.187629833817482,0.1581025570631027,0.5039289593696594,walking
8.510708740234374,1.111584035507962,1.2278373291254043,1.3981658387362956,0.0907171890139579,0.0599281787872314,0.5751704573631287,walking
8.52078271484375,1.023723381225392,1.3900643653452396,1.1717027694493531,-0.0074240202084183,-0.0047048758715391,0.6381920576095581,walking
8.530857666015624,0.8560014008510858,1.4599012871593235,0.8716220907658339,-0.0969506725668907,-0.0380684919655323,0.6874389052391052,walking
8.540931884765625,0.6529278288494795,1.479262990233302,0.5098369433194399,-0.1604542732238769,-0.024427518248558,0.7224751710891724,walking
8.551006591796876,0.4396276079963892,1.4957318944752216,0.126965753224492,-0.1879644393920898,0.0221847742795944,0.7468623518943787,walking
8.561080810546875,0.290355768809095,1.506982771807909,-0.2352572011172771,-0.1671768724918365,0.0825362652540206,0.758043646812439,walking
8.571156005859375,0.1757747192528098,1.5098767396837471,-0.5219727867931128,-0.1086110100150108,0.1409185230731964,0.7657966017723083,walking
8.581229736328124,0.0882170665048062,1.4732342314630746,-0.6178647718399762,-0.0269028358161449,0.1730982959270477,0.7555063962936401,walking
8.591304931640625,0.0716254126660525,1.4086422245651482,-0.5155301865249872,0.0458258278667926,0.1702542901039123,0.7323935627937317,walking
8.601378662109376,0.1099077970482409,1.3180004151314495,-0.2845850033879279,0.0951379835605621,0.1444613188505172,0.7019767761230469,walking
8.611453857421875,0.1214356646914035,1.267027183741331,0.0244710089117288,0.1096877232193946,0.1158270612359047,0.6749832630157471,walking
8.62152783203125,0.1405673584017902,1.2605524347692727,0.3107943803995847,0.0928869023919105,0.0767723321914672,0.6493839025497437,walking
8.631602783203125,0.156299545866996,1.2539017447084189,0.4451841461449861,0.0679506286978721,0.066292330622673,0.626410722732544,walking
8.6416767578125,0.1516044468533247,1.2780354844897983,0.4909492874979972,0.0408210046589374,0.0742602422833442,0.6025488376617432,walking
8.651750732421876,0.1345165339302271,1.262116615346074,0.4476414761692285,0.0281383637338876,0.1098917350172996,0.5782716274261475,walking
