time,seconds_elapsed,z,y,x
1782988007120854000,0.06785400390625,-1.031885717958212,-1.5736477855876088,-0.11025653742067515
1782988007130929200,0.07792919921875,-1.0793629239261149,-1.60564860548228,-0.20659750834405421
1782988007141003000,0.0880029296875,-0.9495172313511371,-1.761994182448089,-0.09862878959961235
1782988007151078100,0.098078125,-0.7785060001730918,-1.8781325444489716,0.06217690858021378
1782988007161152000,0.108152099609375,-0.45418987489938734,-1.9298413966372607,0.2774594623569399
1782988007171227100,0.11822705078125,0.08786474593579768,-2.0535364576280117,0.4762956890497356
1782988007181301000,0.128301025390625,0.5995581307768821,-2.0171265891194343,0.5172234003089368
1782988007191376100,0.138376220703125,0.7052794359207153,-1.8816016818642616,0.46956711144708096
1782988007201450000,0.148449951171875,0.4359136289745569,-1.6704291206896305,0.20353147183693945
1782988007211525000,0.158525146484375,-0.02745850028991699,-1.320873632480204,-0.16089790650792418
1782988007221599700,0.168599853515625,-0.5025006090819836,-0.9237631968915462,-0.4795961188346147
1782988007231673900,0.178673828125,-0.7575812855660915,-0.5023907189667225,-0.7072651298452168
1782988007241748700,0.188748779296875,-0.770959822577238,-0.14003332459032536,-0.796797735927999
1782988007251822800,0.19882275390625,-0.7882453038990497,0.09288491218537091,-0.7596024891953915
1782988007261897700,0.208897705078125,-0.742619278755784,0.22662439732849596,-0.670619772080332
1782988007271971800,0.218971923828125,-0.5761258172631264,0.26034897227585313,-0.5718780236255377
1782988007282046700,0.229046630859375,-0.2282604740977287,0.2347363921135664,-0.39752486160844563
1782988007292120800,0.239120849609375,0.32476562260687347,0.14487228905409574,-0.1895994656614959
1782988007302195700,0.24919580078125,0.8838789302706718,0.022143442746996877,-0.02678907659575343
1782988007312269800,0.259269775390625,1.3206991526961325,-0.06602583909332752,0.02687273629121482
1782988007322344700,0.2693447265625,1.4244050263643264,-0.09686199912279844,0.022676892036572097
1782988007332418800,0.279418701171875,1.1241367161542177,-0.04350859459787607,-0.13629837584570048
1782988007342493700,0.28949365234375,0.7383002465128898,0.0573778377354145,-0.4724259349443018
1782988007352567800,0.29956787109375,0.3630956455230713,0.13289806588292122,-0.8347182281952351
1782988007362642700,0.309642578125,-0.03714344348013401,0.19303163206726312,-1.1694928383149206
1782988007372716800,0.319716796875,-0.4292103319436312,0.31478549586236476,-1.4482682786412535
1782988007382791700,0.329791748046875,-0.7054986316293478,0.4887748660683632,-1.7394547261208295
1782988007392865800,0.33986572265625,-0.7179238134384155,0.6984308852002025,-1.8493761133030056
1782988007402940700,0.349940673828125,-0.4548404477626085,0.8194678328976035,-1.7407818830713628
1782988007413014800,0.360014892578125,-0.0029588498055934903,0.8794736810490489,-1.445792828438431
1782988007423089700,0.370089599609375,0.5335135869830846,1.0034975356027482,-1.1878554473489522
1782988007433164800,0.380164794921875,1.042568440014124,1.0164587239846588,-0.9451234533715993
1782988007443238700,0.39023876953125,1.5512684882581234,0.9439537520051002,-0.7098753854088485
1782988007453313800,0.400313720703125,2.0120833342552182,0.8638511645033955,-0.47328467066548763
1782988007463388000,0.410387939453125,2.345909046152234,0.7323042209684848,-0.1898640348818153
1782988007473462800,0.420462890625,2.551256846696138,0.4510422245234251,0.009823182617127895
1782988007483537000,0.430536865234375,2.6885411648392674,0.029637597894668577,0.3089927378050983
1782988007493611800,0.44061181640625,2.7368752798974514,0.01629150184839964,0.38991877051889895
1782988007503686000,0.450685791015625,2.664705531221628,0.08399638006985187,0.08440729895830154
1782988007513760800,0.4607607421875,2.5155992578595874,-0.07684387796670197,-0.010696604450792074
1782988007523835000,0.4708349609375,2.2662831362515687,-0.33429566749632356,-0.010392799198627472
1782988007533909800,0.48090966796875,1.8964596437782049,-0.5491209059596062,-0.060448769613355394
1782988007543983900,0.49098388671875,1.397258660763502,-0.6211337105080486,-0.20848010722026228
1782988007554058800,0.501058837890625,0.8296931665748357,-0.5917550558105111,-0.42094709211960435
1782988007564132900,0.5111328125,0.4023369380652904,-0.4895838443636894,-0.5885473458103835
1782988007574207700,0.521207763671875,0.1883206778973341,-0.4380509332641959,-0.6510432572118937
1782988007584281900,0.53128173828125,0.09998305375277995,-0.4988333187460899,-0.5898952532880007
1782988007594356700,0.541356689453125,0.15644436116516588,-0.6134487089633941,-0.43776510206013913
1782988007604430800,0.551430908203125,0.22624095096886157,-0.7731745760172605,-0.21920023867711425
1782988007614505700,0.561505615234375,0.16828969725966453,-0.9146826493352651,-0.01487578983157873
1782988007624580900,0.571580810546875,0.0876812060624361,-0.9743062201708554,0.06630056438148021
1782988007634654700,0.58165478515625,0.007768880435824394,-0.9104387281551957,0.07696341269314289
1782988007644729900,0.591729736328125,-0.0846919611185789,-0.8855009785145521,0.06740165749117731
1782988007654803700,0.6018037109375,-0.09980711266398429,-0.9026295157089829,0.12769932819604873
1782988007664878800,0.61187890625,-0.15398878470659255,-0.9503139346867799,0.20541721251830458
1782988007674952700,0.62195263671875,-0.20345921031832695,-1.0402285988897084,0.25363398480713367
1782988007685027800,0.63202783203125,-0.2517950789421797,-1.0948457397401332,0.29576705326810476
1782988007695101700,0.642101806640625,-0.38310499885082244,-1.1092299466624855,0.26424349549636245
1782988007705176800,0.6521767578125,-0.5863321539789438,-1.1195829983726142,0.18229001943096518
1782988007715251000,0.6622509765625,-0.7304647305816412,-1.1289371021732688,0.12820698545724152
1782988007725325800,0.672325927734375,-0.7742775688230991,-1.1630424931317567,0.16346622262597083
1782988007735400000,0.68239990234375,-0.8193570659995079,-1.1898097962871192,0.28278438370674847
1782988007745474800,0.692474853515625,-0.9265811769217253,-1.1546011202618478,0.34741599196270107
1782988007755549000,0.702548828125,-0.9863339270949363,-1.0876099432677029,0.37913682587221265
1782988007765623800,0.712623779296875,-1.0388602331459522,-1.0194728111088276,0.4158231732346117
1782988007775698000,0.722697998046875,-0.8981097001969813,-1.1360951572343707,0.68661126806885
1782988007785772800,0.732772705078125,-0.44839901653826236,-1.2598255817994475,1.071675292032957
1782988007795847000,0.742846923828125,0.011545476365089416,-1.3776879911139606,1.3919973792344331
1782988007805921800,0.752921875,0.23230185844302176,-1.5262226020678877,1.4516656659945846
1782988007815996000,0.762995849609375,-0.008808744877576827,-1.5285563057124614,1.2288675489559768
1782988007826070800,0.77307080078125,-0.518488451808691,-1.400393451657891,0.865330151014775
1782988007836146000,0.78314599609375,-1.1424603083521128,-1.2605980274766684,0.6520049418509006
1782988007846219800,0.7932197265625,-1.7599761206239461,-0.9578983984664082,0.5278235586479306
1782988007856295000,0.803294921875,-2.3367811523228883,-0.4244318654954433,0.2637766086369753
1782988007866368800,0.81336865234375,-2.6541268540620804,0.16051877099722622,0.023694033189862965
1782988007876444000,0.82344384765625,-2.6421488314986226,0.607979045380652,-0.016222674395889043
1782988007886517800,0.833517822265625,-2.207723979777098,0.7778010667741299,0.12349120898172258
1782988007896593000,0.843593017578125,-1.4442279172092676,0.7973632608562707,0.38956776512414215
1782988007906666800,0.853666748046875,-0.6073334409534931,0.7754062805920839,0.6318178938686847
1782988007916742000,0.863741943359375,0.17887772676944733,0.7038070252805948,0.8075029620766639
1782988007926815700,0.873815673828125,0.8450053019970655,0.6594371376782655,0.8633739023804664
1782988007936891000,0.883890869140625,1.3260703243404626,0.5573895526111126,0.8266779104068874
1782988007946964700,0.89396484375,1.4867600679904223,0.639034985640645,0.6764458478853106
1782988007957039900,0.904039794921875,1.3586907374382018,0.88565412324965,0.33306013435199855
1782988007967114000,0.914114013671875,1.0553279683440924,1.0778256313562393,0.017684125250577925
1782988007977188900,0.92418896484375,0.5625479582875966,1.1812877593964337,-0.20085838017016647
1782988007987263000,0.934262939453125,0.14826865349411963,1.30979372780025,-0.31387627206295726
1782988007997337900,0.944337890625,-0.0650678077161312,1.3525018196702003,-0.4223299247801304
1782988008007412000,0.954411865234375,-0.09429448672235012,1.3560451913654803,-0.5631175748690962
1782988008017486800,0.96448681640625,0.08528115918338298,1.3088415416419505,-0.6918006534054875
1782988008027562000,0.97456201171875,0.3631973523318767,1.2241846518367527,-0.716028939602524
1782988008037635800,0.9846357421875,0.6865659676223993,1.0769266366899013,-0.5995544775150716
1782988008047711000,0.9947109375,0.9416957439452409,0.952684170949459,-0.463641447725147
1782988008057784800,1.004784912109375,1.094840479043126,0.9368377825200557,-0.3261762200571596
1782988008067860000,1.01485986328125,1.110157875162363,0.9530407293021679,-0.2688005742788315
1782988008077933800,1.024933837890625,1.0091910710692404,1.0168991612285374,-0.22831074298024176
1782988008088009000,1.035009033203125,0.7746072391688823,1.0540408511430024,-0.16755597615763543
1782988008098082800,1.045082763671875,0.5515250444918871,1.110773376712203,-0.08483370767682791
1782988008108158000,1.055157958984375,0.43900048907399175,1.094978426209092,-0.013806114773452281
1782988008118231800,1.065231689453125,0.5103507380604744,1.002267409285903,0.07565262235552073
1782988008128307000,1.075306884765625,0.7080699434220791,0.8664555017828941,0.1339355922371149
1782988008138380800,1.085380859375,0.9488158050835132,0.7093786879330873,0.18811872558444737
1782988008148456000,1.0954560546875,1.0883049397945403,0.5792085857093334,0.23698344038799404
1782988008158529800,1.10552978515625,1.20856096624732,0.4669797983676195,0.27105770555585623
1782988008168605000,1.11560498046875,1.2769085262864828,0.3724386434078216,0.324423385040462
1782988008178678800,1.1256787109375,1.2693494892090558,0.22755320261120796,0.41055940748751163
1782988008188754000,1.13575390625,1.2091910808444022,0.110011111292243,0.45583428110554813
1782988008198827800,1.145827880859375,1.0466741217672824,0.06976677918732166,0.49143648649305105
1782988008208903000,1.15590283203125,0.8605120832085609,-0.015463526591658592,0.5221614412330091
1782988008218978300,1.165978271484375,0.6708914286285639,-0.1583183383435011,0.48854792544469233
1782988008229052400,1.176052490234375,0.7729588874399661,-0.2706453253626823,0.48274201564490793
1782988008239127300,1.186127197265625,0.9965297424167394,-0.5247784918636084,0.5004686648629606
1782988008249201700,1.19620166015625,0.6633242082446813,-0.7688233950704336,0.17461422410607336
1782988008259276300,1.2062763671875,0.36649522483348845,-0.7082482225984335,-0.23696751216650008
1782988008269350700,1.2163505859375,-0.0475485176384449,-0.7362871531248092,-0.5038258663363755
1782988008279425300,1.22642529296875,-0.2705810279548168,-0.8682382935464381,-0.616812486308068
1782988008289499600,1.236499755859375,-0.22255495593249797,-0.8899363306134939,-0.560850214459002
1782988008299574300,1.24657421875,-0.1363099201530218,-0.8773872301638126,-0.4023338693253696
1782988008309648600,1.256648681640625,-0.22959610661566257,-0.8290279806643724,-0.17904533842131495
1782988008319723300,1.26672314453125,-0.5076671980649232,-0.7601058356076479,-0.0351768195822835
1782988008329797600,1.276797607421875,-0.8017448369413613,-0.7395213127404451,-0.03656199033036828
1782988008339872300,1.286872314453125,-0.9359984090864658,-0.7850263418525457,-0.13250555943399667
1782988008349946600,1.296946533203125,-0.9615817631542682,-0.8565233058333397,-0.19957827723175287
1782988008360021500,1.307021484375,-1.0065297429054976,-0.8709200799763203,-0.2322635722592473
1782988008370095600,1.317095703125,-1.1182377212435006,-0.8480003921598196,-0.3319510040663183
1782988008380170500,1.32717041015625,-1.1843044768691062,-0.9427426226496696,-0.2752013812318444
1782988008390244600,1.33724462890625,-0.8892080163389444,-1.1307745467334984,0.028814737204462287
1782988008400319500,1.347319580078125,-0.4326414754360914,-1.393472712484002,0.23297069761529562
1782988008410393600,1.3573935546875,-0.08238251513242721,-1.5754700325787065,0.2715072028890252
1782988008420468500,1.367468505859375,-0.21623393621742723,-1.6302321348577737,-0.0019207389295101164
1782988008430543400,1.37754345703125,-0.8452268357932567,-1.5498650512009857,-0.5581900553390383
1782988008440617500,1.387617431640625,-1.6841659696191549,-1.252273266723752,-1.282614190582186
1782988008450692400,1.3976923828125,-2.4325357747256753,-0.6352753408461809,-1.9340230662360787
1782988008460766500,1.407766357421875,-2.9716514194995165,-0.004007482075691223,-2.3508850809991357
1782988008470841300,1.41784130859375,-3.015791005477309,0.39031098470687864,-2.2345867061309517
1782988008480915500,1.42791552734375,-2.5248271049320694,0.5488496878027915,-1.6608143201261758
1782988008490990300,1.437990234375,-1.7472814742237328,0.5280564906209707,-0.9335479471944272
1782988008501064400,1.448064453125,-0.9804173965275287,0.4297358171224594,-0.3900159472830593
1782988008511139300,1.458139404296875,-0.46064942630231376,0.4474386470735073,-0.11759367537572979
1782988008521213400,1.46821337890625,-0.2980605710327625,0.6207306826651096,-0.08444675418585539
1782988008531288300,1.478288330078125,-0.30507308014333245,0.8610796539634465,-0.2970126694150269
1782988008541362400,1.488362548828125,-0.417653165140748,0.955313934931159,-0.6097979313708841
1782988008551437300,1.498437255859375,-0.5277157143592834,0.9312357247292995,-0.8941909193180501
1782988008561511400,1.508511474609375,-0.3886287307083606,0.9537480007886886,-1.1164989147521556
1782988008571586300,1.51858642578125,-0.1603004520714283,1.000428503420949,-1.3264923491448164
1782988008581660400,1.528660400390625,0.06316577348709106,1.0431658213853836,-1.500542801888287
1782988008591735300,1.5387353515625,0.3334592166721821,0.9921768079042435,-1.5313485667794942
1782988008601809400,1.548809326171875,0.6051958444029092,0.8474743224591016,-1.4663671221725643
1782988008611884500,1.558884521484375,0.9652034607827663,0.7587807244837284,-1.4050640738174318
1782988008621958400,1.56895849609375,1.4354787935644386,0.7782493950635194,-1.3094687336295843
1782988008632033500,1.579033447265625,1.9743857640236615,0.7608072618752717,-1.1272377509094773
1782988008642108400,1.5891083984375,2.457306058844924,0.7336608962744474,-0.8805769661158322
1782988008652182500,1.5991826171875,2.769680986434221,0.6271703603237867,-0.6088024905927479
1782988008662257400,1.60925732421875,2.9425258627802133,0.5052098680406809,-0.353554786978662
1782988008672331500,1.61933154296875,2.8139351387023925,0.4517629400134086,-0.12706409903243182
1782988008682406400,1.629406494140625,2.4949352400153875,0.43644320580661294,-0.03196808666884899
1782988008692480500,1.63948046875,2.1808459097236392,0.5007511350661515,-0.030069705701619386
1782988008702555400,1.649555419921875,1.7526444625616073,0.5483084205329418,-0.06339066828414798
1782988008712629500,1.65962939453125,1.328726976329088,0.59510465849936,-0.0900872442908585
1782988008722704400,1.669704345703125,1.0284043055832386,0.5626175163924694,-0.1580544267103076
1782988008732778500,1.679778564453125,0.8670862009018659,0.435993708473444,-0.17923706160113215
1782988008742853400,1.689853271484375,0.8485188630759716,0.32848259730339047,-0.20230784832611678
1782988008752927500,1.699927490234375,0.7619464950382709,0.24679624774158,-0.26684666373208166
1782988008763002400,1.71000244140625,0.6432768609941005,0.09279226546585559,-0.34637145134583114
1782988008773076500,1.720076416015625,0.563006223449111,-0.08662497500777244,-0.3953603770509362
1782988008783151400,1.7301513671875,0.5206254638373852,-0.2481301266938448,-0.4332020319283008
1782988008793225500,1.7402255859375,0.4501443989008665,-0.3640367257654667,-0.4881191786386072
1782988008803300400,1.75030029296875,0.2852911058306694,-0.43542379963099953,-0.4769881282933056
1782988008813374500,1.76037451171875,0.19740356354117392,-0.4787117372155189,-0.3513404719300568
1782988008823449300,1.770449462890625,0.18082418466210365,-0.49427930870354175,-0.18972528399825095
1782988008833523500,1.7805234375,0.17621347599625586,-0.5554822576850652,-0.03598609013855457
1782988008843598300,1.790598388671875,0.19699732082784174,-0.6010989304780959,0.11423398968428372
1782988008853672400,1.80067236328125,0.24544424861073494,-0.6287240195065736,0.25009806576594706
1782988008863747600,1.81074755859375,0.18318214596509932,-0.7145008532524109,0.4208646745331585
1782988008873821400,1.820821533203125,-0.010603227078914642,-0.797841984283924,0.5688255772523582
1782988008883896600,1.830896484375,-0.11514087539613246,-0.8658610430210828,0.6086337098971009
1782988008893971500,1.840971435546875,-0.1269856269687414,-0.9474842642188072,0.634665392254293
1782988008904045600,1.851045654296875,-0.047073885864019394,-1.0277104781001805,0.6499022704832256
1782988008914120400,1.861120361328125,0.016258476361632346,-1.1350842266261576,0.6482045266546309
1782988008924194600,1.871194580078125,-0.08011515472233295,-1.251129941907525,0.613554361294955
1782988008934269400,1.88126953125,-0.39849604472815986,-1.2273264569938183,0.44863867051303385
1782988008944343600,1.891343505859375,-0.7979325851768255,-1.161760636627674,0.2558553141184151
1782988008954418400,1.90141845703125,-1.2001140404194592,-1.106715041232109,0.13435454830154775
1782988008964492500,1.911492431640625,-1.4196142849564553,-1.29741004704535,0.25995544291362166
1782988008974567400,1.9215673828125,-1.4032552708297967,-1.5483797810792923,0.5336085717901587
1782988008984641500,1.9316416015625,-1.258838032066822,-1.7335861263483763,0.6224817641161382
1782988008994716400,1.94171630859375,-1.1367039367824792,-1.8195032453477382,0.49630759966075416
1782988009004790500,1.95179052734375,-1.3760580518245695,-1.722234126728773,0.2479424951672554
1782988009014865400,1.961865478515625,-1.9036521856307982,-1.4761153398573397,0.10007263173237442
1782988009024939500,1.971939453125,-2.3444155927240846,-1.2142074477016924,0.080219491879642
1782988009035014400,1.982014404296875,-2.5246429805368185,-0.8933160361796617,-0.009880319631844759
1782988009045088500,1.992088623046875,-2.5258587860673662,-0.5302852725863456,-0.20884294918328522
1782988009055163400,2.002163330078125,-2.3090473422229287,-0.18802081816792487,-0.3810777308069169
1782988009065237500,2.012237548828125,-1.927021370780468,0.02366495322585106,-0.49826925512254233
1782988009075312400,2.0223125,-1.4339771568298338,0.16931787126362322,-0.5323562336415052
1782988009085387500,2.032387451171875,-0.831061532318592,0.26125965737998486,-0.4430845435172319
1782988009095461400,2.04246142578125,-0.20018062703907488,0.39767829860448833,-0.332275998236984
1782988009105536500,2.05253662109375,0.49585927137136454,0.5569260267525911,-0.22203414692878723
1782988009115610400,2.0626103515625,1.125562949565053,0.712616939201951,-0.028769582888484
1782988009125685500,2.072685546875,1.5563497370451689,0.7904302467226981,0.14798340681195257
1782988009135759600,2.082759521484375,1.6985609901964664,0.8352151448667049,0.3511922956310212
1782988009145834500,2.09283447265625,1.5532202068477867,0.892110752043128,0.43477907198667526
1782988009155908600,2.10290869140625,1.346144559597969,1.0254331808179615,0.36840456558614965
1782988009165983500,2.1129833984375,1.096360820478201,1.1743266882121561,0.18525223023742438
1782988009176057600,2.1230576171875,0.754788439977169,1.2553607113450764,0.033275954397022724
1782988009186132500,2.133132568359375,0.34751463003158567,1.2777484842419624,-0.07647080687060952
1782988009196206600,2.14320654296875,-0.006291209098696709,1.3114923484116792,-0.1840932694606483
1782988009206281500,2.153281494140625,-0.22444354615807532,1.3395324479818342,-0.24551205314993857
1782988009216355600,2.16335546875,-0.26319968553185463,1.3334575119823218,-0.25986557267308236
1782988009226430700,2.1734306640625,-0.18491876049935815,1.2716776398956775,-0.2512874216809869
1782988009236504600,2.183504638671875,-0.06357435428798199,1.1661609174132346,-0.22934563898593185
1782988009246579700,2.193579833984375,0.09606500352621078,1.0710510226547718,-0.19898264942616223
1782988009256653600,2.203653564453125,0.28543606725931164,0.978175170558691,-0.12845847600027918
1782988009266728700,2.213728759765625,0.4536638051986694,0.8988678250879049,-0.07310235335081815
1782988009276802600,2.223802490234375,0.6601543460369109,0.8793313499689102,-0.05306362779811025
1782988009286877700,2.233877685546875,0.9408779978215693,0.8636948048979044,-0.07975099758505821
1782988009296951600,2.24395166015625,1.2052771222710608,0.7463222249269486,-0.10410919377207756
1782988009307026700,2.254026611328125,1.3299696698665617,0.6005325287669897,-0.11245938122719526
1782988009317100500,2.2641005859375,1.3008809380263089,0.4907043728262186,-0.19732143821567297
1782988009327175700,2.27417578125,1.2951859412550926,0.4424041600376367,-0.26166195457056163
1782988009337250800,2.284250732421875,1.312727443164587,0.33446342527866363,-0.268636835084483
1782988009347324700,2.29432470703125,1.3347159876108168,0.1921586486250162,-0.23174933912679552
1782988009357399800,2.30439990234375,1.3639678010582923,0.0376449632614851,-0.2089675984762609
1782988009367473700,2.3144736328125,1.3454378726333378,-0.08865852666199207,-0.1701217349924147
1782988009377548800,2.324548828125,1.2848819893836974,-0.20429507662057875,-0.1462965497035533
1782988009387622700,2.33462255859375,1.236452597257495,-0.2914887914270162,-0.17587839882299303
1782988009397697800,2.34469775390625,1.2090765145540237,-0.38504327343702316,-0.19814977879859505
1782988009407771600,2.354771728515625,1.0445464620888232,-0.4418512023299932,-0.18863237419500947
1782988009417846800,2.3648466796875,0.7581541170179843,-0.5085042334109544,-0.18495558537840842
1782988009427920600,2.374920654296875,0.5015396550953388,-0.49736616880297657,-0.1920769616909325
1782988009437995800,2.384995849609375,0.14347089782357214,-0.42071430627703665,-0.22961495744660496
1782988009448069600,2.395069580078125,-0.14048457548916338,-0.3426917399197817,-0.2531726509056985
1782988009458144800,2.405144775390625,-0.30999124732315536,-0.2256248648971319,-0.2293641244906932
1782988009468218600,2.415218505859375,-0.42344577706754205,-0.193492527577281,-0.1288557316895574
1782988009478293800,2.425293701171875,-0.5001794726580381,-0.2018143657207489,0.007001037868484854
1782988009488367600,2.43536767578125,-0.7191489713191985,-0.20822715537250042,0.11567534759901463
1782988009498442800,2.44544287109375,-0.8954068709790706,-0.2221305930405855,0.16801307227537035
1782988009508516600,2.4555166015625,-1.0013689991414547,-0.2587520584732294,0.1499183934625238
1782988009518591700,2.465591796875,-1.0688917987942694,-0.34396833572685714,0.0805461665507406
1782988009528665600,2.47566552734375,-1.1199269895046948,-0.4218365883052349,0.009564531680941582
1782988009538740700,2.48574072265625,-1.1639140152692795,-0.4691010283052921,-0.022951763455197213
1782988009548814600,2.495814697265625,-1.181619183307886,-0.5100198986709118,-0.03092683398760855
1782988009558889700,2.5058896484375,-1.1924889523684978,-0.6609639088541269,0.1723454754564911
1782988009568963600,2.515963623046875,-0.8920283344566822,-0.938077553448081,0.5353618451982737
1782988009579038700,2.526038818359375,-0.48835810196101664,-1.0971814892113207,0.7915243255697191
1782988009589113600,2.536113525390625,-0.2618681446671486,-1.1897551434904337,0.7778585691150277
1782988009599187700,2.546187744140625,-0.28306524647474285,-1.1953098550081251,0.4073089543242007
1782988009609262600,2.5562626953125,-0.7032739413172007,-1.085323293635249,-0.21049415045641362
1782988009619336700,2.566336669921875,-1.3600696245759725,-0.8775573260337114,-0.7120050909139215
1782988009629411600,2.57641162109375,-1.982115481492877,-0.481001893979311,-0.9791654967702924
1782988009639485700,2.586485595703125,-2.502587800595164,-0.0206043966114521,-1.1379011837430297
1782988009649560600,2.596560546875,-2.717607100325823,0.34652561899423595,-1.06694906722866
1782988009659634700,2.606634765625,-2.482691844514012,0.6092606096237898,-0.6728713503994047
1782988009669709600,2.61670947265625,-1.9195324763298034,0.6486240672409535,-0.11651121390126645
1782988009679783700,2.62678369140625,-1.2845482273846864,0.5791472109109163,0.2697028568807989
1782988009689858600,2.636858642578125,-0.6883247939884662,0.5226105001747607,0.3342179991502315
1782988009699932700,2.6469326171875,-0.21235037278234958,0.47168812218904493,0.11040040287077427
1782988009710007600,2.657007568359375,0.13728314909934997,0.425411524182558,-0.28952757435664533
1782988009720081700,2.66708154296875,0.28830431617200375,0.34536709660887716,-0.6981018724415451
1782988009730156500,2.677156494140625,0.3444587495923042,0.2904857518643141,-1.0196741058345884
1782988009740230700,2.687230712890625,0.4476338773846626,0.30143969207704063,-1.226159897432476
1782988009750305500,2.697305419921875,0.5599702167540789,0.3698603173524141,-1.3698179883912205
1782988009760379600,2.707379638671875,0.6244464883178472,0.4590858302474022,-1.424587251063436
1782988009770454500,2.71745458984375,0.7207628362566232,0.531107110363245,-1.3677981730014086
1782988009780528600,2.727528564453125,0.9021218584477901,0.582827360728383,-1.2332809814840555
1782988009790603500,2.737603515625,1.1681418620973825,0.6360819810539484,-0.9929569254312663
1782988009800677600,2.747677734375,1.477691210871935,0.6910533421695232,-0.6261722891971468
1782988009810752500,2.75775244140625,1.750429124599695,0.7154670679360627,-0.2380107376091182
1782988009820826600,2.76782666015625,1.9693442627251148,0.7343699213266373,0.13520320102013647
1782988009830901500,2.777901611328125,2.1354735670804974,0.6693026981323957,0.3646645022749901
1782988009840976600,2.7879765625,2.211936044514179,0.5552981332898139,0.5137911608379334
1782988009851050500,2.798050537109375,2.1724673729568718,0.44905601914227006,0.5235215506050735
1782988009861125600,2.808125732421875,2.0137953988701103,0.3624801439732313,0.413787502688542
1782988009871199500,2.818199462890625,1.7750509401589631,0.3193266464233398,0.23802849246151744
1782988009881274600,2.828274658203125,1.464136148250103,0.32143793948888777,0.020399594754353163
1782988009891348500,2.838348388671875,1.1495675100088119,0.30955870112478734,-0.15814809634312987
1782988009901423600,2.848423583984375,0.8504396020054816,0.2981932575017214,-0.30289800112657245
1782988009911497500,2.85849755859375,0.5374971036612988,0.28171616995334625,-0.42049028826281426
1782988009921572600,2.868572509765625,0.26584756969213486,0.26467443425953385,-0.46403497708737845
1782988009931646500,2.878646484375,0.0817512314915657,0.2226005486398935,-0.4983188664179295
1782988009941721600,2.8887216796875,-0.008718728506565094,0.18673954618573188,-0.48229032635465263
1782988009951795500,2.89879541015625,-0.053738604450225824,0.17382161242365837,-0.3631337855763733
1782988009961870600,2.90887060546875,0.008350479716062545,0.16505612216591833,-0.24372648490741847
1782988009971944400,2.9189443359375,0.18612112202644346,0.11505611972212791,-0.17478037445321679
1782988009982019600,2.92901953125,0.45007659436166286,0.05466916329860687,-0.09626074529401957
1782988009992093400,2.939093505859375,0.6851981864005326,-0.07278408118188381,-0.06573343201801181
1782988010002168600,2.94916845703125,0.8447709087193012,-0.18402035035490988,-0.051266734443977474
1782988010012242400,2.959242431640625,0.9463274953991174,-0.280181799992919,-0.070810077695176
1782988010022317600,2.969317626953125,0.9043307666689157,-0.37081717968583106,-0.09710384505465626
1782988010032391400,2.979391357421875,0.7841291007518768,-0.5018804313570261,-0.08273761218041181
1782988010042466600,2.989466552734375,0.5597130271226167,-0.6483937656164169,-0.04895765378400683
1782988010052540400,2.99954052734375,0.3348620692074299,-0.7719383122205734,0.0263568226583302
1782988010062615600,3.009615478515625,0.14143559260368346,-0.8592033386975526,0.09905271410010755
1782988010072690400,3.0196904296875,-0.05716507176756858,-0.9378221173822879,0.13988529442176223
1782988010082764500,3.0297646484375,-0.2733177594423294,-1.0136223315149544,0.158374452444911
1782988010092839700,3.039839599609375,-0.4616472051680088,-1.0161433744251727,0.12803981219679117
1782988010102913500,3.04991357421875,-0.6431599566161632,-1.0042454313606024,-0.05733918622545898
1782988010112988700,3.05998876953125,-0.7819400662750006,-0.9640244801312684,-0.25152700259052213
1782988010123062500,3.0700625,-0.9016834670305252,-0.951046925136447,-0.4348616357035935
1782988010133137700,3.0801376953125,-1.070379407003522,-1.0260966131627558,-0.4215354864668101
1782988010143211500,3.09021142578125,-0.9842898540467023,-1.2870657631635665,-0.18448409540914
1782988010153286700,3.10028662109375,-0.8557727797269821,-1.406751880773902,-0.07269106913618743
1782988010163360500,3.110360595703125,-1.0062187772601843,-1.372325295037031,-0.23396460402347147
1782988010173435600,3.120435546875,-1.4374977321714162,-1.1160860961675643,-0.5528363462861627
1782988010183509500,3.130509521484375,-2.0700737509310243,-0.8556260647326708,-0.8283452590972185
1782988010193584600,3.140584716796875,-2.6226129409015178,-0.7107131514072418,-0.8913822185728698
1782988010203658500,3.150658447265625,-2.8169787441819905,-0.4757277529686689,-0.8244459866363555
1782988010213733600,3.160733642578125,-2.660633751738071,-0.15083119745850562,-0.6639554918855428
1782988010223807000,3.170806884765625,-2.3084417775452137,0.1251823769390583,-0.3612742753148079
1782988010233882000,3.180882080078125,-1.8000164545893669,0.359936889231205,0.039964492250233886
1782988010243956000,3.1909560546875,-1.192656125628948,0.4638631276518106,0.4026592288222164
1782988010254031000,3.201031005859375,-0.5726280382752418,0.4482447027593851,0.656321636006236
1782988010264105000,3.21110498046875,-0.03240589356422424,0.36133038941621776,0.8248411234337836
1782988010274180000,3.22118017578125,0.41240591213703154,0.29776246486902236,0.8633947259727865
1782988010284254000,3.23125390625,0.7285895843595266,0.3000824322491884,0.8435217123758048
1782988010294329000,3.2413291015625,0.830005885785818,0.33735856219828125,0.7546086994960903
1782988010304403000,3.25140283203125,0.737376701927185,0.43989773017466066,0.5992676233977079
1782988010314478000,3.26147802734375,0.4758844048351049,0.5719605142772197,0.34398769801445306
1782988010324552000,3.271552001953125,0.16708792025446892,0.7102168923228979,0.11604622673802077
1782988010334627000,3.281626953125,-0.13409925836622713,0.903448138615489,-0.08059701995514333
1782988010344702000,3.291701904296875,-0.5117430692017078,1.1004273392647503,-0.3017209201712161
1782988010354776000,3.301776123046875,-0.8714870662093162,1.23681616987288,-0.4724696279555559
1782988010364851000,3.311850830078125,-1.0256330873042345,1.3549199867278336,-0.49349553791470824
1782988010374925000,3.321925048828125,-0.9324199660778045,1.396542621448636,-0.43416020943596956
1782988010385000000,3.332,-0.6197831726819276,1.4013719413012264,-0.3055548723109066
1782988010395074000,3.342073974609375,-0.21980653400719163,1.3816431584805249,-0.19282785312347112
1782988010405149200,3.352149169921875,0.11359423047602175,1.3360060274213552,-0.111542266382277
1782988010415223000,3.36222314453125,0.425831210899353,1.313667354363203,-0.06869330473691225
1782988010425298200,3.372298095703125,0.7399678874641656,1.2881506357908248,-0.09331855436228215
1782988010435372000,3.3823720703125,1.008503673326969,1.2009417234152555,-0.14550101541168986
1782988010445447200,3.392447265625,1.245546004295349,1.035814874100685,-0.17185959163568912
1782988010455521000,3.40252099609375,1.40751994253695,0.8217062594741582,-0.22810426062270997
1782988010465596200,3.41259619140625,1.4935066196411848,0.6377046138197183,-0.30138642751984296
1782988010475670000,3.422669921875,1.4652636909753083,0.48271921929121014,-0.37318339736051853
1782988010485745200,3.4327451171875,1.347470255243778,0.350283510223031,-0.444196377216652
1782988010495819000,3.442819091796875,1.2094073539435863,0.2325911967784166,-0.5372450285963714
1782988010505894100,3.45289404296875,1.1434458122581244,0.17226210802197456,-0.6387826183147728
1782988010515968000,3.462968017578125,1.0691729538232086,0.12954466380178928,-0.7072494208194315
1782988010526043100,3.473043212890625,0.9912304669648409,0.0659703095138073,-0.6843306097857653
1782988010536117000,3.483116943359375,0.9311199893951415,0.033467385315895076,-0.5689925313170999
1782988010546192100,3.493192138671875,0.8979869506001472,0.021429156997799872,-0.3964250106077641
1782988010556266000,3.503265869140625,0.909399155974388,0.0040104046851396555,-0.17534429194629192
1782988010566341000,3.513341064453125,0.8635095114588737,-0.015399813705682754,0.025938962572440504
1782988010576415000,3.5234150390625,0.8197761681944131,-0.07959609928429126,0.13584975529536605
1782988010586490000,3.533489990234375,0.7260241177856922,-0.13263503103256225,0.1219865765724331
1782988010596564000,3.54356396484375,0.6194762986898422,-0.13432137668430805,0.08057444279715419
1782988010606639000,3.55363916015625,0.4905331079125404,-0.11883797634840011,0.07481719444468617
1782988010616713000,3.563712890625,0.2874982604861259,-0.1098889462172985,0.06643368924185633
1782988010626788000,3.5737880859375,0.07008066744208336,-0.08716098158061504,0.09591558511815965
1782988010636863000,3.583863037109375,-0.14025836551785467,-0.04620587085783481,0.12698518857732413
1782988010646937000,3.59393701171875,-0.28444764074385165,-0.02255377711355686,0.1332442489720881
1782988010657012000,3.604011962890625,-0.3835807996690273,-0.03991524628102779,0.11402122371643782
1782988010667086000,3.614086181640625,-0.4486369169473648,-0.07726970216333866,0.04501074278913438
1782988010677161200,3.6241611328125,-0.5719365488797425,-0.11160627152919769,-0.06920220410712064
1782988010687235000,3.634235107421875,-0.7700678421735763,-0.09038520432412624,-0.19633900304958224
1782988010697310200,3.644310302734375,-0.9474538690805434,-0.046026422637701035,-0.3147225866939872
1782988010707384000,3.654384033203125,-1.0474112038701773,0.015267711758613585,-0.4868164985422045
1782988010717459200,3.664459228515625,-1.0559820483386515,0.07759294276833534,-0.6359256945136934
1782988010727533000,3.674532958984375,-1.0046937596499919,0.03517652732133865,-0.5861706798069178
1782988010737608200,3.684608154296875,-0.8574106100618839,-0.20310148292183874,-0.3097686906136572
1782988010747682000,3.69468212890625,-0.6127472826957703,-0.49181321085095403,0.042039544958621264
1782988010757757200,3.704757080078125,-0.4223533056557178,-0.7682341970056294,0.22199805270209907
1782988010767831000,3.7148310546875,-0.38006665406823154,-0.9958762469440698,-0.0229475987367332
1782988010777906200,3.72490625,-0.5808768111824989,-1.0932920805573463,-0.530935918514803
1782988010787980000,3.73497998046875,-1.0119529369980096,-1.1861398756027222,-0.9154399705085903
1782988010798055200,3.74505517578125,-1.4483289227873086,-1.1432201868087053,-1.1806244731821118
1782988010808129000,3.75512890625,-1.900976244419813,-0.9239970056474208,-1.4876355356507003
1782988010818204200,3.7652041015625,-2.3986107087701556,-0.5550979345425963,-1.8202371125802397
1782988010828278000,3.775278076171875,-2.8624551317214966,-0.07270283263921737,-2.094571647849679
1782988010838353200,3.785353271484375,-3.1018846500873565,0.43377135624885554,-2.203217316007614
1782988010848427000,3.795427001953125,-3.0979432189851996,0.8235974800482392,-2.106024185234308
1782988010858502100,3.805502197265625,-2.6471476626992225,1.0663047049105168,-1.8331683442153035
1782988010868576000,3.815575927734375,-1.8867922362446783,1.1042018893674015,-1.4648340673863887
1782988010878651100,3.825651123046875,-1.055296988683939,0.9780746327936649,-1.1432357497040182
1782988010888725000,3.83572509765625,-0.25249007546901703,0.7725184501960873,-0.9950924761552363
1782988010898800000,3.845800048828125,0.3415361401438713,0.596593143491447,-0.9098525988303124
1782988010908875000,3.855875,0.7731050179123878,0.5101318346127868,-1.0389905815273524
1782988010918949000,3.86594921875,1.0306535458147525,0.5171525270298123,-1.2655597415372728
1782988010929024300,3.876024169921875,1.177656124895811,0.5535036510884761,-1.5934660002574323
1782988010939098000,3.88609814453125,1.2142583011060952,0.6195636847123503,-1.9086232520416377
1782988010949173200,3.89617333984375,1.1863473808735607,0.7086325457409024,-2.112812384069711
1782988010959247000,3.9062470703125,1.106099539682269,0.7955348763853312,-2.194661084586382
1782988010969322200,3.916322265625,1.0922738434255121,0.8743158598944544,-2.049588012263179
1782988010979396000,3.92639599609375,1.1345207475244998,0.906320186920464,-1.7471774293273685
1782988010989471200,3.93647119140625,1.264746379327774,0.9029057023018598,-1.4136984850414096
1782988010999545000,3.946545166015625,1.4782587816268205,0.9461921785816549,-1.105765777683258
1782988011009620200,3.9566201171875,1.7098796720683573,0.9176213331356644,-0.8088062997601926
1782988011019694000,3.966694091796875,1.878710052075982,0.8504206050440668,-0.5736809083290397
1782988011029769200,3.976769287109375,1.821597587278485,0.7584647904023528,-0.36208778365477917
1782988011039843000,3.986843017578125,1.5856903978198766,0.7183832476437091,-0.2565167006365955
1782988011049918200,3.996918212890625,1.2890835327267647,0.7512202261015772,-0.23586948779672384
1782988011059992000,4.006991943359375,0.9467992045640945,0.8472738314509392,-0.2828716235987842
1782988011070067200,4.017067138671875,0.6313496918350457,0.906282777519524,-0.36811259690225123
1782988011080141000,4.02714111328125,0.39791502996981143,0.8682754106864332,-0.4152728458754718
1782988011090216200,4.03721630859375,0.2215256128847599,0.7246750412642955,-0.5234196246005595
1782988011100290000,4.0472900390625,0.14978548779785633,0.5225163921505213,-0.7785942629784345
1782988011110365200,4.057365234375,0.13048632856607437,0.3549395193353295,-1.074913981693238
1782988011120439000,4.06743896484375,0.1786257978349924,0.21742431504577397,-1.3776491204082966
1782988011130514200,4.07751416015625,0.2904565257698297,0.08993366116434336,-1.6092441457562148
1782988011140588000,4.087588134765625,0.38752281529307364,-0.04311784171462059,-1.7240893992066382
1782988011150663200,4.0976630859375,0.47112931926250456,-0.1658747450724244,-1.765398584064096
1782988011160737000,4.107737060546875,0.46965632410049435,-0.2527148241356015,-1.7410002019971609
1782988011170812200,4.117812255859375,0.4459387639045715,-0.27072306677401065,-1.7601327724903821
1782988011180886000,4.127885986328125,0.4816092122226953,-0.2656447405964136,-1.7455866530045865
1782988011190961200,4.137961181640625,0.5359042815119027,-0.3082403120025992,-1.6656114912748337
1782988011201036300,4.148036376953125,0.557265633970499,-0.3799117557674646,-1.5456968256056307
1782988011211110100,4.158110107421875,0.5942208614021539,-0.43416824661195275,-1.4096351811252534
1782988011221185300,4.168185302734375,0.5999450842678546,-0.46576720770746466,-1.275475570873916
1782988011231259100,4.178259033203125,0.5363526098012924,-0.5259475356429815,-1.1628361569046974
1782988011241334300,4.188334228515625,0.4463093507826328,-0.5893263673588633,-1.0723911852173507
1782988011251408100,4.198408203125,0.31743922524154183,-0.6222881412401795,-0.9624659986428916
1782988011261483300,4.208483154296875,0.1512941387951374,-0.6664192516505718,-0.8199500634565949
1782988011271557000,4.21855712890625,-0.0845697960436344,-0.6666326021403074,-0.688257135579735
1782988011281632300,4.22863232421875,-0.37249475750923156,-0.6635790597885847,-0.5896764959707855
1782988011291706000,4.2387060546875,-0.6664911478430032,-0.6655258099421858,-0.5393688888825476
1782988011301781200,4.24878125,-0.8419640346050262,-0.647537441048026,-0.5502626233406365
1782988011311855000,4.258855224609375,-0.9455530038952827,-0.641940643954277,-0.5762330770298838
1782988011321930200,4.26893017578125,-1.0199509500145911,-0.7408604523897171,-0.5376360737405717
1782988011332004000,4.279004150390625,-0.9220388573169708,-0.9623013096004724,-0.3238517226323485
1782988011342079200,4.289079345703125,-0.6714362030297517,-1.1326949934020638,-0.12975260746404527
1782988011352153000,4.299153076171875,-0.5357002833724022,-1.311188397029042,-0.06775514710396528
1782988011362228200,4.309228271484375,-0.5074807355821133,-1.3738000437647104,-0.2189030092962086
1782988011372302000,4.319302001953125,-0.7388602184832096,-1.2307117155179381,-0.5161684844285249
1782988011382377200,4.329377197265625,-1.2831237475395203,-1.067251630371809,-0.7454185540854931
1782988011392451000,4.339451171875,-2.006248052230477,-0.911447028414905,-0.8216023607082664
1782988011402526200,4.349526123046875,-2.7298978421002627,-0.6121051853999495,-0.9814182441331446
1782988011412600000,4.35960009765625,-3.24138079906106,-0.19501549936085938,-1.2720675159960984
1782988011422675200,4.36967529296875,-3.4225627111196517,0.1993383309960365,-1.5460072067290545
1782988011432749000,4.3797490234375,-3.258896582007408,0.5088736512452363,-1.7013370307810605
1782988011442824200,4.38982421875,-2.7871143517941235,0.627650837317109,-1.7178429060325024
1782988011452898000,4.39989794921875,-2.00271812453866,0.6008744740724563,-1.5119957776643336
1782988011462973200,4.40997314453125,-1.0972528008818625,0.5542161832720041,-1.2027112173058092
1782988011473047000,4.420047119140625,-0.20957915450334547,0.5625000274926424,-0.8395129881910979
1782988011483122200,4.4301220703125,0.5125280820995569,0.5735702875614166,-0.4154125466071069
1782988011493197300,4.440197265625,1.0085592029064894,0.5028881470948457,-0.04211114889010787
1782988011503271200,4.450271240234375,1.2738415399312972,0.3758893683835864,0.17078794381618498
1782988011513346300,4.46034619140625,1.3059937509953974,0.25702041237503287,0.12468860207274556
1782988011523420200,4.470420166015625,1.1013169815808534,0.21013211221098899,-0.16324761143922806
1782988011533495300,4.480495361328125,0.7306845108121633,0.2680073780745268,-0.5669106835417449
1782988011543569200,4.490569091796875,0.2727881826102733,0.373937357532978,-0.9389169268816709
1782988011553644300,4.500644287109375,-0.17917407936751842,0.5377566313803196,-1.19951125222072
1782988011563718100,4.51071826171875,-0.5955085631251334,0.696193627667427,-1.3406268190898
1782988011573793300,4.520793212890625,-0.9310884252130984,0.822219761954248,-1.3612776851914823
1782988011583867100,4.5308671875,-1.1176835944920778,0.9363961762323975,-1.2704837539359926
1782988011593942300,4.5409423828125,-1.1477718587636947,0.9623661915302276,-1.0905725924655794
1782988011604016000,4.55101611328125,-0.9700538234233855,0.9727177819356322,-0.8881811575092374
1782988011614091300,4.56109130859375,-0.6529729101002216,0.9882008900105953,-0.7133528522610664
1782988011624165000,4.5711650390625,-0.31089608720839024,0.9503805701822042,-0.5992758067041635
1782988011634240300,4.581240234375,0.012577157500386238,0.8933464313179253,-0.5355024227127433
1782988011644314000,4.591314208984375,0.31029636774957176,0.8122378816440701,-0.5385432517133653
1782988011654389200,4.60138916015625,0.5174427421480416,0.7576809465482831,-0.5874513672672211
1782988011664463000,4.611463134765625,0.680139733967185,0.7285536362633108,-0.610871551951766
1782988011674538200,4.621538330078125,0.8477268359154463,0.7482675137758255,-0.6074202424541115
1782988011684612000,4.631612060546875,1.001666520783305,0.755881203649938,-0.5224427423924207
1782988011694687200,4.641687255859375,1.0368003780066966,0.749810651564598,-0.39085312875956296
1782988011704761000,4.651760986328125,0.9269780672848225,0.7290145317733288,-0.3159969174787402
1782988011714836200,4.661836181640625,0.7588602194607258,0.7528732540056109,-0.29181553916335107
1782988011724910000,4.67191015625,0.5955015488624572,0.7210828619912266,-0.36175358326435086
1782988011734985200,4.681985107421875,0.5001210204690695,0.6205503576621413,-0.46289121387973425
1782988011745059000,4.69205908203125,0.4420148684591055,0.5165522230491042,-0.5356126050889491
1782988011755134200,4.70213427734375,0.4148685028582811,0.4331126000791788,-0.5465989862665533
1782988011765208000,4.7122080078125,0.4555716846466064,0.40412265243828294,-0.5384165565937757
1782988011775283200,4.722283203125,0.4917454063117504,0.3743246032848954,-0.5401594547383487
1782988011785357000,4.732357177734375,0.41748657640218734,0.367152519698441,-0.5357166499853134
1782988011795432200,4.74243212890625,0.2296563123703003,0.3785173787996173,-0.5461554802827536
1782988011805507000,4.752507080078125,0.07336801854968071,0.3543003446489572,-0.5913640106663107
1782988011815581200,4.762581298828125,0.022341011145710944,0.325426716864109,-0.6453396387428045
1782988011825656000,4.772656005859375,0.08985212036073208,0.2345554825887084,-0.7146075284972786
1782988011835730200,4.782730224609375,0.18134733175337314,0.1705821921110153,-0.7477933203928172
1782988011845805000,4.79280517578125,0.28406828603744505,0.14590163210183382,-0.7787858400277793
1782988011855879200,4.802879150390625,0.3766922091990709,0.13108049506694078,-0.7955144181191921
1782988011865954000,4.8129541015625,0.4807721768766641,0.0793134829506278,-0.8153273720920086
1782988011876028200,4.823028076171875,0.5591080469667912,0.014501403561234473,-0.7982669316977262
1782988011886103000,4.83310302734375,0.49952831527292724,-0.06723404583930968,-0.8487425888292491
1782988011896177200,4.84317724609375,0.3987035499989986,-0.17908961595445871,-0.9590072364911436
1782988011906252000,4.853251953125,0.17279869911670684,-0.281194484166801,-1.0723153435021637
1782988011916326100,4.863326171875,-0.05925707561075687,-0.29885552080273625,-1.113332413545251
1782988011926401000,4.873401123046875,-0.21762743640244006,-0.240936415797472,-1.116040211199224
1782988011936475100,4.88347509765625,-0.4251870677769184,-0.2147802302777767,-1.0646917167559264
1782988011946550000,4.893550048828125,-0.6860743847131728,-0.21831249605715272,-0.9867011529721319
1782988011956624100,4.9036240234375,-0.965642436721921,-0.28289748869240283,-0.9814103530876338
1782988011966699000,4.913698974609375,-1.106821424216032,-0.35954642860889435,-1.0765732932075858
1782988011976773000,4.923773193359375,-1.0977508135318756,-0.608653875902295,-1.000868648403883
1782988011986848000,4.933847900390625,-0.801793936780095,-0.9797960497587919,-0.7545796195320784
1782988011996922000,4.943922119140625,-0.46116088295578955,-1.2997721000015734,-0.5672539440214633
1782988012006997000,4.9539970703125,-0.2965530890792608,-1.5824433787226675,-0.6350457698740065
1782988012017071000,4.964071044921875,-0.5689899740338326,-1.6298644705891607,-0.9670715927422046
1782988012027146000,4.97414599609375,-1.3545710271596907,-1.3728557486519217,-1.446364636977017
1782988012037220000,4.98422021484375,-2.4045640642166135,-0.8679676599115133,-1.950738638715446
1782988012047295000,4.994294921875,-3.366121861973405,-0.1516317001864314,-2.447322424969077
1782988012057369000,5.004369140625,-3.998829982680082,0.7527347223177552,-2.8394445507511494
1782988012067444000,5.01444384765625,-4.286535163915157,1.534743177653849,-2.825830743679404
1782988012077518000,5.02451806640625,-3.9997710629224774,2.0928227583557364,-2.3842444758959114
1782988012087593000,5.034593017578125,-3.0543302872300147,2.3308125993072983,-1.68342888751626
1782988012097668000,5.044668212890625,-1.7531565037369727,2.2853008481934665,-1.0546067413974554
1782988012107742000,5.054741943359375,-0.45108138749003407,2.0573352653890846,-0.5414815701875836
1782988012117817000,5.064817138671875,0.6435872421175242,1.67459822306782,-0.0855627526037395
1782988012127891000,5.074890869140625,1.4775526791840792,1.3062711066320538,0.15608597618155182
1782988012137966000,5.084966064453125,1.9552654684901236,1.0715718316584826,0.04783697919100523
1782988012148040000,5.0950400390625,2.0704729793816803,0.9727671740353107,-0.3549828470204025
1782988012158115000,5.105114990234375,1.8206179285913704,0.9991960390165447,-0.8823316277634352
1782988012168189000,5.11518896484375,1.316722065758705,1.0796654140040278,-1.4303116200596093
1782988012178264000,5.12526416015625,0.642664282053709,1.1719330710738896,-1.9550603013068437
1782988012188338000,5.135337890625,0.014059505012631415,1.3554577468663453,-2.4545272417813537
1782988012198413000,5.1454130859375,-0.3684656481236219,1.5201342220649123,-2.753498205657303
1782988012208487000,5.15548681640625,-0.4462701878160238,1.57231186080873,-2.720012407901883
1782988012218562000,5.16556201171875,-0.13796996231973171,1.5295377179652452,-2.332536354359984
1782988012228636000,5.175635986328125,0.35951018825173375,1.4817609445288777,-1.7440592973068356
1782988012238710800,5.185710693359375,0.8829805201262235,1.4031237534046173,-1.1093662133280187
1782988012248785000,5.195784912109375,1.3223837447822093,1.2477014287635684,-0.5711055048830807
1782988012258859800,5.20585986328125,1.5955337464421986,1.0891165484383702,-0.16995996855944395
1782988012268934000,5.215933837890625,1.6439309898644685,0.9610969022467731,0.09169723677076398
1782988012279008800,5.2260087890625,1.456056886690855,0.9119055858373641,0.13215849956199527
1782988012289083000,5.236082763671875,1.1487433341443538,0.9048457304537296,0.09091799602657556
1782988012299157800,5.24615771484375,0.8415794192016124,0.9130667385712266,-0.015502689558267592
1782988012309231900,5.25623193359375,0.5726923356831073,0.890913358952105,-0.0715992553114891
1782988012319306000,5.266305908203125,0.2511380763381719,0.8492916010141373,-0.07268084000311792
1782988012329380900,5.276380859375,-0.15846037716269493,0.8002885006532072,-0.06330488969683647
1782988012339455000,5.286455078125,-0.5920692363262177,0.7438637258589267,-0.08221205393634735
1782988012349529900,5.29652978515625,-0.9831079507857561,0.7288394674673676,-0.17352862082645296
1782988012359604000,5.30660400390625,-1.2842530438303947,0.6641013300970197,-0.27308782314397395
1782988012369678800,5.316678955078125,-1.4744967987447977,0.5806175757244229,-0.372056146896258
1782988012379753000,5.3267529296875,-1.4965408727705478,0.4517129633918404,-0.4786693593785166
1782988012389827800,5.336827880859375,-1.370490480825305,0.3591773030355572,-0.5929162085443734
1782988012399902000,5.34690185546875,-1.2152607561469078,0.2239876190841198,-0.6942291226614267
1782988012409976800,5.356976806640625,-1.0340759214788675,0.11497750152796506,-0.7070681459683924
1782988012420051000,5.367051025390625,-0.8404179742068052,0.04014847051501274,-0.7315187696792185
1782988012430125800,5.377125732421875,-0.6499626223683357,-0.020011691415309906,-0.6995518520541488
1782988012440200000,5.387199951171875,-0.5296154105007648,-0.06729103672355413,-0.5873185346677899
1782988012450275000,5.397275146484375,-0.4497562763661146,-0.1211082593679428,-0.44861908902972936
1782988012460349000,5.407348876953125,-0.35361528499424455,-0.19784663113355636,-0.27761428759247064
1782988012470424000,5.417424072265625,-0.26196692886650563,-0.2719648835286498,-0.10098901592493056
1782988012480498000,5.427497802734375,-0.1793061813145876,-0.39411739125251766,0.04266483725011348
1782988012490573000,5.437572998046875,-0.11303250494003295,-0.5315747278749943,0.1446869956150651
1782988012500647000,5.44764697265625,-0.09472060317993164,-0.6683382370144129,0.11366861088648438
1782988012510722000,5.45772216796875,-0.050713119149208064,-0.7646648140862584,-0.0019433891527354716
1782988012520796000,5.4677958984375,-0.062193129062652584,-0.7920800597563386,-0.17620529268980026
1782988012530871000,5.47787109375,-0.10386895527541637,-0.8100544001251458,-0.4067782815136015
1782988012540946000,5.48794580078125,-0.15348375779390333,-0.7232093526259065,-0.6152557583853602
1782988012551020000,5.49802001953125,-0.2663350609481335,-0.6024544367402792,-0.7669131775349378
1782988012561095000,5.508094970703125,-0.42840953695476053,-0.5625996884748339,-0.6809422825217246
1782988012571169000,5.5181689453125,-0.39290976902842517,-0.6511582618936896,-0.30349180230125783
1782988012581244000,5.528243896484375,-0.17469255003929138,-0.7714546203568577,0.12537921468541025
1782988012591318000,5.538318115234375,0.018988193586468697,-0.9175283941552043,0.2830862892627716
1782988012601393000,5.548392822265625,0.06707388684153556,-0.9313117125749587,0.1430215466208756
1782988012611467000,5.558467041015625,-0.18388123414516447,-0.8896668660223483,-0.2760527373641729
1782988012621542000,5.5685419921875,-0.7822223903477191,-0.6974889281749725,-0.706024116808176
1782988012631616000,5.578615966796875,-1.6004402231842279,-0.4438242559686303,-1.1236369499385357
1782988012641691000,5.58869091796875,-2.3908546878159043,-0.06959434522986412,-1.5857506035745144
1782988012651765000,5.598764892578125,-2.952254060590267,0.4988587454482913,-2.0287403084151445
1782988012661840000,5.60883984375,-2.8940310042023656,1.0173884060502052,-2.1960621835559606
1782988012671914000,5.6189140625,-2.076948897397518,1.2816896230831742,-1.980587833534181
1782988012681988900,5.62898876953125,-0.8205623501360416,1.177411794745922,-1.445102508086711
1782988012692064000,5.63906396484375,0.36181671162843704,0.7887731271654367,-0.7788498451747
1782988012702137900,5.649137939453125,1.2519447654217482,0.3658811845883727,-0.21276114554032682
1782988012712213000,5.659212890625,1.7992951545774936,0.04235767099708319,0.07567512644827365
1782988012722286800,5.669286865234375,1.9456138430476186,-0.07446107448339462,-0.009347235668450594
1782988012732362000,5.679362060546875,1.6685142269790172,-0.03585018879920244,-0.39975342437811195
1782988012742435800,5.689435791015625,1.0589403136223554,0.13752601794451474,-0.8972437310174107
1782988012752511000,5.699510986328125,0.2721265038311481,0.478679880772531,-1.3385158182851968
1782988012762585900,5.7095859375,-0.5557786102831364,0.9188687028482556,-1.7140891064569352
1782988012772660000,5.719659912109375,-1.2606664165377617,1.2975453638628125,-1.8665484896391629
1782988012782734800,5.72973486328125,-1.7566238875865936,1.517792335113883,-1.735814177661389
1782988012792809000,5.73980908203125,-1.7939193067580461,1.5371595911458134,-1.3918243607550858
1782988012802883800,5.7498837890625,-1.3312497728049755,1.4584367675647139,-0.8466317341551184
1782988012812958000,5.7599580078125,-0.6466811164796352,1.2840700884789227,-0.4108861552238464
1782988012823032800,5.77003271484375,-0.013190320962667465,0.9992959922596811,-0.0757827515412122
1782988012833107000,5.78010693359375,0.4900584761381149,0.7407695592358708,0.18212050808295607
1782988012843181800,5.790181884765625,0.8408557811021804,0.6276143046990037,0.31153095104582607
1782988012853256000,5.800255859375,1.0063485411196946,0.6243354291588068,0.2842090827476233
1782988012863330800,5.810330810546875,1.0534066448926924,0.6674503482639789,0.11194383292049169
1782988012873405000,5.820405029296875,1.0906284143060445,0.7035422368645667,-0.06535225068069994
1782988012883479800,5.830479736328125,1.1149743355333805,0.6779922005444765,-0.11142382763437926
1782988012893554000,5.840553955078125,1.0684195051074028,0.5869906178876757,-0.09572751520015299
1782988012903628800,5.85062890625,0.9665373397350311,0.4836199675232172,-0.04711772500574588
1782988012913703000,5.860702880859375,0.8880448177784681,0.3584656476348638,-0.059307929015159605
1782988012923777800,5.87077783203125,0.8335469193935394,0.2711246333122253,-0.13914236709997058
1782988012933852000,5.880851806640625,0.7032885543644428,0.19765549247562883,-0.20571298059448598
1782988012943927000,5.890927001953125,0.5646767870098353,0.1002884664401412,-0.2721485695324838
1782988012954001000,5.9010009765625,0.4590706326782703,0.07398673496991395,-0.346097968166694
1782988012964076000,5.911075927734375,0.3785919053405523,0.05021598328202963,-0.3737621470965445
1782988012974150000,5.92114990234375,0.38254678044617174,0.004599895010888576,-0.3622458237607032
1782988012984225000,5.93122509765625,0.4643874437868595,-0.07230623453706503,-0.29606194456145163
1782988012994299000,5.941298828125,0.5346224250078201,-0.17489041069895028,-0.18103022862821816
1782988013004374000,5.9513740234375,0.5265595300614834,-0.2633297416523099,-0.0766772161629051
1782988013014447900,5.96144775390625,0.38359132106304167,-0.32917233313322064,-0.03561754908710718
1782988013024523000,5.97152294921875,0.16307693104743956,-0.35958442253172396,-0.10613624262027442
1782988013034596900,5.981596923828125,0.03665010700523853,-0.3551788810491562,-0.2355925705514848
1782988013044672000,5.991672119140625,-0.0047667760103940965,-0.31410978855788707,-0.3806163238402456
1782988013054745900,6.001745849609375,0.04422609521746635,-0.2070835382953286,-0.4086532085400075
1782988013064821000,6.011821044921875,0.08679448635578155,-0.09994096817672252,-0.2909533693760633
1782988013074894800,6.021894775390625,0.08937222788929938,-0.03555792785435915,-0.04644055639654398
1782988013084970000,6.031969970703125,0.16522387994825838,-0.010488368527591227,0.1704639725588262
1782988013095043800,6.0420439453125,0.3147305508047342,-0.011066460676491259,0.3373115812513977
1782988013105119000,6.052118896484375,0.4977022688895464,-0.034850071845948696,0.4827696343041956
1782988013115193900,6.06219384765625,0.6368091262847185,-0.12060878541320562,0.635127749069035
1782988013125268000,6.07226806640625,0.7198860534220933,-0.25865122844725846,0.7086845681890845
1782988013135342800,6.0823427734375,0.8013485311001539,-0.42087241944819687,0.6608532150212675
1782988013145417000,6.0924169921875,0.8236924648553132,-0.5197179936036467,0.5069957285441458
1782988013155491800,6.102491943359375,0.7952794403195381,-0.6453346703067422,0.30882592987082896
1782988013165566000,6.11256591796875,0.745241443952918,-0.7761307954743504,0.14714067237749695
1782988013175640800,6.122640869140625,0.6319307065933942,-0.9354434055522084,0.05141571446061134
1782988013185715000,6.13271484375,0.5244745404809713,-1.0591674003764986,0.03040660950578749
1782988013195790000,6.1427900390625,0.4197434154182672,-1.1474307902410625,0.07983443808481097
1782988013205864000,6.152864013671875,0.3260100697100162,-1.2171879248172044,0.1920250488406047
1782988013215939000,6.16293896484375,0.0986784008949995,-1.245172787068784,0.29902455722671
1782988013226012700,6.1730126953125,-0.1848871963173151,-1.189064530877769,0.3213456580955535
1782988013236087800,6.183087890625,-0.38614042102396484,-1.0296145581558347,0.3085135759860277
1782988013246161700,6.19316162109375,-0.5441127224087715,-0.9668146953716874,0.39698374046906826
1782988013256236800,6.20323681640625,-0.47110418482124805,-1.0991852302491665,0.6606150223512202
1782988013266310700,6.213310546875,-0.12642682404220104,-1.223094810773432,0.8854119850568473
1782988013276385800,6.2233857421875,0.12860475260317325,-1.2335741192117333,0.8998184038110076
1782988013286459600,6.233459716796875,0.13097849599719047,-1.1297522179484367,0.6653416855469345
1782988013296534800,6.24353466796875,-0.2026987473398447,-0.8788172629669309,0.2838021824471652
1782988013306608600,6.253608642578125,-0.8243342698901891,-0.5634677034810185,-0.17976068361643702
1782988013316683800,6.263683837890625,-1.4845266098499297,-0.24470775102972983,-0.5184921781357378
1782988013326757600,6.273757568359375,-2.101988646107912,0.11167670641690491,-0.6977137499067932
1782988013336832800,6.283832763671875,-2.588863816034794,0.44182577562779185,-0.737252271829918
1782988013346906600,6.29390673828125,-2.825004229727387,0.6685644469857216,-0.5422743280004709
1782988013356981800,6.303981689453125,-2.7654104695081707,0.7851715955421328,-0.08088659575255587
1782988013367055600,6.3140556640625,-2.5061346794217823,0.7691518963724374,0.3674814593918621
1782988013377130800,6.324130859375,-2.0629852539747953,0.726591396279633,0.554165914389491
1782988013387204600,6.33420458984375,-1.479223827266693,0.6860007349550724,0.5152778557317331
1782988013397279700,6.34427978515625,-1.029511390042305,0.5914347378149628,0.4298439536720514
1782988013407353600,6.354353515625,-0.7765443447113036,0.4848696753233671,0.45197037221901115
1782988013417428700,6.3644287109375,-0.6456646329134702,0.4637848017185926,0.4939374364633113
1782988013427502600,6.374502685546875,-0.5479571228772402,0.4854930679187178,0.4769617517430335
1782988013437577700,6.38457763671875,-0.4851800564467907,0.5007590261116623,0.3874251636048779
1782988013447652900,6.39465283203125,-0.40441958955824375,0.42919484211355446,0.3050852637714706
1782988013457726700,6.404726806640625,-0.3202560362279415,0.36101854698807,0.16183273967262357
1782988013467801900,6.4148017578125,-0.21787761177122592,0.3276309489101171,-0.06335210810573771
1782988013477875700,6.424875732421875,0.06960720471143722,0.3355009516328573,-0.23814322314867747
1782988013487950800,6.434950927734375,0.4621954867005348,0.4068713666245341,-0.19903660810310392
1782988013498024700,6.445024658203125,0.8695394392728805,0.4338499744430184,0.032306707506068046
1782988013508099800,6.455099853515625,1.227778292414546,0.4437804168269038,0.37526056896075605
1782988013518173700,6.465173583984375,1.5186270323723554,0.4723097612187266,0.6701672060072421
1782988013528248800,6.475248779296875,1.6555062768459319,0.573284164096415,0.8775500925753265
1782988013538322700,6.48532275390625,1.6825865914732216,0.6049567749500274,1.0034130721896886
1782988013548397800,6.495397705078125,1.6135113016813993,0.5969651916742325,1.111482474829629
1782988013558471700,6.5054716796875,1.5233394478470086,0.6123147364974022,1.1134488064665347
1782988013568546800,6.515546875,1.4354326163351534,0.6659349752649665,1.0143218580864368
1782988013578620700,6.52562060546875,1.369173553007841,0.7187430208668112,0.9402271326974033
1782988013588695800,6.53569580078125,1.336157418590784,0.7355258133634924,0.8723506973013281
1782988013598769700,6.545769775390625,1.3702987576454877,0.6846718244388699,0.85389777963534
1782988013608844800,6.5558447265625,1.4489374100744723,0.6331406669050454,0.8011772661864757
1782988013618918700,6.565918701171875,1.486226984027028,0.591214373062551,0.6910920667447149
1782988013628993800,6.575993896484375,1.482314194497466,0.5773533132314682,0.5870367585843429
1782988013639067600,6.586067626953125,1.4128870225280523,0.5700450360447168,0.46164132341649383
1782988013649142800,6.596142822265625,1.3820207596212624,0.5595256878569722,0.2994983487509191
1782988013659216600,6.606216552734375,1.331813836428523,0.4942515439137816,0.22746548779513687
1782988013669291800,6.616291748046875,1.2509551698625088,0.4067790121659636,0.24529647417049855
1782988013679365600,6.62636572265625,1.166025892856717,0.31479835534393785,0.25689258474428206
1782988013689440800,6.636440673828125,1.177698794993758,0.2182540438681841,0.2753387804085389
1782988013699514600,6.6465146484375,1.2820464736968278,0.06622808366715907,0.2912994428673759
1782988013709589800,6.65658984375,1.3997066384375094,-0.13391016553491353,0.22457272549569607
1782988013719663600,6.66666357421875,1.4378946225345133,-0.3846542741194367,0.13649313123282045
1782988013729738800,6.67673876953125,1.3076000171482562,-0.5729170843496918,-0.02572769444193691
1782988013739812600,6.6868125,1.1100561683535575,-0.70257572991997,-0.21061057991031557
1782988013749887700,6.6968876953125,0.8775280999392271,-0.7292302203506231,-0.34910299520157273
1782988013759961900,6.7069619140625,0.5488754067659378,-0.7632073087543249,-0.41487226571794594
1782988013770036700,6.71703662109375,0.23778058211505412,-0.7788833090528845,-0.40605763908885417
1782988013780112000,6.72711181640625,0.02388181084692478,-0.7952955146715045,-0.31958884102348234
1782988013790185700,6.737185791015625,-0.12072773561775683,-0.8514309511303901,-0.12654098847378045
1782988013800260900,6.7472607421875,-0.22712299450039863,-0.9195978939056396,0.06556041353866457
1782988013810334700,6.757334716796875,-0.24542905104160306,-0.946486777614057,0.21916158716715872
1782988013820409900,6.767409912109375,-0.2658358792543411,-0.9687047469019889,0.3101904231570661
1782988013830483700,6.777483642578125,-0.2860112367987633,-1.0110729392930864,0.3428522642437368
1782988013840558800,6.787558837890625,-0.3595762392252683,-1.0138502950519324,0.3078230364385992
1782988013850632700,6.7976328125,-0.4341968881845474,-0.9963654917657375,0.18626162647567687
1782988013860707800,6.807707763671875,-0.46698915071785446,-0.9564245265215635,0.0567837442997843
1782988013870781700,6.81778173828125,-0.49797757869958875,-0.9491282320335507,-0.12421871953867375
1782988013880856800,6.82785693359375,-0.4849631988257169,-0.9186284643515944,-0.29440095254667104
1782988013890930700,6.8379306640625,-0.48709027398228644,-0.8752224533453583,-0.3392410149440169
1782988013901005800,6.848005859375,-0.40686756723225115,-1.013181309749186,-0.08382131576389074
1782988013911079700,6.85807958984375,-0.18633973321318625,-1.166794539141655,0.5038160755947232
1782988013921154800,6.86815478515625,-0.10644202063381672,-1.1517246880427001,0.9645211045417934
1782988013931228700,6.878228759765625,-0.11443243486583232,-1.1198778896659611,1.1997457185637206
1782988013941303800,6.8883037109375,-0.26274960367679595,-1.0111883823662995,1.116789202935621
1782988013951377700,6.898377685546875,-0.5310182630360126,-0.8154299556836485,0.7806553602267057
1782988013961452800,6.908452880859375,-0.934966727951169,-0.6042819444283842,0.3971493793595582
1782988013971526700,6.918526611328125,-1.3756681757241487,-0.4095736113205552,0.10548450071327388
1782988013981601800,6.928601806640625,-1.745956947621703,-0.1907052349463105,-0.04315715081170201
1782988013991675600,6.938675537109375,-1.9049229362189768,0.04752396771907806,-0.029304566548019644
1782988014001750800,6.948750732421875,-1.7434382427990436,0.20927987929582595,0.08027377935014665
1782988014011825000,6.958824951171875,-1.3627853132754564,0.21292408101707697,0.3011511574592441
1782988014021899800,6.968899658203125,-0.9445832820802926,0.11805530153810977,0.46372861455194647
1782988014031974000,6.978973876953125,-0.6701110919058323,0.08342179505228996,0.5137538245022296
1782988014042048800,6.989048828125,-0.5418880320966244,0.14917758503258227,0.3634197629109025
1782988014052123000,6.999122802734375,-0.572045854473114,0.36023850252628326,0.11951076104342936
1782988014062197800,7.00919775390625,-0.7033066745430231,0.5772349475488067,-0.12331614467576145
1782988014072272000,7.01927197265625,-0.8555278650552034,0.7411220259353518,-0.2661013983227312
1782988014082346800,7.0293466796875,-0.9950158307224511,0.8874471441462636,-0.35224560407623645
1782988014092420900,7.0394208984375,-1.0340671536505222,1.0496557679265737,-0.4136552546110004
1782988014102495700,7.049495849609375,-0.8969622837275266,1.1789528867080807,-0.4398948075652122
1782988014112571000,7.05957080078125,-0.5687473974496126,1.194950666306913,-0.4138413517676294
1782988014122644700,7.069644775390625,-0.08253799795508385,1.1064382701173423,-0.2853993885107338
1782988014132718800,7.07971875,0.49507484299540516,0.995068437692523,-0.13411898598000407
1782988014142793700,7.089793701171875,1.1002344470411538,0.9276850465103983,-0.041835619884356856
1782988014152868900,7.099868896484375,1.5950842491090296,0.8724655558526515,0.04859013564586639
1782988014162942700,7.109942626953125,1.8410452150702474,0.8056558729052543,0.22434257000163196
1782988014173017900,7.120017822265625,1.7970009061604737,0.7535846171453595,0.4126453469160944
1782988014183091700,7.130091796875,1.5892103886395692,0.7930778386220335,0.46813810155726965
1782988014193166800,7.140166748046875,1.4251134668946266,0.8768746044665574,0.41609490284807976
1782988014203240700,7.15024072265625,1.3501257381886242,0.838435860478878,0.3382722429770976
1782988014213315800,7.16031591796875,1.330336749613285,0.6836752146169542,0.2716645854078233
1782988014223390500,7.170390380859375,1.2671236298531292,0.495675731498003,0.2495432083621621
1782988014233465600,7.180465576171875,1.1596931827038526,0.36510669308453797,0.1952432437021285
1782988014243539500,7.19053955078125,1.0398311240047216,0.27561522272974254,0.08023885416723787
1782988014253614600,7.200614501953125,0.9476099364250897,0.20564970609992742,-0.0635521424561739
1782988014263688400,7.2106884765625,0.8208435051649808,0.10595365259498357,-0.08864077180959284
1782988014273763600,7.220763671875,0.7377250769734383,0.0047290743485093115,-0.07869030955098569
1782988014283837400,7.23083740234375,0.588469166007638,-0.11336860502660275,-0.02766520184315741
1782988014293912600,7.24091259765625,0.42453474134802816,-0.21076807202696798,0.04643544183000922
1782988014303986400,7.250986328125,0.2832961326211691,-0.3062757339313626,0.11184563324302434
1782988014314061600,7.2610615234375,0.15142156456708908,-0.4494558321148157,0.1312690764416009
1782988014324135400,7.271135498046875,-0.13459142579734323,-0.6039741936534643,0.034664266950264574
1782988014334210600,7.28121044921875,-0.39777766732573505,-0.6687251905053854,-0.15047317780107258
1782988014344284400,7.291284423828125,-0.5927589721560478,-0.5779419267743826,-0.3356847107019275
1782988014354359600,7.301359619140625,-0.7978110046237706,-0.4567632325187325,-0.44447811676748095
1782988014364433400,7.311433349609375,-1.0209966596752404,-0.33522096564769743,-0.48826384780630466
1782988014374508500,7.321508544921875,-1.193863163331151,-0.20464637427628038,-0.4335899352673441
1782988014384582400,7.33158251953125,-1.25608142683506,-0.10294687199443578,-0.3662158964354545
1782988014394657500,7.341657470703125,-1.2467501193881034,-0.0823527045160532,-0.34431919499114155
1782988014404731400,7.3517314453125,-1.2726269034445286,-0.05861906996816396,-0.2491124887946993
1782988014414806500,7.361806640625,-1.3122083877265454,-0.08843231669068335,-0.20813355880491435
1782988014424880400,7.37188037109375,-1.2982494204789399,-0.11612024182230234,-0.1637029539912939
1782988014434955500,7.38195556640625,-1.0784878946572543,-0.17913579318374395,-0.11092515739724039
1782988014445030400,7.392030517578125,-0.6908101810634136,-0.2897656208962202,0.04569448726959526
1782988014455104500,7.4021044921875,-0.3025087826132774,-0.4965086751908064,0.07607333198562263
1782988014465179400,7.412179443359375,0.05762801310420036,-0.7815516514793038,-0.07116751283071934
1782988014475253500,7.42225341796875,0.12610767509043216,-0.9602750644698739,-0.4691629145603627
1782988014485328600,7.43232861328125,-0.2869038017243147,-0.8251651677563786,-0.9472739094037562
1782988014495402500,7.442402587890625,-0.9310743966877459,-0.4080398258820176,-1.3708958467558026
1782988014505477600,7.4524775390625,-1.5871429347157477,0.19495763169378041,-1.8969589716024695
1782988014515551500,7.462551513671875,-2.1256635362058875,0.887662832723558,-2.392502162761986
1782988014525626600,7.472626708984375,-2.515014735969901,1.4820871077433229,-2.5408827521979807
1782988014535700500,7.482700439453125,-2.707788886144757,1.7680849005386232,-2.2981287655845284
1782988014545775600,7.492775634765625,-2.551907419559359,1.675454255375266,-1.7022195127040147
1782988014555849500,7.502849365234375,-2.0548983936309813,1.3923939773365854,-1.044964687500894
1782988014565924600,7.512924560546875,-1.356112995904684,1.168055352857709,-0.6963043945655226
1782988014575998500,7.52299853515625,-0.6266542274951934,0.9782444364026188,-0.4632338167723268
1782988014586073600,7.533073486328125,-0.08874854303300381,0.7736196894362568,-0.35240773583538826
1782988014596147500,7.5431474609375,0.3092150022536516,0.5999558979228139,-0.3533184940047562
1782988014606222600,7.55322265625,0.6121954940319061,0.4911906950384378,-0.5725332726638764
1782988014616296400,7.56329638671875,0.8412953415632247,0.44555356397926804,-0.8619204887017607
1782988014626371600,7.57337158203125,1.026295935127139,0.37458208517730235,-1.1039824013978243
1782988014636445400,7.583445556640625,1.1649264071822165,0.21735008076578377,-1.2900789735049008
1782988014646520600,7.5935205078125,1.1953162847489118,0.049993864963948725,-1.4306541498869656
1782988014656594400,7.603594482421875,1.172391336235404,-0.009567746551334858,-1.5487956684038042
1782988014666669600,7.613669677734375,1.145214575496316,0.010500058965384959,-1.5575225802168249
1782988014676743400,7.623743408203125,1.1214917546033858,0.03472293833494186,-1.4334370586037635
1782988014686818600,7.633818603515625,1.1044283915996551,0.041836569732427595,-1.1704828722655773
1782988014696892400,7.643892333984375,1.1520312697738408,0.05726385596692562,-0.8667959857836365
1782988014706967600,7.653967529296875,1.2502712792515753,0.11866057395488024,-0.5899112545747309
1782988014717041400,7.66404150390625,1.3105407467752694,0.21343173827826975,-0.35061792980916795
1782988014727116500,7.674116455078125,1.316183136576414,0.29070640887767074,-0.15346432244107125
1782988014737190400,7.6841904296875,1.2823615309953689,0.3339043300911784,-0.04807977497093379
1782988014747265500,7.694265625,1.1255074199855326,0.35664106255620714,0.0480170849982649
1782988014757339400,7.70433935546875,0.9295657456904649,0.3592985913276672,0.07713065901882946
1782988014767414500,7.71441455078125,0.7677858687162399,0.34885406194180246,0.08877338521331549
1782988014777489700,7.72448974609375,0.6675976477801799,0.29911592530459163,0.05381817249245941
1782988014787563500,7.7345634765625,0.6491910534739493,0.18325871833264826,-0.017380466128885746
1782988014797638700,7.744638671875,0.6107429571360349,0.004271101447939872,-0.17060491539947686
1782988014807712500,7.75471240234375,0.5865285533338784,-0.18585311874002217,-0.35082236634008584
1782988014817787600,7.76478759765625,0.6031283904790878,-0.33995822330266234,-0.5109027459200471
1782988014827861500,7.774861572265625,0.7137509116679429,-0.459281937341392,-0.600618599615246
1782988014837936600,7.7849365234375,0.870875656312704,-0.5581532304599881,-0.6344225964743644
1782988014848010500,7.795010498046875,0.9390098658621311,-0.636179596209526,-0.6013471330855041
1782988014858085600,7.805085693359375,0.9937082552552222,-0.6956517758756876,-0.4964400669340044
1782988014868159500,7.815159423828125,0.9552601589173078,-0.720295218744874,-0.4842048547390848
1782988014878234600,7.825234619140625,0.8585556884437799,-0.738480863776803,-0.48011714703403413
1782988014888308500,7.83530859375,0.7050105558514594,-0.7413628489539027,-0.4652347813311964
1782988014898383600,7.845383544921875,0.48508068772554397,-0.7407406254023313,-0.3741646634828299
1782988014908457500,7.85545751953125,0.21529753215014932,-0.7367775669902563,-0.25922793235667047
1782988014918532600,7.86553271484375,-0.018055881172418593,-0.7522939928129315,-0.12755721631161868
1782988014928606500,7.8756064453125,-0.1868956135302782,-0.7176742225915194,-0.03425407871417701
1782988014938681600,7.885681640625,-0.2665717923134565,-0.7412903682395815,0.013755626695230602
1782988014948755500,7.89575537109375,-0.32104747886657714,-0.7955068193346262,0.053574207668751476
1782988014958830600,7.90583056640625,-0.38558337166309353,-0.83315412068367,0.11521591339372098
1782988014968904400,7.915904541015625,-0.4321522306144237,-0.8645841549530625,0.12569390665777028
1782988014978979600,7.9259794921875,-0.404544092720747,-0.8683022986933588,0.06262516380436718
1782988014989053400,7.936053466796875,-0.36292087347805496,-0.878837428972125,-0.01733925733566284
1782988014999128600,7.946128662109375,-0.26666063964068887,-0.9775137840405106,0.20891199583150447
1782988015009202400,7.956202392578125,-0.0985474679917097,-1.130312774440646,0.6129146751519292
1782988015019277600,7.966277587890625,0.03342588426172733,-1.1686691008418797,0.8027305600430816
1782988015029351400,7.976351318359375,0.06035071606636047,-1.1955442482858896,0.7364318953577429
1782988015039426600,7.986426513671875,-0.23331892653107641,-1.1165019834920764,0.37803186030499636
1782988015049500400,7.99650048828125,-1.0364315446943044,-0.862669553503394,-0.01670110556259751
1782988015059575600,8.006575439453124,-1.969813633802533,-0.6414172046020626,-0.2750699368719011
1782988015069649400,8.0166494140625,-2.643401461908221,-0.370272697545588,-0.4282918288592249
1782988015079724500,8.026724609375,-2.8051445140033957,0.04917261170893907,-0.5696479995511472
1782988015089799700,8.036799560546875,-2.598613641154766,0.4496814575642347,-0.5392386866316199
1782988015099873500,8.04687353515625,-2.181266180962324,0.6768120508491993,-0.339963995456323
1782988015109948700,8.05694873046875,-1.7266531122148037,0.7285325934752821,-0.07205518238544463
1782988015120022500,8.0670224609375,-1.2445990788340568,0.7210711715534329,0.10564794764667748
1782988015130097700,8.07709765625,-0.6588648907482624,0.7461676188871263,0.194777964277938
1782988015140171500,8.087171630859375,0.06333528483510018,0.7746940406695008,0.2815404480602592
1782988015150246700,8.09724658203125,0.7911451169937849,0.7400204944342375,0.42742819776721297
1782988015160320500,8.107320556640625,1.4167717550069092,0.6525163985043764,0.6864465059611946
1782988015170395600,8.117395751953126,1.8093489310801028,0.52463557626158,0.9173030609667301
1782988015180469500,8.127469482421875,1.9796704264283178,0.38595366628021,0.9813325386110693
1782988015190544600,8.137544677734375,1.8999995083421468,0.2914744706407189,0.8598527425169944
1782988015200618500,8.147618408203124,1.5708260061651467,0.29337475130409,0.5575399208672345
1782988015210693600,8.157693603515625,1.0232610974758862,0.3975733769252896,0.15347097137756643
1782988015220767500,8.167767578125,0.29155834953188897,0.5224132240369915,-0.2502682347010821
1782988015230842000,8.177842041015625,-0.4571405413985252,0.6486071161061525,-0.49449828521646555
1782988015240916200,8.187916259765625,-1.0108598810642957,0.7798375410377979,-0.6464682774465531
1782988015250991000,8.1979912109375,-1.3604039710968732,0.8911702563226223,-0.6392119496427476
1782988015261065200,8.208065185546875,-1.4429583356648683,0.9250760330557822,-0.4477112534698099
1782988015271140000,8.21814013671875,-1.203389701089263,0.9771031574130058,-0.15887385333441198
1782988015281214200,8.228214111328125,-0.7342185301572084,1.0525149567499756,0.09553491523750125
1782988015291289000,8.2382890625,-0.1398041920095682,1.1108221842899917,0.22830628600083291
1782988015301363200,8.24836328125,0.48688978297412394,1.035221584382653,0.29995712536908686
1782988015311438000,8.25843798828125,1.1262667139202356,0.8346361759349703,0.32797932395637036
1782988015321512200,8.26851220703125,1.7032500247955322,0.6149751878783106,0.30606895931288597
1782988015331587000,8.278587158203125,2.1898089683800936,0.4125087879896164,0.3222045399472117
1782988015341661200,8.2886611328125,2.5575878032833335,0.24976503441929815,0.3528060875032097
1782988015351736000,8.298736083984375,2.7506553834468126,0.0973991747394204,0.3711996761973947
1782988015361810200,8.30881005859375,2.7476690611124037,-0.0126572369992733,0.3582682253666222
1782988015371885300,8.31888525390625,2.5711358516424894,-0.12572948942780493,0.29999117376916107
1782988015381959200,8.328959228515625,2.2267770552933213,-0.12354542338699101,0.27554464171156284
1782988015392034300,8.339034423828124,1.8247393924355506,-0.08179214802384376,0.3232278916455805
1782988015402108200,8.349108154296875,1.3786878158062696,-0.07762158434092999,0.41479748344868417
1782988015412183300,8.359183349609374,1.0063526327729224,-0.1456315829887986,0.5744537923976779
1782988015422258200,8.369258056640625,0.723083388158679,-0.23043460326641796,0.7237786769464611
1782988015432332300,8.379332275390626,0.5568015235900878,-0.30292817706912756,0.8516800305206328
1782988015442407200,8.3894072265625,0.4466232390373945,-0.3631134734407067,0.9868812587793916
1782988015452481300,8.399481201171875,0.43664720394611356,-0.42131577930152414,1.0632782697614283
1782988015462556200,8.40955615234375,0.49433542280495163,-0.4615595268845558,1.129083451841399
1782988015472630300,8.41963037109375,0.5485241091102362,-0.5197022115126252,1.1777665995329618
1782988015482705200,8.429705078125,0.5549976890385151,-0.6297144918486476,1.2253314837843179
1782988015492779300,8.439779296875,0.5053986686110497,-0.7327978497043252,1.289534929756075
1782988015502854100,8.449854248046876,0.3332277460038662,-0.8067781549334525,1.3559481607317925
1782988015512928300,8.45992822265625,0.10352642544806002,-0.8532572897747158,1.3848307024754583
1782988015523003100,8.470003173828125,-0.2013473327308893,-0.8693816183626651,1.3503085474096237
1782988015533077200,8.4800771484375,-0.5701940891265869,-0.8485317225575446,1.2579570114485918
1782988015543152000,8.490152099609375,-0.9793465524256229,-0.8478273736804723,1.1024462778717279
1782988015553226200,8.500226318359376,-1.3113853809058666,-0.8125108533665537,0.9475001924403011
1782988015563301000,8.510301025390625,-1.5028975483208893,-0.7491516031339764,0.7922457717120647
1782988015573375200,8.520375244140626,-1.551190746846795,-0.7193669979840517,0.7463790696807205
1782988015583450000,8.5304501953125,-1.488265211856365,-0.6826864958405494,0.6707458826780319
1782988015593524200,8.540524169921875,-1.4093378056138752,-0.6979331648111343,0.6058853245044127
1782988015603599000,8.55059912109375,-1.3339900114238261,-0.688342037384212,0.5580072461180389
1782988015613673200,8.560673095703125,-1.3261001349568367,-0.7055684819951653,0.5487722751850262
1782988015623748400,8.570748291015626,-1.1695330241948365,-0.9271469941109418,0.7751804359469562
1782988015633822200,8.580822265625,-0.8553478323131799,-1.1293725709810853,1.1113437239460646
1782988015643897300,8.5908974609375,-0.6347977864623069,-1.1904428334936499,1.3032453290700912
1782988015653971200,8.60097119140625,-0.7838947074741125,-1.0628677161991595,1.214490064035356
1782988015664046300,8.61104638671875,-1.3945324506700039,-0.6934995662778616,0.8064522109147161
1782988015674120200,8.6211201171875,-2.1549439912259576,-0.16186901656240224,0.1996062612172216
1782988015684195300,8.6311953125,-2.775078461563587,0.4367708303257823,-0.28560820895582434
1782988015694269200,8.641269287109376,-3.1804093207478523,1.1144576181828976,-0.6656645608257502
1782988015704344300,8.65134423828125,-3.1396243058949707,1.6926806999862194,-0.6680408615030348
1782988015714418200,8.661418212890625,-2.544509710523486,1.9503624988794326,-0.26078287018109114
1782988015724493300,8.671493408203125,-1.5950450861424206,1.9022355968311428,0.3029068785527721
1782988015734567200,8.681567138671875,-0.5800251627892256,1.7501622903570533,0.745280606919527
1782988015744642300,8.691642333984374,0.1462093828767538,1.604546781720221,1.02781634962745
1782988015754717200,8.70171728515625,0.4880903909355402,1.3899112206101416,1.1916443182379006
1782988015764791300,8.711791259765626,0.43797289959192276,1.2034493223220109,1.0064018056768924
1782988015774866200,8.7218662109375,0.10810615445375442,1.117313884396851,0.5723056744530797
1782988015784940300,8.731940185546875,-0.25213059450685976,1.1628978239640593,0.15043171327952296
1782988015795015200,8.74201513671875,-0.4787316109597683,1.2576605127200484,-0.0579003637721762
1782988015805089300,8.75208935546875,-0.4949567695736885,1.3488979499593376,0.028226196726784107
1782988015815164200,8.7621640625,-0.2531798112988472,1.3864350689321756,0.3587617810372263
1782988015825238300,8.77223828125,0.06680734485983848,1.35390116507411,0.7427727157518267
1782988015835313200,8.782313232421876,0.3982680811911821,1.2822320593968033,1.020386199626699
1782988015845387300,8.79238720703125,0.7804232319712638,1.1524109167411922,1.131963829583302
1782988015855462100,8.802462158203125,1.2436129904061555,0.9228145178645849,1.206606617309153
1782988015865536300,8.812536376953124,1.687269196331501,0.5903884436324238,1.2694373136229813
1782988015875611400,8.822611328125,2.0089660790175197,0.2188753906369209,1.3212709612347184
1782988015885685200,8.832685302734374,2.1954653867065903,-0.06414513991326093,1.2158401634700595
1782988015895760400,8.842760498046875,2.1880331908792257,-0.23246435552835462,0.9859072991807013
1782988015905834200,8.852834228515626,2.0216355909764765,-0.21810762113481758,0.8075099763393402
1782988015915909400,8.862909423828125,1.6957015091121195,-0.09538578909039497,0.7430884306374936
1782988015925983200,8.872983154296875,1.3109867369771002,0.05199643695801496,0.7490439049758016
1782988015936058400,8.883058349609374,0.7757686841636896,0.1902919779703021,0.8447905632678419
1782988015946132200,8.89313232421875,0.24702128866910933,0.32245676114261146,0.9948356518499553
1782988015956207400,8.903207275390624,-0.07092062539756297,0.43544338111430403,1.149306301789358
1782988015966281200,8.91328125,-0.24586627341508863,0.5098565248027443,1.2448255810663102
1782988015976356400,8.9233564453125,-0.28569267236888407,0.5936196806386113,1.3703043106034398
1782988015986430200,8.93343017578125,-0.17007190450131893,0.6509270834863186,1.4085109994009137
1782988015996505300,8.94350537109375,0.029950901627540587,0.6526461623638868,1.415817523021996
1782988016006579200,8.9535791015625,0.247118903824687,0.6294800985708833,1.4257969191141426
1782988016016654300,8.963654296875,0.338603009301424,0.6198676360949874,1.3787791473515332
1782988016026728200,8.973728271484376,0.35972938396036624,0.6607552345395088,1.3719555849418044
1782988016036803300,8.98380322265625,0.32334172728359695,0.7131453469902277,1.3407489841647446
1782988016046877200,8.993877197265626,0.271212896117568,0.7821601387664675,1.31364485027045
1782988016056952300,9.003952392578125,0.23262860617935657,0.8427937634274363,1.3416681448362766
1782988016067027200,9.014027099609375,0.17800035941302775,0.869463743688166,1.4429785016700625
1782988016077101300,9.024101318359374,0.12111001293361186,0.8969929711267352,1.4881972611866892
1782988016087176200,9.03417626953125,0.10803834991455077,0.9105658616662025,1.5718641170412302
1782988016097250300,9.044250244140626,0.06353051514625549,0.9070943861633539,1.660998444521427
1782988016107325200,9.0543251953125,-0.0007470189750194549,0.9446499175757169,1.7082924028769135
1782988016117399300,9.0643994140625,-0.022865911802649498,1.0455126767724752,1.654622479748726
1782988016127474200,9.07447412109375,0.006636661535501479,1.1893605912148952,1.5881173327058553
1782988016137548300,9.08454833984375,0.05352116230726242,1.2918547510057687,1.505608999236673
1782988016147623400,9.09462353515625,0.1652367394298315,1.3984014010578394,1.4577224818155168
1782988016157697300,9.104697265625,0.3742728730976581,1.4182090943336485,1.4689857802383601
1782988016167772400,9.1147724609375,0.61013680793643,1.094135545644164,1.824180881769955
1782988016177846300,9.12484619140625,1.1257681167483329,0.3701081546336412,2.5629277030065656
1782988016187921400,9.13492138671875,1.8270611133813857,-0.16699556579589842,3.1003862282231447
1782988016197995300,9.144995361328125,2.2417747179389,-0.37983693696558474,3.0590318890497086
1782988016208070400,9.1550703125,2.0010908155977725,-0.06180792913734912,2.343601938253641
1782988016218144300,9.165144287109374,0.8218553125560283,0.6334095469743013,1.0277516138281673
1782988016228220000,9.175219970703125,-1.1738491338282824,1.2964946857661008,-0.2907289495030418
1782988016238293800,9.185293701171876,-3.4466344915807245,1.8977818322926758,-1.0936136406619101
1782988016248369000,9.195368896484375,-4.839226329576969,2.2515353567138314,-0.9352425492178649
1782988016258442800,9.20544287109375,-4.60608042152524,2.1744711139947173,0.09094671979756094
1782988016268518000,9.215517822265625,-2.9942700785428285,1.8154577693492173,1.2940626363135874
1782988016278591700,9.225591796875,-1.1313789423674345,1.1710881446823478,2.5357135328665374
1782988016288667000,9.2356669921875,0.4563923533797264,0.42947891975194213,3.714062900723517
1782988016298740700,9.24574072265625,1.398998782429099,-0.15970862365812064,4.315193687644601
1782988016308815000,9.255815185546876,1.6191946080148218,-0.3696428752094507,4.023174442602694
1782988016318890000,9.265889892578125,1.0434165812760592,-0.05513882663697004,2.9398721334010363
1782988016328964000,9.275964111328125,-0.054122050809860225,0.5589487647518515,1.7650206906624137
1782988016339039000,9.2860390625,-1.3649030360817909,1.1776099476665258,0.8918547314554452
1782988016349113000,9.296113037109375,-2.6746213605582714,1.6987372235462068,0.25482282926551997
1782988016359188000,9.30618798828125,-3.579494563540816,2.0176444755136966,0.03458735208942089
1782988016369262000,9.316261962890625,-3.6571395287573334,2.0378741935938596,0.2464167834373191
1782988016379337000,9.3263369140625,-2.984197597339749,1.8249395911827682,0.7132701424136757
1782988016389411000,9.3364111328125,-1.84656134814322,1.5257710589081048,1.1612377817973494
1782988016399486000,9.34648583984375,-0.7745037787944078,1.1962757774308324,1.491070332404971
1782988016409560000,9.35656005859375,0.02301262679696083,0.8570043673485517,1.768231031011045
1782988016419635000,9.366635009765625,0.5284709166407585,0.6379068583935499,1.8840163417905569
1782988016429709000,9.376708984375,0.8078747179985046,0.46199879508465524,1.8369975471146405
1782988016439784000,9.386783935546875,0.9495739299744367,0.33270430665165185,1.7269028491921723
1782988016449858000,9.396858154296876,0.9995710098087787,0.30656214965730905,1.5887692207433282
1782988016459933000,9.406932861328125,0.9986959805399179,0.39134675749540326,1.5633451488904655
1782988016470007000,9.417007080078125,0.9492039276182651,0.541773173545301,1.6537874902293086
1782988016480082000,9.42708203125,0.8568763570547103,0.6064966978684068,1.799425210697949
1782988016490156800,9.43715673828125,0.67988780503273,0.5637357067674398,1.902734778524935
1782988016500231000,9.44723095703125,0.4731926815330982,0.4278381668075919,1.9708844779044388
1782988016510305800,9.457305908203125,0.2904857518643141,0.2898135516911745,1.9446476283639669
1782988016520380000,9.4673798828125,0.11248071627616882,0.1349143741413951,1.8342548242777585
1782988016530454800,9.477454833984375,0.049903556331992144,-0.004185176730155945,1.6425845436915754
1782988016540529000,9.48752880859375,0.0677566084086895,-0.10973580148220062,1.5136635647460817
1782988016550603800,9.497603759765624,0.18848785115778446,-0.2525865215808153,1.4874157554201781
1782988016560678000,9.507677978515625,0.3187666744530201,-0.37515111723691225,1.5013088178247211
1782988016570753000,9.5177529296875,0.42428748858869075,-0.5363610853686929,1.5657729605592787
1782988016580827000,9.527826904296875,0.5342056609004736,-0.7271116207614541,1.6002596059203147
1782988016590902000,9.537902099609376,0.6567611964672804,-0.938480289030075,1.5649083065539597
1782988016600976000,9.547975830078125,0.6886082871049642,-1.089333406059444,1.4726634458377956
1782988016611051000,9.558051025390625,0.6273077229678631,-1.2240008197024463,1.404469761186093
1782988016621124900,9.568124755859374,0.5567231976568698,-1.372756379930675,1.381480953656137
1782988016631200000,9.578199951171875,0.42448447246551513,-1.4841124760910869,1.410384392057359
1782988016641273900,9.58827392578125,0.23872516948878764,-1.5662445235937832,1.5079424106203019
1782988016651349000,9.598348876953125,0.10890753396451473,-1.535019364246726,1.5757428581707178
1782988016661422800,9.6084228515625,-0.05583411542475223,-1.428947345969081,1.6385691705703735
1782988016671498000,9.618498046875,-0.22689210835397242,-1.292275606766343,1.5670213531851767
1782988016681571800,9.62857177734375,-0.3659568801730871,-1.1501169605851174,1.4269184704899787
1782988016691647000,9.63864697265625,-0.4539291781365871,-1.0170756868392228,1.2541413986831902
1782988016701720800,9.648720947265625,-0.4170686432510614,-0.8971174742892384,1.097963725630194
1782988016711796000,9.6587958984375,-0.39399113452434537,-0.8612441968753933,1.028983566775918
1782988016721869800,9.668869873046875,-0.23585925866365431,-1.0020075893059373,1.0609384286370127
1782988016731945000,9.678945068359376,-0.008177461236715316,-1.1664993555873633,1.0992719586845487
1782988016742018800,9.689018798828124,0.10535130278766154,-1.2763947315454482,1.0538851491246373
1782988016752094000,9.699093994140625,-0.09195289203226566,-1.2194503167912363,0.8601924958653747
1782988016762167800,9.709167724609374,-0.5544166742801666,-1.0057105354771017,0.5280110805766657
1782988016772243000,9.719242919921875,-1.2977999231457709,-0.7877779786482453,0.18587942222505807
1782988016782316800,9.72931689453125,-2.0736434261113406,-0.38001930779516696,-0.22051221632482482
1782988016792392000,9.739391845703125,-2.722837986716628,0.24294863240271805,-0.44545960208550095
1782988016802465800,9.7494658203125,-3.1660821047097443,0.8279992221385241,-0.43022228546515107
1782988016812541000,9.759541015625,-3.2760224888533354,1.1886229245901108,-0.12499951291913165
1782988016822614800,9.76961474609375,-2.7971424093335866,1.268553078134358,0.4028140540577471
1782988016832690000,9.77968994140625,-1.9843723205089567,1.2052400051310659,0.8399947803586721
1782988016842765000,9.78976513671875,-1.2028373279035092,1.0553931425347924,1.1934672958813608
1782988016852839000,9.7998388671875,-0.6801046626538038,0.7630053564414382,1.4702461555629969
1782988016862914000,9.8099140625,-0.4693541262835264,0.6081032562822103,1.4522085406996308
1782988016872988000,9.81998779296875,-0.5522720634669065,0.6589543225973844,0.9729823511559516
1782988016883063000,9.83006298828125,-0.832674812734127,0.8151137293413281,0.3508253620147705
1782988016893137000,9.840136962890625,-1.1179507209956645,0.9040273998081684,-0.17070329774003476
1782988016903212000,9.8502119140625,-1.3294541215598583,0.9220224907040595,-0.4910994365584105
1782988016913286000,9.860285888671875,-1.4909300471514462,0.9998702850162983,-0.7452176246859132
1782988016923361000,9.870361083984376,-1.5160229873538016,1.1062070917099713,-0.840170429186523
1782988016933435000,9.880434814453125,-1.3290373574525116,1.214491817601025,-0.7902379390209913
1782988016943510000,9.890510009765626,-0.9522323355287313,1.2409051927521824,-0.5704144173463807
1782988016953583900,9.900583984375,-0.47986149177253246,1.165063769826293,-0.31999599705226717
1782988016963659000,9.910658935546875,-0.031954058143496514,1.1162401176854968,-0.13284918523989617
1782988016973732900,9.92073291015625,0.38945232205092906,1.0782932488679886,0.007920125474780798
1782988016983808000,9.93080810546875,0.8196317912876605,1.064946276038885,0.07997932644821704
1782988016993881900,9.9408818359375,1.2330202847212552,1.071199783475697,0.15963270887769757
1782988017003957000,9.95095703125,1.6179799715280532,1.01816289755404,0.2613394446179271
1782988017014030800,9.96103076171875,1.892354546546936,0.9451280564814806,0.45122715263627466
1782988017024106000,9.97110595703125,2.0204379056245085,0.8756307418853044,0.5660182647466659
1782988017034179800,9.981179931640625,2.0353554887712,0.8497372989550233,0.6104634095422923
1782988017044255000,9.9912548828125,1.8878063817232846,0.8472802611917257,0.6046481473922729
1782988017054328800,10.001328857421875,1.671093722078204,0.8603007785454392,0.535219879444316
1782988017064404000,10.011404052734376,1.4952122545152902,0.8393482991486787,0.47027883991301056
1782988017074477800,10.021477783203125,1.3420090672284364,0.7680623475700616,0.36447584783509374
1782988017084553000,10.031552978515625,1.2545698532283305,0.6417538892105221,0.23373824792169032
1782988017094626800,10.041626708984374,1.1586194159924983,0.5691954334780573,0.12545593318343162
1782988017104702000,10.051701904296875,1.0725187571197747,0.4992822315573692,0.023504209706187246
1782988017114775800,10.06177587890625,0.933316038134694,0.42819414063841105,-0.04567505191676318
1782988017124851000,10.071850830078125,0.7460644507735967,0.39606326462328434,0.00016381225958466528
1782988017134924800,10.0819248046875,0.5975502980858087,0.4431584855362773,0.032528643161058426
1782988017145000000,10.092,0.49399055489003657,0.4614291785031557,0.10514087490737438
1782988017155073800,10.10207373046875,0.4427268161207437,0.4171145282194018,0.20014314457289872
1782988017165149000,10.11214892578125,0.48641807380914687,0.36685236770808693,0.2880086942262947
1782988017175222800,10.122222900390625,0.5374719692200421,0.2583057760104537,0.3300692089077085
1782988017185298000,10.1322978515625,0.6760393129110336,0.10315145465582609,0.2739741044592112
1782988017195373000,10.142373046875,0.8453004855513572,-0.08128302945792674,0.19946955616027115
1782988017205447000,10.152447021484376,1.030149103423953,-0.26729513815194367,0.14620755624584852
1782988017215522000,10.16252197265625,1.1107067412167786,-0.4434627291798591,0.23918964519537983
1782988017225596000,10.172595947265625,1.0281383481234312,-0.5805877651080489,0.3404043596349656
1782988017235670000,10.182669921875,0.892843742492795,-0.648399026313424,0.3519163721218705
1782988017245743900,10.192743896484375,0.758513013458252,-0.6698451344460249,0.33752778128534555
1782988017255819000,10.202819091796876,0.6190858380675316,-0.6594850684732199,0.3362828227255493
1782988017265892900,10.212892822265625,0.416938879391551,-0.6019321664318442,0.417383189092949
1782988017275968000,10.222968017578125,0.12345394571125506,-0.5329734887570142,0.5098712109152227
1782988017286041900,10.233041748046874,-0.351104178956151,-0.4710682367250323,0.4633214950557798
1782988017296117000,10.243116943359375,-0.7434650819301605,-0.4257148910433054,0.3687774174865335
1782988017306190800,10.25319091796875,-0.8747025211244821,-0.4599804409995675,0.21951737833488733
1782988017316266000,10.263265869140625,-0.7547223890036344,-0.5288906033575534,0.09906915377825498
1782988017326339800,10.27333984375,-0.6192594410687685,-0.6734770612075924,0.055733321931399404
1782988017336415000,10.2834150390625,-0.48206513929665085,-0.8240101525023579,0.0737629361514002
1782988017346488800,10.29348876953125,-0.3986895214736461,-0.8695373934462666,0.3043377150734886
1782988017356564000,10.30356396484375,-0.49637832680940625,-0.8498293611526488,0.5866730763711034
1782988017366637800,10.313637939453125,-0.675894936004281,-0.8248927805557846,0.8742992740858345
1782988017376713000,10.323712890625,-0.7997358352065086,-0.7456471021443605,1.0874084293462336
1782988017386787000,10.333787109375,-0.756862323641777,-0.5632926391750573,1.2389179644577204
1782988017396862000,10.343862060546876,-0.644337183701992,-0.31747312751114365,1.367706841456145
1782988017406936000,10.35393603515625,-0.617639730912447,-0.23832068034112452,1.6315505239799617
1782988017417011000,10.364010986328125,-0.6309171456366777,-0.2901937831804156,2.066118875825405
1782988017427085000,10.3740849609375,-0.7508622064441443,-0.2711637962788343,2.3750898401901126
1782988017437160000,10.384159912109375,-0.859654005074501,-0.19173779286444187,2.302095915649831
1782988017447234000,10.394234130859376,-0.9956173037469387,-0.07952128048241137,1.7929262040674685
1782988017457309000,10.404308837890625,-1.32053607108891,-0.08175824575424194,1.2089097066197543
1782988017467383000,10.414383056640625,-1.6229121672332285,-0.21553367899358272,0.9619879328023642
1782988017477458000,10.4244580078125,-1.764638851737976,-0.28082331276684996,0.8507038789648562
1782988017487532000,10.434531982421875,-1.8700088592261075,-0.17420915043652058,0.6916520387150347
1782988017497607000,10.44460693359375,-2.0111749872386455,0.09832973358780145,0.5977445054836571
1782988017507681000,10.454680908203125,-2.015310479608178,0.37935236831903457,0.6402699342630803
1782988017517756000,10.464755859375,-1.8117390410870313,0.5938181258201599,0.7939505298033356
1782988017527830000,10.474830078125,-1.3292261580228806,0.727876467654109,1.011687564060092
1782988017537905000,10.48490478515625,-0.7326689626276492,0.8083411664664745,1.2225304548889397
1782988017547980000,10.49497998046875,-0.24352760133445261,0.9217755302056669,1.311992699149251
1782988017558054000,10.505053955078125,-0.05717968481481075,1.0265884883329273,1.3626460509352385
1782988017568129000,10.51512890625,-0.0027788170635700223,1.1854124381110072,1.2549895399451254
1782988017578203000,10.525202880859375,0.016821955463290215,1.3529580390051006,0.9975175844103097
1782988017588278000,10.535278076171876,0.0096247374355793,1.4857161118954418,0.749198218754679
1782988017598352000,10.545351806640625,-0.0003647416591644287,1.5842133110046386,0.513802485949546
1782988017608427000,10.555427001953126,0.0024450550645589825,1.6012702442675828,0.29856428277119995
1782988017618500900,10.5655009765625,-0.030380525216460227,1.5986363886326551,0.17064385917037725
1782988017628576000,10.575575927734375,-0.16275076783299444,1.6403689134687185,0.12360928240343928
1782988017638650000,10.585650146484374,-0.29456746821999547,1.690702385650575,0.07558072616308927
1782988017648725000,10.59572509765625,-0.3427536992400884,1.6806301967084407,0.03435512793585658
1782988017658799000,10.605799072265626,-0.18636954382956028,1.6661925060331821,-0.041351124303042885
1782988017668874000,10.6158740234375,0.09369885891675948,1.605506858924031,-0.15066943102553487
1782988017678948000,10.625947998046875,0.3572849134176969,1.543742184406519,-0.22456074279695748
1782988017689023000,10.63602294921875,0.6127601421773433,1.5288818844050167,-0.29802447680607436
1782988017699097000,10.64609716796875,0.7986001091748476,1.5410276647508143,-0.35644130220040676
1782988017709172000,10.656171875,0.8719675432026386,1.524886677289009,-0.2983959404669702
1782988017719246000,10.66624609375,0.8698936595380306,1.484818870794773,-0.18469108922332525
1782988017729321000,10.676321044921876,0.9010860856592655,1.4166577732384205,-0.08943272590488195
1782988017739395000,10.68639501953125,1.0033914448797703,1.2744453510433436,0.009444266302138566
1782988017749470000,10.696469970703125,1.076955278262496,1.0717191311746834,0.07016381568089126
1782988017759544000,10.7065439453125,1.212860124745965,0.9016618397206068,0.05733356020227074
1782988017769619000,10.716618896484375,1.2938427099525929,0.8047691531985998,0.12916750105246902
1782988017779693000,10.726693115234376,1.2502145806282758,0.7579881128013134,0.35481896169558164
1782988017789768000,10.736767822265625,1.1100322029560803,0.7501993586212397,0.6098642746053635
1782988017799842000,10.746842041015626,0.9754664961218833,0.7511439459949731,0.693860508544743
1782988017809917000,10.7569169921875,0.9481962118804454,0.7630974186390638,0.7270837098412215
1782988017819991000,10.766990966796875,0.9507903200268745,0.6850760213255882,0.7467543327338994
1782988017830066000,10.77706591796875,1.005408045399189,0.5241764343172312,0.72141677012071
1782988017840140000,10.78714013671875,1.0336807846814393,0.35837212413251396,0.6956732570551335
1782988017850215000,10.79721484375,1.0142062688827513,0.21466040329039096,0.6585318594016134
1782988017860289000,10.8072890625,0.8954121316760778,0.0599701923161745,0.6403482601962983
1782988017870364000,10.817364013671876,0.7764794627815484,-0.050963294517993925,0.6602685470011085
1782988017880438000,10.82743798828125,0.5580500623464584,-0.15654957510530948,0.6868507028479128
1782988017890513000,10.837512939453125,0.32248072654008864,-0.1656459047526121,0.7225731005489826
1782988017900588000,10.847588134765624,0.1445540168851614,-0.18832827668190003,0.6336565805379301
1782988017910662100,10.857662109375,-0.0470645335137844,-0.2464613166987896,0.5757823375876993
1782988017920737000,10.867737060546874,-0.20484861885011196,-0.29094284798204895,0.5342577564138918
1782988017930811100,10.87781103515625,-0.33217911373376846,-0.35657588836550713,0.4979556591287255
1782988017940886000,10.887885986328126,-0.36197687062621114,-0.40250644941329955,0.43936033536233005
1782988017950960000,10.897960205078125,-0.350585708039999,-0.4374859928578138,0.39971966823898253
1782988017961035000,10.908034912109375,-0.2832686600923538,-0.4908510878205299,0.4039684847898781
1782988017971109000,10.918109130859374,-0.202258017835021,-0.5785480759739875,0.35961416008286173
1782988017981184000,10.92818408203125,-0.22366087134778498,-0.6075906305849552,0.35043833545856173
1782988017991258000,10.938258056640626,-0.31774376114606856,-0.5508434919685125,0.3598473112516105
1782988018001333000,10.9483330078125,-0.3809942903071642,-0.4224982670843601,0.4058738069545477
1782988018011407000,10.958406982421875,-0.3995803328335285,-0.32889760784506794,0.46276218067258595
1782988018021482000,10.96848193359375,-0.46994390887022014,-0.265226222923398,0.5205458957951515
1782988018031556000,10.97855615234375,-0.5105547361999749,-0.14479191729426383,0.5490398766126483
1782988018041631000,10.988630859375,-0.5020774152338504,-0.03941664910912514,0.6618414954062551
1782988018051705000,10.998705078125,-0.511453730866313,-0.2028904705196619,1.0226006608057767
1782988018061780000,11.008780029296876,-0.21679975340664384,-0.4174380610853433,1.4554782100200652
1782988018071854000,11.01885400390625,0.12403437594771384,-0.5942261220991611,1.6507456383153796
1782988018081929000,11.028928955078126,0.3374140917778015,-0.8239812186688185,1.5351725089818238
1782988018092003000,11.039003173828124,0.3074988459855318,-0.9760802441060542,1.1932800296809523
1782988018102078000,11.049077880859375,-0.1541349151790142,-0.6842991917341947,0.7827698681626468
1782988018112152000,11.059152099609374,-0.8543751878887414,-0.382397142842412,0.36826318435408173
1782988018122227000,11.06922705078125,-1.3787345775574444,-0.1348065298527479,-0.13034735848680137
1782988018132301000,11.079301025390626,-1.8623562986463307,0.16653379350304603,-0.5150161725882441
1782988018142376000,11.0893759765625,-2.2961516202926635,0.4876104984641075,-0.5649539234507829
1782988018152450000,11.099449951171875,-2.5238503688544034,0.9384183297097682,-0.24189612767510116
1782988018162525200,11.109525146484375,-2.4758453396201134,1.3025029862701891,0.31002076567858455
