time,seconds_elapsed,z,y,x
1782987170923827200,0.0778271484375,-0.046321606191992756,-0.01283485858850181,-0.04881524963863194
1782987170933902300,0.08790234375,0.08277180671095848,-0.010429551012441515,-0.0033886925902217625
1782987170943976200,0.09797607421875,0.09303776465952396,-0.03826514098644256,0.04650850706622004
1782987170954051300,0.10805126953125,0.07109773553013801,-0.039746757846325635,0.015734671683236955
1782987170964125200,0.118125244140625,0.06056640464365482,-0.053852586218714714,0.03146313282139599
1782987170974200300,0.128200439453125,0.10231003539562225,-0.09339147346802056,0.037230391111224885
1782987170984274200,0.138274169921875,0.1298310795277357,-0.10209069355651736,0.03763312669321894
1782987170994349300,0.148349365234375,0.0976455507159233,-0.07065298743732273,0.046452539095282554
1782987171004423200,0.158423095703125,0.03747369834780693,-0.0484693588104099,0.03547879820354283
1782987171014497300,0.168497314453125,0.01648351728916168,-0.043281142517551774,0.014498992408439515
1782987171024572400,0.178572509765625,0.03618248949348926,-0.04021766329370439,0.03919964535757899
1782987171034646300,0.188646240234375,0.06445464425384997,-0.033510859131440515,0.013334405608475208
1782987171044721400,0.198721435546875,0.05588906048238277,-0.042902956854924554,0.01615523518286645
1782987171054795300,0.208795166015625,0.038061142846941946,-0.04279109397828579,0.021625410222262144
1782987171064870400,0.218870361328125,0.05883621985018253,-0.0535386248987168,0.010710998302325605
1782987171074944300,0.2289443359375,0.06552198122441769,-0.07390782451480626,0.032313977497071024
1782987171085019400,0.239019287109375,0.08481471071541309,-0.05164733125939965,0.04301883831955492
1782987171095093200,0.24909326171875,0.031133389410376546,-0.09017119624726473,0.07223295010514556
1782987171105168400,0.25916845703125,0.08123334509730339,-0.05477430417351424,0.05671542830392718
1782987171115242200,0.2692421875,0.10607084923386573,-0.05611417447514832,-0.015778876151144504
1782987171125317400,0.2793173828125,0.0975759926110506,-0.02050933873914182,0.0104078506372869
1782987171135391200,0.28939111328125,0.10404022018909453,-0.005752791373059153,0.0047855537761002775
1782987171145466400,0.29946630859375,0.04430851280391216,-0.042966742806136604,0.04756510344706476
1782987171155540200,0.309540283203125,0.037598201510310174,-0.02608684661053121,0.017637728825584054
1782987171165614300,0.3196142578125,0.03724047411382198,-0.05237433035969734,0.010945610775798559
1782987171175689200,0.329689208984375,0.05468786799907684,-0.04238470513448119,0.03208367587253451
1782987171185763300,0.339763427734375,0.08108955271244049,-0.042686902951449154,0.011536854667216538
1782987171195838200,0.349838134765625,0.05569441469311714,-0.0532847962681204,0.01830949060730636
1782987171205912300,0.359912353515625,0.05468143825829029,-0.06228139186799526,0.027640140467137097
1782987171215987200,0.3699873046875,0.07039630926251411,-0.06630019905529916,0.028667729949206112
1782987171226061300,0.380061279296875,0.05816168158948421,-0.04980148419700563,0.044812370672822
1782987171236136200,0.39013623046875,0.06640928545296192,-0.05958177752047777,0.023449995300918815
1782987171246210300,0.400210205078125,0.055955111455917354,-0.05381700344868004,0.00913293533064425
1782987171256285200,0.41028515625,0.04731704697012901,-0.06041727849654853,0.024184227859601375
1782987171266359300,0.420359375,0.05946399635970592,-0.055421808296814555,0.006252338393032551
1782987171276434200,0.43043408203125,0.07043722579479217,-0.07570720208697021,0.03109546855278313
1782987171286508800,0.4405087890625,0.064963762819767,-0.06770648565664887,0.04895999187156558
1782987171296584000,0.450583984375,0.06273790346384048,-0.058194926271960136,0.03422507181540131
1782987171306657800,0.46065771484375,0.06876081701517105,-0.05840659626126289,0.024908377415686845
1782987171316733000,0.47073291015625,0.06512333729565144,-0.05122077641040086,0.015787936240434647
1782987171326806800,0.480806884765625,0.06201894153952598,-0.029955796998366712,0.025377237036451696
1782987171336880600,0.490880615234375,0.05883797341585159,-0.040726781859621405,0.033088907392323015
1782987171346955800,0.500955810546875,0.07576572734117508,-0.03232216080352664,0.024959669211506844
1782987171357030000,0.51102978515625,0.07513444370031357,-0.04259725190661847,0.0336896497644484
1782987171367104800,0.521104736328125,0.054174657779932016,-0.024845249051600692,0.02388356441259384
1782987171377179000,0.531178955078125,0.06640110214650631,-0.016238091160729527,0.028407106251642108
1782987171387253800,0.541253662109375,0.052110126465559,-0.007759966477006673,0.017541794170439242
1782987171397328000,0.551327880859375,0.04767945054173469,-0.029530045866966247,0.02178213515393436
1782987171407402800,0.56140283203125,0.0543149430334568,-0.03855886323601007,0.007373962834104895
1782987171417476900,0.571476806640625,0.04182955546975135,-0.030230376156046984,0.019017127420008183
1782987171427551700,0.5815517578125,0.054610126587748525,-0.01563201502636075,0.028187764412537217
1782987171437625900,0.5916259765625,0.06592822393774986,-0.014450111765414475,0.010511091816052793
1782987171447700700,0.60170068359375,0.042025370302796364,-0.02367868949025869,0.00561937425173819
1782987171457774800,0.61177490234375,0.06166998197138309,-0.02435658875182271,0.02844546550065279
1782987171467849700,0.621849609375,0.058548050558567044,-0.01901172059252858,0.017444982732459903
1782987171477923800,0.631923828125,0.04455167391002178,-0.005790346904471516,0.00951126712374389
1782987171487997700,0.641997802734375,0.05224164389073849,-0.013041925467923283,0.0075699237976223225
1782987171498072800,0.65207275390625,0.061891515767574304,-0.02118146584704518,0.00007116554006934165
1782987171508146700,0.662146728515625,0.07004325804114342,-0.02904584254659712,0.004357829883322119
1782987171518221800,0.672221923828125,0.07141279282867909,-0.03866108150146901,0.006542115119844674
1782987171528295700,0.682295654296875,0.053643327382206916,-0.025914997174963355,0.009678294253721832
1782987171538370800,0.692370849609375,0.07587094128131866,-0.005671177504211664,0.013793912879005074
1782987171548444700,0.702444580078125,0.08238134608864783,-0.03173646987006068,0.021546718962863087
1782987171558519800,0.712519775390625,0.09081658147871494,-0.02357369474582374,0.020251637651026246
1782987171568593700,0.72259375,0.08454699968993663,-0.01763239506334066,0.03477510691359639
1782987171578668800,0.732668701171875,0.06915712285637855,-0.029629268457740544,0.035415669839456675
1782987171588742700,0.74274267578125,0.07591653398871422,-0.023692352689430117,0.01920066729336977
1782987171598817800,0.75281787109375,0.07055939086973667,-0.04205065087452531,0.042656800074130294
1782987171608891600,0.7628916015625,0.06476268728971481,-0.0203168118417263,0.023367504649236797
1782987171618966800,0.772966796875,0.06852876182496548,-0.03467011216916144,0.017687267055734993
1782987171629040600,0.78304052734375,0.07261164722442627,-0.03305179025232792,0.014241729711741207
1782987171639115800,0.79311572265625,0.07100538107156754,-0.03591580138131976,0.012383973015844821
1782987171649189600,0.803189697265625,0.054286301460862156,-0.04317249451130628,0.01592588340640068
1782987171659263700,0.813263671875,0.06886018573641776,-0.04369425336308777,0.005859466617926955
1782987171669338600,0.823338623046875,0.08548807993233204,-0.022523674236238002,0.02093077902160585
1782987171679412700,0.833412841796875,0.06625438715219498,-0.024007190792262552,0.04358429018259048
1782987171689487600,0.843487548828125,0.06282908887863159,-0.031094153378531334,0.020743220560252667
1782987171699561700,0.853561767578125,0.06944412310421466,-0.033242855845019216,0.015746142925322056
1782987171709636600,0.86363671875,0.07530103243887425,-0.0273660727661103,0.013657061691582203
1782987171719710700,0.873710693359375,0.07321662738025188,-0.03488507009409368,0.025091551962867376
1782987171729785600,0.88378564453125,0.07952303404808043,-0.028614976848661898,0.026046660730615255
1782987171739859700,0.893859619140625,0.08087035700380801,-0.01679594423919916,0.024671646050363778
1782987171749934800,0.903934814453125,0.06082768592834472,-0.017584756529331207,0.004245674745738506
1782987171760008700,0.9140087890625,0.06805413005053997,-0.0260975872002542,0.004072364005446433
1782987171770083800,0.924083740234375,0.06958382383584975,-0.02089519625157118,0.02052007932886481
1782987171780157700,0.93415771484375,0.0559925208568573,-0.01055792663246393,0.0053520285524427886
1782987171790232800,0.94423291015625,0.051957566252350804,-0.0022952713303267956,0.007747106995433568
1782987171800306700,0.954306640625,0.055882046219706535,-0.008183817912265658,-0.0010157529138028621
1782987171810380800,0.964380859375,0.05143734177052974,-0.0064707303840667,0.01972819829881191
1782987171820455700,0.97445556640625,0.047420507344603534,-0.0052924073196947575,0.02281184352785349
1782987171830529800,0.98452978515625,0.07347323248982429,-0.009575637596845626,0.021738222946971652
1782987171840604700,0.994604736328125,0.05537643478512764,-0.005635960060358047,0.007198021745309233
1782987171850678800,1.0046787109375,0.05826338839828968,-0.019541881946474313,0.0029212942741811275
1782987171860753700,1.014753662109375,0.05737842225730419,-0.011526187142729759,0.014161723278090357
1782987171870828000,1.024828125,0.060383449292182916,-0.01728876925744116,0.00002703413739800453
1782987171880902700,1.034902587890625,0.06652151365578174,-0.017392668023332954,0.0010693827971816063
1782987171890977000,1.04497705078125,0.06310089155733585,-0.011152093133330345,0.007214315292984247
1782987171901051600,1.0550517578125,0.0821259100228548,-0.02030307557731867,0.012715469992533325
1782987171911126000,1.0651259765625,0.05521043056845665,-0.022438699366524813,0.01627995754107833
1782987171921200600,1.07520068359375,0.06481003356277942,-0.03205503429993987,0.01980703568868339
1782987171931275000,1.08527490234375,0.06511106233596801,-0.018891455213725566,0.0073122227095067495
1782987171941349600,1.095349609375,0.05957739360630512,-0.025455197643488643,0.011936302313581108
1782987171951424000,1.105424072265625,0.07080489006340503,-0.02536430448964238,0.0019184008419513702
1782987171961498600,1.11549853515625,0.07781739917397498,-0.023065672158449887,0.017171718749031423
1782987171971573000,1.125572998046875,0.06958323931396007,-0.018953633729740977,0.028028116871416566
1782987171981646800,1.135646728515625,0.07005436395704746,-0.01803439999297261,0.012209420166537165
1782987171991722000,1.145721923828125,0.07007599126696586,-0.016521072820574044,0.016498787923529743
1782987172001795800,1.1557958984375,0.06906710648536682,-0.005953428511694074,0.006332783218100667
1782987172011871000,1.16587109375,0.0742921476572752,-0.025505028134584426,0.012022738488018513
1782987172021944800,1.17594482421875,0.07250175710916519,-0.022632833699136972,0.020313596971333024
1782987172032020000,1.18602001953125,0.056636079457402226,-0.007069134668633342,0.010027692213281989
1782987172042093800,1.19609375,0.060851651325821876,-0.01844626872949302,0.0034341391671448944
1782987172052169000,1.2061689453125,0.0765665223300457,-0.018056977150961755,-0.004920213006436825
1782987172062242800,1.216242919921875,0.05532265877127647,-0.011179711792618036,0.007838949997350573
1782987172072318000,1.22631787109375,0.05683598594367504,-0.010541486954316497,0.016077639902010558
1782987172082391800,1.236391845703125,0.07912322107553482,-0.02416691139861941,0.01166924887523055
1782987172092467000,1.246467041015625,0.055494508206844324,-0.01892221567817032,0.016866817518323658
1782987172102540800,1.256540771484375,0.047749008646607395,-0.027425328672677277,0.017820026589930055
1782987172112616000,1.266615966796875,0.06661211454868317,-0.006444353833794593,-0.002592866037413478
1782987172122689800,1.276689697265625,0.06118365975916385,-0.015053082627244294,0.0068301382809877395
1782987172132765000,1.286764892578125,0.2715945889115333,-0.06881806362774223,0.025035583991929886
1782987172142838800,1.2968388671875,0.03782558052539825,0.0019989552648738028,0.02924085366204381
1782987172152913000,1.306912841796875,-0.2802981198489666,0.00667925856821239,0.04413352156318724
1782987172162987800,1.31698779296875,0.02772562679350376,-0.00011157061569392681,-0.1390987471539527
1782987172173062000,1.327061767578125,0.10792904432117939,0.009440613040328026,0.02394128594920039
1782987172183136800,1.33713671875,0.2920949406266212,-0.041328218351490795,0.11630875013172626
1782987172193211000,1.3472109375,0.22013211269974708,-0.08554339031614362,0.05791735143959522
1782987172203285800,1.35728564453125,-0.12023790627419947,0.018260098507627845,-0.06034991234876215
1782987172213359900,1.36735986328125,-0.13693594309687612,0.04716076042987406,-0.07417575473599135
1782987172223434800,1.377434814453125,0.18825287335813046,-0.027823753405734897,0.05498633948899805
1782987172233508900,1.3875087890625,0.23117606928348539,-0.04725223810561001,0.08056348301172256
1782987172243584000,1.397583984375,-0.005916530567407608,-0.024261311683803796,-0.007604556719586253
1782987172253657900,1.407657958984375,-0.07598083139657974,0.015981339920684696,-0.035246889143809676
1782987172263733000,1.41773291015625,0.07107727726399898,-0.01738711506538093,0.009804039525240659
1782987172273806800,1.427806884765625,0.12384791346490383,-0.048458399024978276,0.03434183006286621
1782987172283882000,1.437882080078125,0.09949497797489165,-0.02771064842008054,0.014074410320818423
1782987172293956600,1.44795654296875,0.03996551516354084,-0.012037936057150363,0.005292918776348233
1782987172304031500,1.458031494140625,0.035572248640656466,-0.017016455122083423,0.01399330790862441
1782987172314105600,1.468105712890625,0.05905307747125625,-0.0287858033709228,0.009262041603028773
1782987172324179500,1.478179443359375,0.03485562480390072,-0.0053351504828780885,-0.008571136729419232
1782987172334254600,1.488254638671875,0.05162497329711914,-0.01036693410500884,0.02153722048215568
1782987172344328400,1.498328369140625,0.07942132723927497,-0.029824791029840706,0.021645064770802854
1782987172354403600,1.508403564453125,0.08913023582696915,-0.03889569397494197,0.024902532196789978
1782987172364477400,1.5184775390625,0.06624386575818061,-0.017974413434043525,0.019661416672915218
1782987172374552600,1.528552490234375,0.05786708255708217,-0.002621215349063277,0.007116773202642798
1782987172384626400,1.53862646484375,0.04574760569632053,-0.014883461681380867,0.000974909446761012
1782987172394701600,1.54870166015625,0.06355857219696044,-0.005512297148071229,0.0071835548285394905
1782987172404775400,1.558775390625,0.06867021612226963,-0.015547442015446722,0.01775309883356094
1782987172414850600,1.5688505859375,0.0697299543082714,-0.020710743062756956,0.007297974988445639
1782987172424924400,1.57892431640625,0.08258943588137627,-0.0030327918246388433,0.01269815353155136
1782987172434999600,1.58899951171875,0.06343699164390564,-0.008241247187927365,0.008566898945719003
1782987172445073400,1.599073486328125,0.06391396150588989,-0.014578085526637733,0.015033318480849265
1782987172455148500,1.6091484375,0.06750292590856552,-0.010294197662360966,0.02055705033838749
1782987172465222400,1.619222412109375,0.07109715100824833,-0.014297186226025223,0.017409692223370073
1782987172475296500,1.629296630859375,0.05883621985018253,-0.017673530791327358,0.01167005259282887
1782987172485371400,1.639371337890625,0.05648527280986309,-0.011061090381629765,-0.008842354886233805
1782987172495445500,1.649445556640625,0.05724339770078659,-0.002175042484141886,0.0006727116297930479
1782987172505520400,1.659520263671875,0.06784837834537029,-0.017366839462332428,0.023467750153318045
1782987172515594500,1.669594482421875,0.0727928490102291,-0.004208374942652881,0.01666333083547652
1782987172525669400,1.67966943359375,0.06893500453829765,-0.009947868442721663,-0.017118381126597523
1782987172535743500,1.689743408203125,0.0727232909053564,-0.009569098258204758,0.008057341988384724
1782987172545818400,1.699818359375,0.07782792056798934,-0.018110789697431028,0.01934621324390173
1782987172555892500,1.709892578125,0.0768015001296997,-0.013021905593201518,0.022168942514434454
1782987172565967400,1.71996728515625,0.08051087604165076,-0.019790815206244587,0.016019699169695378
1782987172576041500,1.73004150390625,0.07124445052444935,-0.008951441283896565,0.01723886570110917
1782987172586116400,1.740116455078125,0.06724865888655185,-0.01261146162878722,0.011206161408126353
1782987172596190500,1.7501904296875,0.04930675948262214,-0.004178272065334021,0.011094371596723794
1782987172606265300,1.760265380859375,0.05019523275494575,-0.01384641025122255,0.01615676955282688
1782987172616339500,1.77033935546875,0.07309855395853519,-0.014043649856373666,0.005570785869657993
1782987172626413300,1.780413330078125,0.05547872611582279,-0.019226568919606505,-0.00035918870121240615
1782987172636488400,1.790488525390625,0.07421732885539531,-0.01978274149764329,0.013191928397864103
1782987172646562300,1.800562255859375,0.0790367118358612,-0.02000854961015284,0.017069938874989747
1782987172656637400,1.810637451171875,0.07367372349798679,-0.017746522962301968,0.006912994258850813
1782987172666711300,1.820711181640625,0.06381283921897411,-0.0066296838054433465,0.0169048845063895
1782987172676786400,1.830786376953125,0.07758534398376941,-0.015732991182804107,0.0014487375035881994
1782987172686860300,1.8408603515625,0.08460837448835372,0.0017648177154362202,0.030457462910190223
1782987172696935400,1.850935302734375,0.04630173244774341,-0.025819793172180652,-0.005550327603518962
1782987172707009300,1.86100927734375,0.03752630531787872,0.007602182099409401,0.021342720823362468
1782987172717084400,1.87108447265625,0.039920506978034974,-0.05079929959531873,0.0239163707036525
1782987172727158300,1.881158203125,0.09316986660659313,-0.05291771652139723,0.029112551107257603
1782987172737233400,1.8912333984375,0.07668751836121082,-0.00012457622773945332,0.018443199989572168
1782987172747307500,1.9013076171875,0.03450666523575783,-0.011274696599692106,-0.011633739170432091
1782987172757382400,1.91138232421875,0.015230302357673644,0.0013404548235237599,-0.005979293605312705
1782987172767456500,1.92145654296875,0.057880526560544966,-0.030037703128159045,-0.004228066023811697
1782987172777531400,1.931531494140625,0.08917524401247501,-0.03419624757971614,0.0077739219371229405
1782987172787605500,1.94160546875,0.08213584689497948,-0.02815499465409666,0.017116189169511197
1782987172797679400,1.951679443359375,0.07372866855561733,-0.026074060194194316,0.028264044519141315
1782987172807754500,1.96175439453125,0.06446048947274685,-0.026581790520623323,0.022653949552401898
1782987172817828400,1.971828369140625,0.07908756524026393,-0.03379194109514355,0.02132160497009754
1782987172827903500,1.981903564453125,0.0986129344433546,-0.02465133391469717,0.03677672905959189
1782987172837977300,1.991977294921875,0.062332245272397994,-0.011503683049976825,0.016117241260036826
1782987172848052500,2.002052490234375,0.03597439970076084,-0.006078004739433526,-0.0090637425519526
1782987172858126300,2.012126220703125,0.041509821996092794,0.005791808209195733,-0.004269640143215656
1782987172868201500,2.022201416015625,0.05977203939557075,-0.00039184886179864404,-0.006550956013426184
1782987172878275300,2.032275390625,0.06591536445617675,0.006866305572912097,0.019509806307777763
1782987172888350500,2.0423505859375,0.08134791138768195,0.010830167702585458,0.005652838129922747
1782987172898424300,2.05242431640625,0.09182254365086555,-0.013211509881168603,0.02977371842972934
1782987172908499500,2.06249951171875,0.07507482246756553,-0.024550869214907286,0.025339754570275545
1782987172918573300,2.0725732421875,0.07476210325658321,-0.0018011311378329992,0.010959347040206194
1782987172928648400,2.0826484375,0.06321545784771442,-0.024761954682320356,0.007864157503843307
1782987172938722300,2.092722412109375,0.06288111132681369,-0.018736995304375885,0.006797989577054977
1782987172948796400,2.10279638671875,0.07017535998821259,-0.013955094790086149,0.004566358067467809
1782987172958871300,2.112871337890625,0.06581073503792285,0.0014427461542189121,-0.0023254472728818656
1782987172968945400,2.1229453125,0.05621113204360008,-0.005455781187862157,0.014558248315006494
1782987172979020300,2.133020263671875,0.06207505564093589,0.010445260038226841,0.005269903226941823
1782987172989094400,2.143094482421875,0.06392799003124237,0.010966799694299697,-0.003233282832801342
1782987172999169300,2.153169189453125,0.07038754143416881,0.009493804532289504,-0.00256641642190516
1782987173009243400,2.163243408203125,0.07251695467829704,0.0016940905667841434,0.013877791770175098
1782987173019318300,2.173318359375,0.07269757194221019,0.0031498423330485817,-0.0013258417762815951
1782987173029392400,2.183392333984375,0.05176818116009235,-0.008836948058754205,0.0021548399463295937
1782987173039467300,2.19346728515625,0.06898351985514163,-0.010728387828543781,0.00675919193662703
1782987173049541400,2.203541259765625,0.08770575598180294,-0.025828853261470792,0.004648702588677406
1782987173059616300,2.2136162109375,0.09024959524571895,-0.028566534597054122,0.014200447853282094
1782987173069690400,2.2236904296875,0.06899637933671474,-0.009603183190897107,0.023199819932132958
1782987173079765200,2.23376513671875,0.06180266844034195,-0.014674568171054125,0.016284852911904454
1782987173089839400,2.24383935546875,0.060166591671109194,-0.0361895037561655,-0.014021438024565576
1782987173099913500,2.25391357421875,0.06540449232459068,-0.03756809863299131,0.0024161942962557074
1782987173109988400,2.26398828125,0.0772200178027153,-0.031471535323560236,0.015764190038666127
1782987173120062500,2.2740625,0.07466331905722617,-0.029654987420886753,0.019106047812476754
1782987173130137300,2.284137451171875,0.07538461906909942,-0.029386984134465454,0.014017565567046404
1782987173140211500,2.29421142578125,0.07148235093355178,-0.028370938959717748,0.00004756546877324581
1782987173150286300,2.304286376953125,0.06040098494887352,-0.025782676032185554,0.002965352611616254
1782987173160360400,2.3143603515625,0.046017070287466044,-0.02010002728588879,-0.010865312081202864
1782987173170435300,2.324435302734375,0.04794833061099052,-0.025777561465650797,0.00827982563264668
1782987173180509400,2.334509521484375,0.06546235999166965,-0.008183452586084604,0.0027336627475917337
1782987173190584300,2.344584228515625,0.05665244607031345,-0.0022018939584493636,-0.002145925987511873
1782987173200658400,2.354658447265625,0.059655135017633434,-0.01452156956642866,-0.009608005496487021
1782987173210733300,2.3647333984375,0.06998129872083664,-0.011618249340355396,0.005536445208638907
1782987173220807400,2.374807373046875,0.0741916098922491,-0.01604929059036076,0.012346271353960037
1782987173230882300,2.38488232421875,0.05681202054619789,-0.008153057447820902,-0.006767594438791275
1782987173240956400,2.394956298828125,0.05931961945295334,-0.009210311415791511,0.01114551726207137
1782987173251030500,2.405030517578125,0.05826338839828968,-0.007948255590721964,0.021356310957297682
1782987173261105700,2.415105712890625,0.07888298257887363,0.0033423692304641005,0.02300466268621385
1782987173271179500,2.425179443359375,0.06629881081581115,-0.009079524642974138,0.006446618856117129
1782987173281254700,2.435254638671875,0.057601709619164464,0.00015935528017580508,0.009297843568772076
1782987173291327700,2.44532763671875,0.053554480054974554,-0.015349471757933497,-0.013444880245625972
1782987173301403000,2.45540283203125,0.0698784228682518,0.005666793590039015,-0.00973404302895069
1782987173311476700,2.465476806640625,0.054928691017627713,-0.009106120388954878,0.00805171596519649
1782987173321552000,2.4755517578125,0.05329729042351246,-0.0024351912576705214,0.011647037043422459
1782987173331625700,2.485625732421875,0.07262509122788906,0.0019412702608853577,0.023156711442768572
1782987173341700900,2.495700927734375,0.06829962924420833,-0.00874773540534079,0.01271232818737626
1782987173351774700,2.505774658203125,0.07053717903792858,-0.015321633902937172,-0.0021775632347911596
1782987173361849900,2.515849853515625,0.04344985014796257,-0.021286387526243924,-0.011207330451905726
1782987173371923700,2.525923828125,0.056172553598880764,-0.014737550404667853,0.004844882747903466
1782987173381998800,2.535998779296875,0.06573825432360172,-0.011903788283467292,0.01801920242384076
1782987173392072700,2.54607275390625,0.06859831992983817,-0.01031556924395263,0.020005334739759562
1782987173402146800,2.556146728515625,0.07519757206439971,-0.018312047890573738,0.005899725563079119
1782987173412221700,2.5662216796875,0.08000000391006469,-0.02415880115740001,0.010450155409052968
1782987173422295800,2.5762958984375,0.08120119639337062,-0.017864377188310025,0.01281257369145751
1782987173432370700,2.58637060546875,0.0663882426649332,-0.02057663182169199,0.01922024877667427
1782987173442444800,2.59644482421875,0.0628109687000513,-0.0063966422345489255,0.0037441549643874167
1782987173452519700,2.606519775390625,0.06075520521402358,0.0011037965234369038,0.004005143988132477
1782987173462593800,2.61659375,0.07812836481928825,-0.011541530842334032,0.011685542422905563
1782987173472668700,2.626668701171875,0.07380231831371784,-0.008790186307579278,-0.0026272797636687755
1782987173482742800,2.63674267578125,0.07230243514478206,-0.0006500614065676928,0.010159648029878735
1782987173492817700,2.646817626953125,0.07097966210842133,-0.015071677729859947,0.006783668790757656
1782987173502891800,2.656891845703125,0.060681555455923075,-0.001601297716796398,0.000028349311649799347
1782987173512967000,2.666966796875,0.06624854193329811,-0.007803805618733168,-0.004554813760146498
1782987173523040800,2.677040771484375,0.06190788238048553,-0.024692908034101128,0.01731609565578401
1782987173533116000,2.687115966796875,0.06654781714081764,-0.00753236826620996,0.006796820533275604
1782987173543189800,2.697189697265625,0.07525193260014057,0.0028388036224991082,-0.000003653261810541153
1782987173553263600,2.707263671875,0.0745189421504736,-0.00832439542673528,0.007663593430444598
1782987173563338800,2.7173388671875,0.07333528532385826,-0.014900412816181778,0.015015855889394879
1782987173573412600,2.72741259765625,0.06496493186354636,-0.010755129704996943,0.013794059009477496
1782987173583487700,2.73748779296875,0.09114858991205692,-0.014751651995256543,0.010017609210684895
1782987173593561600,2.7475615234375,0.07261106270253657,-0.012406404043361545,-0.007451923441141844
1782987173603636700,2.75763671875,0.07175298456847667,-0.020016805981844663,-0.00016366612911224363
1782987173613710600,2.767710693359375,0.05635024825334549,-0.00989741689711809,0.011560235542804002
1782987173623785700,2.77778564453125,0.0776075558155775,-0.02053706699628383,-0.002356865324452519
1782987173633859800,2.78785986328125,0.08091887232065201,-0.028213556440919635,0.015869477044045923
1782987173643934700,2.797934814453125,0.06821136643886566,-0.011731792717427015,0.0014363894786685704
1782987173654008800,2.8080087890625,0.07257832947671412,-0.005447744011878967,0.013170008827000855
1782987173664083700,2.818083740234375,0.05942249530553818,-0.008016279325634241,0.014472908119112253
1782987173674157800,2.82815771484375,0.056280105626583095,-0.008924589809589087,0.0076174162011593575
1782987173684232700,2.838232666015625,0.0537397734940052,-0.02279876485057175,-0.008905483250319958
1782987173694306800,2.848306884765625,0.062449734172225,-0.00973221639804542,0.011054404912516474
1782987173704380700,2.858380615234375,0.0567635052293539,-0.019261859428696335,0.015217296745628118
1782987173714455800,2.868455810546875,0.07323591660261154,-0.01922598439771682,0.022242811468243598
1782987173724529700,2.87852978515625,0.07009411144554614,-0.02258457411061972,0.009029548021405934
1782987173734604800,2.888604736328125,0.06141571494936943,-0.02328468520399183,0.017733517350256443
1782987173744678700,2.8986787109375,0.052743163672089574,-0.011499372201040386,0.018184037596732375
1782987173754753800,2.90875390625,0.05873217495381832,-0.026120712347514927,0.006507263002172112
1782987173764827600,2.91882763671875,0.06307108094096184,-0.025995478532649576,0.012576061521843075
1782987173774902800,2.92890283203125,0.06757014592587947,-0.015315240694768726,0.012362126510217786
1782987173784976600,2.9389765625,0.07581599622368812,-0.006555851384252309,0.016391382026299833
1782987173795051800,2.9490517578125,0.06595277385711669,-0.018221885389089584,0.004745514026656746
1782987173805125600,2.959125732421875,0.05593757579922676,-0.018745142078213393,0.01465915140621364
1782987173815200800,2.96920068359375,0.06433773987591267,-0.02404620762839913,-0.0030544921997934576
1782987173825274600,2.979274658203125,0.06376198581457138,-0.005614223152585327,0.001166851822286844
1782987173835349800,2.989349853515625,0.07379588857293129,-0.014415990300104022,0.01855374769195914
1782987173845423600,2.999423583984375,0.08576923496127128,-0.017331841214187443,0.02291786118559539
1782987173855497700,3.009497802734375,0.07082710189521313,-0.02562010588161647,-0.005280716881901026
1782987173865572600,3.019572509765625,0.07037409743070602,-0.009565079670213162,0.0036140988439321516
1782987173875646700,3.029646728515625,0.0684276395380497,-0.0280870805170387,0.01771495878025889
1782987173885721600,3.0397216796875,0.06454115349352359,-0.030766090467944738,0.009541881457716226
1782987173895795700,3.049795654296875,0.05121346988677978,-0.03046089697629213,-0.0006771686092019081
1782987173905870600,3.05987060546875,0.05240589454174041,-0.011680829715169965,-0.003222030786424875
1782987173915944700,3.06994482421875,0.06663023472726344,-0.00802592393681407,-0.00027618659287691113
1782987173926019600,3.08001953125,0.06528232724964618,-0.02496094785314053,-0.006957125661522149
1782987173936093700,3.09009375,0.06677461163401603,-0.0058690746964886785,-0.006805515296384692
1782987173946168600,3.10016845703125,0.06705810475051403,-0.019407953368499875,0.009824278595671056
1782987173956242700,3.11024267578125,0.07063420967161654,-0.009507285068370402,-0.0006743921302258968
1782987173966317600,3.120317626953125,0.07393149765133858,-0.012888926863297819,0.0030207360606640575
1782987173976391700,3.1303916015625,0.04267068246901035,-0.01554115840513259,0.016981603004410862
1782987173986466600,3.140466552734375,0.05104921923577785,-0.009851349265687167,0.0063707771409302946
1782987173996540700,3.150540771484375,0.0663145929068327,-0.016532324866950512,0.0029370032999664545
1782987174006614800,3.16061474609375,0.06002221476435661,-0.023387670654430984,-0.00708857002146542
1782987174016689700,3.170689697265625,0.07915127812623977,-0.00687814214117825,0.010805910044163465
1782987174026763800,3.180763671875,0.07017419094443321,-0.00905402487553656,-0.002874386392533779
1782987174036838700,3.190838623046875,0.06941548153162003,-0.004717493508569896,0.0061138067051768295
1782987174046912800,3.200912841796875,0.05669453164637089,-0.0046004430001601575,0.025922303698584438
1782987174056987600,3.210987548828125,0.06430851378142834,-0.012648176909983157,0.018538257861882446
1782987174067061800,3.221061767578125,0.07298807932138443,-0.016752141630090773,0.01415580499395728
1782987174077136600,3.23113671875,0.054582069537043566,-0.003013685265369713,0.01824270898140967
1782987174087210800,3.241210693359375,0.07492869199514389,-0.0024904285762459037,0.010599866078048943
1782987174097285600,3.25128564453125,0.07521744580864906,-0.005350092323683202,0.021020283935964106
1782987174107359700,3.26135986328125,0.06952420260310173,-0.002568498781137168,0.02629215992428362
1782987174117434600,3.2714345703125,0.061734279379248615,-0.022014555670320988,0.0035457097828388213
1782987174127508700,3.2815087890625,0.04182487929463386,-0.014075214038416743,0.0057748570743948215
1782987174137583600,3.29158349609375,0.06024316403865814,-0.00932560835853219,0.0213942318148911
1782987174147658000,3.301657958984375,0.0623404285788536,-0.008006342453509568,0.018810060540586707
1782987174157731800,3.31173193359375,0.07446282804906368,-0.023796397585794327,0.017696546340733765
1782987174167807000,3.321806884765625,0.07416939806044101,-0.0060439928719773885,0.005728314518928528
1782987174177880800,3.331880859375,0.06832476368546485,-0.00278791368547827,0.013573548126593232
1782987174187956000,3.3419560546875,0.08103636122047901,-0.009074848467856646,-0.0006632862143218517
1782987174198029800,3.35202978515625,0.07835048313736916,-0.007993336841464043,-0.0021172844149172304
1782987174208105000,3.36210498046875,0.07341244221329689,0.01286726302076131,0.00704421942308545
1782987174218178800,3.3721787109375,0.076095982208848,-0.007842274465598166,-0.003125803870335221
1782987174228254000,3.38225390625,0.06472995406389236,-0.010384469761699438,0.006484612778946757
1782987174238327800,3.392327880859375,0.08103811478614807,-0.009505568035319448,0.012419628851115702
1782987174248403000,3.40240283203125,0.06966273429095744,-0.02337758765183389,-0.0034406419731676575
1782987174258476800,3.412476806640625,0.060387540945410725,-0.008676642930507659,0.010869622930139303
1782987174268552000,3.422552001953125,0.07220189737975596,-0.00967186451293528,0.02602291452884674
1782987174278625800,3.432625732421875,0.08071779679059982,-0.02252034976799041,0.01659092318639159
1782987174288701000,3.442700927734375,0.06425999846458434,-0.003726801970787346,0.00898994666337967
1782987174298775000,3.452775146484375,0.055716042003035544,-0.004952471308223903,0.0017304039891809224
1782987174308849000,3.462848876953125,0.07442483412623405,-0.004334302877262234,0.024182328163459894
1782987174318924000,3.472924072265625,0.06231120248436928,-0.00020739567298442123,0.006899915581569075
1782987174328998000,3.482997802734375,0.05138005862534046,0.00006696428898721933,0.002915229859575629
1782987174339073000,3.493072998046875,0.06126783091127872,-0.005996281272731721,0.01915909317396581
1782987174349147000,3.50314697265625,0.06965396646261215,-0.0003175049839541316,0.016638342524692415
1782987174359222000,3.513221923828125,0.07371990072727203,-0.00016242402009665965,-0.006861191006377339
1782987174369296000,3.5232958984375,0.06370119553804397,-0.00835321966242045,0.008412804362550378
1782987174379371000,3.53337109375,0.056519759601354594,-0.008016023597307503,0.004292582627385855
1782987174389444900,3.54344482421875,0.06550210748016834,-0.017396723143942652,0.022535291608795523
1782987174399520000,3.55352001953125,0.04125555497407913,-0.02601604639664292,-0.003354278863966465
1782987174409593900,3.56359375,0.07942074271738529,-0.00207373753413558,0.005192088750377297
1782987174419669000,3.5736689453125,0.07299158645272255,-0.0010398644417524336,0.0019888357296586035
1782987174429742800,3.583742919921875,0.061762336429953574,-0.01843545507453382,0.02273410211652517
1782987174439818000,3.59381787109375,0.07266951489150524,-0.02327321396190673,0.014935776390507817
1782987174449891800,3.603891845703125,0.06294891586601734,-0.016216463850811123,0.012498685436695814
1782987174459966000,3.613966064453125,0.04604220472872257,-0.011571268393471836,0.010684110295400022
1782987174470040800,3.624040771484375,0.04291150548756122,-0.02195632267706096,0.013527517027780413
1782987174480115000,3.634114990234375,0.07448679344654083,-0.015832542567141353,0.008563830205798149
1782987174490189800,3.64418994140625,0.0626759441435337,-0.011826193002611398,-0.01181830195710063
1782987174500264000,3.654263916015625,0.06777297502160072,-0.019373137783445418,0.007501973127946257
1782987174510338800,3.6643388671875,0.07168401098549365,-0.009987287137657404,0.009910203313454985
1782987174520413000,3.674412841796875,0.07468786897659302,-0.02228252242412418,-0.0035904987726360555
1782987174530487800,3.68448779296875,0.062119479304552076,-0.020002375597693026,0.013840528499707579
1782987174540562000,3.69456201171875,0.06467500900626182,-0.005870682131685317,0.015111279087886214
1782987174550636800,3.70463671875,0.07233224576115607,-0.011250804267451167,0.0011854103922843931
1782987174560711000,3.7147109375,0.06066401979923248,-0.0062801397154107685,0.013948591984063386
1782987174570786000,3.7247861328125,0.07771569236516952,0.0005010813899338245,0.01045841178074479
1782987174580860000,3.73485986328125,0.06725684219300747,-0.017426570292934776,-0.0048542350981384515
1782987174590933800,3.744933837890625,0.051261400681734084,-0.010190700755268334,0.009631751698255538
1782987174601009000,3.7550087890625,0.07998363729715346,-0.01671977373044938,0.004505860051885247
1782987174611082800,3.765082763671875,0.07399813314676285,-0.012189436824433506,0.014406857145577668
1782987174621158000,3.775157958984375,0.05067103357315063,-0.008543956461548805,0.004555909738689661
1782987174631231700,3.785231689453125,0.06295125395357608,-0.012915486076660454,0.0008460223700851202
1782987174641307000,3.795306884765625,0.054552258920669554,-0.004139291761815548,0.009737404029816389
1782987174651380700,3.805380615234375,0.06606324849426747,0.0023251915445551274,0.007085939672961831
1782987174661456000,3.815455810546875,0.06218611479997634,0.0027226298969238996,-0.004658785591274499
1782987174671529700,3.82552978515625,0.05848083054125309,-0.0066532108115032315,0.014413871408253908
1782987174681604900,3.83560498046875,0.0643318946570158,-0.011318864534981548,0.009106558780372143
1782987174691679000,3.845678955078125,0.08751929349899291,-0.013820070233568548,0.009250935687124729
1782987174701753900,3.85575390625,0.060737085035443304,-0.024566066784039137,0.00010857494100928306
1782987174711828000,3.865827880859375,0.06641396162807942,-0.019368315477855502,0.015739055597409606
1782987174721902800,3.87590283203125,0.06910860753953456,-0.01304075642414391,0.01814889321811497
1782987174731977000,3.88597705078125,0.07928630268275737,-0.00909534326661378,0.021450638177245854
1782987174742050800,3.89605078125,0.07508592838346957,-0.01670351671539247,0.00406308472044766
1782987174752126000,3.9061259765625,0.07313596335947513,-0.009006934330798685,0.012676964613050222
1782987174762199800,3.91619970703125,0.061903790727257726,-0.012086195645667612,0.008680515388026833
1782987174772275000,3.92627490234375,0.06790390792489051,-0.005763020506128668,0.012899521322548388
1782987174782348800,3.936348876953125,0.06103869833052158,0.0003845058055594563,-0.007828501668572425
1782987174792424000,3.946423828125,0.07065291437208653,-0.013956190768629312,-0.005459799775853753
1782987174802497800,3.956497802734375,0.07292027478218079,-0.007277808983251452,0.0017985738545656202
1782987174812573000,3.966572998046875,0.06500409483015537,-0.01353033003937453,0.00616619447953999
1782987174822646800,3.976646728515625,0.053643327382206916,-0.00824128372054547,0.01311542909555137
1782987174832722000,3.986721923828125,0.058715223819017406,-0.0034438933761790393,-0.0017797960888594388
1782987174842795800,3.996795654296875,0.05767126772403717,-0.0070462652496993535,-0.0036199440628290175
1782987174852871000,4.006870849609375,0.05901274546086788,-0.021217596606351433,0.011335633006691931
1782987174862944800,4.01694482421875,0.0667851330280304,-0.015606953650340438,0.01107537463530898
1782987174873020000,4.02702001953125,0.06005319442451,-0.018935148224979638,-0.010869038408249616
1782987174883093800,4.03709375,0.07142974396348,-0.0015683087626472115,-0.009559344049170613
1782987174893167900,4.04716796875,0.058712301209568975,0.010641659393161534,-0.01954531601257622
1782987174903242800,4.05724267578125,0.07547405091822147,0.0060922159278765315,-0.007488090733066201
1782987174913316900,4.06731689453125,0.08026011615097522,-0.008263933943770825,0.011546426213160156
1782987174923391700,4.077391845703125,0.06350070452988148,-0.005214665908366441,0.022206790306791662
1782987174933465900,4.0874658203125,0.058712885731458664,0.0010347864078357814,0.01888392949439585
1782987174943540700,4.097540771484375,0.06604980449080466,-0.006598229221254586,0.005017901227250695
1782987174953614800,4.10761474609375,0.05453063161075115,-0.012022080900892615,0.024358050056546926
1782987174963689700,4.117689697265625,0.07426467512845993,-0.027330453463457523,0.029299963438138364
1782987174973763800,4.127763916015625,0.06767009916901588,-0.01465604613367468,-0.0021044979985803364
1782987174983838700,4.137838623046875,0.07439560803174972,-0.0015328721230849624,0.008569748489931226
1782987174993912800,4.147912841796875,0.06693477063179015,-0.003208440652489662,0.002244710186868906
1782987175003987700,4.15798779296875,0.06306348215639591,0.002505443482287228,-0.00777304515428841
1782987175014061800,4.168061767578125,0.07742693855166435,-0.024308219565451143,0.007734393644332886
1782987175024136700,4.17813671875,0.07667699696719646,-0.008434979661740363,0.005065174435079097
1782987175034210800,4.1882109375,0.06379471904039383,-0.014421762453764676,0.015669935883954166
1782987175044285000,4.198284912109375,0.0712812754034996,-0.009722389123775065,0.013566606929153202
1782987175054359800,4.20835986328125,0.0582668955296278,-0.006503792403452098,0.008091171192750334
1782987175064434000,4.218433837890625,0.06993804410099982,-0.00525846851747483,-0.009622545478492974
1782987175074508800,4.2285087890625,0.07381400875151158,-0.03243219704926014,0.021145298555120824
1782987175084583000,4.2385830078125,0.06957154887616634,-0.006535210455022752,0.01101049270555377
1782987175094657800,4.24865771484375,0.08750468045175075,-0.0010685790795832873,0.027208909443020818
1782987175104732000,4.25873193359375,0.07539046428799628,-0.015430902963690459,0.0005132102191448212
1782987175114806800,4.268806884765625,0.03577741582393646,-0.007859737057052552,-0.018239128784835336
1782987175124881000,4.278880859375,0.04058978454172611,0.006528524985909462,0.005987257716059685
1782987175134955800,4.288955810546875,0.06036299102604389,-0.0061757660254836075,0.012520020485669374
1782987175145030000,4.29902978515625,0.07817278848290443,-0.010289265758916736,0.008799027201160789
1782987175155104800,4.309104736328125,0.056632572326064105,-0.021615254154428838,-0.012197802793979645
1782987175165179000,4.319178955078125,0.05108779768049717,-0.024189415491372344,0.007375570269301533
1782987175175253000,4.3292529296875,0.05513268915712833,-0.003880165901593864,0.018378025798872114
1782987175185327900,4.339327880859375,0.07353694537580013,-0.02280713082011789,0.017235796961188314
1782987175195402000,4.349402099609375,0.07306172907948494,-0.010410115659609436,-0.00481061515212059
1782987175205477000,4.35947705078125,0.06077390991449356,-0.013316833419166504,0.031384368496760726
1782987175215551000,4.369551025390625,0.0483545733243227,0.00018894670084118842,0.020779680113121864
1782987175225626000,4.379626220703125,0.05793079544305801,0.012018719900026916,-0.010280497930571435
1782987175235700000,4.389699951171875,0.07753975127637386,-0.004885945410653948,-0.007944675394147635
1782987175245775000,4.399775146484375,0.08203238652050494,-0.025748919893056152,0.025594533048942682
1782987175255849000,4.409848876953125,0.08006020966470241,-0.01722414305601269,0.029895006721839305
1782987175265924000,4.419924072265625,0.08664777136147021,-0.006817680658213794,0.04217946488596499
1782987175275998000,4.429998046875,0.047750177690386766,0.01823426994662732,0.0008383505202829838
1782987175286073000,4.440072998046875,0.043128363108634944,0.002885200047492981,0.008194777697697282
1782987175296147200,4.450147216796875,0.07602233245074748,-0.0209851395573467,0.019479118908569217
1782987175306222000,4.46022216796875,0.09109598294198512,0.0037951910318806763,0.011242036439105868
1782987175316296200,4.470296142578125,0.06699263829886913,0.0005022869663313031,0.03245966957807541
1782987175326370000,4.4803701171875,0.054742813056707376,-0.002983582388050854,-0.0010492898572236299
1782987175336445200,4.490445068359375,0.0522235237121582,-0.020143208840489386,-0.014184958023205399
1782987175346519000,4.50051904296875,0.06838906109333039,-0.010539368062466383,-0.0031414398308843372
1782987175356594200,4.51059423828125,0.068994041249156,-0.0044525224294513464,0.024239026786759495
1782987175366668000,4.52066796875,0.07033785707354545,-0.007510266032256185,0.007171206803619861
1782987175376743200,4.5307431640625,0.06748539025187492,-0.007115384963154793,0.017556918674334884
1782987175386817000,4.540817138671875,0.04683656997680664,-0.015582513328827917,-0.016329276575520635
1782987175396892200,4.55089208984375,0.03803133223056793,-0.0008185863738879561,0.00046710605509579176
1782987175406966000,4.560966064453125,0.06674363197386264,-0.01826769729219377,0.0026839053217321634
1782987175417041200,4.571041259765625,0.08631576292812823,-0.023981544894352554,0.02098221694789827
1782987175427115000,4.581114990234375,0.08435995268523692,-0.014807619966194032,0.004203735300153493
1782987175437190100,4.591190185546875,0.050825931873917575,-0.0036906712114810943,0.017548443106934427
1782987175447264000,4.601263916015625,0.05424538492858409,0.008163651907071471,0.017902371111139653
1782987175457339100,4.611339111328125,0.05634323399066925,0.0017565613437443971,0.0027760405845940112
1782987175467413000,4.6214130859375,0.06875789440572261,0.010880253922007978,0.011150924089550972
1782987175477487000,4.631487060546875,0.08115385012030601,-0.008538513101451099,0.02487074881903827
1782987175487562000,4.64156201171875,0.08248188385367393,-0.016251389033719896,0.024049787824973464
1782987175497636000,4.651635986328125,0.06811141319572925,-0.01664707382041961,0.013061945342645048
1782987175507711000,4.6617109375,0.03207856130599975,0.0124898080104962,0.00604454086124897
1782987175517785000,4.67178515625,0.04525076209008693,0.0018596929246559738,0.009500599599257111
1782987175527860200,4.681860107421875,0.08639467338323592,-0.0071200246056541796,0.001839563452079892
1782987175537934000,4.69193408203125,0.0953887116998434,0.010862170276045798,0.007624649659544229
1782987175548009200,4.70200927734375,0.06741758571267127,-0.00015442337673157453,0.004051759608834982
1782987175558083000,4.7120830078125,0.04768588028252124,0.0007539236398413777,0.0207704738933593
1782987175568158200,4.722158203125,0.06713818424940109,-0.00585990500934422,0.0013004150740802288
1782987175578232000,4.732232177734375,0.06399871717989444,-0.004266863664239645,0.0034266134478151797
1782987175588307200,4.74230712890625,0.053691258177161215,0.012679339233227073,-0.003965688760578632
1782987175598381000,4.752381103515625,0.06192717160284519,-0.01471632495354861,0.009682897363603114
1782987175608455000,4.762454833984375,0.07091185756921768,-0.014424100541323422,0.012907120107114315
1782987175618530000,4.772530029296875,0.07374386612474917,-0.010774565057829021,0.012154694304615259
1782987175628604000,4.78260400390625,0.09424129523038864,-0.015481719835475086,0.02824307479634881
1782987175638679000,4.792678955078125,0.08930968404710292,0.0003424202295020222,0.014330284778028725
1782987175648753200,4.802753173828125,0.06163315709233284,0.0013671601673588157,0.007913184277340769
1782987175658828000,4.812828125,0.034866146197915074,-0.006757073044776916,0.01004201299957931
1782987175668902100,4.822902099609375,0.043678398206830026,-0.0023068156376481056,-0.01196567453853786
1782987175678977000,4.83297705078125,0.07450140649378299,-0.007765117576159536,0.0074059654075652355
1782987175689051100,4.843051025390625,0.07704290767014026,-0.017681385304220018,0.03882796250097453
1782987175699126000,4.8531259765625,0.07134966446459293,-0.01934493460226804,-0.008098916107788682
1782987175709200100,4.8632001953125,0.07612696186900138,0.003164053521491587,0.010364815213158726
1782987175719275000,4.87327490234375,0.047533904591202734,-0.010777560732513666,0.03300853563249111
1782987175729349000,4.88334912109375,0.04257832801043987,-0.00001866816785186529,0.012309081148728727
1782987175739424000,4.893424072265625,0.06174830790460109,0.0026789368856698272,-0.00011602759510278701
1782987175749498000,4.903498046875,0.06638415101170539,0.006204078804515302,0.02097286459766328
1782987175759572000,4.913572021484375,0.0716208826214075,0.0021933453258126973,0.014111600526049732
1782987175769647000,4.923647216796875,0.07370937933325768,-0.02332742836717516,0.026335122283175586
1782987175779721000,4.933720947265625,0.08939151711165905,-0.012968969829566777,0.0006722732383757829
1782987175789796000,4.943796142578125,0.07172668108344078,-0.004405030025914311,-0.00830298731252551
1782987175799870000,4.953869873046875,0.040026889961957926,-0.0017928382335230706,-0.0074448361132293936
1782987175809945000,4.963945068359375,0.055881461697816846,-0.007347695881687104,0.024093261640518903
1782987175820019000,4.97401904296875,0.0838251151561737,-0.010732844807952642,0.03265036984458566
1782987175830094000,4.984093994140625,0.0791758280456066,0.0020803499380126593,0.022241569359228015
1782987175840168000,4.99416796875,0.045644145321846005,-0.012751710349693893,0.010142916090786457
1782987175850243000,5.0042431640625,0.06568973900675773,-0.023605660786665976,0.000426554848998785
1782987175860317000,5.01431689453125,0.06714987468719483,-0.01711154952701181,0.012906316389515995
1782987175870392000,5.02439208984375,0.07312544196546077,-0.010114530246518552,0.012832885827124118
1782987175880466000,5.0344658203125,0.07594985173642635,-0.017278320928663014,0.012488017912209033
1782987175890541000,5.044541015625,0.07338730777204036,-0.005096738617122173,0.011117679407075047
1782987175900615000,5.054614990234375,0.06501695431172848,-0.01703808243200183,0.018732465259730813
1782987175910689000,5.06468896484375,0.07833703913390636,-0.0025689371725544333,0.0049185325060039755
1782987175920764000,5.074763916015625,0.0735386989414692,-0.0026841975826770066,0.009881927067041397
1782987175930838000,5.084838134765625,0.08446808923482894,-0.021153737589903174,0.017209274280443786
1782987175940913000,5.094912841796875,0.06816285112202167,-0.014327069907635449,0.013470964534953236
1782987175950987000,5.104987060546875,0.07220540451109408,-0.005052241888269781,0.01569777373895049
1782987175961062000,5.115061767578125,0.07817103491723537,0.0035582404708489773,0.018990531674027443
1782987175971136000,5.125135986328125,0.054390346357226366,-0.012925057622604071,0.004347308489307761
1782987175981211000,5.1352109375,0.04437690186500549,-0.00876110634356737,0.00032236382216215134
1782987175991285000,5.145284912109375,0.05527998867332935,0.009832388836890459,0.0034456104092299936
1782987176001360000,5.15535986328125,0.0763484956651926,-0.012203355751931667,0.011554828715324402
1782987176011434000,5.16543408203125,0.06481412521600723,-0.011150558763369917,-0.001580254928767681
1782987176021508900,5.1755087890625,0.05909633209109306,-0.011488412415608763,-0.0009917144510895013
1782987176031583000,5.1855830078125,0.0632686493396759,-0.021565752456896004,0.023390447133406995
1782987176041658000,5.195658203125,0.07163491114675999,-0.0017820245785638688,0.020307605621963737
1782987176051732000,5.20573193359375,0.07776070055067538,0.006827909791283309,0.01032974389977753
1782987176061806000,5.21580615234375,0.06324293037652969,0.014906550296023488,0.018889774713292718
1782987176071881000,5.225880859375,0.05993687456846237,-0.018474398845434187,0.008002104669809341
1782987176081955000,5.235955078125,0.08372574643492699,-0.008759498908370732,0.001148366317525506
1782987176092030000,5.246030029296875,0.0820867470562458,0.01224657383915037,-0.013941358525678514
1782987176102104000,5.25610400390625,0.07310556822121143,0.01038198554366827,0.005141600672155618
1782987176112179000,5.266178955078125,0.06413549530208111,0.0075048226721584795,0.011564619456976651
1782987176122253000,5.276253173828125,0.05471884765923023,-0.011054587575607,0.01654796082749963
1782987176132328000,5.286327880859375,0.06937339595556259,-0.02175758523456752,0.02910685201883316
1782987176142402000,5.296402099609375,0.07085048277080058,0.002781447412073612,0.0020034487769007682
1782987176152477000,5.306476806640625,0.06080138244330883,0.012450279717706143,0.0036350685667246576
1782987176162551000,5.316551025390625,0.052719198274612425,0.00796071321349591,0.005240165675804018
1782987176172625200,5.326625244140625,0.049288054782152174,0.0028161168666556474,-0.012521627920866012
1782987176182700000,5.336699951171875,0.04525836087465286,-0.0020717282401397823,0.005515913877263665
1782987176192774100,5.346774169921875,0.052475452646613116,-0.001376695180684328,0.00876709769293666
1782987176202849000,5.35684912109375,0.07734685905277729,-0.011063538067042827,-0.006093275373801589
1782987176212923100,5.366923095703125,0.07933072634637356,-0.006031389118731021,0.028933175952360033
1782987176222998000,5.376998046875,0.07682721909284591,-0.004138524576835334,0.020249664889648557
1782987176233072000,5.387072021484375,0.07310030752420425,-0.0072929700197651975,0.03390358477607369
1782987176243146000,5.39714599609375,0.052906829801201816,-0.010281922702677547,0.013126973402872682
1782987176253221000,5.40722119140625,0.056684010252356525,-0.015790822317264974,0.016412059488147498
1782987176263295000,5.417294921875,0.051042789494991296,-0.0009494096793234348,0.011589973093941807
1782987176273370000,5.4273701171875,0.07053484095036983,-0.0025735037498176095,0.020677315717190503
1782987176283444200,5.4374443359375,0.0762608173817396,-0.01858122022077441,0.02610102126635611
1782987176293518800,5.447518798828125,0.10025719451904297,-0.008124781201407312,0.005573489283397793
1782987176303592700,5.4575927734375,0.08308335687816143,-0.0036995851702988146,0.001575286492705345
1782987176313667800,5.467667724609375,0.06380757852196693,-0.0152191964417696,0.02049509101808071
1782987176323741700,5.47774169921875,0.07999941938817501,-0.027720621824823318,0.03238207429721951
1782987176333816800,5.48781689453125,0.06762976715862751,-0.020421185531653462,0.015830387142673135
1782987176343890700,5.497890625,0.07632569931149483,0.0018512173572555184,0.03253200416192412
1782987176353965800,5.5079658203125,0.07560089216828346,0.005459434449672698,0.025912366826459764
1782987176364039700,5.518039794921875,0.048238253468275066,-0.0024761443225666878,0.012774068311974406
1782987176374114800,5.52811474609375,0.049210897892713545,-0.018768851747363806,0.0026255992632359263
1782987176384188700,5.538188720703125,0.18364625634551046,-0.21395609094593673,0.18973733976222573
1782987176394262800,5.5482626953125,1.2552782937586306,-0.4767573517447337,0.5603156691908836
1782987176404337700,5.558337646484375,0.503568530574441,0.007056129056587815,-0.12282412337511778
1782987176414411800,5.568411865234375,-1.5399790324807165,0.3778848165171221,-0.2887470915034413
1782987176424487000,5.57848681640625,-1.126213522428274,0.45155594619922335,-0.5291280653752386
1782987176434560800,5.588560791015625,-0.07893851215839386,0.16152615794148295,-0.1286632778573781
1782987176444636000,5.598635986328125,0.48066696293652056,0.016805808046087622,0.2155789063747972
1782987176454709800,5.608709716796875,0.635189416128397,-0.11301613832712173,0.14052600347809494
1782987176464785000,5.618784912109375,0.2734656434804201,-0.2619802998047322,0.13033917518034577
1782987176474858800,5.628858642578125,0.19125965395867822,-0.22455727219823746,0.026907661474123594
1782987176484934000,5.638933837890625,0.07372457690238952,-0.033000388858653605,0.003959697411209344
1782987176495007700,5.6490078125,0.005101122531294822,0.019520291169174014,0.03601524316780269
1782987176505083000,5.659082763671875,0.13241466628015042,0.016313823278062044,0.05612045808546245
1782987176515156700,5.66915673828125,0.02421557284593582,0.0009026113955304026,0.08387889117002487
1782987176525230600,5.679230712890625,-0.061060910162329674,0.030649076492153107,-0.022312004246935246
1782987176535305700,5.6893056640625,0.0011140987217426299,0.014349464402534066,-0.053897229078039524
1782987176545380900,5.699380859375,0.11642506998777388,-0.022577596380561588,0.0021060323685407637
1782987176555454700,5.709454833984375,0.18434417548179624,-0.040299386760406196,-0.00020224457383155822
1782987176565529900,5.71952978515625,0.09731529584825038,-0.008304631280340254,0.005570274413004517
1782987176575603700,5.729603759765625,0.05780336967110634,0.02330313417613506,0.021524214870110154
1782987176585678800,5.739678955078125,0.030066052439808845,0.023621808203868565,0.015902210269868374
1782987176595752700,5.749752685546875,-0.017211831563711165,0.015161840231344103,0.008447364219278096
1782987176605827800,5.759827880859375,0.03292261091470718,0.001838321343064308,0.020447817810252306
1782987176615901700,5.769901611328125,0.0686491733342409,-0.02335800616852939,0.019876666858792302
1782987176625976800,5.779976806640625,0.12067220603823661,-0.01952997231297195,0.030238705592975017
1782987176636050700,5.79005078125,0.12573767273426056,-0.01922375590801239,-0.004739961068704724
1782987176646125800,5.800125732421875,0.04569266063868999,0.02191365257911384,-0.014192629873007534
1782987176656199700,5.81019970703125,-0.006497545325756073,0.04027980527710169,-0.0199873606916517
1782987176666274800,5.82027490234375,0.005084755918383598,0.029712160968221723,-0.008326587383821606
1782987176676348700,5.8303486328125,0.042727965614199635,0.018106661511585114,-0.014464944008365272
1782987176686423800,5.840423828125,0.07571838106811046,0.012485058770142495,0.0013771335721015929
1782987176696497700,5.85049755859375,0.09641630118191241,-0.002943433040753007,0.019986922300234435
1782987176706571800,5.86057177734375,0.09810147778987884,-0.023823797049373388,0.02024484258405864
1782987176716646700,5.870646728515625,0.06597264760136604,-0.013879362672753632,0.012383023167774081
1782987176726720800,5.880720703125,0.07052665764391422,-0.005364851501397788,0.018948884489387273
1782987176736795600,5.890795654296875,0.05756722282767295,-0.0068575742771849035,0.01547222135476768
1782987176746869800,5.900869873046875,0.04608662839233875,0.017673603856563566,0.027716932030394673
1782987176756944600,5.910944580078125,0.04105740205347538,0.015501155188307166,-0.003365457845106721
1782987176767018800,5.921018798828125,0.06915010859370231,-0.028843671038001773,-0.016479425635933874
1782987176777093600,5.93109375,0.08104454452693462,0.0021431129759177563,0.027343787869065998
1782987176787167700,5.941167724609375,0.08586743463873862,-0.045569874509237704,0.01857932052463293
1782987176797242600,5.95124267578125,0.062114803129434584,-0.02191580800358206,0.026813480384647845
1782987176807316700,5.961316650390625,0.08133446738421916,-0.014085077845305204,0.0243389800298959
1782987176817391900,5.971391845703125,0.08330839780569076,-0.027138657218404114,0.03385346202403307
1782987176827465700,5.9814658203125,0.06716039608120918,-0.014766593836061655,0.03273950943276286
1782987176837540900,5.991540771484375,0.09544657936692237,-0.023808928273804486,0.0363400181427598
1782987176847614700,6.00161474609375,0.09188450297117233,-0.02556519735660404,0.012072788174822926
1782987176857688600,6.0116884765625,0.04463876767158508,-0.005166771646030247,-0.006603928309679031
1782987176867763700,6.021763671875,0.04993921216726303,-0.01343129011169076,-0.03250160902366042
1782987176877837600,6.031837646484375,0.029520108994841573,-0.018020115739293397,-0.00804550542011857
1782987176887912700,6.04191259765625,0.03810498198866844,-0.03446103599574417,0.01021430082656443
1782987176897986600,6.051986572265625,0.0666805036097765,-0.04577997359596193,0.02920819350145757
1782987176908061700,6.062061767578125,0.09301905995905399,-0.03966678794529289,0.025103315465897322
1782987176918135600,6.072135498046875,0.09378653720021247,-0.01845247927457094,0.013218670274317263
1782987176928210700,6.082210693359375,0.08268880460262298,-0.022992935715802014,0.026446035311743617
1782987176938284800,6.092284912109375,0.07832359513044357,-0.0060451984483748675,0.02663103648982942
1782987176948359700,6.102359619140625,0.06619184330999851,-0.007549355933628976,0.04065430114530027
1782987176958433800,6.112433837890625,0.05689443813264369,-0.01664236111268401,0.023874431258067486
1782987176968508700,6.1225087890625,0.06751052469313144,0.011609262316301465,0.01585135686546564
1782987176978582800,6.132582763671875,0.059575055518746374,-0.007183372165448963,0.01279744918756187
1782987176988656600,6.14265673828125,0.07064590010941028,-0.023831688094884156,0.004355710991472006
1782987176998731800,6.152731689453125,0.08782675201296807,-0.03399042280931026,0.03725589087866246
1782987177008805600,6.1628056640625,0.10020049589574337,-0.016230675039254128,0.026073329541832207
1782987177018880800,6.172880859375,0.06636603083312512,-0.012915011152625083,0.014783654568716883
1782987177028954600,6.18295458984375,0.054392684444785115,0.03128415952529758,-0.016370120042562483
1782987177039029800,6.19302978515625,0.03494681021869182,0.034867132578603924,-0.01096709195524454
1782987177049103600,6.203103515625,0.05827215622663497,0.01122450078241527,0.0018365677773952483
1782987177059178800,6.2131787109375,0.08774784155786038,-0.024614180242083967,0.029745880574733017
1782987177069252600,6.223252685546875,0.10538052888214587,-0.028334114080667494,0.03822700093314051
1782987177079327700,6.23332763671875,0.07421089911460876,-0.018447291642799974,0.02976012829579413
1782987177089401600,6.243401611328125,0.06760580176115036,0.008023257055692375,0.012659867347776889
1782987177099476700,6.253476806640625,0.05562018041312694,-0.0050856692338362335,-0.0020664310105144978
1782987177109550600,6.263550537109375,0.03839022867083549,0.008665719677694141,-0.0006070259824395179
1782987177119625700,6.273625732421875,0.05977671557068824,-0.010366897572390734,0.008230652728676796
1782987177129699600,6.283699462890625,0.060824178797006606,-0.01959693660195917,0.008107026349008083
1782987177139774000,6.29377392578125,0.06351531757712364,-0.02400576602015644,-0.00014174655824899672
1782987177149848600,6.3038486328125,0.062006082057952876,-0.040075039952620864,0.008928644930198787
1782987177159923000,6.3139228515625,0.06527063681185245,-0.026228410505689678,0.021577698623016475
1782987177169997600,6.32399755859375,0.08454699968993663,-0.01893522129021585,-0.005957227903977036
1782987177180072000,6.334072021484375,0.07060907523036003,-0.0186756570385769,0.01802358633801341
1782987177190146600,6.344146484375,0.04841419455707073,-0.012219758897460997,0.012046630820259452
1782987177200221000,6.354220947265625,0.051093058377504344,-0.012208835644647479,-0.008839286146312951
1782987177210295600,6.364295654296875,0.06349135217964649,-0.0036355800233781334,0.014950535568222402
1782987177220370000,6.374369873046875,0.07395838565826415,-0.005624415753036737,0.010303951871395111
1782987177230444500,6.384444580078125,0.07048691015541553,0.0019750629326328634,0.022842677057534455
1782987177240519000,6.394518798828125,0.07196224340498447,-0.0013487477278336883,0.023332944792509077
1782987177250593500,6.404593505859375,0.08016250099539757,-0.011689999402314424,0.0072149728801101445
1782987177260668000,6.41466796875,0.07354220607280731,-0.003195836899243295,0.011499079940095544
1782987177270742500,6.424742431640625,0.06975859588086605,0.006137808635272086,0.011677724442631005
1782987177280817000,6.43481689453125,0.053265141719579696,-0.0018706527100875972,0.01905059129819274
1782987177290890800,6.444890869140625,0.053824529168009755,-0.012504274927265942,0.002939122191816568
1782987177300965600,6.454965576171875,0.055445408368110655,0.0021518077390268444,0.005332739330083131
1782987177311039500,6.46503955078125,0.05586451056301593,0.010808430794812739,-0.01057911555096507
1782987177321114600,6.475114501953125,0.06706745710074902,0.00696866996884346,-0.006347323200106621
1782987177331188500,6.4851884765625,0.051657706522941584,0.0026861338114365935,-0.015711729199066757
1782987177341263600,6.495263671875,0.05899170267283916,0.004539104734361171,-0.010099661470949648
1782987177351337500,6.50533740234375,0.04673661673367023,0.011849208552017806,0.0047631958138197655
1782987177361412600,6.51541259765625,0.0428512997329235,-0.001995082807354629,-0.00829772661551833
1782987177371486500,6.525486572265625,0.053821022036671634,0.015316701999492942,0.003940262058377266
1782987177381561600,6.5355615234375,0.06045300739705562,0.006834120336361229,0.013370353704690932
1782987177391635500,6.545635498046875,0.07617956883907318,-0.018429829051345586,0.009264745016768574
1782987177401710600,6.555710693359375,0.07319850720167159,-0.020718049586378035,0.017202333083003757
1782987177411784400,6.565784423828125,0.06767652890980243,-0.006795761087350547,0.0020961685616523026
1782987177421859600,6.575859619140625,0.05410509967505932,0.0021502368364483115,0.008454305416718124
1782987177431933400,6.585933349609375,0.052936055895686146,-0.007514576881192624,0.013301891578361391
1782987177442007600,6.596007568359375,0.07718611553311347,-0.018232589446194467,0.008161533015221357
1782987177452082400,6.60608251953125,0.056985039025545116,-0.017692893078923223,0.018541691927984355
1782987177462156500,6.616156494140625,0.042647301593422886,-0.012470263059809803,0.015209771026298403
1782987177472231400,6.6262314453125,0.05582943924963474,-0.023323957768455146,0.0019493805021047592
1782987177482305500,6.636305419921875,0.06869476604163646,-0.02127440482750535,0.009494242923706769
1782987177492380700,6.646380615234375,0.06825462105870246,-0.02339676727633923,-0.00222198689840734
1782987177502454500,6.65645458984375,0.0868225434064865,-0.017230718927271665,0.003417699488997459
1782987177512529700,6.66652978515625,0.07771043166816234,-0.017295089400373397,0.02791113942824304
1782987177522603500,6.676603515625,0.07770166383981704,-0.009009162820503114,0.020903379558026788
1782987177532678700,6.6866787109375,0.09013152182400226,-0.00539740206412971,0.005555953626707196
1782987177542752500,6.69675244140625,0.08115794177353382,-0.011684008052945137,-0.0019710808772593737
1782987177552827600,6.70682763671875,0.06440495989322662,0.00038863399140536784,0.012003230069950223
1782987177562901500,6.716901611328125,0.0671200640708208,-0.02395524140931666,0.016457067673653365
1782987177572975400,6.726975341796875,0.06115677175223827,-0.018583412177860737,0.013235840604826807
1782987177583050500,6.737050537109375,0.06895312471687794,-0.016589133088104425,0.017510595314577222
1782987177593124400,6.747124267578125,0.050849897271394724,-0.0046055210340768095,0.011264978923276067
1782987177603199500,6.757199462890625,0.05534136347174644,-0.021891879138723015,0.005412599633261561
1782987177613273600,6.767273681640625,0.08464753745496273,-0.03207136438023299,0.02754194078966975
1782987177623348500,6.777348388671875,0.09061024525165558,-0.016108181170746683,0.028696371521800754
1782987177633422600,6.787422607421875,0.07801438305079937,-0.005985029226355254,0.01580970968082547
1782987177643497500,6.79749755859375,0.05524550188183784,-0.02215290469508618,0.0006000117197632789
1782987177653571600,6.807571533203125,0.03038812400102615,-0.028944281868264077,0.008723477746918796
1782987177663646500,6.817646484375,0.07376315534710884,-0.010796046237275004,0.011156477047502994
1782987177673720600,6.827720458984375,0.07613163804411888,-0.008782112598977982,0.007374035899341106
1782987177683795500,6.83779541015625,0.07326163556575775,-0.014625468332320452,0.023466727240011094
1782987177693869600,6.84786962890625,0.08640402573347092,-0.014322466797754167,0.01524761881865561
1782987177703944400,6.8579443359375,0.06481003356277942,0.00582311666291207,0.015035072046518326
1782987177714018600,6.8680185546875,0.05894552544355392,0.0032163316980004307,0.005666866655275225
1782987177724092400,6.878092529296875,0.0598310761064291,0.008963679710961878,0.0021437340304255484
1782987177734167600,6.88816748046875,0.05100713365972042,0.004461692116595805,0.01764905393719673
1782987177744241400,6.898241455078125,0.07596388026177883,-0.00278082635756582,0.034096038608253
1782987177754316500,6.908316650390625,0.08892448412179946,-0.009072546912916004,0.033134427034482355
1782987177764390400,6.918390380859375,0.07962649442255497,-0.014297734215296804,-0.009639569678530097
1782987177774465500,6.928465576171875,0.0532955368578434,-0.0018857406813651322,0.013552797599509357
1782987177784539400,6.938539306640625,0.05415653760135174,0.006800985251739621,0.02047309838198125
1782987177794614500,6.948614501953125,0.07671732897758483,0.0005645020149648189,0.007131897706538439
1782987177804688400,6.9586884765625,0.06207447111904621,0.021510843931883572,-0.013285086574032903
1782987177814763500,6.968763427734375,0.06973872213661671,0.00763491532523185,-0.005614186619967222
1782987177824837400,6.97883740234375,0.05165361486971378,-0.0019484671866521238,0.0008519406542181968
1782987177834912500,6.98891259765625,0.06738660605251788,-0.0012623846186324953,0.04687434470392764
1782987177844986400,6.998986328125,0.06874912657737732,-0.0280350946014747,0.023122078520804643
1782987177855061500,7.0090615234375,0.06756605427265167,-0.02519289344549179,0.026518004569411276
1782987177865135400,7.01913525390625,0.06799976951479911,-0.028356581640802323,0.027044147335365414
1782987177875209500,7.02920947265625,0.07336275785267353,-0.02089223710950464,0.02741919119283557
1782987177885284400,7.039284423828125,0.0484983657091856,-0.017746851755864917,0.016646525831148028
1782987177895358500,7.0493583984375,0.060283496049046516,-0.02303458290044218,0.016673048511892555
1782987177905433300,7.059433349609375,0.06069149232804775,-0.006702529845945536,0.022443083280697464
1782987177915507500,7.069507568359375,0.06889934870302676,-0.010887341249920426,0.017781667340919374
1782987177925582300,7.079582275390625,0.07367723062932491,-0.007617452733777463,0.024611001904308795
1782987177935656400,7.089656494140625,0.07919745535552501,0.005421586657315492,0.014664996625110506
1782987177945731300,7.0997314453125,0.08546002288162707,-0.021757146843150256,0.016768544775620103
1782987177955805400,7.109805419921875,0.07647592143714428,-0.017571933580376207,0.02385601881854236
1782987177965880300,7.11988037109375,0.07136544655561447,0.001276376611366868,0.014108531786128878
1782987177975954400,7.129954345703125,0.0635644174158573,0.001507628083974123,0.025185294660925863
1782987177986029600,7.140029541015625,0.04381400728523731,0.0025741978695616122,0.00917114844918251
1782987177996103400,7.150103515625,0.07450140649378299,0.0031699352730065584,0.019169979894161224
1782987178006178600,7.160178466796875,0.08796236109137534,0.008378829027712345,0.007244272039830684
1782987178016252400,7.17025244140625,0.09154723384082317,-0.005232859152182937,0.016527356430888176
1782987178026326500,7.180326416015625,0.06911445275843144,0.020544994574412702,0.014372589549794793
1782987178036401400,7.1904013671875,0.05640928496420383,0.006431384754367172,-0.007462956291809678
1782987178046475500,7.2004755859375,0.055980245897173875,0.012649382486380636,-0.02651581261232495
1782987178056550400,7.21055029296875,0.04180325198471546,0.00856978502254933,-0.007526742243021726
1782987178066624500,7.22062451171875,0.029125556719303128,0.004327690473385155,-0.0028461101461201904
1782987178076699400,7.230699462890625,0.04219020547568798,-0.01417403477039188,-0.002817322443053126
1782987178086773500,7.2407734375,0.0604845715790987,-0.03901321940738708,-0.00992839655727148
1782987178096848400,7.250848388671875,0.08294307162463664,-0.032540625859797,0.01794810994900763
1782987178106922500,7.260922607421875,0.09326806628406047,-0.03419898752607405,0.0355960679076612
1782987178116997400,7.270997314453125,0.12686930711269379,-0.04072882768623531,0.04359123138003051
1782987178127071700,7.28107177734375,0.12337503525614738,-0.034660102231800556,0.02491509941741824
1782987178137146400,7.291146484375,0.052096682462096214,-0.012466902058944105,0.0040139848817139865
1782987178147220700,7.301220703125,0.02350362518429756,0.001090937041863799,-0.0007865472678095102
1782987178157294600,7.311294677734375,0.022023615759611127,0.018262619258277116,-0.02072159325033426
1782987178167369700,7.32136962890625,0.05660100814402103,0.009055120854079723,0.0088409666467458
1782987178177443600,7.331443603515625,0.08008943575918674,-0.0031472485171630976,0.008387450725585222
1782987178187518700,7.341518798828125,0.09609773675203323,-0.02348060963489115,0.02264328202791512
1782987178197592600,7.351592529296875,0.091894439843297,-0.025950543412379918,0.027757410171255468
1782987178207667700,7.361667724609375,0.061659460577368735,-0.02222783309482038,0.038302258126437665
1782987178217741600,7.371741455078125,0.06880114902555942,-0.00029901947919279333,0.008943769434094428
1782987178227816700,7.381816650390625,0.07699614591896534,-0.007550707640498876,0.008856383411586285
1782987178237890600,7.391890625,0.06155366211533546,0.007384959152154624,0.0006567103430628776
1782987178247965700,7.401965576171875,0.06137596746087074,0.017639153597690162,-0.001595160236954689
1782987178258039600,7.41203955078125,0.05986790098547935,0.0006579159194603562,-0.0018240736220031975
1782987178268114700,7.42211474609375,0.04668050263226032,-0.006529949758015572,0.01637348104342818
1782987178278188500,7.4321884765625,0.08708557825684547,0.003687712069414556,-0.002180778105184436
1782987178288263700,7.442263671875,0.06900222455561161,0.004123217409849167,-0.008305398465320468
1782987178298338000,7.452338134765625,0.07035071655511856,0.004771671381220221,-0.0071921765264123675
1782987178308412200,7.462412109375,0.04849602762162685,-0.002765226929634809,0.015744316294416784
1782987178318487000,7.472487060546875,0.06375438703000545,-0.009231829127855598,0.01598009781166911
1782987178328561200,7.48256103515625,0.07048574111163616,0.0011053308933973312,-0.004581701767072082
1782987178338636000,7.492635986328125,0.08033785756230354,-0.014819529599696396,0.006687514939904213
1782987178348710100,7.502710205078125,0.08019815683066844,-0.01958608641438186,0.0018128946408629417
1782987178358785300,7.512785400390625,0.07091653374433517,-0.008916662231460213,0.02214256596416235
1782987178368859100,7.522859130859375,0.06820727478563784,-0.0021326646471396087,0.009816241419687866
1782987178378934300,7.532934326171875,0.06714929016530513,0.001459258897602558,-0.005190773576125502
1782987178389008100,7.543008056640625,0.056091305056214326,-0.012181143920123576,0.01703041058219969
1782987178399083300,7.553083251953125,0.05417056612670421,-0.008129201648198067,0.013689137330278753
1782987178409157000,7.5631572265625,0.05507715957760811,-0.018588197950832545,-0.005895633909851312
1782987178419232300,7.573232177734375,0.06602174744009971,-0.014047339650802314,0.011579743960872291
1782987178429306000,7.58330615234375,0.06902326734364032,-0.015273520444892346,-0.00961947673857212
1782987178439381200,7.59338134765625,0.0721744248509407,-0.013231748951599,0.01525302564613521
1782987178449455000,7.603455078125,0.0820692113995552,-0.025170097091794012,0.01029854504391551
1782987178459529200,7.613529296875,0.07516834596991538,-0.016003953611291945,0.017583879746496677
1782987178469604000,7.62360400390625,0.07635667897164822,-0.0052139352560043335,0.017235723895952106
1782987178479678200,7.63367822265625,0.08055003900825977,-0.007049662783183157,0.015771934953704474
1782987178489753300,7.64375341796875,0.052420507588982576,-0.010135828762874007,0.005994637304916978
1782987178499827200,7.6538271484375,0.07590542807281017,-0.01775430440995842,0.009975231373682617
1782987178509902300,7.66390234375,0.06632336073517799,-0.0014678440628573299,0.004565700480341911
1782987178519976200,7.67397607421875,0.04433072463572025,0.00027118162419646974,0.008923749559372663
1782987178530051300,7.68405126953125,0.04718728311061859,-0.01254099020846188,0.017002864988148212
1782987178540125200,7.694125244140625,0.0853068781465292,-0.01169584462121129,0.028116818068176508
1782987178550200300,7.704200439453125,0.09231938725709915,-0.009803345405496657,0.017360373188927768
1782987178560274200,7.714274169921875,0.03634323301315307,-0.00954790933970362,0.01011653954051435
1782987178570349300,7.724349365234375,0.07253273676931858,0.00476220943313092,0.0028840310037136076
1782987178580423200,7.734423095703125,0.0710153179436922,0.004005874640494585,0.004277750384435057
1782987178590498300,7.744498291015625,0.049750411596894265,0.005194426837936044,0.004136880609020591
1782987178600572200,7.754572265625,0.06757657566666603,-0.0017343860445544123,0.010594751511514186
1782987178610646300,7.764646240234375,0.060033320680260654,-0.04416647398471832,0.034582214689999814
1782987178620721200,7.77472119140625,0.17115619260668755,-0.04251735507082194,0.01767141189947724
1782987178630795300,7.784795166015625,0.0028057050704956054,-0.014204247245565056,-0.04413775934688747
1782987178640870100,7.7948701171875,0.22785949208140371,0.10287556032389401,0.006139671798795461
1782987178650944300,7.8049443359375,0.03869242648780346,-0.16103673045672476,0.28002266390845176
1782987178661019100,7.81501904296875,-0.3142570880740881,0.10688227521460503,-0.3066981240618974
1782987178671093200,7.82509326171875,0.08961597351729869,0.09497717175688594,-0.07994016348160803
1782987178681168100,7.835168212890625,0.3107780137866735,-0.05332790475748479,0.25246603700630366
1782987178691242200,7.8452421875,0.1967465609371662,-0.08755772581323981,0.07627440751567482
1782987178701317000,7.855317138671875,-0.1869429598033428,0.03997322354596108,-0.13309315006360412
1782987178711391200,7.86539111328125,-0.10280804804563522,0.06597549714557827,-0.04359817257747054
1782987178721466000,7.875466064453125,0.2555406952112913,-0.03965301514826715,0.1349711458299309
1782987178731540200,7.885540283203125,0.2027987005829811,-0.06127532009799033,0.049464434262365096
1782987178741614000,7.895614013671875,-0.042835517641901966,0.04321724696848541,-0.07699241959191859
1782987178751689200,7.905689208984375,-0.07526946825683116,0.04466934547293931,-0.018688333857059477
1782987178761763000,7.91576318359375,0.09808686474263667,-0.027330453463457523,0.0443155270665884
1782987178771838200,7.925838134765625,0.11023030700087547,-0.05138634223565459,0.021391747596859932
1782987178781912000,7.935912109375,0.05036123697161674,-0.013809731502644716,-0.005920622220635414
1782987178791987200,7.9459873046875,0.08398118250072002,0.0006890417100861668,0.035578166924789545
1782987178802061000,7.95606103515625,0.10645955629050731,-0.04258183514177799,0.044424175072833895
1782987178812136200,7.96613623046875,0.07853928370773791,-0.021848880247212946,-0.003029723084717989
1782987178822210000,7.9762099609375,0.018607085314393042,0.0017380758389830588,-0.02076148686930537
1782987178832285200,7.98628515625,0.06088146194219589,-0.007157689734920859,0.02620864635929465
1782987178842359000,7.996359130859375,0.10030746340155601,-0.02461692018844187,0.01885572631321847
1782987178852434200,8.00643408203125,0.05991583178043365,-0.00034654841534793374,-0.021540654548257588
1782987178862508000,8.016508056640625,0.03557926290333271,0.032485425073839724,-0.02828494117669761
1782987178872583200,8.026583251953125,0.035603812822699546,0.026532508018799125,0.008246873211115599
1782987178882657000,8.036656982421874,0.06492576889693737,-0.02628573018349707,0.014807619966194032
1782987178892731100,8.046731201171875,0.08785422454178332,-0.014112733037211,0.0036756197728216645
1782987178902806000,8.056805908203126,0.05807867948114872,-0.02439074674975127,0.015594094168767333
1782987178912880000,8.066880126953125,0.06987140860557556,-0.029455373195558784,0.025824761608242985
1782987178922955000,8.076955078125,0.05654430952072143,-0.005217588517814875,0.00008329436928033829
1782987178933029000,8.087029052734374,0.048180385801196095,-0.007365268070995807,0.014714607920497655
1782987178943104000,8.09710400390625,0.06628887394368649,-0.008334880288131535,0.013689356525987385
1782987178953178000,8.10717822265625,0.07434709271490574,-0.009228285463899373,0.018309636737778783
1782987178963253000,8.1172529296875,0.0629547610849142,-0.013040792956762016,0.003648731765896082
1782987178973327000,8.1273271484375,0.07356675599217415,0.0007980185098946094,0.015184271258860826
1782987178983402000,8.137402099609375,0.06382979035377502,-0.007457257203385233,0.005486395521834492
1782987178993476000,8.14747607421875,0.04886252284646034,-0.00697225016541779,-0.0043352527253329755
1782987179003551200,8.15755126953125,0.04317921651303768,-0.016046623709239066,0.014135785119235515
1782987179013625000,8.167625,0.055445408368110655,-0.01083612251933664,0.036904447092488406
1782987179023700200,8.1777001953125,0.09267945274114608,-0.0029600188493728637,0.012041297058016062
1782987179033774000,8.187774169921875,0.06573708527982235,-0.017216069347411392,0.009244798207283019
1782987179043848000,8.197847900390625,0.04760638530552387,-0.004236431993357837,0.012216288298740982
1782987179053923000,8.207923095703125,0.07304127081334591,0.015074271545745432,0.004830050504952669
1782987179063997000,8.217996826171875,0.07709902177155017,0.0016461597718298434,0.002438333062827587
1782987179074072000,8.228072021484374,0.05837210946977138,-0.01794946165587753,0.02076294817402959
1782987179084146000,8.23814599609375,0.0697603494465351,0.011746734558232127,-0.005084536722674966
1782987179094221000,8.248220947265626,0.05977905365824699,0.0118991121083498,0.0029559271961450573
1782987179104295000,8.258294921875,0.059359366941452024,-0.0023220862720161675,0.00883292947076261
1782987179114370000,8.2683701171875,0.0725362439006567,0.0017001549813896416,0.018103738902136682
1782987179124444200,8.278444091796874,0.06222118611335754,0.00926079949401319,0.01341448510736227
1782987179134519000,8.28851904296875,0.05117430692017078,0.006548617925867438,0.010696092994138599
1782987179144593200,8.29859326171875,0.07885141839683056,-0.009927592839673162,0.01499028305672109
1782987179154668000,8.30866796875,0.09338730874955653,-0.0025033976556733247,0.011246201157569885
1782987179164742100,8.3187421875,0.056304071024060244,-0.0000713116705417633,0.02860986228212714
1782987179174816300,8.328816162109375,0.06722703157663346,-0.01666333083547652,0.007882350747659802
1782987179184891100,8.33889111328125,0.054229602837562556,-0.013828472735732794,0.0036281273692846294
1782987179194965200,8.34896533203125,0.06086567985117435,0.0019497092956677078,0.005254559527337551
1782987179205040000,8.3590400390625,0.06209434486329555,-0.004721804357506335,0.013002981697022914
1782987179215114200,8.3691142578125,0.06497837586700916,0.016030987748689947,0.01371463709771633
1782987179225189000,8.379189208984375,0.05301788896024227,-0.016754516250267623,0.018928645418956874
1782987179235263200,8.38926318359375,0.07157412087023257,-0.010997012169472872,-0.005303220974653959
1782987179245338000,8.399338134765625,0.09181436034440994,0.00868197669275105,0.01973857356235385
1782987179255412200,8.409412109375,0.07793138094246387,-0.0015903379313647746,0.0251247966453433
1782987179265487000,8.419487060546874,0.04385843094885349,-0.004837612756900489,0.007602364762499928
1782987179275561200,8.429561279296875,0.07930500738322735,-0.009370506946183741,0.016577259987220167
1782987179285636000,8.439635986328126,0.08313479480445385,-0.013595979154109953,0.01999167154058814
1782987179295709700,8.449709716796875,0.05468260730206966,-0.023090916197560728,0.016120675326138735
1782987179305784600,8.45978466796875,0.060272974655032154,-0.012767857766896486,0.0072420070175081485
1782987179315858700,8.469858642578124,0.06404547893106936,-0.006036686348356306,-0.0022564006246626376
1782987179325932500,8.4799326171875,0.08666939867138862,-0.019136516015976667,0.010526362450420856
1782987179336007700,8.490007568359376,0.08924246402978897,-0.012170512928254901,-0.0004006166901439428
1782987179346081500,8.50008154296875,0.0796639038234949,-0.006188881235383451,-0.001579889602586627
1782987179356156700,8.51015673828125,0.05541150609850883,-0.006153956052474677,0.010972060391306876
1782987179366230500,8.52023046875,0.04597615375518799,-0.015104520553536713,-0.007334142280369996
1782987179376305700,8.5303056640625,0.07351940971910953,-0.003200184280797839,0.0006974076796323061
1782987179386379500,8.540379638671874,0.06185585993230343,-0.0064750777656212444,0.013196531507745385
1782987179396454700,8.55045458984375,0.06752338417470455,-0.007976422239281236,0.010536664648726582
1782987179406528500,8.560528564453126,0.07647299882769584,-0.0021492139231413603,0.010062763526663184
1782987179416603600,8.570603759765625,0.0565630142211914,-0.0174496954401955,0.01820398440621793
1782987179426677500,8.580677490234375,0.04625613974034786,-0.009408793129958211,0.013210633098334073
1782987179436752600,8.590752685546875,0.05161854355633259,0.0020395795362070203,0.012808116712048649
1782987179446826500,8.600826416015625,0.0719476303577423,-0.003119775988347828,0.019560659712180493
1782987179456901600,8.610901611328124,0.0651116468578577,-0.00851874895505607,0.019929346894100308
1782987179466975500,8.6209755859375,0.06313420930504798,-0.021596001464687285,0.007791676789522171
1782987179477049600,8.631049560546876,0.07067395716011524,0.0009848828515037894,-0.020193769983947275
1782987179487124500,8.64112451171875,0.056984454503655434,-0.006665887629985809,0.008691329042986034
1782987179497198600,8.651198486328125,0.052207157099246976,-0.001126629409752786,0.013074220302328467
1782987179507273500,8.6612734375,0.04811550387144088,0.002950118509866297,-0.004295505236834287
1782987179517347600,8.67134765625,0.057283729711174965,0.002635828396305442,0.007748933626338839
1782987179527422700,8.681422607421876,0.07536591436862945,-0.0074385159702971574,0.02740779301598668
1782987179537496600,8.69149658203125,0.059065352430939674,-0.023229301754944025,0.017390256870537996
1782987179547571700,8.70157177734375,0.06193827751874923,-0.00978197382390499,0.01612937008924782
1782987179557645600,8.7116455078125,0.07361001061201095,0.008074512318894266,0.018939459073916077
1782987179567720700,8.721720703125,0.08033435043096541,-0.011019077870808542,0.01425254336670041
1782987179577794600,8.731794677734374,0.07988134596645832,0.0034385230813175436,0.0036257162164896723
1782987179587869700,8.74186962890625,0.05998889701664448,-0.00012874094620347022,0.01836545857824385
1782987179597943600,8.751943603515626,0.06732464673221111,-0.008630319570749997,0.015659049163758754
1782987179608018700,8.762018798828125,0.0827232913941145,-0.01655365991592407,0.004781681318581104
1782987179618092500,8.772092529296875,0.08900397909879684,-0.01243756636660546,0.006871420139446854
1782987179628166400,8.78216650390625,0.06565875934660434,-0.004608882034942507,-0.012983400213718414
1782987179638241500,8.792241455078125,0.042611645758152,-0.0010367226365953683,0.010136486349999904
1782987179648315400,8.8023154296875,0.06043371817469596,-0.0008405424773693085,-0.01706672400459647
1782987179658390500,8.812390625,0.045320320194959636,0.013584398314170538,0.00804996239952743
1782987179668464600,8.822464599609376,0.06670563805103302,-0.0033032062638550996,0.01851378100775182
1782987179678539500,8.83253955078125,0.07987608526945114,-0.015227014422044157,0.0025095716681331395
1782987179688613600,8.842613525390625,0.06295709917247296,-0.0022060586769133807,0.003205518043041229
1782987179698688500,8.8526884765625,0.04949205292165279,0.003563281972147524,0.007065992863476276
1782987179708762600,8.8627626953125,0.06414075599908828,-0.007867226243764161,0.017899740762636063
1782987179718837500,8.87283740234375,0.06204699859023094,-0.017184907024167476,0.0020948533874005078
1782987179728911600,8.88291162109375,0.06578852320611477,0.0010266761666163802,0.0160704795088619
1782987179738986500,8.892986572265626,0.0839297445744276,0.0024923648050054906,0.01660319814607501
1782987179749060600,8.903060546875,0.06746960816085339,-0.00462510251738131,-0.0026619126856327053
1782987179759134500,8.913134521484375,0.060579264125227926,-0.003516593286208808,0.006632131490856409
1782987179769209600,8.923209716796874,0.060728317207098,-0.011713453343138098,0.01818140724822879
1782987179779283500,8.933283447265625,0.047097266739606854,-0.0059844081718474626,0.02334032438136637
1782987179789358600,8.943358642578126,0.07195522914230823,-0.001249379006586969,0.006161956695839762
1782987179799432400,8.953432373046875,0.06266133109629154,-0.0080814900489524,0.004619549559429287
1782987179809507600,8.963507568359375,0.07538754167854786,-0.010857932492345571,0.031134850715100762
1782987179819581400,8.97358154296875,0.08079436915814876,0.015229973564110695,-0.004553863912075758
1782987179829656600,8.983656494140625,0.052965866512060165,-0.003922068814560771,0.012165142633393406
1782987179839730400,8.99373046875,0.09051496818363666,0.003781381702236831,0.016107742779329418
1782987179849805600,9.0038056640625,0.07135258707404137,0.006417283163778483,-0.0031135289106518026
1782987179859879400,9.01387939453125,0.05433364773392677,0.018505086244642734,0.02688333075046539
1782987179869954600,9.02395458984375,0.06351356401145458,0.0023415946900844573,0.0071290481623262165
1782987179880028400,9.0340283203125,0.06623568245172501,-0.010047383294440805,0.007337284085527062
1782987179890103600,9.044103515625,0.047833179798722265,-0.0027509426759555933,0.02060856132991612
1782987179900177400,9.054177490234375,0.04346972389221191,0.003967186597920954,0.02455013856254518
1782987179910251500,9.06425146484375,0.0883387931883335,-0.02193648546542972,0.02424830607175827
1782987179920326400,9.074326416015625,0.0823041891992092,-0.021579927112720904,0.015699088913202285
1782987179930400500,9.084400390625,0.060732993382215494,-0.011826521796174346,0.004783434884250164
1782987179940475400,9.094475341796874,0.03340191886425018,0.009635587623156607,-0.005036678992956877
1782987179950549500,9.104549560546875,0.05121756154000759,-0.012572992781922221,0.0006187164202332496
1782987179960624400,9.114624267578124,0.07782850508987903,-0.010643230295740068,0.01946377520896494
1782987179970698500,9.124698486328125,0.07110474979281425,-0.013773893004283309,0.02964300472214818
1782987179980773400,9.1347734375,0.06857318548858166,-0.005471417148411274,0.0011335340745747089
1782987179990847500,9.144847412109375,0.06378887382149696,-0.0018175708159804344,0.00657813628129661
1782987180000922400,9.15492236328125,0.06515139434635639,-0.0037113852059468626,-0.006479498212412
1782987180010996500,9.16499658203125,0.061876318198442457,-0.00020388854164630173,-0.003068812986090779
1782987180021071400,9.1750712890625,0.06920037747621535,-0.002255633439682424,0.013649974363669753
1782987180031145500,9.1851455078125,0.07700316018164158,-0.011790865960903466,0.03120550479851663
1782987180041219600,9.195219482421875,0.06772679779231548,-0.0017380758389830588,0.02687083659507334
1782987180051294500,9.20529443359375,0.06621990036070347,-0.013058657407015561,0.017488529613241554
1782987180061368600,9.21536865234375,0.07534662514626979,-0.016870507312752307,-0.001995265470445156
1782987180071443500,9.225443359375,0.06606500205993653,0.012029277826659381,0.012215119254961609
1782987180081517600,9.235517578125,0.06051262862980365,0.00487104010246694,0.028096505932509896
1782987180091592400,9.245592529296875,0.07635375636219978,0.019868118226155636,0.016407310247793794
1782987180101666600,9.25566650390625,0.038217210191488264,0.012723982092551886,0.008232114033401012
1782987180111741400,9.265741455078125,0.06277823547422885,0.0018503771070390938,0.009349866016954183
1782987180121815600,9.275815673828125,0.06637655222713947,0.011570062817074359,0.010801453064754605
1782987180131890400,9.285890380859374,0.05456804101169109,0.003655417235009372,0.011223477869108319
1782987180141964500,9.295964599609375,0.062064534246921536,0.002951616347208619,0.011110226752981543
1782987180152039400,9.306039306640624,0.062384852242469785,-0.03617510990463197,0.013192878245934844
1782987180162113800,9.31611376953125,0.06894494141042232,-0.010210282238572836,0.01138246782310307
1782987180172187600,9.326187744140626,0.06713233903050422,-0.013000095620192586,-0.006675239980220795
1782987180182261500,9.336261474609374,0.05713350758552551,0.00877743642386049,-0.006646598407626152
1782987180192336600,9.346336669921875,0.07406944481730461,0.007479980491846799,0.03480469833426177
1782987180202410500,9.356410400390626,0.06436813501417636,-0.02081508022006601,0.01300181265324354
1782987180212485600,9.366485595703125,0.06591711802184581,-0.004127820519730449,-0.0031800913408398628
1782987180222559500,9.3765595703125,0.05987491524815559,0.004401632492430508,0.019279577748477456
1782987180232634600,9.386634521484375,0.07623802102804184,0.008672916603460907,0.01590900533683598
1782987180242708500,9.39670849609375,0.07787877397239208,-0.012932692939788102,0.02250862279757857
1782987180252783600,9.40678369140625,0.07329904496669769,-0.008009338128194212,0.01671162695661187
1782987180262857500,9.416857421875,0.06888356661200523,0.0038001594679430125,0.009818725637719034
1782987180272932600,9.4269326171875,0.06777122145593166,-0.0068661959750577805,0.00743212276212871
1782987180283006500,9.43700634765625,0.07760229511857032,-0.0006235021932050586,0.01766162115782499
1782987180293080600,9.44708056640625,0.08379588906168937,0.008377038929425179,0.009286372326686977
1782987180303155700,9.45715576171875,0.06598550708293914,-0.01895615448039025,0.005611556271463632
1782987180313229600,9.4672294921875,0.06400280883312225,-0.02974697655327618,0.02658924317471683
1782987180323304700,9.4773046875,0.0692640903621912,-0.020656199863925574,0.0016400953572243452
1782987180333378600,9.487378662109375,0.07810732203125953,-0.010012092785350977,0.008838336298242211
1782987180343453700,9.49745361328125,0.08783376627564429,-0.00040237025581300255,0.0251139829903841
1782987180353527600,9.507527587890625,0.057605216750502584,0.004930843998305499,0.023298969457671046
1782987180363602700,9.517602783203126,0.05510521662831306,0.010863996906951069,0.0025198738664388657
1782987180373676500,9.527676513671874,0.05095218860208988,0.0016488631855696438,0.0008447071958333253
1782987180383751700,9.537751708984375,0.0725140320688486,0.008400748598575591,-0.011611235077679156
1782987180393825500,9.547825439453124,0.07189853051900863,0.009670184012502431,0.01532747912183404
1782987180403900700,9.557900634765625,0.06870470291376113,-0.0003110021779313683,0.018912863327935337
1782987180413974500,9.567974609375,0.04838730655014515,0.013345803785324096,0.00657543286755681
1782987180424049700,9.578049560546875,0.04635375489592552,0.010463453282043338,0.006069383041560649
1782987180434123500,9.58812353515625,0.07765081043541432,-0.0006035553837195038,0.02523994745761156
1782987180444197600,9.59819775390625,0.08722878611981869,-0.006058204060420394,0.018391469802334904
1782987180454272800,9.608272705078125,0.05817220298349857,-0.008704480785503984,0.0208420047596097
1782987180464346600,9.6183466796875,0.06623275984227657,-0.012375205187499523,0.004591492508724332
1782987180474421800,9.628421875,0.05949672958552837,-0.023640366773866116,0.02523651339150965
1782987180484495600,9.63849560546875,0.07754442745149136,-0.002583586752414703,0.01791990676783025
1782987180494570800,9.64857080078125,0.07767711392045021,-0.007084039976820349,0.01702851088605821
1782987180504644600,9.65864453125,0.047912090253829955,-0.006228190332464873,0.02128061537258327
1782987180514719700,9.6687197265625,0.06544891598820686,-0.005043510592542588,0.012899375192075967
1782987180524793600,9.678793701171875,0.07142799039781093,-0.015606076867505907,0.02661788474731147
1782987180534868700,9.68886865234375,0.0733639268964529,-0.005292882243730128,0.013538403747975826
1782987180544943600,9.698943603515625,0.05603285286724567,0.0024122487735003233,0.028874066176265475
1782987180555017700,9.709017822265626,0.044533553731441494,0.012298815483041107,0.01985854668021202
1782987180565092600,9.719092529296875,0.07069499994814396,-0.01321209440305829,-0.012314999432861804
1782987180575166700,9.729166748046875,0.07951251265406609,-0.009471410037390887,0.026399785017222163
1782987180585241600,9.73924169921875,0.04776069908440113,0.002956950109452009,0.01043795351460576
1782987180595315700,9.749315673828125,0.0748018507450819,-0.0013952172180637717,0.0002917494881898165
1782987180605390600,9.759390625,0.06462649368941784,0.003182612091489136,0.028985782922431823
1782987180615464700,9.769464599609375,0.0717997463196516,-0.006421155621297657,-0.002216580070927739
1782987180625538600,9.77953857421875,0.07297463531792163,-0.02202354269437492,0.01683751835860312
1782987180635613700,9.78961376953125,0.05081482595801353,-0.0048417044101282955,0.030272023340687154
1782987180645687600,9.7996875,0.05354395866096019,0.0004941401924937963,-0.011980141455307602
1782987180655762700,9.8097626953125,0.06989303591549396,0.016865319680981337,0.01589950685612857
1782987180665836500,9.81983642578125,0.0772071583211422,-0.008775902053900062,0.017988734220340846
1782987180675911700,9.82991162109375,0.08019815683066844,-0.010106200809590517,0.0259504338145256
1782987180685985500,9.839985595703125,0.05327507859170436,-0.003970474533550441,0.0060808542836457485
1782987180696060700,9.850060791015625,0.05329787494540214,0.007826017450541258,0.003626666064560413
1782987180706134500,9.860134521484374,0.058820437759160994,0.004818871523812413,0.01940780723802745
1782987180716209700,9.870209716796875,0.07153028172850609,-0.008323189850337804,0.017274521536380052
1782987180726283500,9.880283447265626,0.07425649182200432,-0.01043660180773586,0.003412804118171334
1782987180736358700,9.890358642578125,0.06680734485983848,-0.01001446740552783,0.009535451716929674
1782987180746432500,9.9004326171875,0.06741349405944347,-0.010101268906146287,0.017434534403681753
1782987180756507600,9.910507568359375,0.07616144866049289,-0.004258497694693506,0.024683336488157508
1782987180766581500,9.92058154296875,0.06572305675446986,-0.02264971176870167,0.012662789957225322
1782987180776655600,9.930655517578124,0.06616086364984512,-0.009883424904383719,0.011816036934778094
1782987180786730500,9.94073046875,0.05855974099636078,0.005194938294589519,0.008349383737519383
1782987180796804600,9.9508046875,0.04557517173886299,0.007098214632645249,0.014960545505583286
1782987180806879500,9.96087939453125,0.07025660853087902,0.0027456819789484143,0.007499415844678879
1782987180816953600,9.97095361328125,0.06738835961818694,0.006895568200014531,0.022239888858795166
1782987180827028500,9.981028564453124,0.06797697316110134,0.00827982563264668,0.020775734590366482
1782987180837102600,9.9911025390625,0.05842120930850506,-0.012592172406427562,0.005707783187553286
1782987180847177700,10.001177734375,0.06014964053630829,-0.010776683949679136,0.0077182462271302935
1782987180857251600,10.01125146484375,0.06898819603025913,0.0023937267361208796,-0.005604615074023604
1782987180867326700,10.02132666015625,0.0719131435662508,-0.004887004856579005,0.034272271957993504
1782987180877400600,10.031400634765625,0.06503858162164687,-0.00981255162525922,0.019676906502991913
1782987180887475700,10.041475830078125,0.05297989503741264,-0.005963292318582535,0.004194748276099562
1782987180897549600,10.051549560546874,0.07331891871094703,-0.006266841842420399,0.01681910591907799
1782987180907624700,10.061624755859375,0.0876332752674818,-0.02938311167694628,0.01225428222157061
1782987180917698600,10.071698486328126,0.06666705960631371,0.004534318961389363,0.012688874246552587
1782987180927772400,10.0817724609375,0.05484159725606441,-0.0014940379500389099,0.0011204553972929715
1782987180937847600,10.09184765625,0.05543371793031692,-0.002810198582522571,0.0010568886417895555
1782987180947921400,10.10192138671875,0.08906184676587581,-0.0017119550170376896,0.02369067218899727
1782987180957996500,10.11199658203125,0.06549860034883022,-0.003312485548853874,0.03958404156528413
1782987180968070700,10.122070556640624,0.04352817608118057,-0.012150602651387453,0.012020911857113242
1782987180978145500,10.1321455078125,0.061218731072545045,0.009996237629093229,-0.004166691225394607
1782987180988219600,10.1422197265625,0.08222469422221183,-0.0069824427658692,0.021478768293187022
1782987180998294500,10.15229443359375,0.09319090939462184,-0.021985475706309078,0.014629413855075836
1782987181008368600,10.16236865234375,0.080448916721344,-0.021993732078000903,-0.006784472508355975
1782987181018443500,10.172443603515624,0.05575345140397548,-0.01942574475351721,0.006294277838617563
1782987181028517600,10.182517578125,0.05485737934708595,-0.00441204428859055,0.006966770272701978
1782987181038592500,10.192592529296874,0.069150693115592,-0.006545804914273322,0.006965893489867449
1782987181048666600,10.20266650390625,0.08027706728577613,-0.02274758265260607,0.02273739005215466
1782987181058740700,10.21274072265625,0.052589434415102,-0.0026052505949512124,0.01367562026157975
1782987181068815600,10.222815673828125,0.052609892681241034,0.027932839803397655,0.017764058618992565
1782987181078889700,10.2328896484375,0.0882429315984249,-0.0034582872277125714,0.024717384888231754
1782987181088964600,10.242964599609374,0.09112930068969725,0.005256861082278192,0.014466843704506753
1782987181099038700,10.253038818359375,0.06826397340893745,-0.01404481890015304,0.017201090973988174
1782987181109113600,10.263113525390626,0.0663227762132883,-0.003370097487606108,0.02356682661361992
1782987181119187700,10.273187744140625,0.06264788709282874,-0.003975004578195512,0.018972265364974737
1782987181129262600,10.2832626953125,0.0498620552778244,-0.003928169761784375,0.00023446634300053118
1782987181139336700,10.293336669921874,0.0365600906342268,0.003134681296534836,0.004732435349375009
1782987181149411600,10.30341162109375,0.055448915499448775,0.012116992642730473,-0.007636486227810382
1782987181159485700,10.313485595703124,0.0781914931833744,-0.014342011748440563,0.02807633992731571
1782987181169560600,10.323560546875,0.07464110722541809,-0.018719715376012025,0.011970131517946719
1782987181179634700,10.333634765625,0.0588549245506525,-0.0003846884686499834,0.001459331962838769
1782987181189709600,10.34370947265625,0.05994213526546955,-0.004503302768617868,0.001972688312456012
1782987181199783700,10.35378369140625,0.0861649562805891,-0.009796331142820417,-0.001228007424995303
1782987181209858600,10.363858642578125,0.07241817047894,-0.005966580254212021,0.01128667929843068
1782987181219932700,10.3739326171875,0.0699959117680788,-0.0166220489770174,0.02794672219827771
1782987181230006800,10.3840068359375,0.06379822617173195,-0.0044494171569123865,0.023478125416859983
1782987181240081700,10.39408154296875,0.03911912746727467,-0.0011823416523635386,0.012432049941271542
1782987181250155800,10.40415576171875,0.04328209236562252,0.021677871061861514,-0.03234568780958652
1782987181260230700,10.414230712890625,0.05933247893452644,0.024276216991990802,-0.00030665479637682436
1782987181270304800,10.4243046875,0.09060381551086902,0.03690331458132714,0.020912220451608298
1782987181280379600,10.434379638671874,0.15367548097372055,-0.055279294553585344,0.07548654507361352
1782987181290453800,10.444453857421875,-0.0821171421945095,-0.00609206979740411,-0.0830189864050597
1782987181300528600,10.454528564453126,-0.11002104816436767,0.07920059716068208,0.010382570065557956
1782987181310602500,10.4646025390625,0.24973522380292415,-0.0220619019433856,0.04998246678709983
1782987181320677600,10.474677734375,0.24823241802453994,-0.09913834655694663,0.03447122859619558
1782987181330751500,10.48475146484375,-0.024289807125926016,-0.005424034342728555,-0.000403831560537219
1782987181340826600,10.49482666015625,-0.05805646764934062,0.03690459322296083,-0.02379135608449578
1782987181350900500,10.504900390625,0.0911842457473278,-0.01877637746669352,0.013132599426060914
1782987181360975600,10.5149755859375,0.11926701541543006,-0.042371809120289976,0.048193975935131306
1782987181371049500,10.525049560546876,0.03394318613409996,0.05769863065499812,0.023427564273402094
