time,seconds_elapsed,z,y,x
1782987170901160200,0.05516015625,-0.985382080078125,0.05987548828125,-0.099456787109375
1782987170911235300,0.0652353515625,-1.001068115234375,0.064727783203125,-0.106109619140625
1782987170921309200,0.07530908203125,-0.9915313720703125,0.0646820068359375,-0.106475830078125
1782987170931384300,0.08538427734375,-0.9830474853515625,0.0643157958984375,-0.100250244140625
1782987170941458200,0.095458251953125,-0.9840240478515625,0.0612335205078125,-0.0995941162109375
1782987170951533300,0.105533203125,-0.9860382080078125,0.06201171875,-0.1010589599609375
1782987170961607200,0.115607177734375,-0.9851226806640625,0.0576019287109375,-0.0986785888671875
1782987170971682300,0.125682373046875,-0.980865478515625,0.05596923828125,-0.0984344482421875
1782987170981756200,0.135756103515625,-0.979949951171875,0.0562744140625,-0.098052978515625
1782987170991831300,0.145831298828125,-0.9853515625,0.0602874755859375,-0.097930908203125
1782987171001905200,0.1559052734375,-0.990020751953125,0.0612945556640625,-0.10009765625
1782987171011979300,0.165979248046875,-0.9906463623046875,0.0614013671875,-0.09967041015625
1782987171022054100,0.17605419921875,-0.987335205078125,0.0619354248046875,-0.0991058349609375
1782987171032128300,0.186128173828125,-0.9864044189453125,0.0622406005859375,-0.1021881103515625
1782987171042203100,0.196203125,-0.9877777099609375,0.061614990234375,-0.0999908447265625
1782987171052277200,0.20627734375,-0.988189697265625,0.0610198974609375,-0.10089111328125
1782987171062352100,0.21635205078125,-0.9862518310546875,0.0598907470703125,-0.1009368896484375
1782987171072426200,0.22642626953125,-0.9841766357421875,0.0593109130859375,-0.0991973876953125
1782987171082501000,0.236501220703125,-0.9859771728515625,0.0599212646484375,-0.097808837890625
1782987171092575200,0.2465751953125,-0.9896087646484375,0.0577239990234375,-0.094573974609375
1782987171102650000,0.256650146484375,-0.9813690185546875,0.06195068359375,-0.1012115478515625
1782987171112724200,0.26672412109375,-0.98211669921875,0.0601959228515625,-0.102630615234375
1782987171122799000,0.276799072265625,-0.9819183349609375,0.065643310546875,-0.1031341552734375
1782987171132873200,0.286873291015625,-0.9840850830078125,0.0634307861328125,-0.1008758544921875
1782987171142948000,0.296947998046875,-0.989105224609375,0.0630035400390625,-0.098388671875
1782987171153022200,0.307022216796875,-0.9884490966796875,0.0626220703125,-0.10235595703125
1782987171163096000,0.317095947265625,-0.9882659912109375,0.06072998046875,-0.1008148193359375
1782987171173171200,0.327171142578125,-0.984893798828125,0.0613861083984375,-0.0997467041015625
1782987171183245000,0.3372451171875,-0.9854583740234375,0.061004638671875,-0.1018829345703125
1782987171193320200,0.3473203125,-0.9868011474609375,0.0600738525390625,-0.0994720458984375
1782987171203394000,0.35739404296875,-0.986541748046875,0.0586090087890625,-0.10052490234375
1782987171213469200,0.36746923828125,-0.9860687255859375,0.0600128173828125,-0.098846435546875
1782987171223543000,0.37754296875,-0.986541748046875,0.06060791015625,-0.0992584228515625
1782987171233618200,0.3876181640625,-0.98583984375,0.060089111328125,-0.100677490234375
1782987171243692000,0.397692138671875,-0.9881591796875,0.060272216796875,-0.1009063720703125
1782987171253767200,0.40776708984375,-0.9874114990234375,0.059783935546875,-0.1010894775390625
1782987171263841300,0.41784130859375,-0.9862823486328125,0.059234619140625,-0.1018829345703125
1782987171273916200,0.427916259765625,-0.9857025146484375,0.05877685546875,-0.0984039306640625
1782987171283990300,0.437990234375,-0.986236572265625,0.058929443359375,-0.09783935546875
1782987171294065700,0.448065673828125,-0.9860076904296875,0.0594482421875,-0.09991455078125
1782987171304139800,0.458139892578125,-0.98638916015625,0.0597381591796875,-0.1002960205078125
1782987171314214700,0.468214599609375,-0.9859161376953125,0.0611114501953125,-0.1006317138671875
1782987171324288800,0.478288818359375,-0.986328125,0.0624542236328125,-0.0995025634765625
1782987171334362600,0.488362548828125,-0.985626220703125,0.061553955078125,-0.0992889404296875
1782987171344437800,0.498437744140625,-0.9839935302734375,0.061065673828125,-0.0993499755859375
1782987171354511600,0.50851171875,-0.9870758056640625,0.0609283447265625,-0.0985565185546875
1782987171364586800,0.518586669921875,-0.986419677734375,0.061767578125,-0.09979248046875
1782987171374660600,0.52866064453125,-0.9868011474609375,0.0640411376953125,-0.099822998046875
1782987171384735700,0.53873583984375,-0.9876556396484375,0.0635223388671875,-0.100128173828125
1782987171394809600,0.5488095703125,-0.987060546875,0.0599365234375,-0.1009063720703125
1782987171404884700,0.558884765625,-0.9880523681640625,0.0614013671875,-0.1014862060546875
1782987171414958600,0.56895849609375,-0.987701416015625,0.06158447265625,-0.0995635986328125
1782987171425033700,0.57903369140625,-0.9862823486328125,0.0636138916015625,-0.099945068359375
1782987171435107600,0.589107666015625,-0.98675537109375,0.0622100830078125,-0.101806640625
1782987171445182700,0.5991826171875,-0.9876556396484375,0.062103271484375,-0.100677490234375
1782987171455256600,0.609256591796875,-0.985809326171875,0.0612945556640625,-0.09906005859375
1782987171465331700,0.619331787109375,-0.9870758056640625,0.0622711181640625,-0.1003570556640625
1782987171475405600,0.629405517578125,-0.9873199462890625,0.0633087158203125,-0.10015869140625
1782987171485480000,0.63947998046875,-0.987701416015625,0.061920166015625,-0.1017913818359375
1782987171495554600,0.649554443359375,-0.9857177734375,0.06158447265625,-0.1011810302734375
1782987171505629000,0.65962890625,-0.98565673828125,0.0601348876953125,-0.1007232666015625
1782987171515703800,0.669703857421875,-0.986328125,0.06036376953125,-0.1007232666015625
1782987171525778000,0.67977783203125,-0.9865875244140625,0.061920166015625,-0.1006622314453125
1782987171535852800,0.689852783203125,-0.9840240478515625,0.0622100830078125,-0.100555419921875
1782987171545927000,0.699927001953125,-0.9852294921875,0.0605010986328125,-0.100189208984375
1782987171556001800,0.710001708984375,-0.9833526611328125,0.06195068359375,-0.0993804931640625
1782987171566076000,0.720075927734375,-0.984954833984375,0.061065673828125,-0.0977630615234375
1782987171576150800,0.73015087890625,-0.9856719970703125,0.0606689453125,-0.0997314453125
1782987171586225000,0.740224853515625,-0.9853363037109375,0.061553955078125,-0.0988006591796875
1782987171596299800,0.7502998046875,-0.98602294921875,0.060302734375,-0.0973663330078125
1782987171606374000,0.760373779296875,-0.9853973388671875,0.0615692138671875,-0.0997161865234375
1782987171616448800,0.77044873046875,-0.9854583740234375,0.0597686767578125,-0.100738525390625
1782987171626523000,0.78052294921875,-0.9847564697265625,0.0601043701171875,-0.1007843017578125
1782987171636597800,0.79059765625,-0.986907958984375,0.0594635009765625,-0.0998077392578125
1782987171646672000,0.800671875,-0.98681640625,0.0593719482421875,-0.0993499755859375
1782987171656746000,0.81074609375,-0.98431396484375,0.0600128173828125,-0.099945068359375
1782987171666820900,0.82082080078125,-0.9855499267578125,0.0614776611328125,-0.09881591796875
1782987171676895000,0.83089501953125,-0.98687744140625,0.0595703125,-0.0978546142578125
1782987171686969900,0.840969970703125,-0.9859771728515625,0.0608367919921875,-0.099273681640625
1782987171697044000,0.8510439453125,-0.985809326171875,0.06011962890625,-0.09979248046875
1782987171707118800,0.861118896484375,-0.9855804443359375,0.0608062744140625,-0.0997467041015625
1782987171717193000,0.87119287109375,-0.9847564697265625,0.0595550537109375,-0.0993804931640625
1782987171727267800,0.881267822265625,-0.9848785400390625,0.06109619140625,-0.0991973876953125
1782987171737342000,0.891342041015625,-0.9846954345703125,0.0615386962890625,-0.099609375
1782987171747416800,0.901416748046875,-0.9857940673828125,0.06097412109375,-0.101593017578125
1782987171757491000,0.911490966796875,-0.9867095947265625,0.061126708984375,-0.100738525390625
1782987171767565800,0.92156591796875,-0.98602294921875,0.061553955078125,-0.0995025634765625
1782987171777640000,0.931639892578125,-0.987213134765625,0.0617523193359375,-0.1016387939453125
1782987171787714800,0.94171484375,-0.9883575439453125,0.0624237060546875,-0.1014251708984375
1782987171797789000,0.951788818359375,-0.9864959716796875,0.0618743896484375,-0.10101318359375
1782987171807862800,0.96186279296875,-0.9877777099609375,0.0634002685546875,-0.099090576171875
1782987171817938000,0.97193798828125,-0.9868011474609375,0.0617523193359375,-0.0992889404296875
1782987171828011800,0.98201171875,-0.985992431640625,0.062347412109375,-0.10040283203125
1782987171838087000,0.9920869140625,-0.98779296875,0.0615234375,-0.10107421875
1782987171848160800,1.002160888671875,-0.9865264892578125,0.061004638671875,-0.1006622314453125
1782987171858236000,1.01223583984375,-0.9871826171875,0.0618438720703125,-0.100677490234375
1782987171868309800,1.022309814453125,-0.98626708984375,0.0605926513671875,-0.1012115478515625
1782987171878385000,1.032385009765625,-0.9864654541015625,0.0610504150390625,-0.10107421875
1782987171888458800,1.042458740234375,-0.985137939453125,0.0612030029296875,-0.1011962890625
1782987171898534000,1.052533935546875,-0.985748291015625,0.06097412109375,-0.0999603271484375
1782987171908607700,1.062607666015625,-0.9866943359375,0.06005859375,-0.0994873046875
1782987171918683000,1.072682861328125,-0.98602294921875,0.06060791015625,-0.1005096435546875
1782987171928756700,1.0827568359375,-0.986785888671875,0.05999755859375,-0.10076904296875
1782987171938832000,1.092831787109375,-0.986236572265625,0.060394287109375,-0.10028076171875
1782987171948905700,1.10290576171875,-0.9851531982421875,0.060028076171875,-0.1010284423828125
1782987171958980900,1.11298095703125,-0.9849853515625,0.0610198974609375,-0.09912109375
1782987171969054700,1.1230546875,-0.9861907958984375,0.0607452392578125,-0.1001434326171875
1782987171979128800,1.13312890625,-0.98577880859375,0.0606842041015625,-0.1002197265625
1782987171989203700,1.14320361328125,-0.9854583740234375,0.0616912841796875,-0.100189208984375
1782987171999277800,1.15327783203125,-0.9858856201171875,0.0611419677734375,-0.1013641357421875
1782987172009352700,1.163352783203125,-0.9859466552734375,0.0596923828125,-0.100494384765625
1782987172019426800,1.1734267578125,-0.9858245849609375,0.0616607666015625,-0.1000823974609375
1782987172029502000,1.183501953125,-0.987213134765625,0.060455322265625,-0.1004180908203125
1782987172039575800,1.193575927734375,-0.9858551025390625,0.061126708984375,-0.1014251708984375
1782987172049651000,1.20365087890625,-0.9860992431640625,0.061004638671875,-0.100982666015625
1782987172059724800,1.213724853515625,-0.988525390625,0.060821533203125,-0.100494384765625
1782987172069800000,1.223800048828125,-0.9864654541015625,0.0619354248046875,-0.0992889404296875
1782987172079873800,1.233873779296875,-0.984893798828125,0.059356689453125,-0.1001129150390625
1782987172089949000,1.243948974609375,-0.988037109375,0.060272216796875,-0.0987701416015625
1782987172100022800,1.254022705078125,-0.987030029296875,0.060455322265625,-0.0998992919921875
1782987172110098000,1.264097900390625,-0.986572265625,0.0624542236328125,-0.1014404296875
1782987172120171800,1.274171875,-0.9846649169921875,0.0604095458984375,-0.0998382568359375
1782987172130247000,1.284246826171875,-0.9579315185546875,0.0533905029296875,-0.09881591796875
1782987172140320800,1.29432080078125,-1.01513671875,0.0667572021484375,-0.0973663330078125
1782987172150395000,1.304394775390625,-1.0077056884765625,0.0618438720703125,-0.1043243408203125
1782987172160469800,1.3144697265625,-0.9863739013671875,0.06304931640625,-0.1132049560546875
1782987172170543900,1.3245439453125,-0.9748687744140625,0.0624847412109375,-0.0930938720703125
1782987172180618800,1.33461865234375,-0.960174560546875,0.0539398193359375,-0.090087890625
1782987172190692900,1.34469287109375,-0.9820709228515625,0.0575714111328125,-0.1011505126953125
1782987172200767700,1.354767822265625,-1.01300048828125,0.0672760009765625,-0.1098480224609375
1782987172210841900,1.364841796875,-0.9949493408203125,0.064971923828125,-0.10552978515625
1782987172220916700,1.374916748046875,-0.9669952392578125,0.05859375,-0.0922393798828125
1782987172230990800,1.384990966796875,-0.9768829345703125,0.0574493408203125,-0.09637451171875
1782987172241065700,1.395065673828125,-0.9995574951171875,0.0628509521484375,-0.104949951171875
1782987172251139800,1.405139892578125,-0.9957427978515625,0.0627899169921875,-0.1029205322265625
1782987172261214700,1.415214599609375,-0.9825286865234375,0.058624267578125,-0.098907470703125
1782987172271288800,1.425288818359375,-0.9808349609375,0.0584259033203125,-0.09893798828125
1782987172281363700,1.43536376953125,-0.9851226806640625,0.060699462890625,-0.100067138671875
1782987172291438300,1.445438232421875,-0.989288330078125,0.0611572265625,-0.100372314453125
1782987172301513500,1.455513427734375,-0.987823486328125,0.0601654052734375,-0.099853515625
1782987172311587300,1.46558740234375,-0.9875030517578125,0.05975341796875,-0.1015472412109375
1782987172321661400,1.475661376953125,-0.988189697265625,0.062591552734375,-0.1017303466796875
1782987172331736300,1.485736328125,-0.986114501953125,0.0608673095703125,-0.0993499755859375
1782987172341810400,1.495810546875,-0.9844207763671875,0.0593719482421875,-0.0995025634765625
1782987172351885300,1.50588525390625,-0.985107421875,0.05938720703125,-0.098663330078125
1782987172361959400,1.51595947265625,-0.9866943359375,0.0606689453125,-0.1004638671875
1782987172372034300,1.526034423828125,-0.9871673583984375,0.0613861083984375,-0.100799560546875
1782987172382108400,1.5361083984375,-0.9878082275390625,0.0616607666015625,-0.1017608642578125
1782987172392183600,1.54618359375,-0.9853057861328125,0.061492919921875,-0.09918212890625
1782987172402257400,1.55625732421875,-0.9858856201171875,0.0604095458984375,-0.1002197265625
1782987172412332500,1.56633251953125,-0.984527587890625,0.0609893798828125,-0.1002655029296875
1782987172422406400,1.576406494140625,-0.9847259521484375,0.0621795654296875,-0.1009063720703125
1782987172432481500,1.5864814453125,-0.986663818359375,0.060638427734375,-0.1004791259765625
1782987172442555400,1.596555419921875,-0.985260009765625,0.0616455078125,-0.100128173828125
1782987172452630500,1.606630615234375,-0.9859466552734375,0.0604400634765625,-0.0991363525390625
1782987172462704400,1.616704345703125,-0.9864349365234375,0.0609893798828125,-0.099761962890625
1782987172472778200,1.6267783203125,-0.987579345703125,0.0610809326171875,-0.100433349609375
1782987172482853400,1.636853271484375,-0.9871673583984375,0.0612030029296875,-0.1020050048828125
1782987172492927200,1.64692724609375,-0.9872894287109375,0.06146240234375,-0.1009368896484375
1782987172503002400,1.65700244140625,-0.985382080078125,0.0605010986328125,-0.098480224609375
1782987172513076200,1.667076171875,-0.98480224609375,0.061859130859375,-0.1015625
1782987172523151400,1.6771513671875,-0.986328125,0.0617218017578125,-0.102386474609375
1782987172533225500,1.6872255859375,-0.9848480224609375,0.0615081787109375,-0.0994110107421875
1782987172543300400,1.69730029296875,-0.984405517578125,0.0610809326171875,-0.0985260009765625
1782987172553374500,1.70737451171875,-0.9858245849609375,0.0606231689453125,-0.099395751953125
1782987172563449300,1.717449462890625,-0.984771728515625,0.0605316162109375,-0.099884033203125
1782987172573523500,1.7275234375,-0.9857635498046875,0.0618133544921875,-0.1004180908203125
1782987172583598300,1.737598388671875,-0.9866790771484375,0.060882568359375,-0.09991455078125
1782987172593672400,1.74767236328125,-0.987213134765625,0.0616607666015625,-0.1006622314453125
1782987172603747300,1.757747314453125,-0.9872589111328125,0.0601654052734375,-0.0992431640625
1782987172613821400,1.767821533203125,-0.986297607421875,0.0604095458984375,-0.100860595703125
1782987172623895300,1.777895263671875,-0.986358642578125,0.0606842041015625,-0.1002197265625
1782987172633970400,1.787970458984375,-0.9848175048828125,0.0603485107421875,-0.0999908447265625
1782987172644044300,1.798044189453125,-0.9851837158203125,0.0601654052734375,-0.09991455078125
1782987172654119400,1.808119384765625,-0.9856109619140625,0.061981201171875,-0.10064697265625
1782987172664193300,1.818193359375,-0.986328125,0.06182861328125,-0.099273681640625
1782987172674268400,1.828268310546875,-0.983642578125,0.0610809326171875,-0.099853515625
1782987172684342300,1.83834228515625,-0.985626220703125,0.061920166015625,-0.0985870361328125
1782987172694417400,1.84841748046875,-0.988983154296875,0.0593109130859375,-0.1019134521484375
1782987172704491300,1.8584912109375,-0.9897003173828125,0.0622406005859375,-0.09912109375
1782987172714566400,1.86856640625,-0.987152099609375,0.055419921875,-0.09991455078125
1782987172724640300,1.87864013671875,-0.983795166015625,0.0583343505859375,-0.0973358154296875
1782987172734715400,1.88871533203125,-0.98565673828125,0.0615692138671875,-0.1019744873046875
1782987172744789200,1.898789306640625,-0.990478515625,0.0618896484375,-0.10174560546875
1782987172754864400,1.908864501953125,-0.990386962890625,0.06219482421875,-0.1024017333984375
1782987172764938200,1.918938232421875,-0.98541259765625,0.0591888427734375,-0.100494384765625
1782987172775013400,1.929013427734375,-0.9839630126953125,0.05914306640625,-0.0997467041015625
1782987172785087200,1.939087158203125,-0.984161376953125,0.0585784912109375,-0.09912109375
1782987172795161600,1.94916162109375,-0.986328125,0.05938720703125,-0.097869873046875
1782987172805236200,1.959236328125,-0.985870361328125,0.0592498779296875,-0.0989837646484375
1782987172815310600,1.969310546875,-0.9838714599609375,0.05914306640625,-0.0990142822265625
1782987172825385200,1.97938525390625,-0.984100341796875,0.06024169921875,-0.0971221923828125
1782987172835459600,1.98945947265625,-0.9869232177734375,0.0621337890625,-0.1009674072265625
1782987172845534200,1.9995341796875,-0.9891357421875,0.0621490478515625,-0.1020355224609375
1782987172855608600,2.009608642578125,-0.9881744384765625,0.063262939453125,-0.1020660400390625
1782987172865683200,2.01968310546875,-0.98712158203125,0.0624847412109375,-0.100738525390625
1782987172875757600,2.029757568359375,-0.9854736328125,0.0633392333984375,-0.0994415283203125
1782987172885832200,2.039832275390625,-0.984954833984375,0.063385009765625,-0.1002655029296875
1782987172895906600,2.049906494140625,-0.9842987060546875,0.06036376953125,-0.0980987548828125
1782987172905981400,2.0599814453125,-0.984832763671875,0.060638427734375,-0.0993804931640625
1782987172916055600,2.0700556640625,-0.9853057861328125,0.0620574951171875,-0.1009368896484375
1782987172926130400,2.08013037109375,-0.986602783203125,0.0603485107421875,-0.100494384765625
1782987172936204500,2.09020458984375,-0.98712158203125,0.061187744140625,-0.1003570556640625
1782987172946278400,2.1002783203125,-0.9857177734375,0.0614166259765625,-0.100921630859375
1782987172956353500,2.110353515625,-0.9857940673828125,0.0629425048828125,-0.1010894775390625
1782987172966427400,2.120427490234375,-0.98809814453125,0.061981201171875,-0.0999908447265625
1782987172976502500,2.13050244140625,-0.98626708984375,0.06390380859375,-0.1013031005859375
1782987172986576400,2.140576416015625,-0.986541748046875,0.0630645751953125,-0.10150146484375
1782987172996651500,2.150651611328125,-0.986236572265625,0.0640869140625,-0.1011199951171875
1782987173006725400,2.160725341796875,-0.985382080078125,0.0620574951171875,-0.100311279296875
1782987173016800500,2.170800537109375,-0.9857025146484375,0.0626983642578125,-0.10186767578125
1782987173026874600,2.18087451171875,-0.9868927001953125,0.0620574951171875,-0.1009521484375
1782987173036949500,2.190949462890625,-0.9852142333984375,0.0604400634765625,-0.1001434326171875
1782987173047023600,2.201023681640625,-0.9839324951171875,0.0592193603515625,-0.1007080078125
1782987173057098500,2.211098388671875,-0.98443603515625,0.060821533203125,-0.0994873046875
1782987173067172600,2.221172607421875,-0.985992431640625,0.0612335205078125,-0.098846435546875
1782987173077247500,2.23124755859375,-0.9864501953125,0.060638427734375,-0.1014251708984375
1782987173087321600,2.241321533203125,-0.9869842529296875,0.058319091796875,-0.1020965576171875
1782987173097395500,2.2513955078125,-0.9864654541015625,0.0597686767578125,-0.100616455078125
1782987173107470600,2.261470703125,-0.9844512939453125,0.0599365234375,-0.0990753173828125
1782987173117544400,2.27154443359375,-0.985870361328125,0.059112548828125,-0.0985107421875
1782987173127619600,2.28161962890625,-0.9856719970703125,0.0594635009765625,-0.099884033203125
1782987173137693400,2.291693359375,-0.9862060546875,0.059356689453125,-0.100830078125
1782987173147768600,2.3017685546875,-0.9870147705078125,0.061004638671875,-0.10125732421875
1782987173157842400,2.311842529296875,-0.9882354736328125,0.0601348876953125,-0.10101318359375
1782987173167917600,2.32191748046875,-0.987152099609375,0.0610809326171875,-0.0998687744140625
1782987173177991400,2.331991455078125,-0.9857025146484375,0.061920166015625,-0.1016082763671875
1782987173188066600,2.342066650390625,-0.986358642578125,0.06201171875,-0.1027679443359375
1782987173198140400,2.352140380859375,-0.987213134765625,0.06170654296875,-0.1024169921875
1782987173208215600,2.362215576171875,-0.9857177734375,0.0610809326171875,-0.0995025634765625
1782987173218289400,2.372289306640625,-0.986083984375,0.06072998046875,-0.10137939453125
1782987173228364500,2.382364501953125,-0.98760986328125,0.0621490478515625,-0.101470947265625
1782987173238438400,2.3924384765625,-0.9867401123046875,0.0612640380859375,-0.09930419921875
1782987173248512500,2.402512451171875,-0.9868621826171875,0.06268310546875,-0.0987396240234375
1782987173258587400,2.41258740234375,-0.9845123291015625,0.0625457763671875,-0.0995025634765625
1782987173268661500,2.42266162109375,-0.9862823486328125,0.0616607666015625,-0.1002349853515625
1782987173278736400,2.432736328125,-0.9870758056640625,0.0625762939453125,-0.100555419921875
1782987173288809700,2.442809814453125,-0.98663330078125,0.062042236328125,-0.1028289794921875
1782987173298884900,2.452884765625,-0.98687744140625,0.06256103515625,-0.1014556884765625
1782987173308958700,2.462958740234375,-0.9864349365234375,0.061309814453125,-0.09954833984375
1782987173319033900,2.473033935546875,-0.9867095947265625,0.0623321533203125,-0.0997772216796875
1782987173329107700,2.483107666015625,-0.9848785400390625,0.063140869140625,-0.098724365234375
1782987173339182800,2.493182861328125,-0.985992431640625,0.0616912841796875,-0.10040283203125
1782987173349256700,2.503256591796875,-0.9864654541015625,0.0601959228515625,-0.101470947265625
1782987173359331800,2.513331787109375,-0.98931884765625,0.06036376953125,-0.1021270751953125
1782987173369405700,2.52340576171875,-0.98614501953125,0.061492919921875,-0.099639892578125
1782987173379480800,2.533480712890625,-0.986175537109375,0.06121826171875,-0.0992584228515625
1782987173389554700,2.5435546875,-0.98541259765625,0.06121826171875,-0.1002349853515625
1782987173399628500,2.553628662109375,-0.9847869873046875,0.060272216796875,-0.100067138671875
1782987173409703700,2.56370361328125,-0.9845733642578125,0.0609283447265625,-0.1002655029296875
1782987173419777800,2.57377783203125,-0.9849853515625,0.061187744140625,-0.0990753173828125
1782987173429852700,2.583852783203125,-0.9858245849609375,0.0616912841796875,-0.099456787109375
1782987173439926800,2.5939267578125,-0.9868316650390625,0.06268310546875,-0.099639892578125
1782987173450001700,2.604001708984375,-0.9863128662109375,0.06353759765625,-0.100189208984375
1782987173460075800,2.61407568359375,-0.98602294921875,0.0611724853515625,-0.099700927734375
1782987173470150700,2.624150634765625,-0.98486328125,0.0620269775390625,-0.101776123046875
1782987173480224800,2.634224853515625,-0.98583984375,0.0625,-0.1004180908203125
1782987173490299600,2.644299560546875,-0.9855194091796875,0.0606842041015625,-0.1008148193359375
1782987173500373800,2.654373779296875,-0.9868927001953125,0.0618896484375,-0.101165771484375
1782987173510448600,2.66444873046875,-0.9864044189453125,0.060791015625,-0.0999908447265625
1782987173520522800,2.674522705078125,-0.9856719970703125,0.0603790283203125,-0.0997772216796875
1782987173530597600,2.68459765625,-0.9864654541015625,0.0632781982421875,-0.1007232666015625
1782987173540671700,2.694671630859375,-0.985076904296875,0.0627288818359375,-0.1010589599609375
1782987173550745600,2.70474560546875,-0.985992431640625,0.0613250732421875,-0.10003662109375
1782987173560820700,2.71482080078125,-0.9854888916015625,0.0614013671875,-0.0992584228515625
1782987173570894600,2.72489453125,-0.98602294921875,0.0619354248046875,-0.099884033203125
1782987173580969700,2.7349697265625,-0.9841156005859375,0.0603790283203125,-0.1007537841796875
1782987173591043600,2.745043701171875,-0.985626220703125,0.0606231689453125,-0.1021270751953125
1782987173601118700,2.75511865234375,-0.986663818359375,0.060546875,-0.0997467041015625
1782987173611192600,2.765192626953125,-0.986358642578125,0.0612640380859375,-0.101226806640625
1782987173621267700,2.775267822265625,-0.9853668212890625,0.059112548828125,-0.1001434326171875
1782987173631341600,2.785341552734375,-0.98486328125,0.059814453125,-0.1002197265625
1782987173641416700,2.795416748046875,-0.9866180419921875,0.0612640380859375,-0.10003662109375
1782987173651490800,2.80549072265625,-0.9856719970703125,0.0617523193359375,-0.0988616943359375
1782987173661565700,2.815565673828125,-0.9864959716796875,0.0611724853515625,-0.0991668701171875
1782987173671639800,2.825639892578125,-0.98724365234375,0.061065673828125,-0.1014556884765625
1782987173681714700,2.835714599609375,-0.9875640869140625,0.06103515625,-0.1005401611328125
1782987173691788800,2.845788818359375,-0.9866485595703125,0.0614166259765625,-0.0994873046875
1782987173701863000,2.85586279296875,-0.986572265625,0.061004638671875,-0.0989227294921875
1782987173711937800,2.865937744140625,-0.985260009765625,0.060211181640625,-0.099578857421875
1782987173722012000,2.876011962890625,-0.98577880859375,0.0592193603515625,-0.0995941162109375
1782987173732086800,2.886086669921875,-0.9874420166015625,0.059814453125,-0.0987701416015625
1782987173742161000,2.896160888671875,-0.98736572265625,0.0604248046875,-0.1004180908203125
1782987173752235800,2.90623583984375,-0.9870147705078125,0.0594940185546875,-0.10028076171875
1782987173762310000,2.916309814453125,-0.986083984375,0.058929443359375,-0.099365234375
1782987173772384800,2.926384765625,-0.98663330078125,0.061065673828125,-0.0995025634765625
1782987173782459000,2.936458984375,-0.984832763671875,0.061004638671875,-0.1005706787109375
1782987173792533800,2.94653369140625,-0.986663818359375,0.0604705810546875,-0.0995025634765625
1782987173802607900,2.95660791015625,-0.98712158203125,0.05987548828125,-0.1001129150390625
1782987173812682800,2.966682861328125,-0.9859466552734375,0.0606231689453125,-0.1003570556640625
1782987173822756900,2.9767568359375,-0.9860687255859375,0.0613250732421875,-0.100341796875
1782987173832831700,2.986831787109375,-0.98504638671875,0.0607147216796875,-0.098541259765625
1782987173842905900,2.99690576171875,-0.984527587890625,0.05975341796875,-0.0997467041015625
1782987173852979700,3.006979736328125,-0.986419677734375,0.0609130859375,-0.100830078125
1782987173863054800,3.017054931640625,-0.985748291015625,0.060302734375,-0.1005859375
1782987173873128700,3.027128662109375,-0.9855804443359375,0.0596771240234375,-0.0982208251953125
1782987173883203800,3.037203857421875,-0.986480712890625,0.0585479736328125,-0.10052490234375
1782987173893277700,3.047277587890625,-0.988189697265625,0.0595245361328125,-0.1006317138671875
1782987173903352800,3.057352783203125,-0.986968994140625,0.061187744140625,-0.100341796875
1782987173913427000,3.067427001953125,-0.986083984375,0.06036376953125,-0.1005859375
1782987173923501800,3.077501708984375,-0.9861297607421875,0.060272216796875,-0.1014556884765625
1782987173933576000,3.087575927734375,-0.9866180419921875,0.0620880126953125,-0.101165771484375
1782987173943650800,3.09765087890625,-0.9854583740234375,0.0605621337890625,-0.0999603271484375
1782987173953725000,3.107724853515625,-0.9860382080078125,0.061492919921875,-0.1015472412109375
1782987173963799800,3.1177998046875,-0.9860687255859375,0.059722900390625,-0.0997772216796875
1782987173973874000,3.1278740234375,-0.9885101318359375,0.0615234375,-0.0987701416015625
1782987173983948800,3.13794873046875,-0.9866485595703125,0.0607452392578125,-0.1010894775390625
1782987173994023000,3.14802294921875,-0.986541748046875,0.0602264404296875,-0.101837158203125
1782987174004096800,3.1580966796875,-0.9860382080078125,0.0604705810546875,-0.100311279296875
1782987174014172000,3.168171875,-0.9851531982421875,0.062103271484375,-0.10125732421875
1782987174024245800,3.178245849609375,-0.986328125,0.0617218017578125,-0.100006103515625
1782987174034321000,3.18832080078125,-0.9871673583984375,0.0620880126953125,-0.1003875732421875
1782987174044394800,3.198394775390625,-0.98651123046875,0.0614471435546875,-0.09796142578125
1782987174054470000,3.208469970703125,-0.9863739013671875,0.061187744140625,-0.099884033203125
1782987174064543700,3.218543701171875,-0.98577880859375,0.061431884765625,-0.0996551513671875
1782987174074619000,3.228618896484375,-0.9867401123046875,0.06182861328125,-0.0994720458984375
1782987174084692700,3.238692626953125,-0.9855804443359375,0.0620269775390625,-0.099945068359375
1782987174094767900,3.248767822265625,-0.98565673828125,0.0619049072265625,-0.0985107421875
1782987174104841700,3.258841796875,-0.9863128662109375,0.060455322265625,-0.09912109375
1782987174114916900,3.268916748046875,-0.9879302978515625,0.0600433349609375,-0.1009368896484375
1782987174124990700,3.27899072265625,-0.988037109375,0.06085205078125,-0.098968505859375
1782987174135065900,3.28906591796875,-0.9868316650390625,0.0615997314453125,-0.0991973876953125
1782987174145139700,3.2991396484375,-0.985626220703125,0.06195068359375,-0.0983428955078125
1782987174155213800,3.3092138671875,-0.9853057861328125,0.0604400634765625,-0.09991455078125
1782987174165288700,3.319288818359375,-0.9860687255859375,0.061737060546875,-0.099090576171875
1782987174175362800,3.32936279296875,-0.9844970703125,0.0612945556640625,-0.1011199951171875
1782987174185437700,3.339437744140625,-0.9846954345703125,0.06134033203125,-0.1009368896484375
1782987174195511800,3.34951171875,-0.98529052734375,0.0620880126953125,-0.1000823974609375
1782987174205586700,3.359586669921875,-0.985809326171875,0.063629150390625,-0.1007232666015625
1782987174215660800,3.369660888671875,-0.985870361328125,0.0609283447265625,-0.100799560546875
1782987174225735700,3.379735595703125,-0.9856719970703125,0.061920166015625,-0.0999908447265625
1782987174235809800,3.389809814453125,-0.985595703125,0.0603790283203125,-0.0994720458984375
1782987174245884700,3.399884765625,-0.986053466796875,0.0605010986328125,-0.1018829345703125
1782987174255958800,3.409958740234375,-0.9865875244140625,0.0612335205078125,-0.0986328125
1782987174266033700,3.42003369140625,-0.9850616455078125,0.0604095458984375,-0.098175048828125
1782987174276107800,3.430107666015625,-0.985809326171875,0.060455322265625,-0.100372314453125
1782987174286182700,3.4401826171875,-0.9869384765625,0.061767578125,-0.1002197265625
1782987174296256800,3.4502568359375,-0.9873046875,0.0613861083984375,-0.099822998046875
1782987174306331000,3.460330810546875,-0.985748291015625,0.0625152587890625,-0.097747802734375
1782987174316405800,3.47040576171875,-0.9876861572265625,0.062347412109375,-0.1005096435546875
1782987174326480000,3.48047998046875,-0.9876251220703125,0.0619354248046875,-0.09954833984375
1782987174336554800,3.4905546875,-0.985443115234375,0.0619964599609375,-0.0988616943359375
1782987174346628900,3.50062890625,-0.9862213134765625,0.0625,-0.1009521484375
1782987174356704000,3.5107041015625,-0.9858551025390625,0.0607757568359375,-0.1002349853515625
1782987174366777900,3.52077783203125,-0.9873504638671875,0.06109619140625,-0.10113525390625
1782987174376853000,3.53085302734375,-0.9866485595703125,0.0601348876953125,-0.100006103515625
1782987174386926800,3.5409267578125,-0.9877777099609375,0.0604705810546875,-0.098846435546875
1782987174397002000,3.551001953125,-0.9874267578125,0.060516357421875,-0.101318359375
1782987174407075800,3.561075927734375,-0.9839935302734375,0.06231689453125,-0.100433349609375
1782987174417151000,3.57115087890625,-0.98638916015625,0.06109619140625,-0.1004638671875
1782987174427224800,3.581224853515625,-0.9864654541015625,0.06048583984375,-0.0982818603515625
1782987174437300000,3.591300048828125,-0.9864044189453125,0.0595855712890625,-0.0991973876953125
1782987174447373800,3.601373779296875,-0.9875030517578125,0.061065673828125,-0.0991058349609375
1782987174457447700,3.61144775390625,-0.9884033203125,0.06109619140625,-0.10015869140625
1782987174467522800,3.621522705078125,-0.986846923828125,0.0604248046875,-0.1001434326171875
1782987174477597000,3.631596923828125,-0.9854736328125,0.0604400634765625,-0.100799560546875
1782987174487671800,3.641671875,-0.986785888671875,0.06060791015625,-0.1019287109375
1782987174497746000,3.651745849609375,-0.985748291015625,0.060577392578125,-0.1001739501953125
1782987174507820800,3.66182080078125,-0.9860687255859375,0.060791015625,-0.10003662109375
1782987174517895000,3.67189501953125,-0.9853668212890625,0.0593719482421875,-0.1013641357421875
1782987174527969800,3.6819697265625,-0.9866485595703125,0.06109619140625,-0.0986785888671875
1782987174538044000,3.6920439453125,-0.9858245849609375,0.0619964599609375,-0.100494384765625
1782987174548118800,3.702118896484375,-0.986297607421875,0.0608978271484375,-0.099761962890625
1782987174558193000,3.71219287109375,-0.9866485595703125,0.06201171875,-0.0993194580078125
1782987174568267800,3.722267822265625,-0.9848175048828125,0.0605621337890625,-0.1004486083984375
1782987174578342000,3.732341796875,-0.98699951171875,0.0605316162109375,-0.101043701171875
1782987174588415700,3.742415771484375,-0.9860992431640625,0.0606689453125,-0.10015869140625
1782987174598491000,3.752490966796875,-0.9852752685546875,0.0607147216796875,-0.1004486083984375
1782987174608564700,3.762564697265625,-0.9860687255859375,0.0620269775390625,-0.0997314453125
1782987174618640000,3.772639892578125,-0.9871673583984375,0.0604705810546875,-0.100555419921875
1782987174628713700,3.782713623046875,-0.9861602783203125,0.0610504150390625,-0.100006103515625
1782987174638788900,3.792788818359375,-0.98760986328125,0.062225341796875,-0.09930419921875
1782987174648862700,3.80286279296875,-0.9862213134765625,0.062713623046875,-0.1004791259765625
1782987174658937900,3.812937744140625,-0.987213134765625,0.0620269775390625,-0.1009063720703125
1782987174669011700,3.82301171875,-0.9874114990234375,0.061065673828125,-0.0991668701171875
1782987174679086800,3.8330869140625,-0.9850921630859375,0.060882568359375,-0.1003570556640625
1782987174689160700,3.84316064453125,-0.984588623046875,0.0606536865234375,-0.0997467041015625
1782987174699235800,3.85323583984375,-0.987091064453125,0.0591888427734375,-0.0998687744140625
1782987174709309700,3.863309814453125,-0.9857025146484375,0.06134033203125,-0.0981292724609375
1782987174719384800,3.873384765625,-0.986053466796875,0.0599517822265625,-0.0989532470703125
1782987174729458700,3.883458740234375,-0.984375,0.060760498046875,-0.0994110107421875
1782987174739533000,3.893532958984375,-0.9858245849609375,0.0604400634765625,-0.10076904296875
1782987174749607700,3.903607666015625,-0.986419677734375,0.061614990234375,-0.09979248046875
1782987174759682000,3.91368212890625,-0.986114501953125,0.0608062744140625,-0.09942626953125
1782987174769756700,3.923756591796875,-0.9858245849609375,0.06207275390625,-0.1002197265625
1782987174779831000,3.9338310546875,-0.9873199462890625,0.06121826171875,-0.1013031005859375
1782987174789905700,3.94390576171875,-0.985107421875,0.0606842041015625,-0.1008453369140625
1782987174799980000,3.95397998046875,-0.98541259765625,0.0613250732421875,-0.1016082763671875
1782987174810054700,3.9640546875,-0.986785888671875,0.060302734375,-0.099212646484375
1782987174820129000,3.97412890625,-0.98760986328125,0.061065673828125,-0.100738525390625
1782987174830203600,3.98420361328125,-0.9864654541015625,0.06170654296875,-0.10125732421875
1782987174840278000,3.994278076171875,-0.988128662109375,0.060821533203125,-0.0999755859375
1782987174850352600,4.0043525390625,-0.9861907958984375,0.060516357421875,-0.099761962890625
1782987174860427000,4.014427001953125,-0.986480712890625,0.0602569580078125,-0.1005401611328125
1782987174870502000,4.024501953125,-0.9859161376953125,0.0611114501953125,-0.1013336181640625
1782987174880576000,4.034575927734375,-0.986358642578125,0.06121826171875,-0.1029510498046875
1782987174890649900,4.04464990234375,-0.9866943359375,0.0634307861328125,-0.1020355224609375
1782987174900725000,4.05472509765625,-0.9849700927734375,0.0623321533203125,-0.100830078125
1782987174910798800,4.064798828125,-0.9849700927734375,0.0605010986328125,-0.099700927734375
1782987174920874000,4.0748740234375,-0.9862213134765625,0.0612945556640625,-0.098602294921875
1782987174930947800,4.08494775390625,-0.986419677734375,0.06158447265625,-0.09979248046875
1782987174941023000,4.09502294921875,-0.9868927001953125,0.0616607666015625,-0.0989532470703125
1782987174951096800,4.105096923828125,-0.986541748046875,0.0602874755859375,-0.0977020263671875
1782987174961172000,4.115171875,-0.98602294921875,0.0596771240234375,-0.0985260009765625
1782987174971245800,4.125245849609375,-0.986236572265625,0.0610809326171875,-0.101409912109375
1782987174981321000,4.135321044921875,-0.9857635498046875,0.0608978271484375,-0.1000518798828125
1782987174991395000,4.14539501953125,-0.9860382080078125,0.0617828369140625,-0.101165771484375
1782987175001470000,4.155469970703125,-0.98663330078125,0.060638427734375,-0.100372314453125
1782987175011544000,4.1655439453125,-0.9841461181640625,0.0597686767578125,-0.1002044677734375
1782987175021619000,4.175618896484375,-0.9865875244140625,0.06109619140625,-0.1000213623046875
1782987175031693000,4.185693115234375,-0.986236572265625,0.059906005859375,-0.098907470703125
1782987175041767000,4.195766845703125,-0.986602783203125,0.060516357421875,-0.0993194580078125
1782987175051842000,4.205842041015625,-0.987335205078125,0.0620269775390625,-0.101287841796875
1782987175061916000,4.215916015625,-0.98443603515625,0.060302734375,-0.100128173828125
1782987175071991000,4.225990966796875,-0.9864654541015625,0.05963134765625,-0.09906005859375
1782987175082065000,4.23606494140625,-0.984375,0.06121826171875,-0.099273681640625
1782987175092140000,4.24614013671875,-0.9846649169921875,0.0615081787109375,-0.0983734130859375
1782987175102214000,4.2562138671875,-0.9862213134765625,0.0606231689453125,-0.1021881103515625
1782987175112289000,4.2662890625,-0.9912567138671875,0.061126708984375,-0.101531982421875
1782987175122363000,4.27636279296875,-0.98724365234375,0.0627593994140625,-0.0996551513671875
1782987175132438000,4.28643798828125,-0.9857025146484375,0.0606231689453125,-0.0995330810546875
1782987175142511900,4.296511962890625,-0.985321044921875,0.0597991943359375,-0.100982666015625
1782987175152587000,4.3065869140625,-0.987823486328125,0.0594635009765625,-0.1015167236328125
1782987175162660900,4.316660888671875,-0.98785400390625,0.0608062744140625,-0.0991668701171875
1782987175172735000,4.32673486328125,-0.986480712890625,0.0609588623046875,-0.0990753173828125
1782987175182809900,4.336809814453125,-0.985382080078125,0.05987548828125,-0.09942626953125
1782987175192884000,4.346884033203125,-0.9862823486328125,0.0615997314453125,-0.100341796875
1782987175202958800,4.356958740234375,-0.986907958984375,0.0612335205078125,-0.0974273681640625
1782987175213033000,4.367032958984375,-0.9882049560546875,0.061981201171875,-0.1005859375
1782987175223107800,4.37710791015625,-0.98626708984375,0.062774658203125,-0.101806640625
1782987175233182000,4.387181884765625,-0.985137939453125,0.0603179931640625,-0.1006317138671875
1782987175243256800,4.3972568359375,-0.9849395751953125,0.059906005859375,-0.09832763671875
1782987175253331000,4.4073310546875,-0.9842987060546875,0.060546875,-0.0977630615234375
1782987175263405800,4.41740576171875,-0.985260009765625,0.0621185302734375,-0.0982666015625
1782987175273480000,4.42747998046875,-0.988555908203125,0.0634613037109375,-0.10113525390625
1782987175283554800,4.437554931640625,-0.9876556396484375,0.0605010986328125,-0.099395751953125
1782987175293629000,4.44762890625,-0.9829864501953125,0.060211181640625,-0.0986175537109375
1782987175303704000,4.4577041015625,-0.9847412109375,0.0630645751953125,-0.099578857421875
1782987175313778200,4.467778076171875,-0.9866180419921875,0.061126708984375,-0.098052978515625
1782987175323852000,4.47785205078125,-0.988189697265625,0.0609283447265625,-0.102264404296875
1782987175333927200,4.48792724609375,-0.986572265625,0.0597686767578125,-0.1013641357421875
1782987175344001000,4.4980009765625,-0.9857177734375,0.061187744140625,-0.1005706787109375
1782987175354076200,4.508076171875,-0.9859466552734375,0.0621795654296875,-0.0982208251953125
1782987175364150000,4.51814990234375,-0.98651123046875,0.060272216796875,-0.0999603271484375
1782987175374225200,4.52822509765625,-0.986663818359375,0.061553955078125,-0.0998687744140625
1782987175384299000,4.538299072265625,-0.9886627197265625,0.0609130859375,-0.102325439453125
1782987175394374100,4.5483740234375,-0.9882965087890625,0.061187744140625,-0.1010589599609375
1782987175404448000,4.558447998046875,-0.98504638671875,0.059051513671875,-0.0990753173828125
1782987175414523100,4.568523193359375,-0.9836883544921875,0.0595245361328125,-0.1000518798828125
1782987175424597000,4.578596923828125,-0.9863433837890625,0.060821533203125,-0.099884033203125
1782987175434672000,4.588672119140625,-0.9887237548828125,0.0616302490234375,-0.09893798828125
1782987175444746000,4.59874609375,-0.9869384765625,0.0627899169921875,-0.099090576171875
1782987175454821000,4.608821044921875,-0.9872894287109375,0.0626068115234375,-0.10052490234375
1782987175464895000,4.61889501953125,-0.9852294921875,0.062042236328125,-0.09979248046875
1782987175474969000,4.628968994140625,-0.9846649169921875,0.0612945556640625,-0.0982666015625
1782987175485044000,4.6390439453125,-0.9848785400390625,0.059356689453125,-0.0988922119140625
1782987175495118000,4.6491181640625,-0.9877166748046875,0.062164306640625,-0.1009063720703125
1782987175505193000,4.65919287109375,-0.9899139404296875,0.0632171630859375,-0.100006103515625
1782987175515267000,4.66926708984375,-0.986358642578125,0.0607147216796875,-0.1000823974609375
1782987175525342000,4.679342041015625,-0.98309326171875,0.062591552734375,-0.100372314453125
1782987175535416000,4.689416015625,-0.9840545654296875,0.06280517578125,-0.101165771484375
1782987175545491000,4.699490966796875,-0.9876251220703125,0.061859130859375,-0.0996246337890625
1782987175555565000,4.70956494140625,-0.9872894287109375,0.0614013671875,-0.09991455078125
1782987175565640000,4.719639892578125,-0.9861907958984375,0.0609588623046875,-0.100250244140625
1782987175575714000,4.729714111328125,-0.9873809814453125,0.0619964599609375,-0.1013336181640625
1782987175585789000,4.739788818359375,-0.98712158203125,0.0626068115234375,-0.10052490234375
1782987175595863000,4.749863037109375,-0.9860076904296875,0.059234619140625,-0.099517822265625
1782987175605937000,4.75993701171875,-0.9848175048828125,0.061187744140625,-0.10003662109375
1782987175616012000,4.770011962890625,-0.9846343994140625,0.0602569580078125,-0.09857177734375
1782987175626086000,4.7800859375,-0.9826812744140625,0.0616607666015625,-0.0990447998046875
1782987175636161000,4.7901611328125,-0.9856719970703125,0.0622406005859375,-0.0994720458984375
1782987175646235000,4.80023486328125,-0.9874420166015625,0.0615081787109375,-0.1002960205078125
1782987175656310000,4.81031005859375,-0.9898681640625,0.062042236328125,-0.1007080078125
1782987175666384000,4.8203837890625,-0.9868316650390625,0.061309814453125,-0.1021575927734375
1782987175676459000,4.830458984375,-0.984832763671875,0.0610198974609375,-0.099029541015625
1782987175686532900,4.840532958984375,-0.9847564697265625,0.0602569580078125,-0.0987701416015625
1782987175696608000,4.85060791015625,-0.9857635498046875,0.0599822998046875,-0.1016693115234375
1782987175706681900,4.860681884765625,-0.9849700927734375,0.0620269775390625,-0.0983123779296875
1782987175716757000,4.870757080078125,-0.98828125,0.06005859375,-0.097991943359375
1782987175726830800,4.880830810546875,-0.9876708984375,0.061767578125,-0.1014404296875
1782987175736906000,4.890906005859375,-0.9864959716796875,0.062408447265625,-0.1006927490234375
1782987175746979800,4.900979736328125,-0.985870361328125,0.06231689453125,-0.0992584228515625
1782987175757054200,4.91105419921875,-0.9864501953125,0.0602264404296875,-0.09881591796875
1782987175767128800,4.92112890625,-0.984771728515625,0.0588836669921875,-0.0998687744140625
1782987175777203200,4.931203125,-0.9836578369140625,0.0615997314453125,-0.1022186279296875
1782987175787277800,4.94127783203125,-0.986968994140625,0.0623321533203125,-0.1014251708984375
1782987175797352200,4.951352294921875,-0.9887237548828125,0.061279296875,-0.100830078125
1782987175807426800,4.9614267578125,-0.984893798828125,0.0611419677734375,-0.0979461669921875
1782987175817501200,4.971501220703125,-0.9835662841796875,0.0600128173828125,-0.0976104736328125
1782987175827576000,4.981576171875,-0.98681640625,0.06182861328125,-0.0993194580078125
1782987175837650200,4.991650146484375,-0.987701416015625,0.059783935546875,-0.1005706787109375
1782987175847725000,5.00172509765625,-0.9857025146484375,0.0594329833984375,-0.1002044677734375
1782987175857799200,5.011799072265625,-0.986053466796875,0.0595703125,-0.099822998046875
1782987175867874000,5.0218740234375,-0.9854888916015625,0.06060791015625,-0.0993499755859375
1782987175877948200,5.0319482421875,-0.98529052734375,0.0610809326171875,-0.099334716796875
1782987175888023000,5.04202294921875,-0.98638916015625,0.0613861083984375,-0.099609375
1782987175898097200,5.05209716796875,-0.9862213134765625,0.0604095458984375,-0.1000823974609375
1782987175908171000,5.0621708984375,-0.9855804443359375,0.0625,-0.1006622314453125
1782987175918246100,5.07224609375,-0.9850616455078125,0.0607452392578125,-0.099822998046875
1782987175928320000,5.082320068359375,-0.984710693359375,0.059906005859375,-0.10015869140625
1782987175938395100,5.09239501953125,-0.9867706298828125,0.060791015625,-0.0997467041015625
1782987175948469200,5.10246923828125,-0.98565673828125,0.0623321533203125,-0.0998687744140625
1782987175958544100,5.112544189453125,-0.9855194091796875,0.061737060546875,-0.0994110107421875
1782987175968618200,5.1226181640625,-0.9876861572265625,0.0604400634765625,-0.1013031005859375
1782987175978693000,5.132693115234375,-0.98736572265625,0.06207275390625,-0.100738525390625
1782987175988767200,5.142767333984375,-0.985076904296875,0.06243896484375,-0.099639892578125
1782987175998842000,5.152842041015625,-0.9865264892578125,0.06011962890625,-0.0999755859375
1782987176008916200,5.162916259765625,-0.986328125,0.061767578125,-0.1018218994140625
1782987176018991000,5.1729912109375,-0.9864044189453125,0.0609283447265625,-0.1008453369140625
1782987176029065200,5.183065185546875,-0.9862060546875,0.060394287109375,-0.098968505859375
1782987176039140000,5.19314013671875,-0.98486328125,0.061614990234375,-0.1004180908203125
1782987176049214200,5.203214111328125,-0.9860992431640625,0.06329345703125,-0.09967041015625
1782987176059288000,5.2132880859375,-0.9864349365234375,0.0625457763671875,-0.0993804931640625
1782987176069363200,5.22336328125,-0.9863128662109375,0.06005859375,-0.1006622314453125
1782987176079437000,5.23343701171875,-0.98443603515625,0.0616455078125,-0.10150146484375
1782987176089512200,5.24351220703125,-0.9849853515625,0.063629150390625,-0.1019439697265625
1782987176099586000,5.2535859375,-0.9861297607421875,0.0630645751953125,-0.10028076171875
1782987176109661200,5.2636611328125,-0.987335205078125,0.0620880126953125,-0.099853515625
1782987176119735000,5.273735107421875,-0.9874267578125,0.0594024658203125,-0.098663330078125
1782987176129810200,5.28381005859375,-0.9854278564453125,0.0609893798828125,-0.09844970703125
1782987176139884000,5.293884033203125,-0.9865570068359375,0.0629425048828125,-0.1007080078125
1782987176149959200,5.303959228515625,-0.9864044189453125,0.0631103515625,-0.101226806640625
1782987176160033000,5.314032958984375,-0.98724365234375,0.06158447265625,-0.1016998291015625
1782987176170107100,5.324107177734375,-0.9887237548828125,0.0626220703125,-0.102142333984375
1782987176180181000,5.334180908203125,-0.987823486328125,0.061676025390625,-0.09954833984375
1782987176190256000,5.344256103515625,-0.98614501953125,0.0614776611328125,-0.10174560546875
1782987176200330000,5.354330078125,-0.9853973388671875,0.061004638671875,-0.0997314453125
1782987176210404000,5.364404052734375,-0.98480224609375,0.06060791015625,-0.09820556640625
1782987176220479000,5.37447900390625,-0.9852752685546875,0.0618896484375,-0.099029541015625
1782987176230553000,5.384552978515625,-0.986572265625,0.06134033203125,-0.09796142578125
1782987176240628000,5.3946279296875,-0.9870147705078125,0.060638427734375,-0.099029541015625
1782987176250702000,5.4047021484375,-0.987884521484375,0.061370849609375,-0.100006103515625
1782987176260777000,5.41477685546875,-0.986328125,0.061431884765625,-0.099212646484375
1782987176270851000,5.42485107421875,-0.9857940673828125,0.061553955078125,-0.0994873046875
1782987176280926000,5.434926025390625,-0.9842529296875,0.0598602294921875,-0.0984039306640625
1782987176291000000,5.445,-0.9835357666015625,0.0616302490234375,-0.100006103515625
1782987176301074700,5.45507470703125,-0.98565673828125,0.060638427734375,-0.100982666015625
1782987176311148500,5.4651484375,-0.98504638671875,0.0594482421875,-0.0983123779296875
1782987176321223700,5.4752236328125,-0.98541259765625,0.058685302734375,-0.097900390625
1782987176331297800,5.4852978515625,-0.98614501953125,0.0593414306640625,-0.0985870361328125
1782987176341372700,5.49537255859375,-0.98443603515625,0.0616302490234375,-0.097137451171875
1782987176351446800,5.50544677734375,-0.98590087890625,0.0615692138671875,-0.098663330078125
1782987176361520600,5.515520751953125,-0.9884796142578125,0.0609130859375,-0.1003570556640625
1782987176371595800,5.525595703125,-0.987335205078125,0.0567626953125,-0.099334716796875
1782987176381669600,5.535669677734375,-0.9430999755859375,0.024444580078125,-0.05877685546875
1782987176391744800,5.545744873046875,-0.8520660400390625,0.025146484375,-0.067108154296875
1782987176401819000,5.55581884765625,-1.0343475341796875,0.0813446044921875,-0.1286468505859375
1782987176411893800,5.565893798828125,-1.162017822265625,0.1076812744140625,-0.1400604248046875
1782987176421968000,5.5759677734375,-1.0618133544921875,0.0996246337890625,-0.149993896484375
1782987176432042800,5.586042724609375,-0.9760894775390625,0.0699310302734375,-0.0931854248046875
1782987176442116900,5.596116943359375,-0.9293365478515625,0.0592041015625,-0.0820465087890625
1782987176452191700,5.606191650390625,-0.940399169921875,0.04205322265625,-0.0870513916015625
1782987176462265900,5.616265869140625,-0.972869873046875,0.0333099365234375,-0.09130859375
1782987176472340700,5.6263408203125,-0.97442626953125,0.0465850830078125,-0.100830078125
1782987176482414800,5.636414794921875,-0.9923248291015625,0.0609588623046875,-0.099884033203125
1782987176492489000,5.646489013671875,-0.9852447509765625,0.063873291015625,-0.097015380859375
1782987176502563800,5.656563720703125,-0.981842041015625,0.0612945556640625,-0.09454345703125
1782987176512638000,5.666637939453125,-0.9958038330078125,0.0629425048828125,-0.0959014892578125
1782987176522712800,5.676712890625,-0.9980621337890625,0.0642547607421875,-0.1070098876953125
1782987176532787000,5.686786865234375,-0.98870849609375,0.06268310546875,-0.1056060791015625
1782987176542861800,5.69686181640625,-0.9766998291015625,0.0579376220703125,-0.10028076171875
1782987176552936000,5.70693603515625,-0.9764404296875,0.0586395263671875,-0.101715087890625
1782987176563010800,5.7170107421875,-0.98492431640625,0.06219482421875,-0.0991973876953125
1782987176573085000,5.7270849609375,-0.9884185791015625,0.0649871826171875,-0.0997772216796875
1782987176583159800,5.737159912109375,-0.99285888671875,0.063079833984375,-0.1007537841796875
1782987176593234000,5.74723388671875,-0.9939727783203125,0.0631561279296875,-0.100555419921875
1782987176603308800,5.757308837890625,-0.9880523681640625,0.0615234375,-0.09967041015625
1782987176613383000,5.7673828125,-0.98388671875,0.0586395263671875,-0.0985565185546875
1782987176623457800,5.777457763671875,-0.9793548583984375,0.059967041015625,-0.0991973876953125
1782987176633532000,5.787531982421875,-0.982208251953125,0.0615997314453125,-0.1025848388671875
1782987176643605800,5.797605712890625,-0.9915618896484375,0.0649261474609375,-0.1028289794921875
1782987176653681000,5.807680908203125,-0.9931488037109375,0.065704345703125,-0.1032867431640625
1782987176663754800,5.817754638671875,-0.9907684326171875,0.0638885498046875,-0.102142333984375
1782987176673830000,5.827829833984375,-0.9879913330078125,0.0633392333984375,-0.1013336181640625
1782987176683903700,5.83790380859375,-0.9837799072265625,0.063232421875,-0.1004486083984375
1782987176693979000,5.847978759765625,-0.983245849609375,0.059722900390625,-0.099395751953125
1782987176704052700,5.858052734375,-0.9841766357421875,0.0597991943359375,-0.0988006591796875
1782987176714128000,5.8681279296875,-0.9859771728515625,0.0606536865234375,-0.099884033203125
1782987176724201700,5.87820166015625,-0.9866485595703125,0.0611724853515625,-0.09918212890625
1782987176734276900,5.88827685546875,-0.9879608154296875,0.061370849609375,-0.0996551513671875
1782987176744350700,5.898350830078125,-0.9883880615234375,0.063873291015625,-0.0983734130859375
1782987176754425900,5.90842578125,-0.9871063232421875,0.060791015625,-0.103759765625
1782987176764499700,5.918499755859375,-0.9857177734375,0.0597991943359375,-0.0999603271484375
1782987176774573800,5.92857373046875,-0.9848480224609375,0.0605316162109375,-0.0986175537109375
1782987176784648700,5.938648681640625,-0.98431396484375,0.05706787109375,-0.0982666015625
1782987176794722800,5.948722900390625,-0.9871826171875,0.0605010986328125,-0.098541259765625
1782987176804797700,5.958797607421875,-0.9834136962890625,0.0577392578125,-0.09771728515625
1782987176814871800,5.968871826171875,-0.9859771728515625,0.0594024658203125,-0.0975799560546875
1782987176824946700,5.97894677734375,-0.985382080078125,0.058563232421875,-0.09716796875
1782987176835020800,5.989020751953125,-0.982177734375,0.0584869384765625,-0.098175048828125
1782987176845096000,5.999095947265625,-0.985504150390625,0.0595245361328125,-0.099365234375
1782987176855169800,6.009169677734375,-0.988250732421875,0.060028076171875,-0.10235595703125
1782987176865245000,6.019244873046875,-0.988433837890625,0.0592803955078125,-0.10302734375
1782987176875318800,6.02931884765625,-0.9904327392578125,0.0579681396484375,-0.1010589599609375
1782987176885394000,6.039393798828125,-0.98797607421875,0.0569610595703125,-0.0982208251953125
1782987176895467800,6.0494677734375,-0.98541259765625,0.056488037109375,-0.097991943359375
1782987176905543000,6.05954296875,-0.9835968017578125,0.058135986328125,-0.09832763671875
1782987176915616800,6.06961669921875,-0.983428955078125,0.05889892578125,-0.098602294921875
1782987176925690600,6.079690673828125,-0.984375,0.05889892578125,-0.0975341796875
1782987176935765800,6.089765869140625,-0.985137939453125,0.061309814453125,-0.097412109375
1782987176945839600,6.099839599609375,-0.9874114990234375,0.058929443359375,-0.0973052978515625
1782987176955914800,6.109914794921875,-0.9875946044921875,0.0601043701171875,-0.0978546142578125
1782987176965988900,6.11998876953125,-0.9860382080078125,0.0623626708984375,-0.098968505859375
1782987176976063700,6.130063720703125,-0.9866943359375,0.059906005859375,-0.0993194580078125
1782987176986137900,6.140137939453125,-0.9847412109375,0.0585784912109375,-0.0994415283203125
1782987176996212700,6.150212646484375,-0.9843902587890625,0.0586395263671875,-0.09735107421875
1782987177006286800,6.160286865234375,-0.983367919921875,0.0594024658203125,-0.0981597900390625
1782987177016361700,6.17036181640625,-0.9862518310546875,0.061614990234375,-0.1013641357421875
1782987177026435800,6.180435791015625,-0.98809814453125,0.065216064453125,-0.1026153564453125
1782987177036510700,6.1905107421875,-0.989471435546875,0.0638580322265625,-0.100341796875
1782987177046584800,6.200584716796875,-0.984771728515625,0.0608978271484375,-0.099273681640625
1782987177056659700,6.21065966796875,-0.9831695556640625,0.058135986328125,-0.0975799560546875
1782987177066733800,6.22073388671875,-0.983062744140625,0.0591583251953125,-0.0977325439453125
1782987177076807700,6.2308076171875,-0.9858245849609375,0.0605316162109375,-0.0984954833984375
1782987177086882800,6.2408828125,-0.9864044189453125,0.061981201171875,-0.10089111328125
1782987177096956700,6.250956787109375,-0.988616943359375,0.0612640380859375,-0.1004180908203125
1782987177107031800,6.26103173828125,-0.9885101318359375,0.0611114501953125,-0.10052490234375
1782987177117105700,6.271105712890625,-0.9866180419921875,0.0597076416015625,-0.099700927734375
1782987177127180800,6.281180908203125,-0.987274169921875,0.0592193603515625,-0.100372314453125
1782987177137254700,6.291254638671875,-0.9862823486328125,0.0585479736328125,-0.1009674072265625
1782987177147329800,6.301329833984375,-0.98712158203125,0.0576171875,-0.0992431640625
1782987177157403600,6.311403564453125,-0.9852294921875,0.0598297119140625,-0.0994415283203125
1782987177167478800,6.321478759765625,-0.9846343994140625,0.0596466064453125,-0.100677490234375
1782987177177552600,6.331552734375,-0.9870147705078125,0.0588836669921875,-0.0986175537109375
1782987177187627800,6.341627685546875,-0.988800048828125,0.0608062744140625,-0.100189208984375
1782987177197701600,6.35170166015625,-0.9881591796875,0.0597991943359375,-0.1008758544921875
1782987177207776800,6.36177685546875,-0.9868011474609375,0.061004638671875,-0.099822998046875
1782987177217850600,6.3718505859375,-0.9852142333984375,0.05999755859375,-0.09954833984375
1782987177227924700,6.3819248046875,-0.98626708984375,0.0619659423828125,-0.0973358154296875
1782987177237999600,6.39199951171875,-0.985809326171875,0.060943603515625,-0.09954833984375
1782987177248073700,6.40207373046875,-0.984832763671875,0.060760498046875,-0.1005706787109375
1782987177258148600,6.412148681640625,-0.9852447509765625,0.060821533203125,-0.0995635986328125
1782987177268222700,6.42222265625,-0.986114501953125,0.0617218017578125,-0.099456787109375
1782987177278297600,6.432297607421875,-0.9879608154296875,0.0612335205078125,-0.0996856689453125
1782987177288371700,6.442371826171875,-0.988189697265625,0.0603790283203125,-0.100738525390625
1782987177298446300,6.4524462890625,-0.9873199462890625,0.062530517578125,-0.1005096435546875
1782987177308520400,6.4625205078125,-0.98712158203125,0.0632781982421875,-0.1017913818359375
1782987177318595300,6.47259521484375,-0.98681640625,0.0618438720703125,-0.10162353515625
1782987177328669400,6.48266943359375,-0.9875946044921875,0.0617523193359375,-0.1038970947265625
1782987177338744300,6.492744384765625,-0.9864654541015625,0.0626678466796875,-0.1011505126953125
1782987177348818400,6.502818359375,-0.987823486328125,0.0626373291015625,-0.1009063720703125
1782987177358893300,6.512893310546875,-0.9882049560546875,0.0628509521484375,-0.1015625
1782987177368967400,6.522967529296875,-0.9868316650390625,0.0630035400390625,-0.099700927734375
1782987177379041500,6.53304150390625,-0.9866790771484375,0.061492919921875,-0.0997467041015625
1782987177389116400,6.543116455078125,-0.9850006103515625,0.05975341796875,-0.0992584228515625
1782987177399190500,6.5531904296875,-0.985870361328125,0.0596923828125,-0.099212646484375
1782987177409265400,6.563265380859375,-0.9859619140625,0.0614776611328125,-0.1006317138671875
1782987177419339500,6.573339599609375,-0.98870849609375,0.061798095703125,-0.098602294921875
1782987177429414400,6.583414306640625,-0.9863739013671875,0.0596923828125,-0.0994110107421875
1782987177439488500,6.593488525390625,-0.9857177734375,0.0594329833984375,-0.09912109375
1782987177449563400,6.6035634765625,-0.9876861572265625,0.059906005859375,-0.099456787109375
1782987177459637500,6.613637451171875,-0.988800048828125,0.0593414306640625,-0.0997314453125
1782987177469712400,6.62371240234375,-0.9856109619140625,0.0596160888671875,-0.1002655029296875
1782987177479786500,6.633786376953125,-0.986663818359375,0.05987548828125,-0.0999298095703125
1782987177489861400,6.643861328125,-0.9857025146484375,0.060211181640625,-0.1008453369140625
1782987177499935500,6.653935546875,-0.985137939453125,0.06072998046875,-0.099456787109375
1782987177510009600,6.664009521484375,-0.9844970703125,0.060394287109375,-0.0966339111328125
1782987177520084700,6.674084716796875,-0.985015869140625,0.061492919921875,-0.0989227294921875
1782987177530158600,6.68415869140625,-0.9835968017578125,0.0615081787109375,-0.099700927734375
1782987177540233700,6.694233642578125,-0.9859466552734375,0.0601348876953125,-0.100311279296875
1782987177550307600,6.7043076171875,-0.986663818359375,0.061187744140625,-0.0994873046875
1782987177560382700,6.7143828125,-0.98638916015625,0.0592498779296875,-0.0987701416015625
1782987177570456600,6.72445654296875,-0.98583984375,0.0601043701171875,-0.0990447998046875
1782987177580531700,6.73453173828125,-0.9861907958984375,0.0606536865234375,-0.099090576171875
1782987177590605600,6.74460546875,-0.9880828857421875,0.060272216796875,-0.10052490234375
1782987177600680700,6.7546806640625,-0.98614501953125,0.0581817626953125,-0.099517822265625
1782987177610754600,6.764754638671875,-0.98345947265625,0.059112548828125,-0.0980377197265625
1782987177620829700,6.77482958984375,-0.98431396484375,0.0606536865234375,-0.09735107421875
1782987177630903600,6.784903564453125,-0.9855804443359375,0.0611419677734375,-0.1000213623046875
1782987177640978700,6.794978759765625,-0.988494873046875,0.05975341796875,-0.10028076171875
1782987177651052500,6.805052490234375,-0.988800048828125,0.0590362548828125,-0.099029541015625
1782987177661126700,6.815126708984375,-0.9841156005859375,0.061126708984375,-0.0997467041015625
1782987177671201500,6.825201416015625,-0.985382080078125,0.0605926513671875,-0.0995025634765625
1782987177681275600,6.835275634765625,-0.985107421875,0.060821533203125,-0.0991973876953125
1782987177691350500,6.8453505859375,-0.984893798828125,0.0615234375,-0.098724365234375
1782987177701424600,6.855424560546875,-0.987518310546875,0.063232421875,-0.1000213623046875
1782987177711499500,6.86549951171875,-0.987274169921875,0.0628509521484375,-0.10089111328125
1782987177721573600,6.87557373046875,-0.9874725341796875,0.063140869140625,-0.10064697265625
1782987177731648500,6.8856484375,-0.987213134765625,0.0615692138671875,-0.09844970703125
1782987177741722600,6.89572265625,-0.98504638671875,0.061859130859375,-0.09674072265625
1782987177751797500,6.905797607421875,-0.9842987060546875,0.0610198974609375,-0.099761962890625
1782987177761871600,6.91587158203125,-0.985809326171875,0.060516357421875,-0.100860595703125
1782987177771946500,6.925946533203125,-0.98748779296875,0.06243896484375,-0.09912109375
1782987177782020600,6.9360205078125,-0.9867095947265625,0.063201904296875,-0.098785400390625
1782987177792094500,6.946094482421875,-0.9847412109375,0.0626068115234375,-0.100921630859375
1782987177802169600,6.956169677734375,-0.986572265625,0.064697265625,-0.102264404296875
1782987177812243500,6.966243408203125,-0.9860382080078125,0.06292724609375,-0.102325439453125
1782987177822318600,6.976318603515625,-0.986907958984375,0.0625152587890625,-0.0989532470703125
1782987177832392400,6.986392333984375,-0.985076904296875,0.060302734375,-0.0966339111328125
1782987177842467600,6.996467529296875,-0.986175537109375,0.0589599609375,-0.098297119140625
1782987177852541400,7.00654150390625,-0.986175537109375,0.058929443359375,-0.0989837646484375
1782987177862616600,7.016616455078125,-0.98565673828125,0.05975341796875,-0.09735107421875
1782987177872690400,7.0266904296875,-0.987213134765625,0.060638427734375,-0.0987396240234375
1782987177882765600,7.036765625,-0.988677978515625,0.059539794921875,-0.0992889404296875
1782987177892839400,7.04683935546875,-0.986236572265625,0.0601348876953125,-0.098876953125
1782987177902914600,7.05691455078125,-0.986907958984375,0.0612335205078125,-0.0995330810546875
1782987177912988400,7.066988525390625,-0.98583984375,0.0604400634765625,-0.0987091064453125
1782987177923063600,7.0770634765625,-0.98577880859375,0.0613555908203125,-0.0987396240234375
1782987177933137400,7.087137451171875,-0.9848480224609375,0.0620269775390625,-0.1004486083984375
1782987177943212500,7.097212646484375,-0.985198974609375,0.059600830078125,-0.0979461669921875
1782987177953286400,7.107286376953125,-0.98626708984375,0.0614013671875,-0.099517822265625
1782987177963360500,7.117360595703125,-0.9857025146484375,0.06231689453125,-0.09912109375
1782987177973435400,7.127435302734375,-0.9882659912109375,0.0618896484375,-0.09832763671875
1782987177983509500,7.137509521484375,-0.9875640869140625,0.0625,-0.0994415283203125
1782987177993584400,7.14758447265625,-0.9843902587890625,0.0629119873046875,-0.09881591796875
1782987178003658500,7.157658447265625,-0.9844818115234375,0.0616302490234375,-0.0998077392578125
1782987178013733600,7.167733642578125,-0.9841156005859375,0.0623931884765625,-0.0996551513671875
1782987178023807500,7.177807373046875,-0.98638916015625,0.0629119873046875,-0.100982666015625
1782987178033882600,7.187882568359375,-0.98663330078125,0.0631866455078125,-0.10198974609375
1782987178043956500,7.19795654296875,-0.988250732421875,0.0627593994140625,-0.1035308837890625
1782987178054031600,7.208031494140625,-0.9890899658203125,0.0617828369140625,-0.1015625
1782987178064105500,7.21810546875,-0.989898681640625,0.06219482421875,-0.1008758544921875
1782987178074180600,7.2281806640625,-0.987701416015625,0.05926513671875,-0.1013946533203125
1782987178084254500,7.23825439453125,-0.9862518310546875,0.0588531494140625,-0.1011810302734375
1782987178094328300,7.248328369140625,-0.984100341796875,0.0580596923828125,-0.097900390625
1782987178104403500,7.258403564453125,-0.9817962646484375,0.05810546875,-0.09735107421875
1782987178114477300,7.268477294921875,-0.98065185546875,0.0580596923828125,-0.0971221923828125
1782987178124552400,7.278552490234375,-0.98321533203125,0.0595550537109375,-0.09918212890625
1782987178134626300,7.288626220703125,-0.9893035888671875,0.060821533203125,-0.100311279296875
1782987178144701400,7.298701416015625,-0.990936279296875,0.06298828125,-0.101898193359375
1782987178154775600,7.308775634765625,-0.9898529052734375,0.0638275146484375,-0.101837158203125
1782987178164850400,7.318850341796875,-0.985809326171875,0.0628662109375,-0.1000213623046875
1782987178174924500,7.328924560546875,-0.984100341796875,0.0608367919921875,-0.099884033203125
1782987178184999400,7.33899951171875,-0.9824981689453125,0.0589599609375,-0.09869384765625
1782987178195073500,7.349073486328125,-0.9852142333984375,0.06011962890625,-0.0982513427734375
1782987178205148400,7.3591484375,-0.98681640625,0.0600128173828125,-0.0986480712890625
1782987178215222500,7.369222412109375,-0.985595703125,0.061981201171875,-0.100341796875
1782987178225296400,7.37929638671875,-0.9857330322265625,0.060943603515625,-0.1000213623046875
1782987178235371500,7.38937158203125,-0.9865570068359375,0.063446044921875,-0.100433349609375
1782987178245445400,7.3994453125,-0.986846923828125,0.0636138916015625,-0.10113525390625
1782987178255520500,7.4095205078125,-0.986541748046875,0.061370849609375,-0.100433349609375
1782987178265594400,7.419594482421875,-0.9872589111328125,0.06231689453125,-0.0996246337890625
1782987178275669500,7.42966943359375,-0.9842681884765625,0.062957763671875,-0.10186767578125
1782987178285743400,7.439743408203125,-0.985748291015625,0.0626983642578125,-0.1018829345703125
1782987178295819000,7.449819091796875,-0.987060546875,0.0618133544921875,-0.1001434326171875
1782987178305893000,7.45989306640625,-0.9864959716796875,0.0615081787109375,-0.0990753173828125
1782987178315968000,7.469968017578125,-0.98687744140625,0.0607452392578125,-0.0996551513671875
1782987178326042000,7.4800419921875,-0.9841156005859375,0.0613250732421875,-0.1012420654296875
1782987178336117000,7.490116943359375,-0.9848480224609375,0.0601959228515625,-0.1008453369140625
1782987178346191000,7.500191162109375,-0.985626220703125,0.0604095458984375,-0.0994415283203125
1782987178356266000,7.510265869140625,-0.9852752685546875,0.0621490478515625,-0.0992279052734375
1782987178366340000,7.520340087890625,-0.98626708984375,0.0617218017578125,-0.1006317138671875
1782987178376414000,7.5304140625,-0.986328125,0.06231689453125,-0.1014862060546875
1782987178386489000,7.540489013671875,-0.987213134765625,0.061065673828125,-0.0988311767578125
1782987178396563000,7.55056298828125,-0.98724365234375,0.0616455078125,-0.100311279296875
1782987178406638000,7.56063818359375,-0.9875640869140625,0.06072998046875,-0.101593017578125
1782987178416712000,7.5707119140625,-0.9851837158203125,0.0606536865234375,-0.0993194580078125
1782987178426787000,7.580787109375,-0.9856719970703125,0.06103515625,-0.101409912109375
1782987178436861000,7.59086083984375,-0.9842071533203125,0.06060791015625,-0.098602294921875
1782987178446936000,7.60093603515625,-0.98455810546875,0.060028076171875,-0.099822998046875
1782987178457010000,7.611010009765625,-0.9855804443359375,0.0609130859375,-0.0987396240234375
1782987178467085000,7.6210849609375,-0.9845123291015625,0.0615386962890625,-0.099395751953125
1782987178477159000,7.631158935546875,-0.9863433837890625,0.061553955078125,-0.1005706787109375
1782987178487234000,7.641234130859375,-0.986236572265625,0.060699462890625,-0.099853515625
1782987178497308000,7.651307861328125,-0.9855804443359375,0.061309814453125,-0.0991363525390625
1782987178507383000,7.661383056640625,-0.98663330078125,0.062103271484375,-0.1010894775390625
1782987178517457200,7.67145703125,-0.9887542724609375,0.06231689453125,-0.099639892578125
1782987178527531300,7.68153125,-0.987213134765625,0.0589752197265625,-0.099151611328125
1782987178537606100,7.691606201171875,-0.9832000732421875,0.0614013671875,-0.0977630615234375
1782987178547680300,7.70168017578125,-0.9857635498046875,0.060760498046875,-0.10064697265625
1782987178557755100,7.711755126953125,-0.98895263671875,0.062103271484375,-0.100738525390625
1782987178567829200,7.721829345703125,-0.9857330322265625,0.0627288818359375,-0.1002960205078125
1782987178577904000,7.731904052734375,-0.987060546875,0.06182861328125,-0.101165771484375
1782987178587978200,7.741978271484375,-0.9882965087890625,0.0624542236328125,-0.1007843017578125
1782987178598053000,7.75205322265625,-0.9864349365234375,0.0611572265625,-0.0990753173828125
1782987178608127200,7.762127197265625,-0.9835205078125,0.0574798583984375,-0.096466064453125
1782987178618202000,7.7722021484375,-0.9762115478515625,0.056427001953125,-0.0995330810546875
1782987178628276200,7.782276123046875,-0.9951629638671875,0.0675048828125,-0.108978271484375
1782987178638351000,7.79235107421875,-0.9626617431640625,0.062103271484375,-0.083404541015625
1782987178648425200,7.80242529296875,-1.0119171142578125,0.053436279296875,-0.0933990478515625
1782987178658500000,7.8125,-1.014617919921875,0.0764923095703125,-0.1348876953125
1782987178668574200,7.82257421875,-0.96942138671875,0.0655517578125,-0.090606689453125
1782987178678648300,7.8326484375,-0.9624786376953125,0.052734375,-0.076873779296875
1782987178688723200,7.84272314453125,-0.9866943359375,0.0572967529296875,-0.104644775390625
1782987178698797300,7.85279736328125,-1.0187225341796875,0.069000244140625,-0.1142578125
1782987178708872200,7.8628720703125,-0.987274169921875,0.064849853515625,-0.097930908203125
1782987178718946300,7.8729462890625,-0.96405029296875,0.0550537109375,-0.0883026123046875
1782987178729021200,7.883021240234375,-0.981597900390625,0.060333251953125,-0.1022491455078125
1782987178739095300,7.89309521484375,-1.0029449462890625,0.0680084228515625,-0.1079864501953125
1782987178749170200,7.903170166015625,-0.994354248046875,0.0635223388671875,-0.09979248046875
1782987178759244300,7.913244384765625,-0.9792633056640625,0.0564422607421875,-0.0965576171875
1782987178769319200,7.923319091796875,-0.9856719970703125,0.0576629638671875,-0.1002960205078125
1782987178779393300,7.933393310546875,-0.9872894287109375,0.06201171875,-0.1014251708984375
1782987178789468200,7.94346826171875,-0.9836883544921875,0.0599517822265625,-0.0956878662109375
1782987178799542300,7.953542236328125,-0.981964111328125,0.0583648681640625,-0.0980377197265625
1782987178809617200,7.9636171875,-0.9869232177734375,0.0608978271484375,-0.1033935546875
1782987178819691300,7.973691162109375,-0.9904022216796875,0.0628509521484375,-0.1008148193359375
1782987178829765000,7.98376513671875,-0.9846038818359375,0.0605010986328125,-0.0984039306640625
1782987178839840300,7.99384033203125,-0.983978271484375,0.0591278076171875,-0.10162353515625
1782987178849914000,8.0039140625,-0.988128662109375,0.06304931640625,-0.1049652099609375
1782987178859989200,8.0139892578125,-0.9894561767578125,0.0653228759765625,-0.1019439697265625
1782987178870063000,8.02406298828125,-0.9890594482421875,0.06207275390625,-0.0999298095703125
1782987178880138200,8.03413818359375,-0.9845733642578125,0.0592041015625,-0.0998382568359375
1782987178890212000,8.044212158203125,-0.985870361328125,0.060821533203125,-0.10076904296875
1782987178900287200,8.054287353515624,-0.987396240234375,0.0585479736328125,-0.099578857421875
1782987178910361000,8.064361083984375,-0.9851531982421875,0.0597686767578125,-0.0991973876953125
1782987178920436200,8.074436279296876,-0.9879302978515625,0.0623931884765625,-0.1013946533203125
1782987178930510000,8.084510009765625,-0.9869842529296875,0.060546875,-0.099884033203125
1782987178940585200,8.094585205078126,-0.9864654541015625,0.0611572265625,-0.0999603271484375
1782987178950659000,8.1046591796875,-0.98565673828125,0.0610504150390625,-0.099639892578125
1782987178960733200,8.114733154296875,-0.9865875244140625,0.0609588623046875,-0.100982666015625
1782987178970808000,8.12480810546875,-0.9854583740234375,0.0618133544921875,-0.1004180908203125
1782987178980882200,8.134882080078125,-0.987579345703125,0.060394287109375,-0.1003875732421875
1782987178990957000,8.14495703125,-0.9876861572265625,0.0604248046875,-0.102569580078125
1782987179001031200,8.15503125,-0.9879913330078125,0.0604705810546875,-0.0987396240234375
1782987179011106000,8.16510595703125,-0.985626220703125,0.0608062744140625,-0.098876953125
1782987179021180200,8.17518017578125,-0.9834747314453125,0.06109619140625,-0.099700927734375
1782987179031255300,8.18525537109375,-0.9880828857421875,0.0602874755859375,-0.0998382568359375
1782987179041329200,8.1953291015625,-0.98663330078125,0.062530517578125,-0.1007537841796875
1782987179051404300,8.205404296875,-0.985504150390625,0.0628662109375,-0.1005401611328125
1782987179061478100,8.21547802734375,-0.985748291015625,0.06085205078125,-0.10040283203125
1782987179071553300,8.22555322265625,-0.9867706298828125,0.0607757568359375,-0.0999298095703125
1782987179081627100,8.235627197265625,-0.9866790771484375,0.0632781982421875,-0.1024169921875
1782987179091702300,8.245702392578124,-0.9872894287109375,0.06268310546875,-0.1005401611328125
1782987179101776100,8.255776123046875,-0.9861907958984375,0.0609588623046875,-0.0994415283203125
1782987179111850000,8.26585009765625,-0.985015869140625,0.06292724609375,-0.0993194580078125
1782987179121925000,8.275925048828125,-0.988006591796875,0.0618743896484375,-0.100738525390625
1782987179131999000,8.2859990234375,-0.9873809814453125,0.0609130859375,-0.1001129150390625
1782987179142074000,8.29607421875,-0.983551025390625,0.0614776611328125,-0.099853515625
1782987179152148200,8.306148193359375,-0.98468017578125,0.0612640380859375,-0.0995941162109375
1782987179162223000,8.31622314453125,-0.9870452880859375,0.061370849609375,-0.09869384765625
1782987179172297200,8.326297119140625,-0.98577880859375,0.0602874755859375,-0.1009063720703125
1782987179182372000,8.3363720703125,-0.987030029296875,0.060791015625,-0.10125732421875
1782987179192446200,8.3464462890625,-0.9859466552734375,0.061431884765625,-0.1006317138671875
1782987179202521000,8.35652099609375,-0.98760986328125,0.061676025390625,-0.0994720458984375
1782987179212595200,8.36659521484375,-0.9863128662109375,0.06256103515625,-0.098846435546875
1782987179222670000,8.376670166015625,-0.9875030517578125,0.0593109130859375,-0.0998992919921875
1782987179232744200,8.386744140625,-0.9852447509765625,0.0618743896484375,-0.101409912109375
1782987179242818000,8.396818115234375,-0.9833526611328125,0.0618133544921875,-0.0978240966796875
1782987179252893200,8.40689306640625,-0.9869537353515625,0.0606689453125,-0.0996246337890625
1782987179262967000,8.416967041015624,-0.988067626953125,0.060577392578125,-0.100616455078125
1782987179273042200,8.427042236328125,-0.983795166015625,0.06097412109375,-0.0985870361328125
1782987179283116000,8.437115966796876,-0.9860382080078125,0.0593719482421875,-0.0991363525390625
1782987179293191200,8.447191162109375,-0.9882659912109375,0.0597076416015625,-0.099822998046875
1782987179303264500,8.457264404296875,-0.987091064453125,0.0604400634765625,-0.100128173828125
1782987179313339400,8.46733935546875,-0.9854278564453125,0.0607452392578125,-0.1007080078125
1782987179323413500,8.47741357421875,-0.9836883544921875,0.0606536865234375,-0.0995941162109375
1782987179333488400,8.48748828125,-0.9838409423828125,0.060546875,-0.1010284423828125
1782987179343562500,8.4975625,-0.9853363037109375,0.061676025390625,-0.10003662109375
1782987179353637400,8.507637451171876,-0.9889678955078125,0.059906005859375,-0.099884033203125
1782987179363711500,8.51771142578125,-0.98687744140625,0.0609130859375,-0.1016082763671875
1782987179373786400,8.527786376953125,-0.985809326171875,0.0606536865234375,-0.100067138671875
1782987179383860500,8.537860595703124,-0.9867401123046875,0.0615081787109375,-0.09967041015625
1782987179393934600,8.5479345703125,-0.986572265625,0.0612030029296875,-0.1001129150390625
1782987179404009500,8.558009521484376,-0.985504150390625,0.06134033203125,-0.0997314453125
1782987179414083600,8.56808349609375,-0.9880218505859375,0.06005859375,-0.0984954833984375
1782987179424158500,8.578158447265626,-0.988250732421875,0.061309814453125,-0.0996856689453125
1782987179434232600,8.588232666015625,-0.9875946044921875,0.0616302490234375,-0.0992584228515625
1782987179444307500,8.598307373046875,-0.9846649169921875,0.06170654296875,-0.0983734130859375
1782987179454381600,8.608381591796874,-0.9873809814453125,0.06036376953125,-0.09912109375
1782987179464456400,8.61845654296875,-0.9863128662109375,0.0604248046875,-0.1024627685546875
1782987179474530600,8.628530517578126,-0.9862060546875,0.0621795654296875,-0.101593017578125
1782987179484605400,8.63860546875,-0.987518310546875,0.0601806640625,-0.099517822265625
1782987179494679600,8.648679443359375,-0.9868316650390625,0.0615997314453125,-0.100830078125
1782987179504754400,8.65875439453125,-0.9880218505859375,0.0617828369140625,-0.1013641357421875
1782987179514828500,8.66882861328125,-0.9866790771484375,0.061004638671875,-0.09893798828125
1782987179524903400,8.6789033203125,-0.98541259765625,0.060272216796875,-0.0981597900390625
1782987179534977500,8.6889775390625,-0.9868316650390625,0.058807373046875,-0.09967041015625
1782987179545051600,8.6990517578125,-0.9861297607421875,0.0605010986328125,-0.099639892578125
1782987179555126800,8.709126708984375,-0.9859466552734375,0.0614013671875,-0.0992584228515625
1782987179565200600,8.71920068359375,-0.984039306640625,0.0610809326171875,-0.1002960205078125
1782987179575275800,8.72927587890625,-0.9851837158203125,0.0612030029296875,-0.0996856689453125
1782987179585349600,8.739349609375,-0.986724853515625,0.0615997314453125,-0.0988922119140625
1782987179595424800,8.7494248046875,-0.9860992431640625,0.060699462890625,-0.1002349853515625
1782987179605498600,8.75949853515625,-0.9844818115234375,0.0594940185546875,-0.100433349609375
1782987179615573800,8.76957373046875,-0.9846343994140625,0.0606842041015625,-0.1011810302734375
1782987179625647600,8.779647705078125,-0.9876556396484375,0.0608673095703125,-0.1015625
1782987179635722800,8.78972265625,-0.9879913330078125,0.062103271484375,-0.101593017578125
1782987179645796600,8.799796630859374,-0.98773193359375,0.06207275390625,-0.101837158203125
1782987179655871700,8.809871826171875,-0.9872589111328125,0.0621795654296875,-0.099334716796875
1782987179665945600,8.819945556640626,-0.9850311279296875,0.0601348876953125,-0.0990753173828125
1782987179676020700,8.830020751953125,-0.9850616455078125,0.0602874755859375,-0.1008148193359375
1782987179686094600,8.840094482421875,-0.9875030517578125,0.06109619140625,-0.1001434326171875
1782987179696168700,8.850168701171874,-0.987579345703125,0.0610809326171875,-0.099609375
1782987179706243600,8.86024365234375,-0.9864654541015625,0.0595245361328125,-0.0992584228515625
1782987179716317700,8.870317626953126,-0.987030029296875,0.0603179931640625,-0.100830078125
1782987179726392600,8.880392578125,-0.986083984375,0.0610198974609375,-0.0991058349609375
1782987179736466700,8.890466796875,-0.9848175048828125,0.0614013671875,-0.0995635986328125
1782987179746541600,8.90054150390625,-0.98687744140625,0.059906005859375,-0.1005859375
1782987179756615700,8.91061572265625,-0.9856414794921875,0.061492919921875,-0.1003875732421875
1782987179766690600,8.920690673828124,-0.98773193359375,0.060882568359375,-0.0988311767578125
1782987179776764700,8.9307646484375,-0.9872283935546875,0.061004638671875,-0.0986480712890625
1782987179786839600,8.940839599609374,-0.9853057861328125,0.0612640380859375,-0.1008453369140625
1782987179796913700,8.95091357421875,-0.9872589111328125,0.0599517822265625,-0.0984039306640625
1782987179806988500,8.960988525390626,-0.9841156005859375,0.0606842041015625,-0.09881591796875
1782987179817062700,8.971062744140625,-0.98681640625,0.0633697509765625,-0.10101318359375
1782987179827136500,8.981136474609375,-0.9863128662109375,0.060302734375,-0.0979766845703125
1782987179837211600,8.991211669921874,-0.9835052490234375,0.06170654296875,-0.100189208984375
1782987179847285500,9.001285400390625,-0.98712158203125,0.062225341796875,-0.1001129150390625
1782987179857360600,9.011360595703126,-0.987060546875,0.0631561279296875,-0.0991363525390625
1782987179867434500,9.0214345703125,-0.985748291015625,0.0615386962890625,-0.1004180908203125
1782987179877509600,9.031509521484375,-0.985931396484375,0.06024169921875,-0.1002197265625
1782987179887583500,9.04158349609375,-0.989715576171875,0.06109619140625,-0.097900390625
1782987179897658600,9.05165869140625,-0.9868316650390625,0.06146240234375,-0.098236083984375
1782987179907732500,9.061732421875,-0.98419189453125,0.05841064453125,-0.0990753173828125
1782987179917807600,9.0718076171875,-0.9852752685546875,0.0598602294921875,-0.09954833984375
1782987179927881500,9.081881591796876,-0.9881439208984375,0.0615386962890625,-0.10040283203125
1782987179937956600,9.09195654296875,-0.9892578125,0.0615997314453125,-0.1014862060546875
1782987179948030500,9.102030517578125,-0.98663330078125,0.05975341796875,-0.099639892578125
1782987179958105600,9.112105712890624,-0.9849395751953125,0.0603790283203125,-0.0978240966796875
1782987179968179500,9.122179443359375,-0.9873046875,0.0596923828125,-0.099517822265625
1782987179978253600,9.132253662109376,-0.9861907958984375,0.0609893798828125,-0.1009063720703125
1782987179988328400,9.142328369140625,-0.987060546875,0.061309814453125,-0.10107421875
1782987179998402600,9.152402587890625,-0.9864654541015625,0.0609283447265625,-0.1014556884765625
1782987180008477400,9.1624775390625,-0.9867706298828125,0.0615234375,-0.1013031005859375
1782987180018551600,9.172551513671875,-0.985260009765625,0.0613250732421875,-0.0991363525390625
1782987180028626400,9.18262646484375,-0.9847259521484375,0.0608062744140625,-0.09765625
1782987180038700500,9.192700439453125,-0.98638916015625,0.060455322265625,-0.0986785888671875
1782987180048775400,9.202775390625,-0.9868011474609375,0.0593109130859375,-0.1004791259765625
1782987180058849500,9.212849609375,-0.9857177734375,0.060577392578125,-0.101043701171875
1782987180068924700,9.222924560546875,-0.9873046875,0.0621185302734375,-0.0988616943359375
1782987180078998500,9.23299853515625,-0.985931396484375,0.061767578125,-0.0983734130859375
1782987180089073700,9.24307373046875,-0.9865875244140625,0.0635528564453125,-0.0997772216796875
1782987180099147500,9.2531474609375,-0.988861083984375,0.0608367919921875,-0.100006103515625
1782987180109222700,9.26322265625,-0.9858551025390625,0.0619964599609375,-0.100250244140625
1782987180119296500,9.273296630859376,-0.987640380859375,0.0615234375,-0.0993194580078125
1782987180129370400,9.283370361328124,-0.986328125,0.0624237060546875,-0.10009765625
1782987180139445500,9.293445556640625,-0.9866180419921875,0.0594329833984375,-0.0996856689453125
1782987180149519400,9.303519287109374,-0.9865570068359375,0.058502197265625,-0.09954833984375
1782987180159594500,9.313594482421875,-0.9862213134765625,0.060699462890625,-0.100677490234375
1782987180169668400,9.32366845703125,-0.98638916015625,0.0605621337890625,-0.1014862060546875
1782987180179743500,9.333743408203125,-0.986907958984375,0.062713623046875,-0.0999908447265625
1782987180189817600,9.343817626953125,-0.9850616455078125,0.06024169921875,-0.09783935546875
1782987180199892500,9.353892578125,-0.9862518310546875,0.059112548828125,-0.1002044677734375
1782987180209966600,9.363966552734375,-0.9859771728515625,0.06134033203125,-0.1000518798828125
1782987180220041500,9.37404150390625,-0.9864654541015625,0.0616302490234375,-0.0993194580078125
1782987180230115600,9.384115478515625,-0.9855499267578125,0.0609588623046875,-0.0987548828125
1782987180240190500,9.3941904296875,-0.9858245849609375,0.0589752197265625,-0.098114013671875
1782987180250264600,9.4042646484375,-0.98614501953125,0.060699462890625,-0.09844970703125
1782987180260338400,9.41433837890625,-0.9860076904296875,0.0616607666015625,-0.1008453369140625
1782987180270413600,9.42441357421875,-0.9863433837890625,0.0608367919921875,-0.0998077392578125
1782987180280487400,9.4344873046875,-0.983489990234375,0.0610809326171875,-0.0982818603515625
1782987180290562600,9.4445625,-0.9848785400390625,0.06048583984375,-0.100250244140625
1782987180300636400,9.454636474609375,-0.986602783203125,0.058258056640625,-0.0992279052734375
1782987180310711600,9.464711669921876,-0.9860382080078125,0.05865478515625,-0.098358154296875
1782987180320785400,9.474785400390624,-0.98577880859375,0.0592193603515625,-0.100128173828125
1782987180330860500,9.484860595703125,-0.9842987060546875,0.060394287109375,-0.0994415283203125
1782987180340934400,9.494934326171874,-0.984832763671875,0.0606689453125,-0.0975189208984375
1782987180351009500,9.505009521484375,-0.987701416015625,0.0619659423828125,-0.0998382568359375
1782987180361083600,9.515083740234376,-0.98779296875,0.06158447265625,-0.0996551513671875
1782987180371158500,9.525158447265625,-0.988037109375,0.061676025390625,-0.101104736328125
1782987180381232600,9.535232666015625,-0.985260009765625,0.061492919921875,-0.1017913818359375
1782987180391307500,9.5453076171875,-0.98590087890625,0.0617523193359375,-0.0982513427734375
1782987180401381600,9.555381591796875,-0.9859466552734375,0.0601806640625,-0.099517822265625
1782987180411455700,9.565455810546876,-0.988433837890625,0.06201171875,-0.1011505126953125
1782987180421530600,9.575530517578125,-0.9869537353515625,0.0613861083984375,-0.098052978515625
1782987180431604700,9.585604736328126,-0.9840545654296875,0.060577392578125,-0.0991363525390625
1782987180441679600,9.5956796875,-0.9848480224609375,0.0597381591796875,-0.0983428955078125
1782987180451753700,9.605753662109375,-0.98663330078125,0.0597381591796875,-0.0992889404296875
1782987180461828600,9.61582861328125,-0.9866790771484375,0.0585174560546875,-0.0994720458984375
1782987180471902700,9.62590283203125,-0.9868011474609375,0.0597076416015625,-0.0972137451171875
1782987180481977600,9.6359775390625,-0.9844207763671875,0.060516357421875,-0.0994873046875
1782987180492051700,9.6460517578125,-0.9866943359375,0.0599517822265625,-0.09881591796875
1782987180502126600,9.656126708984376,-0.988555908203125,0.06011962890625,-0.0985260009765625
1782987180512200700,9.66620068359375,-0.9853057861328125,0.05914306640625,-0.098663330078125
1782987180522275600,9.676275634765625,-0.9855499267578125,0.0601959228515625,-0.09844970703125
1782987180532349700,9.686349609375,-0.9864654541015625,0.0603790283203125,-0.0988311767578125
1782987180542424600,9.696424560546875,-0.9884796142578125,0.0611419677734375,-0.0972137451171875
1782987180552498700,9.706498779296876,-0.9883575439453125,0.061126708984375,-0.10015869140625
1782987180562572800,9.71657275390625,-0.9848785400390625,0.059417724609375,-0.1005859375
1782987180572647700,9.726647705078125,-0.986968994140625,0.0610198974609375,-0.097076416015625
1782987180582721800,9.7367216796875,-0.987213134765625,0.060882568359375,-0.1012420654296875
1782987180592796700,9.746796630859375,-0.985870361328125,0.061431884765625,-0.0994873046875
1782987180602870800,9.756870849609374,-0.986663818359375,0.06146240234375,-0.0990447998046875
1782987180612945700,9.766945556640625,-0.985504150390625,0.058746337890625,-0.1007843017578125
1782987180623019800,9.777019775390626,-0.98651123046875,0.0593109130859375,-0.0974884033203125
1782987180633094700,9.7870947265625,-0.9884796142578125,0.0599212646484375,-0.09942626953125
1782987180643168800,9.797168701171875,-0.986083984375,0.0617218017578125,-0.10150146484375
1782987180653243600,9.80724365234375,-0.98553466796875,0.061920166015625,-0.09881591796875
1782987180663317800,9.81731787109375,-0.984649658203125,0.059814453125,-0.0980682373046875
1782987180673392600,9.827392578125,-0.985626220703125,0.06048583984375,-0.0985870361328125
1782987180683466800,9.837466796875,-0.988128662109375,0.0597686767578125,-0.1001129150390625
1782987180693541600,9.847541748046876,-0.9874114990234375,0.06170654296875,-0.0994110107421875
1782987180703615700,9.85761572265625,-0.9866790771484375,0.0616302490234375,-0.0989837646484375
1782987180713689600,9.867689697265625,-0.9854278564453125,0.0600128173828125,-0.09912109375
1782987180723764700,9.8777646484375,-0.9858551025390625,0.060302734375,-0.1005859375
1782987180733838600,9.887838623046875,-0.9866943359375,0.0596771240234375,-0.0995025634765625
1782987180743913700,9.897913818359376,-0.9862823486328125,0.0603179931640625,-0.0989837646484375
1782987180753987600,9.907987548828125,-0.985321044921875,0.0590057373046875,-0.0981903076171875
1782987180764062700,9.918062744140625,-0.9864654541015625,0.0587310791015625,-0.0989837646484375
1782987180774136600,9.928136474609374,-0.9867095947265625,0.0597381591796875,-0.09912109375
1782987180784211700,9.938211669921875,-0.9881744384765625,0.0613250732421875,-0.0985870361328125
1782987180794285600,9.94828564453125,-0.9870147705078125,0.0610504150390625,-0.0995025634765625
1782987180804360700,9.958360595703125,-0.98529052734375,0.0611419677734375,-0.0987548828125
1782987180814434600,9.9684345703125,-0.986175537109375,0.0626373291015625,-0.098052978515625
1782987180824509700,9.978509765625,-0.987152099609375,0.060272216796875,-0.0989532470703125
1782987180834583600,9.98858349609375,-0.9868927001953125,0.059661865234375,-0.099578857421875
1782987180844657700,9.99865771484375,-0.9870452880859375,0.0595703125,-0.10009765625
1782987180854732500,10.008732666015625,-0.98638916015625,0.0606842041015625,-0.09912109375
1782987180864806700,10.018806640625,-0.985137939453125,0.0596771240234375,-0.0962677001953125
1782987180874881800,10.0288818359375,-0.987884521484375,0.0598907470703125,-0.0997314453125
1782987180884955600,10.03895556640625,-0.98736572265625,0.060638427734375,-0.0994720458984375
1782987180895030800,10.04903076171875,-0.984527587890625,0.0591583251953125,-0.0984344482421875
1782987180905104600,10.059104736328125,-0.98468017578125,0.0582122802734375,-0.099609375
1782987180915179800,10.0691796875,-0.987396240234375,0.061553955078125,-0.0995025634765625
1782987180925253600,10.079253662109375,-0.9875640869140625,0.060943603515625,-0.1002349853515625
1782987180935328800,10.089328857421876,-0.9865875244140625,0.0608673095703125,-0.09930419921875
1782987180945402600,10.099402587890625,-0.9840545654296875,0.0606231689453125,-0.09710693359375
1782987180955477800,10.109477783203126,-0.9876251220703125,0.0599517822265625,-0.0972900390625
1782987180965551600,10.119551513671874,-0.987518310546875,0.059112548828125,-0.100830078125
1782987180975626800,10.129626708984375,-0.9853057861328125,0.06201171875,-0.10052490234375
1782987180985700600,10.13970068359375,-0.9847412109375,0.05902099609375,-0.09832763671875
1782987180995774700,10.149774658203125,-0.9847259521484375,0.05828857421875,-0.10009765625
1782987181005849600,10.159849609375,-0.986541748046875,0.0583343505859375,-0.1010284423828125
1782987181015923700,10.169923828125,-0.9882049560546875,0.059417724609375,-0.098785400390625
1782987181025998600,10.17999853515625,-0.9871826171875,0.06024169921875,-0.100311279296875
1782987181036072700,10.19007275390625,-0.9852752685546875,0.05938720703125,-0.09820556640625
1782987181046147600,10.200147705078125,-0.9863739013671875,0.0584716796875,-0.0981903076171875
1782987181056221700,10.2102216796875,-0.9884185791015625,0.062225341796875,-0.100189208984375
1782987181066296600,10.220296630859375,-0.9862518310546875,0.062896728515625,-0.0976409912109375
1782987181076370700,10.23037060546875,-0.9833221435546875,0.0598297119140625,-0.09832763671875
1782987181086445600,10.240445556640625,-0.9844207763671875,0.060577392578125,-0.0991668701171875
1782987181096519700,10.250519775390625,-0.985931396484375,0.059844970703125,-0.097900390625
1782987181106594600,10.260594482421874,-0.98663330078125,0.0606689453125,-0.098175048828125
1782987181116668700,10.270668701171875,-0.986968994140625,0.058624267578125,-0.099578857421875
1782987181126743600,10.28074365234375,-0.988555908203125,0.0601348876953125,-0.100738525390625
1782987181136817700,10.290817626953125,-0.988433837890625,0.0616912841796875,-0.1001739501953125
1782987181146891500,10.3008916015625,-0.9866485595703125,0.061431884765625,-0.1014862060546875
1782987181156966700,10.310966552734374,-0.9849700927734375,0.0589141845703125,-0.0969085693359375
1782987181167040500,10.32104052734375,-0.9868316650390625,0.0591583251953125,-0.1007537841796875
1782987181177115600,10.33111572265625,-0.987152099609375,0.06036376953125,-0.1001739501953125
1782987181187189500,10.341189453125,-0.985809326171875,0.059600830078125,-0.1000823974609375
1782987181197264600,10.3512646484375,-0.9837799072265625,0.0596466064453125,-0.10028076171875
1782987181207338500,10.36133837890625,-0.985443115234375,0.0594329833984375,-0.0991668701171875
1782987181217413600,10.37141357421875,-0.98590087890625,0.05877685546875,-0.0968017578125
1782987181227487500,10.381487548828124,-0.987335205078125,0.0599365234375,-0.0995330810546875
1782987181237562600,10.391562744140625,-0.9900970458984375,0.0611419677734375,-0.1015167236328125
1782987181247636500,10.401636474609376,-0.9874267578125,0.0625,-0.1032257080078125
1782987181257711600,10.411711669921875,-0.988739013671875,0.062744140625,-0.0997467041015625
1782987181267785500,10.421785400390625,-0.977203369140625,0.06207275390625,-0.0963592529296875
1782987181277860600,10.431860595703125,-0.9844818115234375,0.052490234375,-0.09686279296875
1782987181287934500,10.4419345703125,-1.0077362060546875,0.063812255859375,-0.109130859375
1782987181298008600,10.452008544921876,-0.99200439453125,0.06524658203125,-0.0955352783203125
1782987181308083500,10.46208349609375,-0.961639404296875,0.052154541015625,-0.096832275390625
1782987181318157300,10.4721572265625,-0.978790283203125,0.05255126953125,-0.097808837890625
1782987181328232400,10.482232421875,-1.0004119873046875,0.062347412109375,-0.1020660400390625
1782987181338306300,10.492306396484375,-0.9941864013671875,0.0626068115234375,-0.10247802734375
1782987181348381400,10.50238134765625,-0.9806365966796875,0.056121826171875,-0.0964508056640625
1782987181358455300,10.512455322265625,-0.98468017578125,0.0598907470703125,-0.0965423583984375
1782987181368530400,10.522530517578126,-0.9905242919921875,0.0698089599609375,-0.100921630859375
