time,seconds_elapsed,z,y,x
1782986665519969500,0.061969482421875,-2.111053466796875,-1.552093505859375,0.3925018310546875
1782986665530044400,0.07204443359375,-2.030029296875,-1.699859619140625,0.3756866455078125
1782986665540118500,0.082118408203125,-1.9457550048828125,-1.7215576171875,0.1722259521484375
1782986665550192400,0.0921923828125,-2.0240478515625,-1.6509857177734375,-0.136749267578125
1782986665560267500,0.102267578125,-2.2822723388671875,-1.38201904296875,-0.4722137451171875
1782986665570341400,0.11234130859375,-2.3827667236328125,-0.9872894287109375,-0.747100830078125
1782986665580415500,0.12241552734375,-2.23040771484375,-0.62841796875,-0.7752227783203125
1782986665590490400,0.132490478515625,-1.884979248046875,-0.3748779296875,-0.5421142578125
1782986665600564500,0.142564453125,-1.4095611572265625,-0.234893798828125,-0.2540130615234375
1782986665610638300,0.152638427734375,-0.942535400390625,-0.1882171630859375,-0.0888519287109375
1782986665620712400,0.16271240234375,-0.5826416015625,-0.1940765380859375,-0.016998291015625
1782986665630787300,0.172787353515625,-0.416595458984375,-0.212615966796875,0.040771484375
1782986665640861400,0.182861328125,-0.379425048828125,-0.1887969970703125,0.061492919921875
1782986665650935300,0.192935302734375,-0.3805389404296875,-0.14654541015625,0.0282440185546875
1782986665661010400,0.203010498046875,-0.368804931640625,-0.1358795166015625,-0.022857666015625
1782986665671084300,0.213084228515625,-0.297149658203125,-0.1388092041015625,-0.0868682861328125
1782986665681158400,0.223158447265625,-0.1702880859375,-0.14459228515625,-0.110748291015625
1782986665691233300,0.2332333984375,-0.0375213623046875,-0.1608734130859375,-0.09136962890625
1782986665701307400,0.243307373046875,0.0482635498046875,-0.1601409912109375,-0.0803375244140625
1782986665711381500,0.253381591796875,0.1089630126953125,-0.2070159912109375,-0.0966644287109375
1782986665721455400,0.263455322265625,0.1262359619140625,-0.2464447021484375,-0.1234893798828125
1782986665731530500,0.273530517578125,0.1334991455078125,-0.22088623046875,-0.1157379150390625
1782986665741604400,0.283604248046875,0.11517333984375,-0.1946563720703125,-0.0630340576171875
1782986665751678500,0.293678466796875,0.059844970703125,-0.14886474609375,0.0001373291015625
1782986665761753300,0.30375341796875,-0.0299072265625,-0.1340789794921875,0.03338623046875
1782986665771827500,0.313827392578125,-0.175079345703125,-0.1373138427734375,0.023651123046875
1782986665781901300,0.3239013671875,-0.40087890625,-0.130035400390625,-0.0591888427734375
1782986665791976400,0.3339765625,-0.4810333251953125,-0.086700439453125,-0.141357421875
1782986665802050300,0.34405029296875,-0.463134765625,-0.081329345703125,-0.13568115234375
1782986665812124400,0.35412451171875,-0.425384521484375,-0.07568359375,-0.07696533203125
1782986665822198300,0.3641982421875,-0.3807525634765625,-0.0570831298828125,-0.0416107177734375
1782986665832273400,0.3742734375,-0.3377532958984375,-0.0646514892578125,-0.02532958984375
1782986665842347300,0.38434716796875,-0.3134765625,-0.090423583984375,-0.0421600341796875
1782986665852421600,0.394421630859375,-0.295928955078125,-0.1097564697265625,-0.07177734375
1782986665862496300,0.404496337890625,-0.2858734130859375,-0.11029052734375,-0.08624267578125
1782986665872570600,0.414570556640625,-0.2939910888671875,-0.11273193359375,-0.09765625
1782986665882644500,0.42464453125,-0.33453369140625,-0.120880126953125,-0.1200103759765625
1782986665892719600,0.4347197265625,-0.3904571533203125,-0.1399993896484375,-0.1695709228515625
1782986665902793500,0.44479345703125,-0.437896728515625,-0.178009033203125,-0.229583740234375
1782986665912867300,0.454867431640625,-0.4836273193359375,-0.217071533203125,-0.2488250732421875
1782986665922941400,0.46494140625,-0.5562744140625,-0.247589111328125,-0.2404937744140625
1782986665933016300,0.475016357421875,-0.689605712890625,-0.2545623779296875,-0.2579498291015625
1782986665943090400,0.48509033203125,-0.864227294921875,-0.2498321533203125,-0.257568359375
1782986665953164300,0.495164306640625,-1.0135955810546875,-0.293212890625,-0.2029876708984375
1782986665963239400,0.505239501953125,-1.0915069580078125,-0.3773040771484375,-0.05572509765625
1782986665973313300,0.515313232421875,-1.1295318603515625,-0.493072509765625,0.1415252685546875
1782986665983387400,0.525387451171875,-1.148529052734375,-0.6429290771484375,0.348846435546875
1782986665993461200,0.535461181640625,-1.1909637451171875,-0.818756103515625,0.4865570068359375
1782986666003536400,0.545536376953125,-1.2413177490234375,-0.9812164306640625,0.4425201416015625
1782986666013610200,0.5556103515625,-1.421630859375,-1.1118621826171875,0.2425689697265625
1782986666023684600,0.5656845703125,-1.806182861328125,-1.2044677734375,0.0600128173828125
1782986666033759200,0.57575927734375,-2.1214447021484375,-1.2139129638671875,-0.05572509765625
1782986666043833600,0.58583349609375,-2.075927734375,-1.2824859619140625,-0.08343505859375
1782986666053907500,0.595907470703125,-1.7277679443359375,-1.4960784912109375,-0.0799560546875
1782986666063982600,0.605982666015625,-1.391265869140625,-1.7384185791015625,-0.0782318115234375
1782986666074056400,0.616056396484375,-1.3134307861328125,-1.9569091796875,-0.0842742919921875
1782986666084130300,0.62613037109375,-1.583099365234375,-1.951416015625,-0.0728302001953125
1782986666094204400,0.636204345703125,-2.2281646728515625,-1.649169921875,-0.0986480712890625
1782986666104279600,0.646279541015625,-2.8318634033203125,-1.247772216796875,-0.0566558837890625
1782986666114353400,0.656353515625,-3.1480560302734375,-0.897796630859375,0.005645751953125
1782986666124427300,0.66642724609375,-3.09136962890625,-0.667938232421875,0.0579376220703125
1782986666134502400,0.67650244140625,-2.6525115966796875,-0.6036529541015625,0.0268402099609375
1782986666144576300,0.686576171875,-2.0100860595703125,-0.6137542724609375,-0.0730438232421875
1782986666154650400,0.696650390625,-1.3472442626953125,-0.63812255859375,-0.1780548095703125
1782986666164725200,0.706725341796875,-0.83648681640625,-0.61370849609375,-0.204010009765625
1782986666174799400,0.71679931640625,-0.497589111328125,-0.5809326171875,-0.1468048095703125
1782986666184873200,0.726873291015625,-0.2502593994140625,-0.4840545654296875,-0.10498046875
1782986666194948400,0.7369482421875,-0.0999603271484375,-0.3618927001953125,-0.0367279052734375
1782986666205022200,0.747022216796875,-0.059783935546875,-0.2674713134765625,0.0939788818359375
1782986666215096600,0.7570966796875,-0.061553955078125,-0.2471466064453125,0.2574920654296875
1782986666225170400,0.76717041015625,-0.0647430419921875,-0.2103729248046875,0.3134918212890625
1782986666235245600,0.77724560546875,-0.038665771484375,-0.1935272216796875,0.2488555908203125
1782986666245319400,0.7873193359375,0.0262908935546875,-0.23956298828125,0.11383056640625
1782986666255393500,0.7973935546875,0.1069488525390625,-0.2785186767578125,-0.02154541015625
1782986666265468400,0.807468505859375,0.1764068603515625,-0.2931365966796875,-0.108184814453125
1782986666275542500,0.81754248046875,0.2148590087890625,-0.2830963134765625,-0.13458251953125
1782986666285616400,0.827616455078125,0.2347412109375,-0.2617340087890625,-0.1125946044921875
1782986666295691500,0.83769140625,0.2391357421875,-0.2444915771484375,-0.060943603515625
1782986666305765400,0.847765380859375,0.2201385498046875,-0.2264251708984375,-0.0404052734375
1782986666315839200,0.857839111328125,0.1737213134765625,-0.181671142578125,-0.0638427734375
1782986666325913300,0.867913330078125,0.0976104736328125,-0.1455535888671875,-0.073028564453125
1782986666335988500,0.877988525390625,0.0057373046875,-0.1277313232421875,-0.0592498779296875
1782986666346062300,0.888062255859375,-0.09521484375,-0.0888214111328125,-0.0544586181640625
1782986666356136400,0.898136474609375,-0.1786956787109375,-0.053375244140625,-0.0761871337890625
1782986666366211300,0.90821142578125,-0.2966461181640625,-0.04937744140625,-0.1436767578125
1782986666376285400,0.918285400390625,-0.4241180419921875,-0.056060791015625,-0.233306884765625
1782986666386359600,0.928359619140625,-0.46124267578125,-0.079986572265625,-0.2898406982421875
1782986666396433400,0.938433349609375,-0.3843994140625,-0.11724853515625,-0.28857421875
1782986666406508500,0.948508544921875,-0.2284393310546875,-0.1523590087890625,-0.20074462890625
1782986666416582400,0.95858251953125,-0.1458740234375,-0.154083251953125,-0.0889129638671875
1782986666426656500,0.968656494140625,-0.1745758056640625,-0.1354827880859375,-0.0345916748046875
1782986666436731400,0.9787314453125,-0.278839111328125,-0.1373748779296875,-0.051971435546875
1782986666446805500,0.988805419921875,-0.41326904296875,-0.189178466796875,-0.120513916015625
1782986666456879400,0.99887939453125,-0.5667572021484375,-0.2736663818359375,-0.2241058349609375
1782986666466954500,1.00895458984375,-0.6971893310546875,-0.2953948974609375,-0.2931060791015625
1782986666477028400,1.0190283203125,-0.853515625,-0.321258544921875,-0.2332305908203125
1782986666487102500,1.0291025390625,-1.0662384033203125,-0.388946533203125,-0.093475341796875
1782986666497176300,1.03917626953125,-1.303741455078125,-0.5620269775390625,0.0889892578125
1782986666507251500,1.04925146484375,-1.4726409912109375,-0.8270416259765625,0.260650634765625
1782986666517325300,1.0593251953125,-1.5168609619140625,-1.12335205078125,0.3680419921875
1782986666527399400,1.0693994140625,-1.516876220703125,-1.417877197265625,0.4166412353515625
1782986666537474300,1.079474365234375,-1.6941680908203125,-1.6271820068359375,0.401092529296875
1782986666547548400,1.08954833984375,-1.992156982421875,-1.7200469970703125,0.3018951416015625
1782986666557622500,1.09962255859375,-2.1416168212890625,-1.82916259765625,0.206298828125
1782986666567697400,1.109697509765625,-2.0162506103515625,-1.9793701171875,0.0984344482421875
1782986666577771500,1.119771484375,-1.788360595703125,-2.080596923828125,-0.0919342041015625
1782986666587845400,1.129845458984375,-1.7657318115234375,-2.09259033203125,-0.23272705078125
1782986666597919500,1.13991943359375,-2.1256866455078125,-1.7787628173828125,-0.3846435546875
1782986666607994400,1.149994384765625,-2.5387725830078125,-1.2169036865234375,-0.5252227783203125
1782986666618068500,1.160068359375,-2.75201416015625,-0.7320709228515625,-0.4991912841796875
1782986666628142300,1.170142333984375,-2.6449127197265625,-0.4720611572265625,-0.402008056640625
1782986666638217500,1.180217529296875,-2.2073822021484375,-0.3766326904296875,-0.3304443359375
1782986666648291300,1.190291259765625,-1.650115966796875,-0.335968017578125,-0.2686004638671875
1782986666658365400,1.200365478515625,-1.1638641357421875,-0.3004913330078125,-0.1943206787109375
1782986666668440300,1.2104404296875,-0.832794189453125,-0.276092529296875,-0.092620849609375
1782986666678514400,1.220514404296875,-0.6063995361328125,-0.2869873046875,0.03948974609375
1782986666688588300,1.23058837890625,-0.3915863037109375,-0.322845458984375,0.1329498291015625
1782986666698662400,1.240662353515625,-0.2449951171875,-0.2879791259765625,0.1827239990234375
1782986666708737300,1.2507373046875,-0.1712799072265625,-0.2541351318359375,0.2313232421875
1782986666718811400,1.260811279296875,-0.1392669677734375,-0.2491302490234375,0.2481231689453125
1782986666728885500,1.270885498046875,-0.1467437744140625,-0.24066162109375,0.2421112060546875
1782986666738960400,1.28096044921875,-0.185577392578125,-0.2303009033203125,0.249969482421875
1782986666749034500,1.291034423828125,-0.1934051513671875,-0.2068023681640625,0.20001220703125
1782986666759108400,1.3011083984375,-0.1349945068359375,-0.2070159912109375,0.1269073486328125
1782986666769183500,1.31118359375,-0.0356903076171875,-0.2065582275390625,0.0580902099609375
1782986666779257300,1.32125732421875,0.0426025390625,-0.1890106201171875,0.0041046142578125
1782986666789331500,1.33133154296875,0.099212646484375,-0.1866455078125,-0.017242431640625
1782986666799405300,1.3414052734375,0.1214141845703125,-0.177398681640625,-0.0178985595703125
1782986666809480400,1.35148046875,0.10540771484375,-0.152008056640625,-0.0197601318359375
1782986666819554300,1.36155419921875,0.0679931640625,-0.1290740966796875,-0.0487060546875
1782986666829628400,1.37162841796875,0.0159912109375,-0.1014251708984375,-0.0862884521484375
1782986666839703300,1.381703369140625,-0.051177978515625,-0.0684967041015625,-0.090057373046875
1782986666849778000,1.39177783203125,-0.1023406982421875,-0.051605224609375,-0.088958740234375
1782986666859851800,1.401851806640625,-0.1378173828125,-0.05157470703125,-0.1095123291015625
1782986666869927000,1.411927001953125,-0.167755126953125,-0.0669403076171875,-0.1428680419921875
1782986666880000800,1.422000732421875,-0.154693603515625,-0.0878448486328125,-0.185211181640625
1782986666890075000,1.432074951171875,-0.097503662109375,-0.0852813720703125,-0.207550048828125
1782986666900149000,1.44214892578125,-0.0264739990234375,-0.0634002685546875,-0.1834564208984375
1782986666910224000,1.452223876953125,0.0204620361328125,-0.0441436767578125,-0.12530517578125
1782986666920298000,1.462298095703125,0.037628173828125,-0.0381011962890625,-0.0766143798828125
1782986666930371800,1.472371826171875,0.036712646484375,-0.0384063720703125,-0.0607452392578125
1782986666940447000,1.482447021484375,0.02996826171875,-0.03936767578125,-0.0567779541015625
1782986666950520800,1.492520751953125,0.0059051513671875,-0.038726806640625,-0.063201904296875
1782986666960595000,1.502594970703125,-0.037384033203125,-0.0417938232421875,-0.0857696533203125
1782986666970668800,1.512668701171875,-0.1061248779296875,-0.0519866943359375,-0.1114501953125
1782986666980744000,1.522743896484375,-0.215545654296875,-0.048614501953125,-0.144195556640625
1782986666990817800,1.53281787109375,-0.5300445556640625,-0.0402984619140625,-0.1791229248046875
1782986667000892000,1.542891845703125,-0.9553680419921875,-0.0858001708984375,-0.199798583984375
1782986667010966800,1.552966796875,-1.2818450927734375,-0.1861114501953125,-0.1339111328125
1782986667021041000,1.563041015625,-1.5510711669921875,-0.395904541015625,0.0406494140625
1782986667031114800,1.57311474609375,-1.694671630859375,-0.682220458984375,0.3245086669921875
1782986667041190000,1.58318994140625,-1.622406005859375,-0.9367523193359375,0.584259033203125
1782986667051263700,1.593263671875,-1.530029296875,-1.1621551513671875,0.6931915283203125
1782986667061337900,1.603337890625,-1.6281585693359375,-1.3103485107421875,0.6208648681640625
1782986667071412000,1.613411865234375,-1.902191162109375,-1.341094970703125,0.481597900390625
1782986667081486800,1.62348681640625,-2.30950927734375,-1.3502197265625,0.37884521484375
1782986667091561000,1.63356103515625,-2.7950592041015625,-1.384979248046875,0.25079345703125
1782986667101635000,1.643635009765625,-3.1820526123046875,-1.374298095703125,0.1216888427734375
1782986667111710000,1.6537099609375,-3.212921142578125,-1.216278076171875,0.0533294677734375
1782986667121784000,1.6637841796875,-2.787933349609375,-0.9402923583984375,0.073486328125
1782986667131858000,1.67385791015625,-1.99163818359375,-0.732574462890625,0.2092437744140625
1782986667141933000,1.68393310546875,-1.186279296875,-0.615081787109375,0.3367156982421875
1782986667152007000,1.6940068359375,-0.6413116455078125,-0.5631561279296875,0.194091796875
1782986667162080800,1.704080810546875,-0.4549407958984375,-0.5623626708984375,-0.11920166015625
1782986667172155000,1.71415478515625,-0.9143524169921875,-0.5277862548828125,-0.488128662109375
1782986667182229800,1.724229736328125,-2.129638671875,-0.3144073486328125,-0.745880126953125
1782986667192303900,1.734303955078125,-3.214813232421875,-0.0919036865234375,-0.72979736328125
1782986667202377700,1.744377685546875,-3.3617706298828125,0.0816802978515625,-0.588287353515625
1782986667212452900,1.754452880859375,-2.9831390380859375,-0.0593109130859375,-0.313873291015625
1782986667222526700,1.764526611328125,-2.272674560546875,-0.2310791015625,0.020172119140625
1782986667232600800,1.774600830078125,-1.470428466796875,-0.264129638671875,0.25390625
1782986667242675700,1.78467578125,-0.8325042724609375,-0.255767822265625,0.3968658447265625
1782986667252749800,1.794749755859375,-0.4216766357421875,-0.292999267578125,0.4243011474609375
1782986667262824000,1.804823974609375,-0.194671630859375,-0.329925537109375,0.42755126953125
1782986667272898000,1.81489794921875,-0.073333740234375,-0.3257598876953125,0.338409423828125
1782986667282973000,1.824972900390625,-0.016448974609375,-0.3009490966796875,0.2422943115234375
1782986667293047000,1.835047119140625,-0.01171875,-0.22125244140625,0.1674957275390625
1782986667303121000,1.845120849609375,-0.0992584228515625,-0.1794281005859375,0.0988922119140625
1782986667313196000,1.855196044921875,-0.2341461181640625,-0.1979827880859375,-0.0055389404296875
1782986667323270000,1.865269775390625,-0.31768798828125,-0.23284912109375,-0.1063232421875
1782986667333344000,1.875343994140625,-0.352996826171875,-0.2632598876953125,-0.1715087890625
1782986667343419000,1.8854189453125,-0.34466552734375,-0.2502899169921875,-0.17071533203125
1782986667353493000,1.895492919921875,-0.2821502685546875,-0.1997833251953125,-0.1157684326171875
1782986667363566800,1.90556689453125,-0.20135498046875,-0.153411865234375,-0.0333404541015625
1782986667373640700,1.915640625,-0.144500732421875,-0.1490936279296875,0.03436279296875
1782986667383715800,1.9257158203125,-0.110015869140625,-0.156280517578125,0.0438690185546875
1782986667393789700,1.935789794921875,-0.1541748046875,-0.1280517578125,-0.3274078369140625
1782986667403863800,1.94586376953125,-0.1909027099609375,-0.089813232421875,-0.678741455078125
1782986667413938700,1.955938720703125,-0.029022216796875,-0.1371307373046875,-0.477447509765625
1782986667424012800,1.9660126953125,-0.011932373046875,-0.2083740234375,-0.0583953857421875
1782986667434087000,1.9760869140625,0.0310821533203125,-0.1316680908203125,0.0985260009765625
1782986667444161000,1.9861611328125,0.078765869140625,-0.070526123046875,-0.020965576171875
1782986667454236000,1.99623583984375,0.087890625,-0.123931884765625,-0.1460418701171875
1782986667464310000,2.00631005859375,0.0658111572265625,-0.2340850830078125,-0.191986083984375
1782986667474384000,2.0163837890625,0.05291748046875,-0.29278564453125,-0.20367431640625
1782986667484459000,2.026458984375,0.061370849609375,-0.2544403076171875,-0.1943511962890625
1782986667494532900,2.036532958984375,0.0643463134765625,-0.227630615234375,-0.16571044921875
1782986667504607000,2.04660693359375,0.0611114501953125,-0.20654296875,-0.114715576171875
1782986667514681900,2.056681884765625,0.0884246826171875,-0.2021636962890625,-0.125946044921875
1782986667524756000,2.066755859375,-0.551300048828125,-0.3182830810546875,0.037322998046875
1782986667534829800,2.076829833984375,-1.4314117431640625,-0.542327880859375,0.196258544921875
1782986667544903700,2.086903564453125,-1.8331756591796875,-0.4980621337890625,-0.0068817138671875
1782986667554978800,2.096978759765625,-2.076507568359375,-0.3320465087890625,-0.1475982666015625
1782986667565052700,2.107052734375,-2.18377685546875,-0.288330078125,-0.02056884765625
1782986667575126800,2.117126708984375,-2.015380859375,-0.4922637939453125,0.2505035400390625
1782986667585202000,2.127201904296875,-1.7516632080078125,-0.9858245849609375,0.4359130859375
1782986667595275800,2.13727587890625,-1.709716796875,-1.4037322998046875,0.6042633056640625
1782986667605350000,2.147349853515625,-1.5716400146484375,-1.6053466796875,0.5937957763671875
1782986667615424800,2.1574248046875,-1.4854278564453125,-1.6887969970703125,0.593597412109375
1782986667625499000,2.167498779296875,-1.67779541015625,-1.7096099853515625,0.7275238037109375
1782986667635573000,2.177572998046875,-2.1118621826171875,-1.877227783203125,0.767913818359375
1782986667645646800,2.187646728515625,-2.710174560546875,-1.716064453125,0.6168975830078125
1782986667655722000,2.197721923828125,-3.0572967529296875,-1.2077789306640625,0.1404266357421875
1782986667665795800,2.2077958984375,-3.2454986572265625,-0.8273162841796875,-0.163116455078125
1782986667675870000,2.217869873046875,-3.050201416015625,-0.7084197998046875,-0.3020172119140625
1782986667685944800,2.22794482421875,-2.576995849609375,-0.774688720703125,-0.390655517578125
1782986667696019000,2.23801904296875,-1.957122802734375,-0.8441162109375,-0.3311004638671875
1782986667706092800,2.2480927734375,-1.4617919921875,-0.8246612548828125,-0.2075042724609375
1782986667716168000,2.25816796875,-1.1801300048828125,-0.703948974609375,-0.1002960205078125
1782986667726241800,2.26824169921875,-1.035308837890625,-0.58953857421875,-0.024322509765625
1782986667736316000,2.27831591796875,-0.968292236328125,-0.51800537109375,-0.1678619384765625
1782986667746389800,2.2883896484375,-0.8867034912109375,-0.37493896484375,-0.1790313720703125
1782986667756465000,2.29846484375,-0.6945037841796875,-0.344879150390625,-0.021209716796875
1782986667766538800,2.308538818359375,-0.3687591552734375,-0.4078521728515625,0.0342254638671875
1782986667776612900,2.31861279296875,0.03472900390625,-0.4751129150390625,-0.0765380859375
1782986667786687700,2.328687744140625,0.3848724365234375,-0.5056304931640625,-0.1239166259765625
1782986667796761900,2.338761962890625,0.57061767578125,-0.3212890625,-0.19097900390625
1782986667806836000,2.3488359375,0.672149658203125,-0.13922119140625,-0.216827392578125
1782986667816909800,2.358909912109375,0.7140655517578125,-0.0633544921875,-0.0999603271484375
1782986667826985000,2.36898486328125,0.6506195068359375,-0.0658416748046875,0.0502777099609375
1782986667837058800,2.379058837890625,0.462677001953125,-0.0720977783203125,0.0405120849609375
1782986667847132400,2.38913232421875,0.2078399658203125,-0.1036529541015625,-0.0879974365234375
1782986667857207300,2.399207275390625,-0.012115478515625,-0.1142120361328125,-0.1396942138671875
1782986667867281400,2.409281494140625,-0.20697021484375,-0.0612030029296875,-0.0987548828125
1782986667877355300,2.419355224609375,-0.2959136962890625,-0.025909423828125,-0.1183624267578125
1782986667887430400,2.429430419921875,-0.2915802001953125,-0.0278778076171875,-0.154510498046875
1782986667897504300,2.439504150390625,-0.2678680419921875,-0.0355682373046875,-0.1151275634765625
1782986667907578400,2.449578369140625,-0.2053680419921875,-0.03948974609375,-0.053680419921875
1782986667917652500,2.459652587890625,-0.1305694580078125,-0.0435638427734375,0.0007781982421875
1782986667927727400,2.469727294921875,-0.051422119140625,-0.0378570556640625,0.06378173828125
1782986667937801500,2.479801513671875,0.026123046875,-0.0442352294921875,0.0749359130859375
1782986667947875300,2.489875244140625,0.0548248291015625,-0.071044921875,0.068572998046875
1782986667957950500,2.499950439453125,0.0713653564453125,-0.1000823974609375,0.0681915283203125
1782986667968024300,2.5100244140625,0.078887939453125,-0.11383056640625,0.0772247314453125
1782986667978098400,2.520098388671875,0.0682830810546875,-0.1240234375,0.0677642822265625
1782986667988172300,2.53017236328125,0.051544189453125,-0.135345458984375,0.03216552734375
1782986667998247400,2.540247314453125,0.0131683349609375,-0.1357421875,0.01800537109375
1782986668008321300,2.5503212890625,-0.0946044921875,-0.132354736328125,0.03814697265625
1782986668018395400,2.5603955078125,-0.24359130859375,-0.17364501953125,0.0871124267578125
1782986668028470300,2.57047021484375,-0.432830810546875,-0.194671630859375,0.119415283203125
1782986668038544400,2.58054443359375,-0.6880645751953125,-0.1879119873046875,0.14739990234375
1782986668048618200,2.5906181640625,-1.00775146484375,-0.23681640625,0.1700439453125
1782986668058693400,2.600693359375,-1.295013427734375,-0.36968994140625,0.11590576171875
1782986668068767200,2.610767333984375,-1.4419708251953125,-0.5089569091796875,0.0218658447265625
1782986668078841300,2.62084130859375,-1.564849853515625,-0.72564697265625,0.0241851806640625
1782986668088915500,2.63091552734375,-1.8692474365234375,-1.0133514404296875,0.104217529296875
1782986668098990300,2.640990234375,-2.4134063720703125,-1.3200225830078125,0.059600830078125
1782986668109064400,2.651064453125,-2.927032470703125,-1.3932342529296875,0.1206817626953125
1782986668119138600,2.661138671875,-3.3199920654296875,-1.231109619140625,0.55621337890625
1782986668129213400,2.67121337890625,-3.5357208251953125,-1.1031494140625,0.998138427734375
1782986668139287600,2.68128759765625,-3.6428375244140625,-0.959075927734375,1.2774810791015625
1782986668149361400,2.691361328125,-3.78057861328125,-0.8606109619140625,1.3348388671875
1782986668159435300,2.701435302734375,-3.6872100830078125,-0.6977691650390625,1.285919189453125
1782986668169510400,2.711510498046875,-3.3314208984375,-0.28558349609375,1.115203857421875
1782986668179584300,2.721584228515625,-2.78131103515625,0.145721435546875,0.950714111328125
1782986668189658400,2.731658447265625,-2.148193359375,0.2100830078125,0.7926177978515625
1782986668199733200,2.741733154296875,-1.6324920654296875,0.1304168701171875,0.5332794189453125
1782986668209807400,2.751807373046875,-1.3635101318359375,0.13250732421875,0.329498291015625
1782986668219881200,2.761881103515625,-1.2943115234375,0.1508026123046875,0.265380859375
1782986668229956400,2.771956298828125,-1.2796783447265625,0.091766357421875,0.2820892333984375
1782986668240030200,2.7820302734375,-1.1918792724609375,0.000701904296875,0.2175750732421875
1782986668250104300,2.792104248046875,-0.94952392578125,-0.09625244140625,0.015533447265625
1782986668260178400,2.802178466796875,-0.612518310546875,-0.1844482421875,-0.1802215576171875
1782986668270253300,2.81225341796875,-0.229339599609375,-0.22845458984375,-0.2982177734375
1782986668280327400,2.822327392578125,0.13580322265625,-0.223419189453125,-0.3333587646484375
1782986668290401500,2.832401611328125,0.418548583984375,-0.2155609130859375,-0.327545166015625
1782986668300476400,2.842476318359375,0.61279296875,-0.1706085205078125,-0.2798309326171875
1782986668310550500,2.852550537109375,0.6414031982421875,-0.11688232421875,-0.140655517578125
1782986668320624400,2.862624267578125,0.5615234375,-0.055328369140625,-0.0462646484375
1782986668330698200,2.8726982421875,0.400390625,-0.035491943359375,-0.0663604736328125
1782986668340773400,2.8827734375,0.1968231201171875,-0.0117950439453125,-0.1009368896484375
1782986668350847500,2.892847412109375,-0.016510009765625,0.011138916015625,-0.1169281005859375
1782986668360921300,2.90292138671875,-0.224853515625,0.021942138671875,-0.1407928466796875
1782986668370996500,2.91299658203125,-0.34808349609375,0.0114898681640625,-0.1454315185546875
1782986668381070300,2.9230703125,-0.363616943359375,-0.00274658203125,-0.1048583984375
1782986668391144200,2.933144287109375,-0.3255615234375,-0.0265045166015625,-0.0567779541015625
1782986668401218300,2.94321826171875,-0.2402801513671875,-0.0311737060546875,-0.022308349609375
1782986668411293200,2.953293212890625,-0.1494140625,-0.029876708984375,0.0088958740234375
1782986668421367300,2.9633671875,-0.066680908203125,-0.0476226806640625,0.04400634765625
1782986668431441400,2.97344140625,-0.0102996826171875,-0.0693817138671875,0.07147216796875
1782986668441516300,2.983516357421875,0.014495849609375,-0.08837890625,0.0829010009765625
1782986668451590400,2.99359033203125,0.0121307373046875,-0.096893310546875,0.0834197998046875
1782986668461664500,3.00366455078125,-0.015594482421875,-0.096221923828125,0.0782470703125
1782986668471739400,3.013739501953125,-0.0448455810546875,-0.0942840576171875,0.0691986083984375
1782986668481813500,3.0238134765625,-0.080963134765625,-0.1091461181640625,0.0675506591796875
1782986668491887400,3.033887451171875,-0.1304168701171875,-0.1230316162109375,0.067352294921875
1782986668501961500,3.04396142578125,-0.191802978515625,-0.1235504150390625,0.0699920654296875
1782986668512036400,3.054036376953125,-0.2538604736328125,-0.1365203857421875,0.0836181640625
1782986668522110500,3.0641103515625,-0.32281494140625,-0.1718902587890625,0.0967559814453125
1782986668532184300,3.074184326171875,-0.3900909423828125,-0.2032928466796875,0.1130828857421875
1782986668542259500,3.084259521484375,-0.4661865234375,-0.2189788818359375,0.1286468505859375
1782986668552333300,3.094333251953125,-0.6044921875,-0.257415771484375,0.1503448486328125
1782986668562407200,3.1044072265625,-0.8370361328125,-0.3456878662109375,0.1561737060546875
1782986668572482300,3.114482421875,-1.1491241455078125,-0.4542083740234375,0.1077880859375
1782986668582556200,3.12455615234375,-1.5431976318359375,-0.593719482421875,0.0714111328125
1782986668592630300,3.13463037109375,-1.8831634521484375,-0.7918243408203125,0.0671234130859375
1782986668602704400,3.144704345703125,-2.0946502685546875,-1.0162200927734375,-0.0888824462890625
1782986668612779300,3.154779296875,-2.324859619140625,-1.259857177734375,-0.447509765625
1782986668622853400,3.164853271484375,-2.6530914306640625,-1.373382568359375,-0.6228179931640625
1782986668632927500,3.174927490234375,-2.9798126220703125,-1.249725341796875,-0.3153076171875
1782986668643002400,3.18500244140625,-3.1244659423828125,-1.115692138671875,0.173370361328125
1782986668653076500,3.195076416015625,-3.19146728515625,-1.014923095703125,0.5010223388671875
1782986668663150300,3.205150390625,-3.3040618896484375,-0.952972412109375,0.548492431640625
1782986668673224400,3.215224365234375,-3.3587799072265625,-0.88470458984375,0.49365234375
1782986668683299300,3.22529931640625,-3.219268798828125,-0.7419281005859375,0.471038818359375
1782986668693373400,3.23537353515625,-2.968902587890625,-0.48309326171875,0.4809722900390625
1782986668703447300,3.245447265625,-2.6492156982421875,-0.2167205810546875,0.542022705078125
1782986668713522400,3.2555224609375,-2.2721710205078125,-0.090728759765625,0.5162811279296875
1782986668723596300,3.26559619140625,-1.8613128662109375,-0.0694122314453125,0.3812103271484375
1782986668733670400,3.27567041015625,-1.44671630859375,-0.109649658203125,0.2176666259765625
1782986668743745300,3.285745361328125,-1.122039794921875,-0.181304931640625,0.0331268310546875
1782986668753819400,3.2958193359375,-0.7764434814453125,-0.2117767333984375,-0.016510009765625
1782986668763893200,3.305893310546875,-0.44775390625,-0.218231201171875,0.0696258544921875
1782986668773967400,3.31596728515625,-0.259857177734375,-0.2193145751953125,0.1811981201171875
1782986668784042200,3.326042236328125,-0.1843719482421875,-0.2470550537109375,0.1841888427734375
1782986668794116400,3.336116455078125,-0.1196441650390625,-0.2575225830078125,0.0355377197265625
1782986668804190500,3.3461904296875,-0.0260772705078125,-0.28118896484375,-0.1293182373046875
1782986668814265300,3.356265380859375,0.0579833984375,-0.2983856201171875,-0.2078704833984375
1782986668824339500,3.36633935546875,0.177764892578125,-0.28753662109375,-0.2435150146484375
1782986668834413300,3.376413330078125,0.2578125,-0.23382568359375,-0.2454376220703125
1782986668844487700,3.38648779296875,0.303924560546875,-0.184173583984375,-0.201904296875
1782986668854562600,3.3965625,0.3288726806640625,-0.14215087890625,-0.118438720703125
1782986668864636700,3.40663671875,0.253387451171875,-0.0826568603515625,-0.0186614990234375
1782986668874710500,3.41671044921875,0.0738983154296875,-0.042633056640625,0.0507659912109375
1782986668884785700,3.42678564453125,-0.1064300537109375,-0.04266357421875,0.05926513671875
1782986668894859500,3.436859619140625,-0.2355499267578125,-0.0645751953125,0.0305938720703125
1782986668904933600,3.44693359375,-0.2794189453125,-0.0893402099609375,-0.00634765625
1782986668915007500,3.457007568359375,-0.24774169921875,-0.105865478515625,-0.03277587890625
1782986668925082600,3.46708251953125,-0.1837921142578125,-0.11285400390625,-0.0394439697265625
1782986668935156500,3.477156494140625,-0.129364013671875,-0.11993408203125,-0.033050537109375
1782986668945230800,3.48723095703125,-0.1045684814453125,-0.138763427734375,-0.041229248046875
1782986668955305500,3.497305419921875,-0.121368408203125,-0.145538330078125,-0.045257568359375
1782986668965379800,3.5073798828125,-0.1751556396484375,-0.1321258544921875,-0.0331878662109375
1782986668975453700,3.51745361328125,-0.2596282958984375,-0.1204376220703125,-0.01934814453125
1782986668985528800,3.52752880859375,-0.338165283203125,-0.096649169921875,0.013031005859375
1782986668995602700,3.537602783203125,-0.3840484619140625,-0.080963134765625,0.05364990234375
1782986669005676500,3.547676513671875,-0.404937744140625,-0.0944976806640625,0.0912933349609375
1782986669015750700,3.557750732421875,-0.3841705322265625,-0.120574951171875,0.1025848388671875
1782986669025825500,3.567825439453125,-0.3363494873046875,-0.1278839111328125,0.1133880615234375
1782986669035899600,3.577899658203125,-0.3084564208984375,-0.1273193359375,0.1571197509765625
1782986669045973500,3.587973388671875,-0.290740966796875,-0.1540069580078125,0.1799774169921875
1782986669056048600,3.598048583984375,-0.26531982421875,-0.1946868896484375,0.148712158203125
1782986669066122500,3.60812255859375,-0.242340087890625,-0.2058258056640625,0.156951904296875
1782986669076196600,3.618196533203125,-0.31201171875,-0.2335357666015625,0.1531524658203125
1782986669086270500,3.6282705078125,-0.5363006591796875,-0.2540740966796875,0.0748291015625
1782986669096345600,3.638345703125,-0.84307861328125,-0.26617431640625,-0.0225982666015625
1782986669106419500,3.64841943359375,-1.2276458740234375,-0.348052978515625,-0.1488494873046875
1782986669116493800,3.658493896484375,-1.60357666015625,-0.506805419921875,-0.3668670654296875
1782986669126568400,3.668568359375,-1.9700927734375,-0.5933074951171875,-0.512908935546875
1782986669136642800,3.678642822265625,-2.3249664306640625,-0.59515380859375,-0.560699462890625
1782986669146716700,3.688716552734375,-2.6377105712890625,-0.713531494140625,-0.3909149169921875
1782986669156790800,3.698790771484375,-2.866485595703125,-0.9201812744140625,0.09405517578125
1782986669166865700,3.70886572265625,-3.0184478759765625,-1.0701141357421875,0.44622802734375
1782986669176939800,3.718939697265625,-3.1209259033203125,-1.120941162109375,0.5568389892578125
1782986669187013600,3.729013671875,-3.217926025390625,-1.1496124267578125,0.6456146240234375
1782986669197088800,3.7390888671875,-3.2922821044921875,-1.0819549560546875,0.694366455078125
1782986669207162600,3.74916259765625,-3.4406890869140625,-0.82171630859375,0.6660003662109375
1782986669217236500,3.759236572265625,-3.676483154296875,-0.5983123779296875,0.6483306884765625
1782986669227311600,3.7693115234375,-3.8367156982421875,-0.5540618896484375,0.611328125
1782986669237385500,3.779385498046875,-3.69879150390625,-0.5986480712890625,0.4272918701171875
1782986669247459600,3.78945947265625,-3.15814208984375,-0.6105194091796875,0.168304443359375
1782986669257533400,3.799533447265625,-2.354766845703125,-0.6023712158203125,-0.0156707763671875
1782986669267608600,3.809608642578125,-1.517181396484375,-0.549041748046875,-0.0821380615234375
1782986669277682400,3.819682373046875,-0.8901214599609375,-0.4294891357421875,-0.0397491455078125
1782986669287756800,3.8297568359375,-0.5767822265625,-0.3342132568359375,0.0293731689453125
1782986669297831400,3.83983154296875,-0.5331268310546875,-0.30645751953125,0.04473876953125
1782986669307905800,3.84990576171875,-0.5338897705078125,-0.2982177734375,-0.064697265625
1782986669317979600,3.859979736328125,-0.4805450439453125,-0.270111083984375,-0.1599884033203125
1782986669328054800,3.8700546875,-0.279449462890625,-0.2607574462890625,-0.2448883056640625
1782986669338128600,3.880128662109375,0.046142578125,-0.2376708984375,-0.2857513427734375
1782986669348202800,3.89020263671875,0.3670654296875,-0.17095947265625,-0.2698822021484375
1782986669358276600,3.900276611328125,0.6469879150390625,-0.0633697509765625,-0.307891845703125
1782986669368351700,3.910351806640625,0.871063232421875,-0.0059051513671875,-0.301544189453125
1782986669378425600,3.920425537109375,0.997467041015625,0.024078369140625,-0.2946624755859375
1782986669388499500,3.93049951171875,0.9671783447265625,0.0764617919921875,-0.3127899169921875
1782986669398574600,3.94057470703125,0.7755584716796875,0.0995025634765625,-0.2965240478515625
1782986669408648700,3.950648681640625,0.4705657958984375,0.130279541015625,-0.226165771484375
1782986669418722600,3.96072265625,0.144927978515625,0.1590728759765625,-0.1637115478515625
1782986669428796400,3.97079638671875,-0.1320953369140625,0.1675262451171875,-0.143310546875
1782986669438871600,3.98087158203125,-0.30926513671875,0.1657257080078125,-0.129058837890625
1782986669448945400,3.9909453125,-0.366241455078125,0.14044189453125,-0.1234588623046875
1782986669459019800,4.001019775390625,-0.3258209228515625,0.1079254150390625,-0.083343505859375
1782986669469094400,4.011094482421875,-0.2157440185546875,0.0723114013671875,-0.04168701171875
1782986669479168800,4.021168701171875,-0.081878662109375,0.0374755859375,-0.043487548828125
1782986669489242600,4.03124267578125,0.0317840576171875,-0.0154266357421875,-0.0406646728515625
1782986669499316700,4.041316650390625,0.1135406494140625,-0.055511474609375,-0.0026702880859375
1782986669509391600,4.0513916015625,0.165802001953125,-0.062744140625,0.02288818359375
1782986669519465700,4.0614658203125,0.1765289306640625,-0.0704345703125,0.0150146484375
1782986669529539600,4.07153955078125,0.1250457763671875,-0.0783538818359375,0.0240478515625
1782986669539614700,4.08161474609375,0.0444488525390625,-0.085968017578125,0.0233001708984375
1782986669549688600,4.0916884765625,-0.035919189453125,-0.0883026123046875,0.009307861328125
1782986669559762700,4.1017626953125,-0.104766845703125,-0.0724334716796875,0.011749267578125
1782986669569836500,4.11183642578125,-0.1604461669921875,-0.07586669921875,-0.0023040771484375
1782986669579911700,4.12191162109375,-0.1985626220703125,-0.0771636962890625,0.017425537109375
1782986669589985500,4.131985595703125,-0.2120819091796875,-0.083038330078125,0.0479583740234375
1782986669600059400,4.142059326171875,-0.2102203369140625,-0.09228515625,0.068603515625
1782986669610134500,4.152134521484375,-0.2067718505859375,-0.1254119873046875,0.0882415771484375
1782986669620208400,4.16220849609375,-0.224456787109375,-0.1542205810546875,0.1260528564453125
1782986669630282800,4.17228271484375,-0.2997589111328125,-0.1671295166015625,0.1967010498046875
1782986669640356600,4.182356689453125,-0.46514892578125,-0.2027587890625,0.24188232421875
1782986669650431700,4.192431640625,-0.7073822021484375,-0.312530517578125,0.2502899169921875
1782986669660505600,4.202505615234375,-0.9521484375,-0.535308837890625,0.2868804931640625
1782986669670579700,4.212579833984375,-1.2440948486328125,-0.7955169677734375,0.32373046875
1782986669680654600,4.222654541015625,-1.56658935546875,-1.131103515625,0.3733367919921875
1782986669690728700,4.232728759765625,-1.9010162353515625,-1.5328369140625,0.3768768310546875
1782986669700802600,4.242802490234375,-2.258056640625,-1.909698486328125,0.2833099365234375
1782986669710877700,4.252877685546875,-2.6987152099609375,-1.993499755859375,0.3660430908203125
1782986669720951600,4.26295166015625,-3.3817596435546875,-1.738037109375,0.57769775390625
1782986669731025700,4.273025634765625,-3.9933624267578125,-1.25408935546875,0.6991119384765625
1782986669741099500,4.283099609375,-4.29034423828125,-1.0270233154296875,0.7441253662109375
1782986669751174700,4.293174560546875,-4.415771484375,-0.9579010009765625,0.7942962646484375
1782986669761248500,4.30324853515625,-4.4571380615234375,-0.842041015625,0.95947265625
1782986669771322600,4.313322509765625,-4.290496826171875,-0.646881103515625,1.04510498046875
1782986669781397500,4.3233974609375,-3.9533538818359375,-0.4249725341796875,1.1703948974609375
1782986669791471600,4.3334716796875,-3.457977294921875,-0.3430938720703125,1.102203369140625
1782986669801545700,4.343545654296875,-2.8486785888671875,-0.3614044189453125,0.8920440673828125
1782986669811620600,4.35362060546875,-2.1262664794921875,-0.42364501953125,0.6500091552734375
1782986669821694700,4.36369482421875,-1.3393402099609375,-0.4496612548828125,0.473052978515625
1782986669831768600,4.3737685546875,-0.6541748046875,-0.3883514404296875,0.3711395263671875
1782986669841842700,4.3838427734375,-0.1751708984375,-0.3380126953125,0.2456512451171875
1782986669851918000,4.39391796875,0.0145263671875,-0.321685791015625,0.1086578369140625
1782986669861992000,4.403991943359375,-0.1582794189453125,-0.3311767578125,-0.123687744140625
1782986669872066000,4.414066162109375,-0.1331939697265625,-0.27764892578125,-0.230804443359375
1782986669882141000,4.424140869140625,0.04925537109375,-0.09222412109375,-0.2622833251953125
1782986669892215000,4.434215087890625,0.37493896484375,-0.0545196533203125,-0.407470703125
1782986669902289000,4.444288818359375,0.6959686279296875,-0.0854034423828125,-0.4170684814453125
1782986669912363000,4.454363037109375,0.9267578125,-0.0067901611328125,-0.327117919921875
1782986669922438000,4.46443798828125,0.99725341796875,0.03411865234375,-0.304290771484375
1782986669932512000,4.474511962890625,0.8833770751953125,0.010223388671875,-0.294677734375
1782986669942585900,4.4845859375,0.6136322021484375,0.058685302734375,-0.2426910400390625
1782986669952661000,4.494660888671875,0.306060791015625,0.0955657958984375,-0.1775360107421875
1782986669962734800,4.50473486328125,0.0690155029296875,0.109649658203125,-0.104705810546875
1782986669972809000,4.51480908203125,-0.1161041259765625,0.1463775634765625,-0.04754638671875
1782986669982883000,4.524883056640625,-0.255401611328125,0.1629486083984375,-0.0059661865234375
1782986669992958000,4.5349580078125,-0.28961181640625,0.1466064453125,0.00592041015625
1782986670003032000,4.545031982421875,-0.1963348388671875,0.106781005859375,0.004608154296875
1782986670013106200,4.555106201171875,-0.0591888427734375,0.08489990234375,0.037811279296875
1782986670023181000,4.56518115234375,0.0664215087890625,0.0434722900390625,0.0311737060546875
1782986670033255200,4.575255126953125,0.1758270263671875,-0.00189208984375,0.0409393310546875
1782986670043329000,4.5853291015625,0.217132568359375,-0.0097503662109375,0.053802490234375
1782986670053403000,4.59540283203125,0.1810150146484375,-0.0058135986328125,0.07464599609375
1782986670063478000,4.60547802734375,0.0948333740234375,-0.029266357421875,0.07696533203125
1782986670073552000,4.6155517578125,0.0201416015625,-0.04534912109375,0.0847320556640625
1782986670083626000,4.6256259765625,-0.031768798828125,-0.056396484375,0.0902557373046875
1782986670093700900,4.635700927734375,-0.0991668701171875,-0.0528411865234375,0.0731964111328125
1782986670103775000,4.64577490234375,-0.1521759033203125,-0.0663604736328125,0.062896728515625
1782986670113848800,4.655848876953125,-0.1769561767578125,-0.0887603759765625,0.070068359375
1782986670123924000,4.665924072265625,-0.1644744873046875,-0.110595703125,0.0794219970703125
1782986670133997800,4.675997802734375,-0.1759490966796875,-0.10650634765625,0.0903778076171875
1782986670144072000,4.686072021484375,-0.2596893310546875,-0.1274871826171875,0.0390472412109375
1782986670154146000,4.69614599609375,-0.39764404296875,-0.069580078125,0.0752105712890625
1782986670164221000,4.706220947265625,-0.627410888671875,-0.0442047119140625,0.101593017578125
1782986670174295000,4.716294921875,-0.864654541015625,-0.1363677978515625,0.0252685546875
1782986670184369200,4.726369140625,-1.031341552734375,-0.181884765625,0.01220703125
1782986670194444000,4.736444091796875,-1.2072601318359375,-0.2555999755859375,0.088134765625
1782986670204518100,4.74651806640625,-1.4108123779296875,-0.4037628173828125,0.147003173828125
1782986670214592000,4.756592041015625,-1.6934967041015625,-0.660186767578125,0.1943511962890625
1782986670224665900,4.766665771484375,-2.0420989990234375,-0.9275970458984375,0.2995147705078125
1782986670234741000,4.776740966796875,-2.385406494140625,-1.2095184326171875,0.2237701416015625
1782986670244814800,4.78681494140625,-2.7676849365234375,-1.4145050048828125,0.05718994140625
1782986670254889000,4.796888916015625,-3.2046356201171875,-1.46014404296875,0.07611083984375
1782986670264964000,4.806964111328125,-3.53485107421875,-1.3578643798828125,0.291351318359375
1782986670275038000,4.817037841796875,-3.7246246337890625,-1.2835693359375,0.491668701171875
1782986670285111800,4.82711181640625,-3.8689422607421875,-1.2907257080078125,0.65106201171875
1782986670295187000,4.83718701171875,-3.969512939453125,-1.180328369140625,0.7022247314453125
1782986670305260800,4.8472607421875,-4.013336181640625,-0.8707122802734375,0.6772308349609375
1782986670315335000,4.8573349609375,-4.002685546875,-0.5940704345703125,0.59521484375
1782986670325409000,4.867408935546875,-3.7042388916015625,-0.4980010986328125,0.3729705810546875
1782986670335484000,4.87748388671875,-3.1201019287109375,-0.4520416259765625,0.1789703369140625
1782986670345558000,4.88755810546875,-2.4151763916015625,-0.3545989990234375,0.175323486328125
1782986670355632000,4.897632080078125,-1.710296630859375,-0.306915283203125,0.1517791748046875
1782986670365707000,4.90770703125,-1.1024017333984375,-0.271209716796875,0.11138916015625
1782986670375781000,4.917781005859375,-0.6236572265625,-0.2132568359375,0.0372772216796875
1782986670385855000,4.92785498046875,-0.242706298828125,-0.1837158203125,-0.0834503173828125
1782986670395929000,4.93792919921875,0.1268768310546875,-0.168548583984375,-0.22314453125
1782986670406004000,4.94800390625,0.5061187744140625,-0.181182861328125,-0.2376556396484375
1782986670416078000,4.958078125,0.8481903076171875,-0.23388671875,-0.19781494140625
1782986670426152000,4.96815185546875,1.0806121826171875,-0.2502899169921875,-0.2097015380859375
1782986670436227000,4.97822705078125,1.1841583251953125,-0.236175537109375,-0.182098388671875
1782986670446301000,4.988301025390625,1.1419830322265625,-0.227874755859375,-0.160980224609375
1782986670456374800,4.998374755859375,0.9466552734375,-0.201934814453125,-0.1517333984375
1782986670466450000,5.008449951171875,0.6772613525390625,-0.147613525390625,-0.1217041015625
1782986670476523800,5.018523681640625,0.3721771240234375,-0.059844970703125,-0.0868682861328125
1782986670486598000,5.028597900390625,0.0407257080078125,0.016632080078125,-0.083404541015625
1782986670496672000,5.038672119140625,-0.2135467529296875,0.031982421875,-0.14959716796875
1782986670506747000,5.048746826171875,-0.3916473388671875,0.056060791015625,-0.139190673828125
1782986670516821000,5.058821044921875,-0.4967498779296875,0.098968505859375,-0.133270263671875
1782986670526895000,5.06889501953125,-0.5155181884765625,0.102783203125,-0.154998779296875
1782986670536970000,5.078969970703125,-0.4573822021484375,0.0626373291015625,-0.1506805419921875
1782986670547044000,5.089044189453125,-0.337860107421875,0.0435791015625,-0.0909423828125
1782986670557118000,5.099117919921875,-0.218048095703125,0.0312347412109375,-0.0692901611328125
1782986670567192000,5.109192138671875,-0.132476806640625,0.0672607421875,0.0204620361328125
1782986670577267000,5.119266845703125,-0.0996246337890625,0.0422210693359375,0.016693115234375
1782986670587341000,5.129341064453125,-0.109161376953125,-0.0064849853515625,-0.0228118896484375
1782986670597415000,5.139414794921875,-0.139312744140625,-0.001220703125,0.0000457763671875
1782986670607490000,5.149489990234375,-0.1659698486328125,-0.0037994384765625,0.02276611328125
1782986670617564000,5.15956396484375,-0.179656982421875,-0.0291900634765625,0.0214385986328125
1782986670627638000,5.169637939453125,-0.203155517578125,-0.049957275390625,0.0406341552734375
1782986670637712100,5.179712158203125,-0.2220458984375,-0.046905517578125,0.0581512451171875
1782986670647787000,5.189787109375,-0.20294189453125,-0.0575103759765625,0.07513427734375
1782986670657861000,5.199861083984375,-0.156707763671875,-0.053741455078125,0.0970611572265625
1782986670667935000,5.20993505859375,-0.1251220703125,-0.0550079345703125,0.11529541015625
1782986670678010000,5.220010009765625,-0.1147918701171875,-0.0666961669921875,0.1240081787109375
1782986670688084000,5.230083984375,-0.14642333984375,-0.06396484375,0.1409759521484375
1782986670698158000,5.240157958984375,-0.241241455078125,-0.066070556640625,0.157745361328125
1782986670708233000,5.25023291015625,-0.39935302734375,-0.0859222412109375,0.1690826416015625
1782986670718307000,5.26030712890625,-0.59600830078125,-0.1057586669921875,0.1746978759765625
1782986670728381000,5.270380859375,-0.7864837646484375,-0.1210174560546875,0.184906005859375
1782986670738455000,5.280455078125,-0.9766998291015625,-0.208831787109375,0.1938018798828125
1782986670748530000,5.290530029296875,-1.1160430908203125,-0.3683929443359375,0.15704345703125
1782986670758604000,5.30060400390625,-1.1605682373046875,-0.556610107421875,0.1219329833984375
1782986670768678000,5.310677978515625,-1.2975311279296875,-0.7976531982421875,0.083251953125
1782986670778753000,5.3207529296875,-1.7108154296875,-0.982757568359375,-0.002044677734375
1782986670788827000,5.330826904296875,-2.4618072509765625,-1.021942138671875,0.0096893310546875
1782986670798901000,5.34090087890625,-3.2899169921875,-1.0200042724609375,0.165069580078125
1782986670808975000,5.35097509765625,-3.8199310302734375,-1.0556182861328125,0.3375091552734375
1782986670819050000,5.361050048828125,-3.8892822265625,-1.13128662109375,0.433837890625
1782986670829124000,5.3711240234375,-3.7863616943359375,-1.176788330078125,0.4639892578125
1782986670839198000,5.381197998046875,-3.842132568359375,-1.17010498046875,0.6385345458984375
1782986670849273000,5.391273193359375,-3.97259521484375,-0.96746826171875,0.8668975830078125
1782986670859347200,5.40134716796875,-4.0186004638671875,-0.6212310791015625,1.0649871826171875
1782986670869421300,5.41142138671875,-3.8740692138671875,-0.426177978515625,1.0628662109375
1782986670879496200,5.42149609375,-3.370819091796875,-0.3402557373046875,0.8443603515625
1782986670889570300,5.4315703125,-2.6200103759765625,-0.23779296875,0.59002685546875
1782986670899644200,5.44164404296875,-1.8272552490234375,-0.16802978515625,0.3617401123046875
1782986670909718300,5.45171826171875,-1.1858367919921875,-0.1221771240234375,0.2249603271484375
1782986670919793200,5.461793212890625,-0.729034423828125,-0.0690765380859375,0.1890716552734375
1782986670929867300,5.4718671875,-0.390380859375,-0.0450286865234375,0.1740875244140625
1782986670939941000,5.481941162109375,-0.159332275390625,-0.094085693359375,0.145355224609375
1782986670950016300,5.492016357421875,-0.004241943359375,-0.131256103515625,0.1024932861328125
1782986670960090000,5.502090087890625,0.1176605224609375,-0.1613006591796875,0.0651702880859375
1782986670970164000,5.5121640625,0.212921142578125,-0.19171142578125,-0.0220794677734375
1782986670980238000,5.522238037109375,0.245574951171875,-0.19976806640625,-0.11810302734375
1782986670990313000,5.53231298828125,0.26336669921875,-0.231292724609375,-0.2161407470703125
1782986671000387000,5.542386962890625,0.2867279052734375,-0.228485107421875,-0.3492889404296875
1782986671010461200,5.552461181640625,0.3463287353515625,-0.1566314697265625,-0.4049072265625
1782986671020536000,5.5625361328125,0.4742889404296875,-0.10546875,-0.3809967041015625
1782986671030610200,5.572610107421875,0.59234619140625,-0.0905914306640625,-0.3434600830078125
1782986671040684300,5.582684326171875,0.65777587890625,-0.0780029296875,-0.303009033203125
1782986671050759200,5.59275927734375,0.6120147705078125,-0.0746002197265625,-0.239349365234375
1782986671060833300,5.602833251953125,0.438934326171875,-0.0599517822265625,-0.1859130859375
1782986671070907100,5.6129072265625,0.2148895263671875,-0.0321502685546875,-0.14154052734375
1782986671080981200,5.622981201171875,-0.007843017578125,-0.0447540283203125,-0.1105194091796875
1782986671091056000,5.63305615234375,-0.1885223388671875,-0.0510711669921875,-0.0800933837890625
1782986671101130200,5.643130126953125,-0.310760498046875,-0.0542144775390625,-0.06640625
1782986671111204000,5.6532041015625,-0.3722686767578125,-0.0548248291015625,-0.066650390625
1782986671121278000,5.66327783203125,-0.3714141845703125,-0.05780029296875,-0.0573577880859375
1782986671131353000,5.67335302734375,-0.3095855712890625,-0.0600128173828125,-0.0312652587890625
1782986671141427000,5.683427001953125,-0.263946533203125,-0.08154296875,-0.0190887451171875
1782986671151501000,5.6935009765625,-0.2153167724609375,-0.073944091796875,0.001708984375
1782986671161576200,5.703576171875,-0.17474365234375,-0.089508056640625,0.019195556640625
1782986671171650000,5.713650146484375,-0.163787841796875,-0.1133270263671875,0.0452423095703125
1782986671181724200,5.72372412109375,-0.201995849609375,-0.1195526123046875,0.0763702392578125
1782986671191799000,5.733799072265625,-0.231781005859375,-0.1202545166015625,0.1033477783203125
1782986671201873200,5.743873046875,-0.239990234375,-0.13348388671875,0.1206207275390625
1782986671211947300,5.753947265625,-0.23095703125,-0.1367340087890625,0.1220855712890625
1782986671222021000,5.764021240234375,-0.24615478515625,-0.1373443603515625,0.1057891845703125
1782986671232096300,5.77409619140625,-0.2651214599609375,-0.1375885009765625,0.09637451171875
1782986671242170000,5.784170166015625,-0.2522125244140625,-0.131744384765625,0.09783935546875
1782986671252244200,5.794244140625,-0.227813720703125,-0.1306915283203125,0.08892822265625
1782986671262319000,5.804319091796875,-0.2375640869140625,-0.1489715576171875,0.0863494873046875
1782986671272393200,5.814393310546875,-0.3212432861328125,-0.1657257080078125,0.1155853271484375
1782986671282467000,5.824467041015625,-0.51507568359375,-0.182098388671875,0.16021728515625
1782986671292541200,5.834541259765625,-0.906097412109375,-0.2043304443359375,0.2329559326171875
1782986671302616000,5.844615966796875,-1.4151458740234375,-0.2539520263671875,0.26519775390625
1782986671312690200,5.854690185546875,-1.7457733154296875,-0.3050994873046875,0.2344207763671875
1782986671322764000,5.864763916015625,-1.8491058349609375,-0.3759765625,0.2012786865234375
1782986671332839200,5.874839111328125,-1.9926910400390625,-0.534637451171875,0.275146484375
1782986671342913000,5.8849130859375,-2.5695648193359375,-0.6049652099609375,0.3215484619140625
1782986671352987100,5.894987060546875,-3.39605712890625,-0.5181732177734375,0.2822418212890625
1782986671363062000,5.90506201171875,-4.0097503662109375,-0.3779144287109375,0.432159423828125
1782986671373136100,5.91513623046875,-4.191253662109375,-0.3445281982421875,0.568359375
1782986671383210200,5.925210205078125,-4.0926513671875,-0.372344970703125,0.6244049072265625
1782986671393284000,5.9352841796875,-3.9171295166015625,-0.4170379638671875,0.7745208740234375
1782986671403359200,5.945359130859375,-3.8056640625,-0.4771575927734375,0.8923492431640625
1782986671413433000,5.95543310546875,-3.650848388671875,-0.3866119384765625,0.82196044921875
1782986671423507200,5.965507080078125,-3.484771728515625,-0.2319793701171875,0.6843109130859375
1782986671433582000,5.97558203125,-3.2126617431640625,-0.1078948974609375,0.4694061279296875
1782986671443656200,5.98565625,-2.7712554931640625,-0.0450592041015625,0.1485748291015625
1782986671453730000,5.99572998046875,-2.1909332275390625,-0.00811767578125,-0.12060546875
1782986671463804200,6.00580419921875,-1.5527801513671875,-0.0140838623046875,-0.2941741943359375
1782986671473879000,6.015879150390625,-0.999603271484375,-0.015411376953125,-0.31317138671875
1782986671483953200,6.025953125,-0.638031005859375,-0.056427001953125,-0.2228240966796875
1782986671494027300,6.03602734375,-0.4848480224609375,-0.104339599609375,-0.0518341064453125
1782986671504102100,6.04610205078125,-0.46771240234375,-0.1337890625,0.0823974609375
1782986671514176300,6.05617626953125,-0.4676971435546875,-0.171417236328125,0.1429443359375
1782986671524250400,6.06625048828125,-0.4120330810546875,-0.2275390625,0.1651763916015625
1782986671534324200,6.07632421875,-0.3006439208984375,-0.2287750244140625,0.1208648681640625
1782986671544399400,6.0863994140625,-0.1416778564453125,-0.25494384765625,0.07598876953125
1782986671554473200,6.09647314453125,0.0835113525390625,-0.2982940673828125,0.0734100341796875
1782986671564547000,6.106547119140625,0.3190155029296875,-0.3022308349609375,0.059478759765625
1782986671574622200,6.116622314453125,0.5122528076171875,-0.2885589599609375,0.0469970703125
1782986671584696000,6.126696044921875,0.6476287841796875,-0.302398681640625,0.0848846435546875
1782986671594770200,6.136770263671875,0.705780029296875,-0.2736663818359375,0.05255126953125
1782986671604845000,6.146844970703125,0.6592559814453125,-0.222381591796875,0.01812744140625
1782986671614919200,6.156919189453125,0.5435333251953125,-0.18621826171875,0.02288818359375
1782986671624993000,6.166992919921875,0.3719482421875,-0.1263580322265625,0.009613037109375
1782986671635067100,6.177067138671875,0.173858642578125,-0.0756683349609375,-0.0089874267578125
1782986671645142000,6.18714208984375,-0.03009033203125,-0.0393218994140625,-0.026580810546875
1782986671655216000,6.197216064453125,-0.2230224609375,-0.022857666015625,-0.043731689453125
1782986671665290200,6.207290283203125,-0.372222900390625,-0.023529052734375,-0.06683349609375
1782986671675365000,6.217365234375,-0.4487152099609375,-0.0224609375,-0.0875244140625
1782986671685439200,6.227439208984375,-0.4441070556640625,-0.0253448486328125,-0.088287353515625
1782986671695513300,6.237513427734375,-0.3906707763671875,-0.0308380126953125,-0.0793609619140625
1782986671705587200,6.247587158203125,-0.3111419677734375,-0.0375213623046875,-0.063720703125
1782986671715662300,6.257662353515625,-0.2364501953125,-0.0485382080078125,-0.0427398681640625
1782986671725736200,6.267736083984375,-0.165435791015625,-0.0555267333984375,-0.02301025390625
1782986671735810000,6.27781005859375,-0.125823974609375,-0.0682830810546875,-0.015167236328125
1782986671745885200,6.28788525390625,-0.1009521484375,-0.06256103515625,-0.0043182373046875
1782986671755959300,6.297959228515625,-0.1079559326171875,-0.0603790283203125,0.0047760009765625
1782986671766033200,6.308033203125,-0.1436004638671875,-0.07061767578125,0.0027313232421875
1782986671776108300,6.3181083984375,-0.186004638671875,-0.0645294189453125,-0.00042724609375
1782986671786182100,6.32818212890625,-0.2229156494140625,-0.0621185302734375,0.0025634765625
1782986671796256000,6.338256103515625,-0.264801025390625,-0.0599822998046875,0.0006256103515625
1782986671806330000,6.348330078125,-0.3154449462890625,-0.050537109375,-0.0093231201171875
1782986671816405000,6.358405029296875,-0.3520660400390625,-0.0394134521484375,0.0027923583984375
1782986671826479000,6.36847900390625,-0.4282073974609375,-0.0290985107421875,0.0530548095703125
1782986671836553200,6.37855322265625,-0.6110687255859375,-0.0622100830078125,0.108306884765625
1782986671846628000,6.388628173828125,-0.9209136962890625,-0.1377105712890625,0.1979827880859375
1782986671856702200,6.3987021484375,-1.29827880859375,-0.2599029541015625,0.318359375
1782986671866776300,6.4087763671875,-1.6650848388671875,-0.456634521484375,0.505584716796875
1782986671876850200,6.41885009765625,-1.9742279052734375,-0.758331298828125,0.70953369140625
1782986671886925300,6.42892529296875,-2.182891845703125,-1.11578369140625,0.682586669921875
1782986671896999200,6.438999267578125,-2.5061798095703125,-1.242950439453125,0.4282684326171875
1782986671907073300,6.4490732421875,-2.9513092041015625,-1.0425262451171875,0.38995361328125
1782986671917148200,6.459148193359375,-3.2641448974609375,-0.929473876953125,0.499420166015625
1782986671927222300,6.46922216796875,-3.4610137939453125,-0.88836669921875,0.51513671875
1782986671937296100,6.479296142578125,-3.5874786376953125,-0.7492828369140625,0.52337646484375
1782986671947370000,6.489369873046875,-3.757293701171875,-0.540924072265625,0.568878173828125
1782986671957445000,6.499445068359375,-3.9259185791015625,-0.2454071044921875,0.3587188720703125
1782986671967519000,6.50951904296875,-3.830474853515625,0.0102691650390625,-0.0361175537109375
1782986671977593000,6.519593017578125,-3.439697265625,0.1175537109375,-0.287384033203125
1782986671987668000,6.52966796875,-2.8609161376953125,0.11151123046875,-0.3590545654296875
1782986671997742000,6.5397421875,-2.151336669921875,0.037841796875,-0.3842620849609375
1782986672007816200,6.549816162109375,-1.41571044921875,-0.040618896484375,-0.359954833984375
1782986672017891000,6.55989111328125,-0.800811767578125,-0.098419189453125,-0.2685089111328125
1782986672027965200,6.569965087890625,-0.3775177001953125,-0.1652374267578125,-0.1450653076171875
1782986672038039300,6.580039306640625,-0.1590728759765625,-0.2396087646484375,0.0122528076171875
1782986672048113200,6.590113037109375,-0.0889434814453125,-0.3204193115234375,0.1189727783203125
1782986672058188300,6.600188232421875,-0.0558929443359375,-0.38275146484375,0.190399169921875
1782986672068262100,6.61026220703125,0.0604095458984375,-0.410003662109375,0.19476318359375
1782986672078336300,6.620336181640625,0.2013092041015625,-0.4521636962890625,0.1725921630859375
1782986672088411100,6.6304111328125,0.39776611328125,-0.4268341064453125,0.1943206787109375
1782986672098485200,6.6404853515625,0.596466064453125,-0.38446044921875,0.0737152099609375
1782986672108559000,6.65055908203125,0.7212677001953125,-0.3484039306640625,0.075042724609375
1782986672118633200,6.66063330078125,0.7574462890625,-0.2774658203125,0.1020050048828125
1782986672128708000,6.6707080078125,0.6628265380859375,-0.24017333984375,0.110992431640625
1782986672138782200,6.6807822265625,0.4969024658203125,-0.19915771484375,0.1183013916015625
1782986672148856000,6.69085595703125,0.2705841064453125,-0.1511993408203125,0.120269775390625
1782986672158931200,6.70093115234375,0.013397216796875,-0.103851318359375,0.1188507080078125
1782986672169005000,6.711005126953125,-0.2462158203125,-0.0464935302734375,0.0706329345703125
1782986672179079200,6.7210791015625,-0.4013671875,-0.0126190185546875,0.036163330078125
1782986672189154000,6.731154052734375,-0.508697509765625,-0.0141754150390625,0.0262603759765625
1782986672199228200,6.741228271484375,-0.5744476318359375,-0.027984619140625,0.003326416015625
1782986672209302300,6.75130224609375,-0.603240966796875,-0.0347747802734375,-0.0111846923828125
1782986672219376000,6.761376220703125,-0.5505828857421875,-0.031982421875,-0.00701904296875
1782986672229451300,6.771451171875,-0.4503936767578125,-0.029022216796875,0.0000762939453125
1782986672239525000,6.781525146484375,-0.3330078125,-0.034698486328125,-0.0048828125
1782986672249599200,6.79159912109375,-0.215545654296875,-0.04254150390625,-0.00341796875
1782986672259674000,6.801674072265625,-0.1212005615234375,-0.0530853271484375,0.0007781982421875
1782986672269748200,6.811748291015625,-0.0622711181640625,-0.057342529296875,0.018585205078125
1782986672279822000,6.821822021484375,-0.0407257080078125,-0.0562286376953125,0.0480804443359375
1782986672289896200,6.831896240234375,-0.0519561767578125,-0.050048828125,0.0697174072265625
1782986672299971000,6.84197119140625,-0.077850341796875,-0.044189453125,0.0626983642578125
1782986672310045200,6.852045166015625,-0.1063995361328125,-0.0432281494140625,0.044891357421875
1782986672320119000,6.862119140625,-0.1527252197265625,-0.0374603271484375,0.0440673828125
1782986672330194200,6.872194091796875,-0.2390289306640625,-0.0288543701171875,0.046783447265625
1782986672340268000,6.88226806640625,-0.3693084716796875,-0.02630615234375,0.048919677734375
1782986672350342400,6.89234228515625,-0.5114898681640625,-0.0092926025390625,0.059173583984375
1782986672360416300,6.902416259765625,-0.7302398681640625,-0.010955810546875,0.0960235595703125
1782986672370491400,6.912491455078125,-1.0164642333984375,-0.04571533203125,0.1365203857421875
1782986672380565200,6.922565185546875,-1.3577728271484375,-0.115478515625,0.1938934326171875
1782986672390639000,6.93263916015625,-1.6707763671875,-0.2863922119140625,0.355926513671875
1782986672400714200,6.94271435546875,-1.7789306640625,-0.5381011962890625,0.564300537109375
1782986672410788000,6.9527880859375,-1.968231201171875,-0.791229248046875,0.4381866455078125
1782986672420862200,6.9628623046875,-2.5212860107421875,-0.882415771484375,0.182281494140625
1782986672430937000,6.97293701171875,-3.308929443359375,-0.7061309814453125,0.345672607421875
1782986672441011200,6.98301123046875,-3.8726348876953125,-0.52325439453125,0.434173583984375
1782986672451085000,6.9930849609375,-4.055877685546875,-0.458709716796875,0.27960205078125
1782986672461159200,7.0031591796875,-4.0357666015625,-0.5056304931640625,0.2471923828125
1782986672471234000,7.013234130859375,-3.89630126953125,-0.4731292724609375,0.502288818359375
1782986672481308200,7.02330810546875,-3.8896484375,-0.2951812744140625,0.5476226806640625
1782986672491382000,7.033382080078125,-3.883056640625,-0.080810546875,0.3406829833984375
1782986672501457200,7.04345703125,-3.5643157958984375,-0.0247650146484375,0.216552734375
1782986672511531000,7.053531005859375,-2.99603271484375,-0.0037078857421875,0.139007568359375
1782986672521605400,7.06360546875,-2.306610107421875,0.0446929931640625,0.150054931640625
1782986672531679200,7.07367919921875,-1.711334228515625,0.0340423583984375,0.1328277587890625
1782986672541754400,7.08375439453125,-1.3730010986328125,-0.016510009765625,0.1861572265625
1782986672551828200,7.093828125,-1.2366485595703125,-0.065093994140625,0.19671630859375
1782986672561902000,7.103902099609375,-1.1258392333984375,-0.1522369384765625,0.09527587890625
1782986672571977200,7.113977294921875,-0.91351318359375,-0.245025634765625,0.0125579833984375
1782986672582051000,7.124051025390625,-0.58001708984375,-0.35101318359375,-0.0732574462890625
1782986672592125200,7.134125244140625,-0.1414337158203125,-0.4090423583984375,-0.10284423828125
1782986672602199000,7.144198974609375,0.338348388671875,-0.4161376953125,-0.120208740234375
1782986672612274200,7.154274169921875,0.781646728515625,-0.5270233154296875,-0.1876678466796875
1782986672622348000,7.16434814453125,1.1103363037109375,-0.5696563720703125,-0.1385345458984375
1782986672632422100,7.174422119140625,1.290863037109375,-0.48406982421875,-0.0929718017578125
1782986672642497000,7.1844970703125,1.2459716796875,-0.402313232421875,-0.0443878173828125
1782986672652571100,7.194571044921875,0.98089599609375,-0.3156585693359375,-0.0206146240234375
1782986672662645000,7.20464501953125,0.59588623046875,-0.178802490234375,0.0076904296875
1782986672672720100,7.21472021484375,0.2208404541015625,-0.034881591796875,0.0419769287109375
1782986672682794000,7.2247939453125,-0.084075927734375,0.0443115234375,0.04541015625
1782986672692868400,7.234868408203125,-0.2704010009765625,0.0949859619140625,-0.0115203857421875
1782986672702942200,7.244942138671875,-0.3369293212890625,0.114227294921875,-0.0439300537109375
1782986672713017300,7.255017333984375,-0.3021697998046875,0.118896484375,-0.0410003662109375
1782986672723091200,7.26509130859375,-0.206085205078125,0.1197052001953125,-0.037811279296875
1782986672733165300,7.275165283203125,-0.0974578857421875,0.1130523681640625,-0.042877197265625
1782986672743240200,7.285240234375,-0.01007080078125,0.0892333984375,-0.0484161376953125
1782986672753314300,7.295314208984375,0.04754638671875,0.06671142578125,-0.03350830078125
1782986672763388200,7.30538818359375,0.0536956787109375,0.0328369140625,-0.05511474609375
1782986672773462000,7.3154619140625,0.040069580078125,0.0149078369140625,-0.043365478515625
1782986672783537200,7.325537109375,0.0254364013671875,-0.01300048828125,-0.0531005859375
1782986672793611000,7.335611083984375,-0.0115966796875,-0.0286407470703125,-0.04931640625
1782986672803685000,7.34568505859375,-0.03564453125,-0.04962158203125,-0.0464324951171875
1782986672813760000,7.355760009765625,-0.05419921875,-0.0702056884765625,-0.0480194091796875
1782986672823834000,7.365834228515625,-0.07958984375,-0.093414306640625,-0.04046630859375
1782986672833908000,7.375907958984375,-0.1266937255859375,-0.1217193603515625,-0.0301361083984375
1782986672843982300,7.385982421875,-0.2032470703125,-0.145599365234375,-0.02178955078125
1782986672854056700,7.396056640625,-0.288299560546875,-0.14495849609375,-0.00653076171875
1782986672864130600,7.406130615234375,-0.360595703125,-0.1352386474609375,0.0048675537109375
1782986672874204700,7.41620458984375,-0.4945526123046875,-0.1443634033203125,-0.001373291015625
1782986672884279800,7.42627978515625,-0.700469970703125,-0.1084442138671875,0.0157318115234375
1782986672894353700,7.436353759765625,-1.0516510009765625,-0.1038970947265625,0.0180206298828125
1782986672904427500,7.446427490234375,-1.4421844482421875,-0.2110443115234375,-0.0134429931640625
1782986672914502700,7.456502685546875,-1.6782989501953125,-0.438323974609375,-0.01763916015625
1782986672924576500,7.466576416015625,-1.76708984375,-0.757720947265625,0.118865966796875
1782986672934650600,7.476650634765625,-1.84686279296875,-1.088897705078125,0.1439361572265625
1782986672944724500,7.486724365234375,-2.189361572265625,-1.427093505859375,-0.1677093505859375
1782986672954799600,7.496799560546875,-2.901275634765625,-1.533172607421875,-0.2699127197265625
1782986672964873500,7.50687353515625,-3.6245269775390625,-1.3720245361328125,0.0140533447265625
1782986672974947600,7.516947509765625,-3.97186279296875,-1.2954864501953125,0.07073974609375
1782986672985022500,7.5270224609375,-4.0120697021484375,-1.2393035888671875,0.056304931640625
1782986672995096600,7.5370966796875,-3.9099578857421875,-1.17333984375,0.1791839599609375
1782986673005170700,7.547170654296875,-3.9026031494140625,-0.8657989501953125,0.178985595703125
1782986673015245600,7.55724560546875,-3.8976898193359375,-0.4427337646484375,0.1086578369140625
1782986673025319700,7.567319580078125,-3.6015777587890625,-0.2030792236328125,-0.0382843017578125
1782986673035393800,7.577393798828125,-2.9423980712890625,-0.1269073486328125,-0.212860107421875
1782986673045467600,7.587467529296875,-2.207305908203125,-0.1313018798828125,-0.2412567138671875
1782986673055542800,7.597542724609375,-1.589996337890625,-0.1521148681640625,-0.2025299072265625
1782986673065616600,7.60761669921875,-1.1137542724609375,-0.2010498046875,-0.1797637939453125
1782986673075690500,7.6176904296875,-0.7949981689453125,-0.238250732421875,-0.162384033203125
1782986673085765600,7.627765625,-0.5960693359375,-0.23809814453125,-0.1599273681640625
1782986673095839500,7.637839599609375,-0.44342041015625,-0.271881103515625,-0.1481475830078125
1782986673105913600,7.64791357421875,-0.2667236328125,-0.3231048583984375,-0.118804931640625
1782986673115987500,7.657987548828125,-0.0497589111328125,-0.3318939208984375,-0.091766357421875
1782986673126062600,7.6680625,0.2094268798828125,-0.3238677978515625,-0.0807037353515625
1782986673136136400,7.678136474609375,0.459014892578125,-0.308624267578125,-0.0599822998046875
1782986673146210600,7.68821044921875,0.660430908203125,-0.26922607421875,-0.0184326171875
1782986673156285400,7.698285400390625,0.7906341552734375,-0.217437744140625,0.0266876220703125
1782986673166359600,7.708359619140625,0.81475830078125,-0.1605377197265625,0.0559539794921875
1782986673176433700,7.71843359375,0.731231689453125,-0.1043243408203125,0.036346435546875
1782986673186507800,7.7285078125,0.5546722412109375,-0.05413818359375,0.01507568359375
1782986673196582700,7.738582763671875,0.3448486328125,0.003204345703125,0.0318603515625
1782986673206656800,7.74865673828125,0.142181396484375,0.04644775390625,0.04144287109375
1782986673216730600,7.758730712890625,-0.0508880615234375,0.0728912353515625,0.031524658203125
1782986673226805800,7.7688056640625,-0.174102783203125,0.09033203125,0.02545166015625
1782986673236879600,7.778879638671875,-0.206207275390625,0.0852508544921875,0.0415802001953125
1782986673246953700,7.78895361328125,-0.177642822265625,0.068450927734375,0.058197021484375
1782986673257028600,7.799028564453125,-0.145416259765625,0.049102783203125,0.05963134765625
1782986673267102700,7.809102783203125,-0.1264495849609375,0.031036376953125,0.0459747314453125
1782986673277176600,7.819176513671875,-0.1280059814453125,0.015350341796875,0.0377349853515625
1782986673287250400,7.82925048828125,-0.1379852294921875,0.0021514892578125,0.0245513916015625
1782986673297325600,7.83932568359375,-0.1374359130859375,-0.0114593505859375,0.008636474609375
1782986673307399400,7.8493994140625,-0.1357574462890625,-0.02294921875,0.0003204345703125
1782986673317473500,7.8594736328125,-0.140716552734375,-0.0365447998046875,-0.01165771484375
1782986673327548400,7.86954833984375,-0.1641998291015625,-0.0545654296875,-0.0070648193359375
1782986673337622500,7.87962255859375,-0.1910247802734375,-0.071014404296875,-0.0134735107421875
1782986673347696600,7.889696533203125,-0.2007904052734375,-0.0831298828125,-0.0408477783203125
1782986673357770800,7.899770751953125,-0.2037200927734375,-0.1010284423828125,-0.06231689453125
1782986673367845600,7.909845703125,-0.2240142822265625,-0.11846923828125,-0.0731964111328125
1782986673377919700,7.919919677734375,-0.2654571533203125,-0.1281890869140625,-0.0830078125
1782986673387993600,7.92999365234375,-0.3396453857421875,-0.119659423828125,-0.1053924560546875
1782986673398068700,7.94006884765625,-0.4463043212890625,-0.095062255859375,-0.126495361328125
1782986673408142600,7.950142578125,-0.5861663818359375,-0.1043853759765625,-0.1547393798828125
1782986673418216700,7.960216796875,-0.7517852783203125,-0.1130218505859375,-0.162139892578125
1782986673428290600,7.97029052734375,-0.9437408447265625,-0.163665771484375,-0.15972900390625
1782986673438365700,7.98036572265625,-1.183685302734375,-0.261474609375,-0.16351318359375
1782986673448439600,7.990439453125,-1.466705322265625,-0.399658203125,-0.196685791015625
1782986673458513400,8.000513427734376,-1.7086334228515625,-0.6341552734375,-0.179656982421875
1782986673468588500,8.010588623046875,-1.907196044921875,-1.0804901123046875,-0.04791259765625
1782986673478662700,8.02066259765625,-2.1691436767578125,-1.549957275390625,0.0128173828125
1782986673488736500,8.030736572265624,-2.6491851806640625,-1.5447998046875,0.15179443359375
1782986673498810600,8.040810546875,-3.2301483154296875,-1.3527069091796875,0.470916748046875
1782986673508885500,8.050885498046876,-3.7765655517578125,-1.2848663330078125,0.4679718017578125
1782986673518959600,8.060959716796875,-4.266845703125,-1.2026824951171875,0.15777587890625
1782986673529033700,8.07103369140625,-4.6106414794921875,-1.0417633056640625,0.00616455078125
1782986673539108600,8.081108642578124,-4.759429931640625,-0.6940460205078125,-0.0835418701171875
1782986673549182700,8.0911826171875,-4.6056365966796875,-0.4311676025390625,-0.2808074951171875
1782986673559256600,8.101256591796876,-4.0065460205078125,-0.40130615234375,-0.4997711181640625
1782986673569331700,8.111331787109375,-3.083526611328125,-0.4437713623046875,-0.60186767578125
1782986673579405600,8.121405517578125,-2.11248779296875,-0.43505859375,-0.583709716796875
1782986673589479700,8.131479736328124,-1.3347930908203125,-0.402069091796875,-0.524322509765625
1782986673599553500,8.141553466796875,-0.828277587890625,-0.389923095703125,-0.4517059326171875
1782986673609628700,8.151628662109376,-0.5590362548828125,-0.346221923828125,-0.3479766845703125
1782986673619702500,8.16170263671875,-0.3886260986328125,-0.2873077392578125,-0.2468719482421875
1782986673629776600,8.171776611328125,-0.2362518310546875,-0.255279541015625,-0.1596832275390625
1782986673639851500,8.1818515625,-0.1208038330078125,-0.2519989013671875,-0.0763702392578125
1782986673649925600,8.191925537109375,0.0060882568359375,-0.27001953125,-0.01397705078125
1782986673659999500,8.20199951171875,0.184234619140625,-0.2949676513671875,0.0602569580078125
1782986673670074600,8.21207470703125,0.418731689453125,-0.322784423828125,0.129638671875
1782986673680148500,8.2221484375,0.658935546875,-0.3154754638671875,0.1619110107421875
1782986673690222600,8.23222265625,0.8589324951171875,-0.2962188720703125,0.12579345703125
1782986673700296700,8.242296630859375,0.9763336181640625,-0.26275634765625,0.041046142578125
1782986673710371800,8.252371826171874,0.9729461669921875,-0.2075042724609375,0.016998291015625
1782986673720445700,8.26244580078125,0.831146240234375,-0.151763916015625,0.020965576171875
1782986673730519600,8.27251953125,0.6322021484375,-0.0761260986328125,0.0040740966796875
1782986673740594700,8.2825947265625,0.4208526611328125,-0.00152587890625,0.01812744140625
1782986673750668500,8.29266845703125,0.242156982421875,0.0284881591796875,0.019378662109375
1782986673760742700,8.30274267578125,0.12109375,0.0329437255859375,0.03216552734375
1782986673770816500,8.31281640625,0.06658935546875,0.0352630615234375,0.0509033203125
1782986673780891600,8.3228916015625,0.033294677734375,0.072967529296875,0.0115203857421875
1782986673790965500,8.332965576171874,-0.0015869140625,0.0775909423828125,0.0272064208984375
1782986673801039600,8.34303955078125,-0.02789306640625,0.0505828857421875,0.0511627197265625
1782986673811114500,8.353114501953126,-0.0606842041015625,0.03118896484375,0.0305938720703125
1782986673821188600,8.363188720703125,-0.10833740234375,0.0224609375,-0.011810302734375
1782986673831262500,8.373262451171875,-0.167144775390625,0.024139404296875,-0.0618896484375
1782986673841336800,8.3833369140625,-0.20977783203125,0.0202178955078125,-0.0820465087890625
1782986673851412200,8.393412109375,-0.232666015625,0.008880615234375,-0.1043853759765625
1782986673861486000,8.403486083984374,-0.2169647216796875,-0.0016326904296875,-0.13165283203125
1782986673871560400,8.413560546875,-0.1663970947265625,-0.009857177734375,-0.134796142578125
1782986673881635000,8.423635009765626,-0.123260498046875,-0.0224151611328125,-0.108306884765625
1782986673891709400,8.43370947265625,-0.1021575927734375,-0.0299224853515625,-0.0892181396484375
1782986673901783300,8.443783203125,-0.09918212890625,-0.0288848876953125,-0.0710906982421875
1782986673911857200,8.453857177734376,-0.1359100341796875,-0.0356292724609375,-0.031829833984375
1782986673921932300,8.463932373046875,-0.2174072265625,-0.0660247802734375,-0.011474609375
1782986673932006100,8.474006103515626,-0.3035125732421875,-0.086700439453125,-0.003326416015625
1782986673942080300,8.484080322265624,-0.4094085693359375,-0.09393310546875,0.0062103271484375
1782986673952155400,8.4941552734375,-0.5726470947265625,-0.099853515625,0.014923095703125
1782986673962229200,8.504229248046874,-0.8365020751953125,-0.12469482421875,0.063720703125
1782986673972303000,8.51430322265625,-1.2451934814453125,-0.1971282958984375,0.1865997314453125
1782986673982378200,8.524378173828126,-1.80267333984375,-0.376068115234375,0.2835540771484375
1782986673992452000,8.5344521484375,-2.292022705078125,-0.602630615234375,0.33648681640625
1782986674002526200,8.544526123046875,-2.5314788818359375,-0.8692626953125,0.358428955078125
1782986674012600000,8.55460009765625,-2.699615478515625,-1.2197265625,0.1314849853515625
1782986674022675200,8.56467529296875,-3.085052490234375,-1.304290771484375,-0.0286712646484375
1782986674032749000,8.5747490234375,-3.6776275634765625,-1.1042633056640625,0.269561767578125
1782986674042823400,8.584823486328125,-4.0616607666015625,-0.884490966796875,0.4738006591796875
1782986674052898000,8.59489794921875,-4.19207763671875,-0.6945037841796875,0.3935699462890625
1782986674062972400,8.604972412109374,-4.2794952392578125,-0.567779541015625,0.3864898681640625
1782986674073046300,8.61504638671875,-4.248565673828125,-0.4623870849609375,0.3888702392578125
1782986674083120400,8.625120361328126,-4.043548583984375,-0.2171173095703125,0.3321380615234375
1782986674093195300,8.6351953125,-3.74774169921875,0.030487060546875,0.3082275390625
1782986674103269400,8.645269287109375,-3.364105224609375,0.105010986328125,0.2481842041015625
1782986674113343200,8.65534326171875,-2.816741943359375,0.073638916015625,0.134552001953125
1782986674123418400,8.66541845703125,-2.153594970703125,0.0247344970703125,0.0745849609375
1782986674133492200,8.6754921875,-1.55029296875,-0.0096282958984375,0.0661468505859375
1782986674143566000,8.685566162109374,-1.02032470703125,-0.0321502685546875,0.01800537109375
1782986674153641200,8.69564111328125,-0.573455810546875,-0.040771484375,0.034637451171875
1782986674163715000,8.705715087890624,-0.2498016357421875,-0.1126861572265625,0.0258331298828125
1782986674173789200,8.7157890625,-0.0529022216796875,-0.1757354736328125,-0.061676025390625
1782986674183863000,8.725863037109375,0.103363037109375,-0.209716796875,-0.1449737548828125
1782986674193938200,8.735938232421875,0.2808380126953125,-0.226165771484375,-0.2190399169921875
1782986674204012000,8.746011962890625,0.5001983642578125,-0.26312255859375,-0.2276763916015625
1782986674214086400,8.75608642578125,0.7365264892578125,-0.2302093505859375,-0.21539306640625
1782986674224161000,8.7661611328125,0.9298248291015625,-0.177520751953125,-0.21087646484375
1782986674234235400,8.7762353515625,1.0234222412109375,-0.1471710205078125,-0.18438720703125
1782986674244309200,8.786309326171875,0.983428955078125,-0.122589111328125,-0.1520843505859375
1782986674254383400,8.79638330078125,0.80694580078125,-0.0733489990234375,-0.123321533203125
1782986674264458200,8.806458251953124,0.544281005859375,-0.0155487060546875,-0.057861328125
1782986674274532400,8.816532470703125,0.27056884765625,0.038116455078125,0.0163421630859375
1782986674284606200,8.826606201171876,0.0122833251953125,0.071990966796875,0.0501251220703125
1782986674294681300,8.836681396484375,-0.1952056884765625,0.095947265625,0.0605926513671875
1782986674304755200,8.846755126953125,-0.339508056640625,0.10418701171875,0.0882110595703125
1782986674314829300,8.856829345703124,-0.4071502685546875,0.0753326416015625,0.0934295654296875
1782986674324903200,8.866903076171875,-0.395355224609375,0.0285491943359375,0.0732421875
1782986674334978300,8.876978271484376,-0.31976318359375,0.010528564453125,0.060577392578125
1782986674345052200,8.88705224609375,-0.204803466796875,0.007049560546875,0.0679779052734375
1782986674355126000,8.8971259765625,-0.1038818359375,-0.0140380859375,0.0525054931640625
1782986674365201200,8.907201171875,-0.0278778076171875,-0.0175933837890625,0.0485687255859375
1782986674375275000,8.91727490234375,0.0157928466796875,-0.01171875,0.0467681884765625
1782986674385349400,8.927349365234376,0.01324462890625,-0.0085296630859375,0.04620361328125
1782986674395424000,8.937424072265625,-0.0367889404296875,-0.006103515625,0.0462188720703125
1782986674405498400,8.947498291015625,-0.1054534912109375,-0.004852294921875,0.04302978515625
1782986674415572200,8.957572265625,-0.1892242431640625,-0.007293701171875,0.02752685546875
1782986674425646300,8.967646240234375,-0.268310546875,-0.01763916015625,0.0269775390625
1782986674435721200,8.97772119140625,-0.3445587158203125,-0.0392608642578125,0.0472412109375
1782986674445795300,8.98779541015625,-0.433746337890625,-0.046417236328125,0.0506744384765625
1782986674455869200,8.997869140625,-0.4783782958984375,-0.038970947265625,0.04296875
1782986674465944300,9.0079443359375,-0.486602783203125,-0.0423736572265625,0.0416717529296875
1782986674476018200,9.01801806640625,-0.5153961181640625,-0.0555877685546875,0.0384674072265625
1782986674486092300,9.02809228515625,-0.6168670654296875,-0.0635833740234375,0.0594635009765625
1782986674496166100,9.038166259765624,-0.8507537841796875,-0.09002685546875,0.1212005615234375
1782986674506241300,9.0482412109375,-1.165802001953125,-0.160186767578125,0.2131195068359375
1782986674516315100,9.058315185546874,-1.4832916259765625,-0.3067169189453125,0.2808685302734375
1782986674526389200,9.06838916015625,-1.6835174560546875,-0.527740478515625,0.348358154296875
1782986674536464100,9.078464111328126,-1.81719970703125,-0.713104248046875,0.3389434814453125
1782986674546538200,9.088538330078125,-2.189849853515625,-0.8415069580078125,0.1936187744140625
1782986674556612400,9.0986123046875,-2.8684844970703125,-0.9019775390625,0.28656005859375
1782986674566686200,9.108686279296874,-3.5494537353515625,-0.85595703125,0.584747314453125
1782986674576761300,9.11876123046875,-3.8614654541015625,-0.8851776123046875,0.7181243896484375
1782986674586835200,9.128835205078126,-3.803466796875,-0.96533203125,0.7125091552734375
1782986674596909300,9.138909423828125,-3.648040771484375,-0.8392181396484375,0.7644195556640625
1782986674606984200,9.148984130859375,-3.588104248046875,-0.6293792724609375,0.8989410400390625
1782986674617058300,9.159058349609374,-3.6339874267578125,-0.3847198486328125,0.8543243408203125
1782986674627132200,9.169132080078125,-3.6291961669921875,-0.1469268798828125,0.584625244140625
1782986674637207300,9.179207275390626,-3.4074859619140625,-0.11279296875,0.234710693359375
1782986674647281200,9.18928125,-2.922088623046875,-0.1596527099609375,-0.0865478515625
1782986674657355300,9.199355224609375,-2.2433013916015625,-0.1041107177734375,-0.225067138671875
1782986674667429000,9.20942919921875,-1.5128326416015625,-0.026580810546875,-0.22979736328125
1782986674677504300,9.219504150390625,-0.9138031005859375,0.030517578125,-0.23382568359375
1782986674687578000,9.229578125,-0.5383453369140625,0.065277099609375,-0.237060546875
1782986674697652200,9.23965234375,-0.3636474609375,0.0769500732421875,-0.204925537109375
1782986674707727000,9.24972705078125,-0.3010101318359375,0.031585693359375,-0.181488037109375
1782986674717801200,9.25980126953125,-0.24468994140625,-0.0760650634765625,-0.131256103515625
1782986674727875300,9.269875244140625,-0.097198486328125,-0.180511474609375,-0.1174468994140625
1782986674737949200,9.27994921875,0.1360015869140625,-0.258056640625,-0.12213134765625
1782986674748024300,9.2900244140625,0.402130126953125,-0.29425048828125,-0.071990966796875
1782986674758098200,9.30009814453125,0.6508026123046875,-0.3105316162109375,0.0113677978515625
1782986674768172300,9.31017236328125,0.828948974609375,-0.3065032958984375,0.0465850830078125
1782986674778247400,9.320247314453125,0.8914947509765625,-0.2910308837890625,0.04632568359375
1782986674788321300,9.3303212890625,0.827728271484375,-0.2574920654296875,0.0321807861328125
1782986674798395100,9.34039501953125,0.66064453125,-0.2015838623046875,0.0063018798828125
1782986674808469200,9.35046923828125,0.4084930419921875,-0.1374969482421875,0.0026702880859375
1782986674818544000,9.360544189453124,0.11151123046875,-0.085906982421875,0.01422119140625
1782986674828618200,9.3706181640625,-0.1623687744140625,-0.0435638427734375,0.001922607421875
1782986674838692000,9.380692138671876,-0.3852081298828125,-0.0256500244140625,-0.0181884765625
1782986674848767200,9.390767333984375,-0.5465087890625,-0.0418243408203125,-0.01800537109375
1782986674858840800,9.4008408203125,-0.6074676513671875,-0.055450439453125,-0.0151824951171875
1782986674868915200,9.410915283203124,-0.5591888427734375,-0.0610198974609375,-0.0107269287109375
1782986674878989800,9.42098974609375,-0.43804931640625,-0.0648040771484375,0.002655029296875
1782986674889064200,9.431064208984376,-0.31390380859375,-0.0659332275390625,0.0122222900390625
1782986674899138000,9.441137939453125,-0.2269744873046875,-0.0695953369140625,0.0157012939453125
1782986674909212000,9.4512119140625,-0.1930389404296875,-0.0777435302734375,0.0188446044921875
1782986674919287000,9.461287109375,-0.1917572021484375,-0.0753631591796875,0.0177154541015625
1782986674929361200,9.471361083984375,-0.2047119140625,-0.06781005859375,0.02593994140625
1782986674939435000,9.48143505859375,-0.2129058837890625,-0.0685882568359375,0.023895263671875
1782986674949510100,9.49151025390625,-0.213043212890625,-0.072662353515625,0.0165252685546875
1782986674959584000,9.501583984375,-0.2129058837890625,-0.0844268798828125,0.0207061767578125
1782986674969657900,9.511657958984374,-0.2174224853515625,-0.087615966796875,0.024139404296875
1782986674979732000,9.52173193359375,-0.264404296875,-0.0917816162109375,0.0204925537109375
1782986674989806800,9.531806884765626,-0.31634521484375,-0.0712127685546875,0.019287109375
1782986674999881000,9.541880859375,-0.3454742431640625,-0.059051513671875,0.01702880859375
1782986675009954800,9.551954833984375,-0.386566162109375,-0.0709686279296875,0.0114288330078125
1782986675020030000,9.562030029296874,-0.4826812744140625,-0.07135009765625,0.0370025634765625
1782986675030103800,9.572103759765625,-0.7039031982421875,-0.088836669921875,0.0872650146484375
1782986675040178200,9.58217822265625,-1.0790863037109375,-0.146331787109375,0.1740570068359375
1782986675050252000,9.592251953125,-1.4635009765625,-0.2989959716796875,0.24163818359375
1782986675060327200,9.6023271484375,-1.76190185546875,-0.5340728759765625,0.3121337890625
1782986675070401000,9.612401123046874,-2.0045318603515625,-0.708343505859375,0.401092529296875
1782986675080475100,9.62247509765625,-2.26806640625,-0.835723876953125,0.298309326171875
1782986675090550000,9.632550048828126,-2.76776123046875,-0.95086669921875,0.2064056396484375
1782986675100624100,9.6426240234375,-3.3583526611328125,-0.9872589111328125,0.279052734375
1782986675110698000,9.652697998046875,-3.60546875,-0.9861602783203125,0.3895721435546875
1782986675120773000,9.662773193359374,-3.4037933349609375,-1.0811004638671875,0.5004119873046875
1782986675130847000,9.672846923828125,-2.98358154296875,-1.180816650390625,0.6218414306640625
1782986675140920800,9.6829208984375,-2.7061004638671875,-1.1209716796875,0.721649169921875
1782986675150995000,9.692994873046874,-2.808319091796875,-0.899749755859375,0.7977447509765625
1782986675161070000,9.703070068359375,-3.2552032470703125,-0.5631256103515625,0.7637786865234375
1782986675171144000,9.71314404296875,-3.70159912109375,-0.292510986328125,0.581573486328125
1782986675181217800,9.7232177734375,-3.6630859375,-0.2856903076171875,0.40179443359375
1782986675191293000,9.73329296875,-3.1289520263671875,-0.3691558837890625,0.154815673828125
1782986675201366800,9.74336669921875,-2.2710723876953125,-0.3536224365234375,0.002349853515625
1782986675211441200,9.753441162109375,-1.420440673828125,-0.2687225341796875,0.0241241455078125
1782986675221515800,9.763515869140624,-0.85089111328125,-0.2010955810546875,0.0813446044921875
1782986675231590100,9.773590087890625,-0.566680908203125,-0.1453857421875,0.0768890380859375
1782986675241664000,9.7836640625,-0.4355316162109375,-0.0738525390625,0.0836029052734375
1782986675251738000,9.793738037109375,-0.369415283203125,-0.0272064208984375,0.067779541015625
1782986675261813000,9.80381298828125,-0.270599365234375,-0.0522613525390625,-0.0217742919921875
1782986675271887000,9.81388720703125,-0.1015167236328125,-0.1676025390625,-0.1149139404296875
1782986675281961000,9.8239609375,0.13739013671875,-0.277923583984375,-0.1553497314453125
1782986675292036000,9.8340361328125,0.4063873291015625,-0.343231201171875,-0.1721343994140625
1782986675302110000,9.84410986328125,0.6661529541015625,-0.351898193359375,-0.1605224609375
1782986675312184000,9.85418408203125,0.8914947509765625,-0.3208160400390625,-0.121429443359375
1782986675322258000,9.8642578125,0.9683685302734375,-0.2678375244140625,-0.08258056640625
1782986675332333000,9.8743330078125,0.827880859375,-0.205841064453125,-0.0552825927734375
1782986675342407000,9.884406982421876,0.4893951416015625,-0.1194915771484375,-0.061187744140625
1782986675352480800,9.894480712890624,0.0513458251953125,-0.0271453857421875,-0.053863525390625
1782986675362556000,9.904555908203125,-0.3202362060546875,0.0584716796875,-0.0617523193359375
1782986675372629800,9.914629638671874,-0.5458831787109375,0.0989990234375,-0.0790252685546875
1782986675382704000,9.9247041015625,-0.62841796875,0.0932769775390625,-0.08197021484375
1782986675392778800,9.93477880859375,-0.5921783447265625,0.080963134765625,-0.05889892578125
1782986675402853000,9.94485302734375,-0.4541778564453125,0.0670928955078125,-0.04168701171875
1782986675412927000,9.954927001953125,-0.2651519775390625,0.0597076416015625,-0.0234832763671875
1782986675423001000,9.9650009765625,-0.0846099853515625,0.037109375,0.001678466796875
1782986675433076000,9.975075927734375,0.0537872314453125,0.029815673828125,0.029998779296875
1782986675443150000,9.985150146484376,0.1202239990234375,0.016754150390625,0.047576904296875
1782986675453224000,9.995223876953125,0.1145477294921875,-0.0201873779296875,0.0500030517578125
1782986675463298000,10.005298095703125,0.0535888671875,-0.055908203125,0.0423126220703125
1782986675473373000,10.015373046875,-0.0025177001953125,-0.06463623046875,0.0465087890625
1782986675483447000,10.025447021484375,-0.0545806884765625,-0.067962646484375,0.04754638671875
1782986675493521000,10.03552099609375,-0.11212158203125,-0.0731201171875,0.057220458984375
1782986675503596000,10.045595947265625,-0.177276611328125,-0.0752105712890625,0.059051513671875
1782986675513670000,10.055669921875,-0.2213592529296875,-0.0820159912109375,0.0442962646484375
1782986675523744000,10.065743896484374,-0.2415008544921875,-0.0964202880859375,0.0393524169921875
1782986675533819000,10.07581884765625,-0.2720489501953125,-0.103607177734375,0.0592803955078125
1782986675543893000,10.08589306640625,-0.3186798095703125,-0.106109619140625,0.07159423828125
1782986675553967000,10.095967041015625,-0.3954315185546875,-0.1279449462890625,0.08697509765625
1782986675564041000,10.106041015625,-0.5046234130859375,-0.16015625,0.1185760498046875
1782986675574116000,10.1161162109375,-0.6743927001953125,-0.184478759765625,0.167755126953125
1782986675584190000,10.12618994140625,-0.941314697265625,-0.2409820556640625,0.1959228515625
1782986675594264000,10.13626416015625,-1.271942138671875,-0.3516845703125,0.1921234130859375
1782986675604339000,10.1463388671875,-1.5461578369140625,-0.497222900390625,0.146026611328125
1782986675614413000,10.1564130859375,-1.6974639892578125,-0.68768310546875,0.1106414794921875
1782986675624487000,10.16648681640625,-1.8460693359375,-0.952362060546875,0.090789794921875
1782986675634562000,10.17656201171875,-2.0473480224609375,-1.2396240234375,0.070465087890625
1782986675644636000,10.186635986328126,-2.3083648681640625,-1.4835968017578125,0.17352294921875
1782986675654710000,10.1967099609375,-2.5376129150390625,-1.644012451171875,0.350128173828125
1782986675664784000,10.206783935546875,-2.68170166015625,-1.7042236328125,0.530029296875
1782986675674859000,10.21685888671875,-2.7894134521484375,-1.5867767333984375,0.650115966796875
1782986675684932900,10.226932861328125,-2.91180419921875,-1.3548126220703125,0.8073577880859375
1782986675695007000,10.237007080078126,-3.0875091552734375,-1.1732330322265625,0.8843841552734375
1782986675705081900,10.247081787109375,-3.4060516357421875,-0.916534423828125,0.80621337890625
1782986675715156000,10.257156005859375,-3.6675567626953125,-0.5941619873046875,0.543548583984375
1782986675725230000,10.26722998046875,-3.5597686767578125,-0.428680419921875,0.1971588134765625
1782986675735305000,10.277304931640625,-2.9904327392578125,-0.3885345458984375,-0.0873870849609375
1782986675745379000,10.287379150390626,-2.12835693359375,-0.33062744140625,-0.2271881103515625
1782986675755453000,10.297452880859375,-1.345428466796875,-0.264404296875,-0.2205352783203125
1782986675765527000,10.307527099609375,-0.8440399169921875,-0.2687835693359375,-0.1920013427734375
1782986675775602200,10.317602294921874,-0.585479736328125,-0.237548828125,-0.149444580078125
1782986675785676000,10.327676025390625,-0.509735107421875,-0.1781005859375,-0.0699615478515625
1782986675795750000,10.33775,-0.5133819580078125,-0.1631927490234375,-0.0272216796875
1782986675805825000,10.347824951171875,-0.4697113037109375,-0.1943817138671875,-0.0176849365234375
1782986675815899000,10.35789892578125,-0.32073974609375,-0.266693115234375,-0.064666748046875
1782986675825973000,10.367972900390624,-0.05291748046875,-0.3397979736328125,-0.1172943115234375
1782986675836046800,10.378046875,0.3224639892578125,-0.369140625,-0.10675048828125
1782986675846122000,10.3881220703125,0.6741790771484375,-0.393524169921875,-0.0944366455078125
1782986675856195600,10.398195556640625,0.847991943359375,-0.362548828125,-0.0695343017578125
1782986675866269700,10.408269775390625,0.772674560546875,-0.286773681640625,-0.06134033203125
1782986675876344600,10.418344482421874,0.4770660400390625,-0.210540771484375,-0.072357177734375
1782986675886418700,10.428418701171875,0.149993896484375,-0.1178131103515625,-0.083526611328125
1782986675896492800,10.438492919921876,-0.0728607177734375,-0.0414581298828125,-0.073150634765625
1782986675906566700,10.448566650390624,-0.204437255859375,0.001251220703125,-0.068603515625
1782986675916641800,10.458641845703125,-0.3641815185546875,0.016693115234375,-0.0223846435546875
1782986675926715600,10.468715576171874,-0.50946044921875,-0.0032196044921875,-0.011688232421875
1782986675936789500,10.47878955078125,-0.5669403076171875,0.062408447265625,-0.0358428955078125
1782986675946864600,10.48886474609375,-0.5704193115234375,0.0220794677734375,-0.03582763671875
1782986675956938500,10.4989384765625,-0.4634246826171875,-0.01934814453125,-0.05670166015625
1782986675967012600,10.5090126953125,-0.29736328125,-0.041595458984375,-0.0850067138671875
1782986675977087500,10.51908740234375,-0.1299285888671875,-0.0738067626953125,-0.0635223388671875
