time,seconds_elapsed,z,y,x
1782986665526266400,0.068266357421875,-12.345728917646408,-10.08930841923952,3.916030118918419
1782986665536340500,0.078340576171875,-11.530665749448538,-11.577063928008078,3.9228804232046004
1782986665546414300,0.088414306640625,-10.663560259324312,-11.87702887135744,2.193466906365752
1782986665556489500,0.098489501953125,-11.389212621188163,-11.297630900555848,-0.5294716181159019
1782986665566563300,0.108563232421875,-13.887502432328462,-8.767603304371237,-3.570879003147781
1782986665576637400,0.118637451171875,-14.838617746526001,-4.987520702034235,-6.143499248129129
1782986665586711300,0.128711181640625,-13.300989661085605,-1.5470836037889122,-6.423230966266989
1782986665596786400,0.138786376953125,-9.856197582501173,0.8549787067398429,-4.23190341001749
1782986665606860300,0.1488603515625,-5.122554026380181,2.1232129281833765,-1.555398135408759
1782986665616934400,0.158934326171875,-0.4637994147658348,2.4544325492352246,-0.09533625086024403
1782986665627009300,0.16900927734375,3.1401427768111225,2.26296977391988,0.482492863189429
1782986665637083400,0.17908349609375,4.82728805450201,1.9647610265880822,0.977152111121267
1782986665647157500,0.189157470703125,5.229349682757258,2.117260741780698,1.1623467659525573
1782986665657232600,0.199232666015625,5.236659128987789,2.489253102725744,0.843114227553457
1782986665667306500,0.209306396484375,5.3572249520421025,2.581375506106019,0.34129195612445473
1782986665677380400,0.21938037109375,6.058259589999913,2.5598814671784638,-0.3107074327684939
1782986665687454500,0.229454345703125,7.297091775870323,2.521277011235058,-0.5912881689511239
1782986665697529300,0.239529296875,8.593285432863235,2.3821000112131236,-0.4635535502459854
1782986665707603500,0.249603515625,9.43126069009304,2.4039018009155986,-0.4273654347293079
1782986665717677300,0.25967724609375,10.02634489032626,1.9501625923931598,-0.6551138676516711
1782986665727752400,0.26975244140625,10.199439357519148,1.5586705812081694,-0.9706400988787413
1782986665737826300,0.279826416015625,10.280933399379252,1.7875129468470812,-0.9193197345513849
1782986665747900400,0.289900390625,10.12004374924302,2.001407041940093,-0.39643823541551826
1782986665757974300,0.299974365234375,9.605222003248333,2.384216272714734,0.2521855760971084
1782986665768049400,0.31004931640625,8.75827199692428,2.4466654223650695,0.6282374050334095
1782986665778123300,0.320123291015625,7.363104755482077,2.341699319502711,0.5778819036828353
1782986665788197600,0.33019775390625,5.166810516735911,2.367022853590548,-0.22089151623230427
1782986665798272300,0.340272216796875,4.389635472905636,2.7698709560483694,-1.0278498135056346
1782986665808346600,0.3503466796875,4.567409037825465,2.8176284402623772,-0.9798013835210353
1782986665818420500,0.36042041015625,4.9347979966282844,2.8811545714944597,-0.41530415432918816
1782986665828495600,0.37049560546875,5.365241669759154,3.0824875834390517,-0.07691935435570776
1782986665838569500,0.380569580078125,5.774977485904097,3.0380288485094904,0.0820260298449546
1782986665848643300,0.390643310546875,5.9957940737366675,2.8269992029368876,-0.0751346994286403
1782986665858717400,0.400717529296875,6.144573014840483,2.6921500029861924,-0.3474338929455727
1782986665868792300,0.410792236328125,6.2130889171838755,2.7552044250532983,-0.4567672511067241
1782986665878866400,0.420866455078125,6.096299690058827,2.8133777970805762,-0.5292382477514446
1782986665888940300,0.430940185546875,5.655159850868582,2.828366691897809,-0.7175065378744154
1782986665899015400,0.441015380859375,5.05929531391263,2.742821328820288,-1.1855724509783088
1782986665909089300,0.45108935546875,4.5460213818818325,2.472622870442271,-1.7770033894009887
1782986665919163400,0.461163330078125,4.051360964906215,2.1879908130422234,-1.9934362091913818
1782986665929238300,0.47123828125,3.2934950171798465,1.9846970224186777,-1.9598633176743983
1782986665939312400,0.4813125,1.936765935203433,2.018156808950007,-2.200929497331381
1782986665949386200,0.49138623046875,0.16690145777165888,2.1795418413877488,-2.297632068108767
1782986665959460600,0.501460693359375,-1.3661346237033605,1.883736063544452,-1.8911910557255147
1782986665969535200,0.51153515625,-2.210539037197828,1.2019541153281927,-0.5785719683062285
1782986665979609600,0.521609619140625,-2.6739900769174096,0.21880115635693073,1.2603978287294506
1782986665989683500,0.531683349609375,-2.958979569453001,-1.0910761580735444,3.2624574893593787
1782986665999758600,0.541758544921875,-3.475813239791989,-2.6570360195070504,4.664729009848833
1782986666009832400,0.55183251953125,-4.061611725285649,-4.111334079831838,4.365808314855396
1782986666019906600,0.561906494140625,-5.916496080616116,-5.270159247529507,2.5647476119101045
1782986666029981400,0.5719814453125,-9.780807118213175,-6.052890171921253,0.8918788429833948
1782986666040055600,0.5820556640625,-12.971335681915283,-6.014296529632807,-0.1971098778242245
1782986666050129400,0.59212939453125,-12.608424745309351,-6.5774348550289865,-0.4680985732644796
1782986666060203300,0.602203369140625,-9.233936621528864,-8.620852069702744,-0.43670803075525905
1782986666070278400,0.6122783203125,-5.903146769699454,-11.039162335199117,-0.38249296789970244
1782986666080352300,0.622352294921875,-5.030812146750092,-13.331822021722793,-0.3486098779223859
1782986666090426400,0.63242626953125,-7.515913975015282,-13.509519014275073,-0.1145511293420568
1782986666100501200,0.642501220703125,-13.676007215070724,-10.800629473412036,-0.27308548505641517
1782986666110575400,0.652575439453125,-19.45562638930082,-7.090235908851027,0.17904409631229937
1782986666120649200,0.662649169921875,-22.459570889639853,-3.815878138339519,0.7752513092260808
1782986666130724400,0.672724365234375,-21.852271350955963,-1.6424135710388421,1.2384724126473068
1782986666140798200,0.682798095703125,-17.52878271317482,-1.0366548320561646,0.8597690828215331
1782986666150872600,0.69287255859375,-11.220580394101143,-1.1387792817518114,-0.21901819664109498
1782986666160946400,0.702946533203125,-4.709540211477876,-1.3846414635136723,-1.383839061089605
1782986666171021600,0.713021484375,0.3157797675967216,-1.164351237642765,-1.8096650112919508
1782986666181095400,0.723095458984375,3.6575089465916153,-0.8713687005266547,-1.4374357728511094
1782986666191169500,0.73316943359375,6.101230716720223,0.043235915136337275,-1.1996948651593178
1782986666201244400,0.743244384765625,7.589042924112081,1.2096043378204107,-0.6655746905852109
1782986666211318500,0.753318603515625,7.989002611652016,2.1186104028239847,0.5316658036919311
1782986666221392400,0.763392333984375,7.96711869662404,2.3227637328863144,2.0964237054571506
1782986666231467500,0.773467529296875,7.9198121710479255,2.7120462513282892,2.64360896717906
1782986666241541400,0.783541259765625,8.150309025895595,2.9243466474890707,2.034772282055765
1782986666251615500,0.793615478515625,8.757890304130315,2.5275167824074622,0.7477185015909373
1782986666261689300,0.803689453125,9.522039862170814,2.1946803738087413,-0.5416372356733307
1782986666271764500,0.813764404296875,10.18388289194703,2.0864836184620854,-1.3581950628757475
1782986666281838300,0.82383837890625,10.552559552472829,2.2007897965997456,-1.5900072381056845
1782986666291912200,0.833912109375,10.751646539056301,2.404647650846839,-1.3483771409556269
1782986666301987300,0.8439873046875,10.811712008440495,2.546042911440134,-0.8148503291647881
1782986666312061200,0.854061279296875,10.65304354148507,2.676941327938437,-0.5804148927591741
1782986666322135600,0.864135498046875,10.231308659988642,3.058826137344539,-0.7653501660019159
1782986666332210200,0.874210205078125,9.519394900619982,3.3531010523587463,-0.7975208625707775
1782986666342284500,0.884284423828125,8.64915228151381,3.4731007659628985,-0.596789688976854
1782986666352358400,0.8943583984375,7.6827856221705675,3.811183258521557,-0.4822486061047762
1782986666362432500,0.9044326171875,6.878082519945502,4.131943152618408,-0.6352050520889461
1782986666372507400,0.91450732421875,5.722017464610934,4.169262537187338,-1.2705848762229084
1782986666382581500,0.92458154296875,4.457448195415735,4.131227113303542,-2.1764755856849254
1782986666392655400,0.9346552734375,4.065301811975241,3.9490602818608282,-2.8023846939012405
1782986666402730500,0.94473046875,4.7815959783852096,3.650611296032369,-2.8760958268001673
1782986666412804400,0.954804443359375,6.272010477229952,3.3742756500735878,-2.072816035376489
1782986666422878500,0.96487841796875,6.761427148333191,3.606488953450322,-0.46543088842518626
1782986666432953300,0.974953369140625,6.721301474171876,3.674888535937667,-0.45974180993810293
1782986666443027500,0.98502734375,5.6557233299702405,3.7288258778303858,-0.6045728171337396
1782986666453101300,0.995101318359375,4.292853261020779,3.294171309006214,-1.24980570756644
1782986666463175400,1.005175537109375,2.7431208962887523,2.537144734713435,-2.2626129233062264
1782986666473250300,1.015250244140625,1.4208312595307826,2.391892798691988,-2.9547525994077324
1782986666483324400,1.025324462890625,-0.158961896944046,2.210233916771412,-2.3870763383209703
1782986666493398500,1.0353984375,-2.3046061449050903,1.6364304049760103,-1.0235277855880558
1782986666503473400,1.045473388671875,-4.710540328431129,0.05249240378141403,0.7782680997639894
1782986666513547500,1.055547607421875,-6.456818763092159,-2.4177532161355018,2.485356095287204
1782986666523621400,1.065621337890625,-6.979678854113817,-5.200047600427269,3.597443769468367
1782986666533696500,1.075696533203125,-7.059538572770356,-7.982753488129377,4.19968485571891
1782986666543770400,1.085770263671875,-8.872713199618458,-9.943864175516367,4.217705957838893
1782986666553844500,1.095844482421875,-11.863566163194179,-10.777374854552745,3.4119510084733364
1782986666563918300,1.10591845703125,-13.373241242825983,-11.804012734985351,2.6111785236954685
1782986666573993500,1.115993408203125,-12.131880415260792,-13.303997610729931,1.6677784600503742
1782986666584067300,1.1260673828125,-9.804601835298538,-14.427615855967998,-0.09273469005972146
1782986666594141400,1.136141357421875,-9.423598192641139,-14.768978977632521,-1.3920350808963178
1782986666604216300,1.14621630859375,-12.766894474822282,-11.96069265847206,-2.8570734386831522
1782986666614290400,1.15629052734375,-16.643528987419604,-6.710843208521604,-4.2707405056729915
1782986666624364300,1.1663642578125,-18.597331982141732,-2.166083224877715,-4.098251895418763
1782986666634439400,1.176439453125,-17.449233960163593,0.23333763123154638,-3.2566745220437645
1782986666644513300,1.18651318359375,-13.087398348331451,1.059304763020575,-2.6802052981704474
1782986666654587400,1.19658740234375,-7.561011007848381,1.3603911116153,-2.2133890198014674
1782986666664661500,1.20666162109375,-2.7308196331202983,1.6044617337852716,-1.6497792775012552
1782986666674736400,1.216736328125,0.5749965209722518,1.7359771131381392,-0.8420133536394685
1782986666684810500,1.226810546875,2.84529064643085,1.527954540427029,0.2666689690776169
1782986666694884400,1.23688427734375,4.991792972525954,1.0878013741865753,1.035340023130551
1782986666704959500,1.24695947265625,6.461193324914574,1.3556845413595437,1.426936590668559
1782986666715033300,1.257033447265625,7.209658407089114,1.62786102181226,1.8501865529030561
1782986666725107500,1.267107421875,7.542890829268098,1.6329738347813485,1.9950849993117152
1782986666735182600,1.2771826171875,7.479809811455011,1.6945380182906984,1.9452355112545192
1782986666745256400,1.28725634765625,7.097230882304906,1.8032468148127196,2.0542842072553933
1782986666755330300,1.297330322265625,7.007290499138832,2.066547914892435,1.6086379965566098
1782986666765404400,1.307404296875,7.560134809535741,2.1116241971984504,0.9426223572708666
1782986666775479300,1.317479248046875,8.51256120633185,2.165426222273707,0.3241519476879388
1782986666785553400,1.327553466796875,9.261204567682743,2.380921030561626,-0.14289088771222158
1782986666795627300,1.337627197265625,9.802831903016566,2.4345655269876123,-0.28660081845605745
1782986666805702400,1.347702392578125,10.014550407636165,2.538938340131938,-0.22881905782856046
1782986666815776300,1.3577763671875,9.859156432306765,2.7850141646444797,-0.19106449671275913
1782986666825850400,1.367850341796875,9.50022725881338,2.9931659166932105,-0.43259252172783014
1782986666835924500,1.377924560546875,9.000940351080894,3.2417487555906175,-0.7760043926157056
1782986666845999900,1.387999755859375,8.351239009997249,3.545708321534097,-0.8066206262841821
1782986666856074000,1.398073974609375,7.854681819489598,3.700641693614423,-0.8058831788551062
1782986666866147800,1.40814794921875,7.504622181150316,3.705736970926821,-1.0273395989611744
1782986666876223000,1.418222900390625,7.197322072607278,3.5839532965153453,-1.3770887100465594
1782986666886296800,1.428296875,7.299989250877499,3.4316245539754626,-1.8109015673495827
1782986666896371000,1.438370849609375,7.828398208197951,3.5227450868368146,-2.0387479076884687
1782986666906446000,1.448446044921875,8.491271165543795,3.8045685165569183,-1.8032259181551633
1782986666916520000,1.45852001953125,8.92149798105359,4.0523423771589995,-1.2341318992249668
1782986666926593800,1.46859375,9.06704276254177,4.155627102805674,-0.7669554823067039
1782986666936668000,1.47866796875,9.044370327484607,4.178698766313493,-0.6344312912374734
1782986666946742800,1.48874267578125,8.973974018222092,4.1769712118685245,-0.6288564867798239
1782986666956817000,1.49881689453125,8.742427362060546,4.174090395735204,-0.7284416272561997
1782986666966890800,1.508890869140625,8.330259350332618,4.119434384179115,-0.9836868466522544
1782986666976966000,1.5189658203125,7.677367688775062,3.9776109613016244,-1.260817661576718
1782986666987039700,1.529039794921875,6.629963499167562,3.9604195880040525,-1.5840318169578909
1782986666997113900,1.53911376953125,3.5608898163139817,4.011481082199514,-1.9413526784718036
1782986667007188700,1.549188720703125,-0.6131915193319321,3.5691134547799823,-2.1920928415335714
1782986667017262800,1.559262939453125,-3.841037714037299,2.63237241063267,-1.6225667147964238
1782986667027337000,1.5693369140625,-6.5319952923685305,0.6661570935830473,0.0007977262489497661
1782986667037411000,1.5794111328125,-8.002370627269148,-2.030425923414528,2.7254063758999107
1782986667047486000,1.58948583984375,-7.34323744097352,-4.435248930828273,5.281064087903499
1782986667057560000,1.59956005859375,-6.457084136030078,-6.603495178958773,6.42845133126378
1782986667067634000,1.609634033203125,-7.403916073819994,-8.076148980185389,5.85018791745007
1782986667077709000,1.619708984375,-10.044599508941173,-8.456797233533859,4.653134141384065
1782986667087783000,1.629782958984375,-13.973729932451247,-8.668935424870252,3.828905669955909
1782986667097856800,1.639856689453125,-18.66911594637036,-9.14376944386959,2.717242943188548
1782986667107932000,1.649931884765625,-22.412937733280657,-9.146935214424133,1.5301966202653943
1782986667118005800,1.660005859375,-22.68839016666412,-7.655515922451019,0.8892788896180689
1782986667128080000,1.670079833984375,-18.51011079480648,-4.973005269947648,1.1104146264024077
1782986667138153700,1.68015380859375,-10.686551843333243,-2.974335836277902,2.519656132034957
1782986667148228900,1.690228759765625,-2.747700625294447,-1.9315189744606613,3.935464887228608
1782986667158302700,1.700302734375,2.687576119199395,-1.674760427892208,2.7881983476385472
1782986667168376800,1.710376953125,4.6603111934065815,-2.1133651956468817,0.011517346249148248
1782986667178451700,1.72045166015625,0.3275947085529566,-2.3570678612872955,-3.4302526811003684
1782986667188525800,1.73052587890625,-11.417598173195122,-0.8475421269983052,-6.07066898971796
1782986667198600000,1.740599853515625,-21.91674645347595,0.846582049794495,-6.281027896422147
1782986667208674800,1.7506748046875,-23.26840889971256,2.2052711797975,-5.4197857453733675
1782986667218749000,1.7607490234375,-19.5253107509017,0.6272782046124339,-3.3012738344877954
1782986667228823000,1.770822998046875,-12.57314300404787,-1.1355739829044789,-0.5280981378056109
1782986667238897000,1.78089697265625,-4.740109537264704,-1.4564379949629307,1.4013584972977637
1782986667248972000,1.790971923828125,1.4846850152820348,-1.3182052900537848,2.6052210765957833
1782986667259046000,1.8010458984375,5.496967184731364,-1.594326708739996,2.836138494943082
1782986667269120000,1.8111201171875,7.719864183720946,-1.8556550474420188,2.947850564934313
1782986667279195000,1.82119482421875,8.912641889902948,-1.724805000130087,2.2057956420630216
1782986667289269000,1.83126904296875,9.47574163685441,-1.4275256426028906,1.3883017395868897
1782986667299342800,1.8413427734375,9.528028288930654,-0.6423037781782448,0.7201720307566225
1782986667309416700,1.851416748046875,8.672588102158903,-0.2636144038125873,0.02772650357633829
1782986667319491800,1.861491943359375,7.3478124938040965,-0.48328971265554427,-1.0727025892540811
1782986667329565700,1.871565673828125,6.521742193901538,-0.8419226796813308,-2.145741863116622
1782986667339639800,1.881639892578125,6.164584706255793,-1.117798745304346,-2.848854184131324
1782986667349714700,1.891714599609375,6.23301702196896,-0.9256149622380733,-2.8668355387628077
1782986667359788800,1.901788818359375,6.832101690015197,-0.3297523249782622,-2.307262504632771
1782986667369863000,1.91186279296875,7.609012529951333,0.2531089380197227,-1.4384338439777493
1782986667379937800,1.921937744140625,8.147809025773405,0.44487844119668,-0.686203710181266
1782986667390012000,1.932011962890625,8.461227324935793,0.5429901481196284,-0.4909725222431123
1782986667400086000,1.9420859375,7.9929767759799955,1.0133328470490872,-4.034299063207209
1782986667410159900,1.952159912109375,7.5892615352988235,1.5909017027273773,-7.3934595617353915
1782986667420235000,1.962235107421875,9.12258110989034,1.3361924899041653,-5.38033694756031
1782986667430308900,1.972308837890625,9.226735311847925,0.8480448158234357,-1.282547993478179
1782986667440383000,1.982383056640625,9.581687398403883,1.7991726972416042,0.21826851078495382
1782986667450457900,1.992457763671875,9.981545963656902,2.5850235072195527,-0.9968844010733068
1782986667460532000,2.002531982421875,10.001552978897093,2.2397370746314524,-2.268647673425823
1782986667470605800,2.012605712890625,9.715416069892049,1.3308674954891204,-2.7509347849100827
1782986667480681000,2.022680908203125,9.526513208192586,0.9076315617799758,-2.86578632197082
1782986667490754800,2.0327548828125,9.562966331321,1.4014163649648428,-2.7335610407829285
1782986667500829000,2.042828857421875,9.563998596978188,1.7403326779991388,-2.3935339900277555
1782986667510902800,2.05290283203125,9.526660507708787,1.9709289015680551,-1.8329238679349422
1782986667520978000,2.06297802734375,9.807517430484294,1.9975810539111494,-1.8666084031328558
1782986667531051800,2.0730517578125,3.541834402710199,0.8562275377571582,-0.1619206736844033
1782986667541126000,2.0831259765625,-5.105227628526091,-1.2847665463104843,1.5823749896615742
1782986667551200800,2.09320068359375,-9.10134250702858,-0.717659901805222,-0.2302565432857722
1782986667561275000,2.10327490234375,-11.588901665318012,1.1204559818148612,-1.5877319866500794
1782986667571349000,2.113348876953125,-12.78273267994523,1.815473551440239,-0.4973715390978381
1782986667581422800,2.1234228515625,-11.28981350480318,0.08344926758110523,1.9674615177184342
1782986667591498000,2.133498046875,-8.849577238702773,-4.52452325130105,3.677348204049468
1782986667601571800,2.14357177734375,-8.5457193795681,-8.451007544216512,5.343211039736866
1782986667611646000,2.15364599609375,-7.249495327436923,-10.330873780590295,5.329731380438805
1782986667621720800,2.163720947265625,-6.41739217711091,-11.120849269282818,5.429949411991238
1782986667631795000,2.173794921875,-8.27533124383688,-11.359864946150779,6.878269566950202
1782986667641868800,2.183868896484375,-12.46075814936161,-13.107021917212009,7.495542802637815
1782986667651944000,2.19394384765625,-18.231305543863773,-11.685844620722532,6.288649477341771
1782986667662017800,2.204017822265625,-21.54057388423681,-6.8714318298846475,1.8087939275458453
1782986667672092000,2.214091796875,-23.310599689710138,-3.2778836065500974,-1.0966245129156857
1782986667682165800,2.224165771484375,-21.34499519803524,-2.1976564670100807,-2.4991706856280564
1782986667692241000,2.234240966796875,-16.670678860151767,-2.897348458187282,-3.5066456004291773
1782986667702314800,2.244314697265625,-10.557398224675655,-3.6315555901676415,-3.1425784795254468
1782986667712388900,2.254388916015625,-5.661646290278434,-3.5148651472419496,-2.2152181349247693
1782986667722463700,2.264463623046875,-2.8708623100608586,-2.411700784228742,-1.4991979631505905
1782986667732537900,2.274537841796875,-1.4429945760220289,-1.3570330333590506,-1.0945204533085227
1782986667742612000,2.284612060546875,-0.8059417041093111,-0.6859148102372884,-2.8086382013380526
1782986667752687000,2.29468701171875,-0.04881809918284416,0.7342664609521627,-3.1504590036422013
1782986667762761000,2.304760986328125,1.7778046227812765,1.0890782622545956,-1.7621847365841268
1782986667772834800,2.314834716796875,4.9060284137398,0.5575172706440091,-1.3294601129092276
1782986667782909000,2.324908935546875,8.802280649998783,-0.017400924395024775,-2.489265962207317
1782986667792983800,2.33498388671875,12.194178758263588,-0.25962241156697274,-3.003043167585134
1782986667803058000,2.345057861328125,14.000779267418384,1.561421925742924,-3.6957056985169645
1782986667813131800,2.3551318359375,15.011513476276397,3.3117221632659435,-3.9702304956614967
1782986667823207000,2.36520703125,15.466863042604922,3.9812212607532738,-2.8087515985846516
1782986667833280800,2.37528076171875,14.91232712585926,3.856080677129328,-1.2706496120221913
1782986667843355000,2.38535498046875,13.148349952900409,3.6785385828778145,-1.2721771138504148
1782986667853428500,2.395428466796875,10.728621052777767,3.248213275429606,-2.4312469039589164
1782986667863503400,2.40550341796875,8.644920927554368,3.03165054564923,-2.829678651279211
1782986667873577500,2.415577392578125,6.792461169022321,3.4593703467741608,-2.33229290099293
1782986667883651300,2.4256513671875,5.957690845313668,3.743005209830403,-2.4649305623739957
1782986667893726500,2.4357265625,6.0166439695417875,3.6929867949470876,-2.801175610372424
1782986667903800300,2.44580029296875,6.248277134943008,3.6140187644332644,-2.4320346933357415
1782986667913874400,2.45587451171875,6.850599469736218,3.58489613032341,-1.8724255649790167
1782986667923949600,2.465949462890625,7.57130911450088,3.5542227596402167,-1.394123577608168
1782986667934023400,2.4760234375,8.336150746458769,3.6123461550459264,-0.8401740824483335
1782986667944097300,2.48609716796875,9.089194973117113,3.540197156897187,-0.7999215670369565
1782986667954171400,2.49617138671875,9.36947029661238,3.251788795828819,-0.93334234161973
1782986667964246300,2.506246337890625,9.538812717795372,2.92234319871217,-1.005615989061445
1782986667974320400,2.5163203125,9.627557169175148,2.7256065746471285,-0.9799452489711343
1782986667984394200,2.526394287109375,9.546382276266813,2.5457845527648924,-1.1300870028607546
1782986667994469400,2.536469482421875,9.416631276237965,2.330522676450014,-1.5236225025720893
1782986668004543200,2.546543212890625,9.090302642098068,2.1976544211834668,-1.6714670854352414
1782986668014617300,2.556617431640625,8.095231866317986,2.0894807544514538,-1.4373678221814334
1782986668024692200,2.566692138671875,6.699763011580705,1.5467282144799828,-0.8801382824376225
1782986668034766300,2.576766357421875,4.908144382980465,1.2202519885629415,-0.4428087953157723
1782986668044840400,2.58684033203125,2.4630419721484182,1.1905462938681244,-0.015045885701477527
1782986668054914600,2.59691455078125,-0.629340690100193,0.6476809411719441,0.35412206547260283
1782986668064989400,2.606989501953125,-3.423662781316042,-0.6825359814539551,-0.07337327924668788
1782986668075063600,2.6170634765625,-4.854399933311343,-2.058423937408626,-0.9389521443255245
1782986668085137400,2.627137451171875,-6.055742638742923,-4.194871317957341,-0.9155398506864905
1782986668095212500,2.637212646484375,-9.045227236574888,-7.028057392835617,-0.193886933722347
1782986668105286400,2.647286376953125,-14.394780923336743,-10.049846177423,-0.7595482017248868
1782986668115360300,2.6573603515625,-19.45139678890705,-10.793538053846358,-0.33935587349534035
1782986668125434400,2.667434326171875,-23.32840656455755,-9.230764421233534,3.749789755403995
1782986668135509200,2.67750927734375,-25.466367856800556,-7.996139039403199,7.935380327057838
1782986668145583400,2.687583251953125,-26.524481071949005,-6.620623423892259,10.582533834975957
1782986668155657200,2.6976572265625,-27.867455184817313,-5.7354515312016,11.069905848509073
1782986668165732400,2.707732421875,-26.939066081690786,-4.259183923391998,10.492789851164817
1782986668175806200,2.71780615234375,-23.440927028322218,-0.355254722764343,8.697369492194056
1782986668185880300,2.72788037109375,-18.046407241630554,3.7456922569572924,6.950505366599559
1782986668195955200,2.737955078125,-11.84469078233242,4.265263243305683,5.269948819649219
1782986668206029300,2.748029296875,-6.790211344268918,3.373688790096342,2.6236782320454717
1782986668216103400,2.758103515625,-4.147347642499208,3.2779435200437903,0.55329146964252
1782986668226177500,2.768177490234375,-3.4610639989495273,3.355902958036959,-0.12166677003353833
1782986668236252400,2.77825244140625,-3.3167204099446534,2.72934313082695,0.012806874603033066
1782986668246326500,2.788326416015625,-2.466886372616887,1.8651468061476946,-0.6379574195370078
1782986668256400400,2.798400390625,-0.11144728157520294,1.0181742957308888,-2.6183903547704217
1782986668266475500,2.8084755859375,3.164968590509891,0.31483737218007446,-4.513274419794977
1782986668276549400,2.81854931640625,6.889953575003147,0.07162994271069764,-5.627030903971195
1782986668286623500,2.82862353515625,10.440171190655231,0.2986635053619742,-5.916602463600039
1782986668296697300,2.838697265625,13.193794191735982,0.5087444719076156,-5.7962599279075855
1782986668306772500,2.8487724609375,15.095519793218374,1.0202423341765998,-5.266023170638084
1782986668316846300,2.858846435546875,15.390788687705992,1.5550968143746255,-3.8388717681750655
1782986668326920200,2.868920166015625,14.63721839134693,2.1135420135185123,-2.851273520232737
1782986668336995300,2.878995361328125,13.095303422367571,2.2250389794543386,-2.9922379881933328
1782986668347069200,2.889069091796875,11.139322499084471,2.355088377907872,-3.282740983453393
1782986668357143300,2.899143310546875,9.082753541892766,2.482567049090564,-3.3992093080610033
1782986668367218200,2.90921826171875,7.063902028676867,2.5178572659194467,-3.606555881206691
1782986668377292300,2.919292236328125,5.86803629335165,2.3829154192492363,-3.6327488916054365
1782986668387366400,2.929366455078125,5.721152956736088,2.2474873964972795,-3.207460993802547
1782986668397440500,2.9394404296875,6.096439390790462,2.0442465051047503,-2.6954209874808788
1782986668407515400,2.949515380859375,6.933741278803348,2.039928788036108,-2.3074761473834515
1782986668417589500,2.959589599609375,7.826213265374302,2.094416749548912,-1.947302380656451
1782986668427663400,2.969663330078125,8.642224528077245,1.953172295603156,-1.541975759255886
1782986668437738500,2.979738525390625,9.204940244147181,1.7584357593141495,-1.2022080900892615
1782986668447812400,2.989812255859375,9.4617148650676,1.577572119424492,-1.0150598169721663
1782986668457886500,2.999886474609375,9.45360228576064,1.4905274576999246,-0.9362775182887911
1782986668467960300,3.009960205078125,9.196742324644326,1.488717777929455,-0.917228534425795
1782986668478035500,3.020035400390625,8.923971677690744,1.4989778906591236,-0.9390029977299272
1782986668488109300,3.030109375,8.581890763145685,1.3491092546224592,-0.8898639960296452
1782986668498183200,3.04018310546875,8.105524127751588,1.2183464472025631,-0.8301261511646211
1782986668508258300,3.05025830078125,7.507380539947747,1.234150750055909,-0.7446807413302362
1782986668518332400,3.06033251953125,6.896886589136719,1.1500494483068584,-0.5479525928325951
1782986668528406300,3.07040625,6.211851484343409,0.8722244405731558,-0.35056364233866333
1782986668538480400,3.08048046875,5.53666148173809,0.657698185056448,-0.11213920936211944
1782986668548555300,3.09055517578125,4.771144142475724,0.6155903971672058,0.14502068454883993
1782986668558629400,3.10062939453125,3.39350846607089,0.3606047054901719,0.4966864429105073
1782986668568703500,3.110703369140625,1.0893898124217987,-0.38067426457256076,0.7173128419332205
1782986668578778400,3.1207783203125,-1.9994599995255469,-1.3220102352946996,0.39831111661531027
1782986668588852500,3.1308525390625,-5.898549505037069,-2.5716107756778595,0.13761322130393236
1782986668598926300,3.14092626953125,-9.272750044047832,-4.397869340504705,0.12163842072188853
1782986668609001500,3.15100146484375,-11.387199527800082,-6.49326078030467,-1.4294837909333407
1782986668619075300,3.161075439453125,-13.677643876361847,-8.806275857114791,-5.002096339875459
1782986668629149400,3.1711494140625,-16.917200967127084,-9.88067151402235,-6.79768621019423
1782986668639223300,3.181223388671875,-20.126858594191074,-8.668391234990954,-3.854323896589875
1782986668649298400,3.19129833984375,-21.539369769144056,-7.380944363555312,0.8855897527765482
1782986668659372300,3.201372314453125,-22.18546285660267,-6.432374057665467,4.0504958725094795
1782986668669446400,3.2114462890625,-23.272159192156792,-5.8824108556628225,4.469110576158761
1782986668679521300,3.221521240234375,-23.779818791437147,-5.3014323376715184,3.890529766958952
1782986668689595400,3.231595458984375,-22.37063003890514,-4.027703318203986,3.6257477806717153
1782986668699669200,3.241669189453125,-19.869002607774732,-1.6404896172389387,3.6724662772268055
1782986668709743400,3.251743408203125,-16.693917112398147,0.8302753503769635,4.217754180894792
1782986668719818200,3.261818359375,-12.970349008965492,1.9667732431933282,3.9242818144351244
1782986668729892400,3.271892333984375,-8.932213436335324,2.1362726085036994,2.5750223376870154
1782986668739966500,3.281966552734375,-4.874516838666796,1.757055849263072,0.9439389197621494
1782986668750041300,3.292041259765625,-1.7103040349602698,1.0969356977567075,-0.9171388103157281
1782986668760115500,3.302115478515625,1.659394516456127,0.8281570430487394,-1.4771671869978307
1782986668770189300,3.312189208984375,4.874525021973252,0.7587710798725485,-0.7019497069761157
1782986668780264400,3.322264404296875,6.718891490420699,0.714573333966732,0.3350736661314964
1782986668790338300,3.33233837890625,7.463402282011509,0.4065364355817437,0.3213116827607155
1782986668800412400,3.342412353515625,8.101201003855467,0.28295974027365445,-1.1570789085522293
1782986668810486300,3.352486328125,9.01793649406731,0.05456219579279423,-2.772062913134694
1782986668820561400,3.3625615234375,9.835111539852619,-0.08542699739485979,-3.532761453938484
1782986668830635300,3.37263525390625,10.998083305835722,0.06348930635303258,-3.873255391553044
1782986668840709400,3.38270947265625,11.773463282942771,0.624482436414063,-3.885079100337624
1782986668850784500,3.392784423828125,12.225532512426376,1.1147723832204937,-3.4523414710506795
1782986668860858600,3.402858642578125,12.484384524142742,1.4885095420062542,-2.6201684703588484
1782986668870932500,3.412932373046875,11.771821945476532,1.9962360690429806,-1.6130001372888683
1782986668881006600,3.423006591796875,10.045361725485325,2.293802719078958,-0.8954353664211928
1782986668891081500,3.43308154296875,8.309698208341002,2.199526060274243,-0.7717445432141423
1782986668901155600,3.443155517578125,7.071514257246255,1.9046324288398027,-1.0105052224077284
1782986668911229700,3.453229736328125,6.66377750596404,1.598703316389024,-1.3316938633106647
1782986668921304600,3.4633046875,6.992642380583286,1.385690388044715,-1.553548123627901
1782986668931378700,3.473378662109375,7.635807597896457,1.2722286979071795,-1.5832741304583846
1782986668941452500,3.48345263671875,8.185358127444982,1.1582083509735763,-1.4831249263584614
1782986668951526700,3.493526611328125,8.444360945808887,0.9266764539897442,-1.5269007935903967
1782986668961601500,3.5036015625,8.293745436927676,0.8154473452098667,-1.5370654831215738
1782986668971675600,3.513675537109375,7.776483312043547,0.912357128997147,-1.4003998813986778
1782986668981749500,3.52374951171875,6.952437795966863,1.011655707617104,-1.2576086364023387
1782986668991824600,3.53382470703125,6.1789674518734214,1.2571619155481457,-0.9441227518964558
1782986669001898500,3.5438984375,5.716374490287899,1.4560890353947877,-0.5637462281614541
1782986669011972600,3.55397265625,5.489263186225295,1.3984753430768846,-0.22978293442465364
1782986669022047500,3.564047607421875,5.663007057237625,1.2387288716264069,-0.16670673891715704
1782986669032121600,3.57412158203125,6.097466980272531,1.2765195269688963,-0.10575155415162443
1782986669042195500,3.584195556640625,6.334579453867674,1.399375799047947,0.29244872250035403
1782986669052269800,3.594269775390625,6.47487172165513,1.2561091916248202,0.5232493826001883
1782986669062344400,3.604344482421875,6.70016457811892,0.9687795657038688,0.2925699377272278
1782986669072418800,3.614418701171875,6.916433585649728,0.9525675588324666,0.5472385262791067
1782986669082492700,3.62449267578125,6.2376265615910285,0.7415586637869477,0.7692092525828629
1782986669092567800,3.63456787109375,4.046049414494633,0.5694762962460518,0.27520273293871433
1782986669102641700,3.6446416015625,1.0400585030198097,0.4677250637769699,-0.4675312947705388
1782986669112715800,3.6547158203125,-2.736068639689684,-0.3137833330824971,-1.5920925199471414
1782986669122789600,3.66478955078125,-6.433890307447314,-1.8372253645211458,-3.73078607198745
1782986669132864800,3.67486474609375,-10.044819289171695,-2.6438372229769826,-5.282154805749655
1782986669142938600,3.684938720703125,-13.547171576321125,-2.6195658282905816,-5.95097235071361
1782986669153012500,3.695012451171875,-16.644686340761183,-3.729711720754206,-4.496813406598568
1782986669163087600,3.705087646484375,-18.920045348393916,-5.702484496623278,0.10264650080837309
1782986669173161500,3.715161376953125,-20.429659637749193,-7.133337968474626,3.5020439518526194
1782986669183235600,3.725235595703125,-21.43608007506132,-7.617195836406946,4.628715154920518
1782986669193310500,3.735310546875,-22.37244673293829,-7.911219699269533,5.620162771767378
1782986669203384600,3.745384521484375,-23.07178508837223,-7.295001525592803,6.287564020192622
1782986669213458400,3.75545849609375,-24.483304914200303,-4.83875871206522,6.233929460638761
1782986669223532800,3.76553271484375,-26.746190224707124,-2.7804318052902817,6.2821326427936555
1782986669233607400,3.775607421875,-28.27999670603275,-2.463680562312901,6.119058634355664
1782986669243681800,3.785681884765625,-26.91625102329254,-2.9463889679491517,4.463196383678913
1782986669253755600,3.795755615234375,-21.628366733980176,-3.0260715764731168,1.9990030495382844
1782986669263830800,3.805830810546875,-13.772458003044127,-2.874256336413324,0.1787918385842815
1782986669273904600,3.815904541015625,-5.568818368977308,-2.309203409567475,-0.5937163094135001
1782986669283978800,3.825978759765625,0.5892103397637606,-1.1558283239692448,-0.38336164049301297
1782986669294052600,3.836052490234375,3.6779122676730154,-0.2792901118502021,0.05673506458615884
1782986669304127700,3.846127685546875,4.11045437438786,-0.04885024788677692,-0.029682606080174444
1782986669314201600,3.85620166015625,4.081474363619089,0.058307227540016174,-1.3156101589940488
1782986669324275700,3.866275634765625,4.551242915922403,0.4514177798375487,-2.4296987977340816
1782986669334350600,3.8763505859375,6.440622830572724,0.7410092132106423,-3.401610816244781
1782986669344424700,3.8864248046875,9.529581363591552,1.212117781946063,-3.9091123023539778
1782986669354498600,3.89649853515625,12.567886983215809,2.111602569888532,-3.8263270516395567
1782986669364573700,3.90657373046875,15.218202754557131,3.3698861829429863,-4.244995239041746
1782986669374647600,3.9166474609375,17.352699001038072,4.062038134004175,-4.210834903025627
1782986669384721400,3.926721435546875,18.5722548240304,4.393311531069875,-4.1609845381855965
1782986669394795800,3.936795654296875,18.296451677513122,4.854855860385299,-4.361100283294916
1782986669404870400,3.946870361328125,16.467113266849516,4.962452896273136,-4.231163989827037
1782986669414944800,3.95694482421875,13.536554320716856,5.115432211676239,-3.5749642266348003
1782986669425018600,3.9670185546875,10.398315916222334,5.2519560668408865,-3.0026269879996774
1782986669435093800,3.97709375,7.7219205317288635,5.217735817331075,-2.847071684628725
1782986669445167600,3.987167724609375,6.006930969300866,5.125283743605017,-2.7496049976110455
1782986669455241700,3.99724169921875,5.453606766432523,4.8466006577372545,-2.733313495762646
1782986669465315600,4.007315673828125,5.842399747791886,4.530334275667369,-2.378582796872407
1782986669475390700,4.017390625,6.90893300076127,4.199196487680077,-2.0042329130157825
1782986669485464600,4.027464599609375,8.210992334917186,3.8742093312770125,-2.0457873048059643
1782986669495538700,4.03753857421875,9.320636415338516,3.3610341834455726,-2.0337135667830704
1782986669505613600,4.047613525390625,10.124176319003105,2.9568355431616307,-1.6750447977915406
1782986669515687700,4.057687744140625,10.645699608463048,2.8564874554887414,-1.437274152548611
1782986669525761500,4.067761474609375,10.765979015791416,2.7365000168442726,-1.5250291544996202
1782986669535835400,4.07783544921875,10.27896005347967,2.606301273047924,-1.4466839320592582
1782986669545910500,4.08791064453125,9.50552478069961,2.47990805901438,-1.4656353007666765
1782986669555984400,4.097984375,8.730933908143639,2.4134856218189,-1.6150338350735605
1782986669566058800,4.108058837890625,8.06512372830212,2.5377225346013903,-1.6012703903980552
1782986669576133600,4.118133544921875,7.524256855946779,2.489396310588717,-1.7394151247628031
1782986669586207700,4.128207763671875,7.150194410729408,2.4840534882560372,-1.5333989234380423
1782986669596281600,4.138281494140625,7.012631860166787,2.453743982449174,-1.2082405021212994
1782986669606356700,4.148356689453125,7.024091411814093,2.4035984340548513,-0.9626181204646825
1782986669616430600,4.1584306640625,7.052970884817838,2.1237316913604736,-0.7044961765885353
1782986669626504700,4.168504638671875,6.877646466615795,1.8848288272172211,-0.24857129459008573
1782986669636578600,4.17857861328125,6.137949797308445,1.7996829848513005,0.5348793223783374
1782986669646653700,4.18865380859375,4.5125709477007385,1.492687119951844,1.0633131218791008
1782986669656727600,4.1987275390625,2.129045579859614,0.4617956737279892,1.2139897132977842
1782986669666801700,4.2088017578125,-0.2849105820804834,-1.6752710077628492,1.610285617633164
1782986669676876500,4.21887646484375,-3.166093795147538,-4.1846307867109775,1.961887516978383
1782986669686950700,4.22895068359375,-6.3461132397949696,-7.44870389457345,2.4001506316885353
1782986669697024500,4.2390244140625,-9.63212111608982,-11.38513382744193,2.398966098079085
1782986669707098600,4.2490986328125,-13.121650162023306,-15.10839447236061,1.4866514930494128
1782986669717173500,4.259173583984375,-17.422164751452208,-15.976016679835318,2.316505695404857
1782986669727247600,4.26924755859375,-24.10359248039722,-13.519509662413597,4.376894064754247
1782986669737321700,4.27932177734375,-30.08799071537256,-8.832813150906562,5.5027007599473
1782986669747396600,4.289396728515625,-32.98579071671963,-6.688664109939336,5.837274075341225
1782986669757470700,4.299470703125,-34.20625839385986,-6.108213415214419,6.174522747424245
1782986669767544600,4.309544677734375,-34.61750461456776,-5.067779064619541,7.584558472174406
1782986669777619700,4.31961962890625,-33.013915571963786,-3.226649093875289,8.164839655551313
1782986669787693600,4.329693603515625,-29.771995843720433,-1.068243564018607,9.107896166455745
1782986669797767700,4.339767578125,-25.006267296552657,-0.20907062045931815,8.179155181151629
1782986669807841500,4.349841552734375,-19.13688426476717,-0.2700023512840271,5.914961710655689
1782986669817916700,4.359916748046875,-12.147162155544757,-0.7489002587214112,3.406981403367221
1782986669827990500,4.369990478515625,-4.4902936494410035,-0.9105600164473057,1.605035442019999
1782986669838064600,4.380064697265625,2.2126199351251126,-0.279394741268456,0.5939920210823416
1782986669848140000,4.39014013671875,6.932564051717519,0.19450316592454908,-0.5952955048963428
1782986669858214000,4.4002138671875,8.824826243805886,0.3520169098868966,-1.8481977171733974
1782986669868288000,4.4102880859375,7.14981739411056,0.31007541847527026,-4.0035587647676465
1782986669878361900,4.42036181640625,7.389207749509811,0.9491776241332291,-4.923689158114791
1782986669888437000,4.43043701171875,9.14561828660667,2.9225659015521406,-5.118531931257247
1782986669898510800,4.4405107421875,12.2948287514925,3.4503353919252753,-6.449788718324899
1782986669908585000,4.4505849609375,15.40461379944086,3.2653613941073414,-6.483588112074137
1782986669918659800,4.460659912109375,17.651597776460648,4.084544857105612,-5.576462746250629
1782986669928734000,4.47073388671875,18.35458588657379,4.459795927585661,-5.3557069486945865
1782986669938808000,4.48080810546875,17.270891655445098,4.142746870705485,-5.2840322900593275
1782986669948882200,4.490882080078125,14.669245514726638,4.503583923646808,-4.807111527913809
1782986669958957000,4.50095703125,11.697926688182353,4.7425852797284715,-4.202787790170312
1782986669969031200,4.51103125,9.412861694571376,4.769251752857864,-3.5180978455528615
1782986669979105000,4.52110498046875,7.627574022558331,5.044684604758024,-2.975913753119111
1782986669989180200,4.53118017578125,6.2770402880907055,5.159323375850915,-2.5822788846865294
1782986669999254000,4.54125390625,5.941994679009914,4.985915604925156,-2.482632807803154
1782986670009327900,4.551327880859375,6.850140620052814,4.602190428349376,-2.508686409731209
1782986670019403000,4.561403076171875,8.191549383300542,4.396550659121573,-2.1827549582153556
1782986670029476900,4.571476806640625,9.431549443906546,3.987506040111184,-2.223482397662103
1782986670039551000,4.581551025390625,10.52728599500656,3.518568385674059,-2.081689662183821
1782986670049624800,4.591624755859375,10.969885969877243,3.391106957887113,-1.892694884417206
1782986670059700000,4.601699951171875,10.665039099705218,3.355992389886081,-1.611402638964355
1782986670069773800,4.61177392578125,9.877690452384948,3.035403468441963,-1.4970695728197694
1782986670079848000,4.621847900390625,9.208328133019805,2.778213836979866,-1.311125268664956
1782986670089922800,4.6319228515625,8.762921868556738,2.5716335720315575,-1.1300146682769059
1782986670099997000,4.641996826171875,8.162802596765756,2.517828916607797,-1.1528257811523974
1782986670110071000,4.652071044921875,7.699973488336801,2.3063880598857995,-1.0940500593177973
1782986670120145200,4.662145263671875,7.511998847398162,2.0083590530350803,-0.852174316843599
1782986670130220000,4.672219970703125,7.688480618941783,1.7028201089456676,-0.5938450138270854
1782986670140294100,4.682294189453125,7.624153984981775,1.6469129282847046,-0.34306627232059833
1782986670150368000,4.692367919921875,6.84255761757791,1.3569082379356026,-0.7195426468119025
1782986670160443100,4.702443115234375,5.51840335599184,1.8649898620203136,-0.2541520903971046
1782986670170517000,4.71251708984375,3.279047974154353,2.091367006589472,0.08212284128293394
1782986670180591000,4.722591064453125,0.9510071776479482,1.206506079544127,-0.6282513604935258
1782986670190665000,4.7326650390625,-0.6953256126612425,0.8081292772814631,-0.7413196673993021
1782986670200740000,4.742739990234375,-2.436999183875322,0.150588036352396,0.022352555453032254
1782986670210814000,4.75281396484375,-4.452884833022952,-1.2260478153601289,0.6244405700337141
1782986670220887800,4.7628876953125,-7.249529814228415,-3.6545588646143674,1.1011086725924164
1782986670230963000,4.772962890625,-10.697148056149482,-6.181954943251609,2.134219036974758
1782986670241036800,4.783036865234375,-14.094375250482559,-8.849438122493028,1.3960826027214526
1782986670251111000,4.79311083984375,-17.874445577859877,-10.764427694696188,-0.23527641727440057
1782986670261185800,4.803185791015625,-22.18903545439243,-11.129363415127992,-0.06641220806241036
1782986670271260000,4.813260009765625,-25.44991005847454,-10.076140310108661,1.9886711867466569
1782986670281334000,4.823333984375,-27.319140919065475,-9.350279858452081,3.861021056140959
1782986670291408100,4.833408203125,-28.723227964544293,-9.48805166785121,5.312473956167698
1782986670301483000,4.84348291015625,-29.68287729833126,-8.528786364945768,5.692648162263631
1782986670311557000,4.85355712890625,-30.086412506270406,-5.629012433177232,5.317440054142475
1782986670321631000,4.863630859375,-29.974584116423127,-3.0034383043825623,4.382207660992443
1782986670331706000,4.8737060546875,-27.061186732971667,-2.069253958980739,2.105445070172101
1782986670341780000,4.883780029296875,-21.35675577845573,-1.565856985580921,0.1570189461827278
1782986670351854000,4.89385400390625,-14.467966571056841,-0.533488744802773,0.12127616328075527
1782986670361928000,4.903927978515625,-7.57255882230103,0.006580547434091567,-0.0726078478321433
1782986670372003000,4.914003173828125,-1.6238947485297917,0.4212652181580662,-0.41689036407470703
1782986670382077000,4.924076904296875,3.0508336772859095,1.0646116372570396,-1.1108389892943202
1782986670392150800,4.93415087890625,6.753780432972311,1.4492209031909704,-2.2927815593376755
1782986670402226000,4.944225830078125,10.337786336457729,1.7028537189543247,-3.6771523892164226
1782986670412299800,4.9542998046875,14.015806156158446,1.677033925782144,-3.8452427645117044
1782986670422374000,4.964373779296875,17.335577185845374,1.2346911405429244,-3.490003093186021
1782986670432449000,4.974448974609375,19.59510967879295,1.1053729789733886,-3.648639995959401
1782986670442523000,4.98452294921875,20.613113001871106,1.2179302676171064,-3.42050431728512
1782986670452597000,4.994596923828125,20.22492733875513,1.2174576816692948,-3.2478771753430364
1782986670462671000,5.004671142578125,18.353339685904977,1.3450652399286627,-3.176373781621456
1782986670472746000,5.01474609375,15.769638367199898,1.7194184847861527,-2.8729496377289294
1782986670482820000,5.024820068359375,12.842984027290344,2.413752163800597,-2.4804379281073805
1782986670492894000,5.03489404296875,9.656746438780427,3.0083056181579826,-2.35948909708485
1782986670502969000,5.044968994140625,7.220384968286752,3.0272526029512283,-2.897294389912486
1782986670513043000,5.05504296875,5.520848411056399,3.161074797941744,-2.6734175377264617
1782986670523117000,5.065116943359375,4.524463630068302,3.5115547075197098,-2.5029440666869283
1782986670533191000,5.07519091796875,4.360653124049306,3.5113112541526554,-2.6333713585421443
1782986670543266000,5.08526611328125,4.940329911792278,3.102573509134352,-2.542827456524968
1782986670553340000,5.09533984375,6.118429104280471,2.9043296953767537,-1.930096540442109
1782986670563414000,5.1054140625,7.298875152155756,2.7624945820614695,-1.7172212670028209
1782986670573489000,5.115489013671875,8.141996540102362,3.0852041489213704,-0.8724266120817512
1782986670583563000,5.12556298828125,8.465603640323877,2.804957466998696,-0.9727280110687017
1782986670593636900,5.135636962890625,8.372076630842685,2.2923370304405686,-1.431007054977864
1782986670603711000,5.1457109375,8.074168620023132,2.3125940749190748,-1.282668258856982
1782986670613785900,5.155785888671875,7.806834611165523,2.2663800207547844,-1.1386949644692241
1782986670623860000,5.16585986328125,7.662664040639996,2.0126798388436438,-1.22646969403401
1782986670633934000,5.17593408203125,7.417963888394832,1.8237934898875652,-1.1063554141394794
1782986670644009000,5.186009033203125,7.214526305386424,1.8889270563162863,-0.9925286900818348
1782986670654083000,5.1960830078125,7.3817849060326814,1.8360735641375183,-0.8682951383002102
1782986670664157000,5.206156982421875,7.815682519009709,1.933375415982306,-0.675513681601733
1782986670674231000,5.21623095703125,8.108726138663291,1.9848665337666869,-0.4947388890393078
1782986670684306000,5.226305908203125,8.19733439644277,1.933744541555643,-0.3820857388056814
1782986670694380000,5.236380126953125,7.877756990128755,2.023158855021,-0.16699030509889126
1782986670704454000,5.246453857421875,6.938604500925541,2.0698460796549916,0.059443830354511736
1782986670714529000,5.256529052734375,5.375714548456669,1.9538018256783485,0.24086714995354414
1782986670724603000,5.266602783203125,3.430549033698439,1.850973611627519,0.37295258427932854
1782986670734677000,5.276677001953125,1.5422662666350602,1.8039198917686938,0.5601458655819297
1782986670744751900,5.286751953125,-0.3461743213385343,1.0532786345988512,0.7501593919370323
1782986670754826000,5.296825927734375,-1.7342787847876548,-0.41078620198071003,0.4973289055325091
1782986670764900000,5.306900146484375,-2.1824106748223304,-2.1940458752974865,0.24995354272872208
1782986670774974200,5.31697412109375,-3.5192689351588484,-4.556026643067598,-0.05921820490509271
1782986670785049000,5.327049072265625,-7.550938526645302,-6.425990494108199,-0.8739921078328042
1782986670795123200,5.337123291015625,-14.892869561195372,-6.887153715151548,-0.7973223443239927
1782986670805197000,5.347197021484375,-23.000267666125296,-6.932589770680665,0.646847412957251
1782986670815272200,5.357272216796875,-28.196690646314618,-7.320934423750638,2.232725734564662
1782986670825346000,5.367345947265625,-28.878130941486358,-8.106558731496333,3.0514971096307035
1782986670835420000,5.377419921875,-27.858759837186334,-8.64200767045617,3.2138246836155653
1782986670845494000,5.387493896484375,-28.382063580322264,-8.718114758580922,4.79619733518958
1782986670855569200,5.397569091796875,-29.633962168514728,-6.895585443410277,6.9149091525614255
1782986670865643300,5.407643310546875,-30.068734226238725,-3.633387481769919,8.74574043213129
1782986670875717000,5.417717041015625,-28.65633995566368,-1.776481849744916,8.620759130722284
1782986670885792300,5.427792236328125,-23.75070024898052,-0.9048540598906576,6.3674050341486925
1782986670895866000,5.4378662109375,-16.437434752422572,0.18075725690573452,3.741321786788106
1782986670905940000,5.44793994140625,-8.721577466255425,0.9612608606368302,1.3643604536376892
1782986670916015000,5.45801513671875,-2.489246088463068,1.4958207418024538,-0.11256401064544916
1782986670926089000,5.4680888671875,1.9406331320255994,2.075839767111838,-0.5874725561857224
1782986670936163000,5.4781630859375,5.226075775653124,2.350463056194782,-0.8211521327227354
1782986670946237200,5.4882373046875,7.4715142767965785,1.899142891512811,-1.1424489101752637
1782986670956312000,5.49831201171875,8.985527093371749,1.563184259240329,-1.5555059796974062
1782986670966386200,5.50838623046875,10.1885999835968,1.300563834901154,-1.8580249914437532
1782986670976460300,5.518460205078125,11.141108797979355,1.0422072054862976,-2.5982962457686662
1782986670986535200,5.52853515625,11.477723263812065,1.0244900547489524,-3.397349067147076
1782986670996609300,5.538609375,11.656689837908743,0.8087690364897251,-4.209143296676874
1782986671006683100,5.54868310546875,11.872939556217194,0.955015536506474,-5.388624298912286
1782986671016757200,5.55875732421875,12.432027729439735,1.7786168159469962,-5.852161847871542
1782986671026832100,5.56883203125,13.662172750985622,2.3666245019227263,-5.581899968868494
1782986671036906200,5.57890625,14.810660064542292,2.537679572242498,-5.21244881683886
1782986671046980000,5.58897998046875,15.465081419885157,2.6155600997805593,-4.837324295347929
1782986671057055200,5.59905517578125,15.04815364640951,2.541259184294939,-4.2505452743843195
1782986671067129000,5.609129150390625,13.394031517398357,2.5336712133839723,-3.77408248513937
1782986671077203200,5.619203125,11.243640951693058,2.634801683606207,-3.386912136545777
1782986671087278000,5.629278076171875,9.102449591487646,2.342842936579883,-3.126289023503661
1782986671097352200,5.639352294921875,7.364446233218908,2.1347230409741402,-2.8689079611226913
1782986671107426000,5.649426025390625,6.189149238669872,1.988878107495606,-2.772829221332073
1782986671117500200,5.659500244140625,5.601183346009254,1.8972047630570827,-2.808697822570801
1782986671127575000,5.669574951171875,5.618905465182662,1.8029639062181113,-2.74972774720788
1782986671137649200,5.679649169921875,6.230659645187854,1.7300395397827029,-2.525551327553391
1782986671147723300,5.68972314453125,6.681708883973956,1.4754998383074998,-2.43631295517683
1782986671157798100,5.699798095703125,7.163036941167712,1.5090003952406346,-2.2550850120194257
1782986671167872300,5.709872314453125,7.569319401988387,1.3150707914203406,-2.089539791162312
1782986671177946000,5.719946044921875,7.68941994561851,1.0432624136276543,-1.818902210714668
1782986671188020200,5.730020263671875,7.33010791028738,0.952327904857695,-1.4783841615721582
1782986671198095000,5.74009521484375,7.055536935913563,0.9245213217824697,-1.159714810013771
1782986671208169200,5.750169189453125,6.994955918222665,0.7783093085572123,-0.9194410959087311
1782986671218243000,5.7602431640625,7.104708086317777,0.7329566935278475,-0.8225662373043596
1782986671228318200,5.770318115234375,6.975430549019575,0.7187951894454657,-0.8971933160044252
1782986671238392000,5.78039208984375,6.807218008649349,0.7123768468357622,-0.9055831048175692
1782986671248466200,5.790466064453125,6.951874901387095,0.7622256042405963,-0.8056336610734463
1782986671258540000,5.8005400390625,7.213723172309995,0.7504749606922269,-0.7951587365493178
1782986671268615200,5.810615234375,7.1470251330435275,0.5265905097216368,-0.7061820838488638
1782986671278689000,5.82068896484375,6.36250381810367,0.2893668308369815,-0.28457345908060666
1782986671288763100,5.83076318359375,4.502023834723234,0.035870647065341474,0.3108219990588724
1782986671298838000,5.840838134765625,0.7016174062818289,-0.266347043646872,1.1739019599940628
1782986671308912000,5.850912109375,-4.271487816908955,-0.7955353147767483,1.5928580974921582
1782986671318986200,5.860986328125,-7.512657019045949,-1.2789989226944745,1.3338186003796755
1782986671329060000,5.87106005859375,-8.535737499257921,-1.9086578849636018,1.0305042735371739
1782986671339135200,5.88113525390625,-9.956177713644504,-3.3921035677090283,1.768862899173796
1782986671349209000,5.891208984375,-15.624230363833904,-4.039467698016763,2.197640977180004
1782986671359283200,5.901283203125,-23.7401087123394,-3.173734665289521,1.73647921744138
1782986671369358000,5.911358154296875,-29.77347819123268,-1.778953646685928,3.1074744329184294
1782986671379432200,5.92143212890625,-31.57466368960142,-1.4111968774840236,4.338258336889743
1782986671389506000,5.931506103515625,-30.62858227791786,-1.6413941648632286,4.798834113433957
1782986671399581200,5.941581298828125,-28.919000712013244,-2.060244723095,6.217751063776016
1782986671409655000,5.951655029296875,-27.8236511144042,-2.6655346755221485,7.365698279106616
1782986671419729200,5.961729248046875,-26.28863817989826,-1.8259419000931083,6.721951462513208
1782986671429803000,5.971802978515625,-24.638025520312784,-0.3668830551072955,5.44742135579586
1782986671439878100,5.981878173828125,-21.95244671241045,0.8099049086518585,3.41118966871202
1782986671449952000,5.991951904296875,-17.61589985561371,1.4112189431853592,0.3051203533511609
1782986671460026400,6.0020263671875,-11.924969018661976,1.7687471638396381,-2.342945520171523
1782986671470101000,6.01210107421875,-5.669540258398651,1.6868007020369171,-4.103101965798437
1782986671480175400,6.02217529296875,-0.24629414343833922,1.6113380492955445,-4.389513307830691
1782986671490249200,6.032249267578125,3.2999294341415166,1.111424534097314,-3.6221672918364405
1782986671500323000,6.042322998046875,4.803403321045637,0.532798716711998,-2.0546623929180203
1782986671510398200,6.052398193359375,4.9705391720950605,0.15583850422650575,-0.8275329198010265
1782986671520472000,6.06247216796875,4.964647775968909,-0.2525418056562543,-0.3024782413445413
1782986671530546200,6.072546142578125,5.496941465768217,-0.7811629444226622,-0.14121931950449942
1782986671540621000,6.08262109375,6.5663330307781695,-0.709671095008403,-0.6283589855864644
1782986671550695200,6.092695068359375,8.09190652128756,-0.8301143145963549,-1.1220198701307176
1782986671560769000,6.10276904296875,10.26021794360876,-1.0921826580107212,-1.1965943418607115
1782986671570843100,6.112843017578125,12.531936548912524,-0.9725618607215583,-1.3609234649263322
1782986671580918000,6.12291796875,14.39891115500927,-0.7086436516568064,-1.481397518043965
1782986671590992100,6.1329921875,15.712172851181029,-0.7558560692086815,-1.080028694358468
1782986671601066200,6.143066162109375,16.28474711344242,-0.4327347066774964,-1.336644325324893
1782986671611141000,6.15314111328125,15.84570570783615,0.06756035518422722,-1.5883787601210175
1782986671621215200,6.16321533203125,14.738387440013884,0.38410102415084835,-1.4404247255340217
1782986671631289300,6.173289306640625,13.087690609276294,0.9089695323854684,-1.4677913097567856
1782986671641364200,6.1833642578125,11.175925259816646,1.3355340259954334,-1.5561413549914955
1782986671651438300,6.193438232421875,9.20099004521668,1.6312604549922047,-1.6488862741842865
1782986671661512200,6.20351220703125,7.325422967341542,1.7573321819864212,-1.7539767340786754
1782986671671586300,6.21358642578125,5.868270102107524,1.7509904117442667,-1.936316437870264
1782986671681661200,6.2236611328125,5.113859847792983,1.7979954701557754,-2.1137091867789626
1782986671691735300,6.2337353515625,5.146956061708927,1.8336213486798107,-2.1083599347054958
1782986671701809200,6.24380908203125,5.654239228892326,1.8591826370462774,-2.013112823433429
1782986671711884300,6.25388427734375,6.41537791467905,1.8769740220636129,-1.8550985826030373
1782986671721958100,6.263958251953125,7.129287231779098,1.846823360080272,-1.6474809374310075
1782986671732032000,6.274031982421875,7.809008448073268,1.8459215889349578,-1.452520821519196
1782986671742106000,6.284106201171875,8.183835447922348,1.7759144251205026,-1.3717466183662415
1782986671752181000,6.294180908203125,8.41790782316923,1.8751169960200786,-1.2540920065835117
1782986671762255000,6.304255126953125,8.342499238702654,1.931301240056753,-1.144996914157644
1782986671772329200,6.3143291015625,7.9871520153492686,1.8627353610917925,-1.1426831573225558
1782986671782404000,6.324404052734375,7.565290877124666,1.9560709396541118,-1.147741463625431
1782986671792478200,6.334478271484375,7.196063596978783,2.019312700986862,-1.0871897450942545
1782986671802552300,6.34455224609375,6.775134771168232,2.0889795269310474,-1.075339586694166
1782986671812627200,6.354627197265625,6.263814311292768,2.2401883255302906,-1.1531712335892021
1782986671822701300,6.364701416015625,5.885668980675935,2.41432499525249,-1.0321583974197506
1782986671832775200,6.374775146484375,5.11856524900496,2.578292153137922,-0.5509937871593982
1782986671842849300,6.384849365234375,3.3081086489439007,2.302840304276347,-0.02567344350405037
1782986671852924200,6.394924072265625,0.26114041491448875,1.5859569398015736,0.8450098320417105
1782986671862998300,6.404998291015625,-3.436715155112743,0.37551732020080086,2.017088449066132
1782986671873072000,6.415072021484375,-7.022550612112879,-1.5961343426838517,3.837061503882706
1782986671883147300,6.425147216796875,-10.039892938685417,-4.597597839862108,5.846816395190358
1782986671893221000,6.43522119140625,-12.074015086269378,-8.114117768573761,5.659015941774845
1782986671903295000,6.445294921875,-15.238018046617507,-9.343712170499563,3.2763840156421065
1782986671913369000,6.455369140625,-19.598866985499857,-7.368487617564201,2.9782436573714017
1782986671923444200,6.4654443359375,-22.65385427533388,-6.294104235616326,4.07958869600296
1782986671933518000,6.47551806640625,-24.554735827207566,-5.98836713860631,4.244476475864649
1782986671943592200,6.48559228515625,-25.747443390762804,-4.782348550318181,4.362315504303575
1782986671953667000,6.4956669921875,-27.358455861365794,-2.92802212113142,4.871885905641317
1782986671963741200,6.5057412109375,-28.96534862169027,-0.1998668849147856,2.894177719196677
1782986671973815300,6.515815185546875,-27.999274223291874,2.1966645333632826,-0.8935992370352148
1782986671983890200,6.52589013671875,-24.155790285146235,3.208862092772126,-3.3091949828758835
1782986671993964300,6.53596435546875,-18.483117573940753,3.1620643935009833,-4.0226334675937885
1782986672004038100,6.5460380859375,-11.53573121614456,2.4701667094618083,-4.350305040775239
1782986672014112300,6.5561123046875,-4.336093852332234,1.7185319112099706,-4.263877926427126
1782986672024187100,6.566187255859375,1.6777730537116526,1.142200488372147,-3.5757375490948555
1782986672034261200,6.57626123046875,5.811057684066891,0.4522494083561003,-2.594200793148577
1782986672044335000,6.586335205078125,7.934715141147374,-0.3197000097803771,-1.2583033406682311
1782986672054410200,6.59641015625,8.603449099481105,-1.1380857465296983,-0.37116745442822574
1782986672064484000,6.606484130859375,8.905710044813155,-1.7393921822786331,0.21225714154094458
1782986672074558200,6.61655810546875,10.019977108860015,-1.9531781408220528,0.17315335777327417
1782986672084632000,6.626632080078125,11.371150894796848,-2.2774111178569494,-0.100578827688843
1782986672094707200,6.636707275390625,13.269533031070232,-1.9333343533195555,0.08281360002607106
1782986672104781000,6.646781005859375,15.199727186667918,-1.4470080494470894,-1.1054859378285706
1782986672114855200,6.656855224609375,16.42256802268028,-1.071158574682474,-1.0692476264946162
1782986672124930000,6.666929931640625,16.798392216873168,-0.41455344555974005,-0.7451203017912804
1782986672135004200,6.677004150390625,15.913170055299997,-0.14691431627571583,-0.5509561585627496
1782986672145078300,6.687078369140625,14.343297404336928,0.11037424551621079,-0.33152561826109883
1782986672155152100,6.697152099609375,12.185796714365482,0.4071165735572576,-0.1375697109557688
1782986672165227300,6.707227294921875,9.720022102382778,0.6946389455713331,0.02809387558400631
1782986672175301000,6.717301025390625,7.218548400509357,1.100993156453967,-0.281852290488407
1782986672185375200,6.727375244140625,5.728713747379183,1.3138159690536557,-0.47950171854943036
1782986672195450000,6.7374501953125,4.695944816845655,1.2247890474706888,-0.4633518171288073
1782986672205524200,6.747524169921875,4.060030593574047,1.0674448148563505,-0.6053573916401713
1782986672215598000,6.75759814453125,3.7773283351927995,1.02701708900854,-0.6950358359344303
1782986672225673200,6.767673095703125,4.286690646737814,1.1142461673893034,-0.6271190685279667
1782986672235747000,6.7777470703125,5.2575043486177915,1.2218999019004404,-0.5538888875463978
1782986672245821200,6.7878212890625,6.393970384991168,1.2506399664334953,-0.6226147428460419
1782986672255895000,6.79789501953125,7.530137146157026,1.252532209920883,-0.6477306985978036
1782986672265970200,6.80797021484375,8.44049608707428,1.2140632169254124,-0.6575203442715108
1782986672276044000,6.8180439453125,9.005510727736354,1.2208131295770406,-0.5387137129094451
1782986672286118100,6.8281181640625,9.205966664585471,1.2657422584973275,-0.30668636055886744
1782986672296193000,6.838193115234375,9.086609632799028,1.3499812151513992,-0.150719042320922
1782986672306267100,6.84826708984375,8.824541581645608,1.4248485323481261,-0.27276721288748085
1782986672316341200,6.85834130859375,8.537393449771404,1.4483939508475363,-0.49399070102050896
1782986672326415000,6.8684150390625,8.076852744540572,1.5195222276464104,-0.5361263998299837
1782986672336490200,6.878490234375,7.224127661946415,1.6243683573909102,-0.5321710132677108
1782986672346564000,6.888564208984375,5.938672841110825,1.6812113575972616,-0.5250555552393198
1782986672356638200,6.89863818359375,4.533994844001532,1.89630065382421,-0.4287002635296434
1782986672366713000,6.908713134765625,2.3740981988042593,1.945624948963523,-0.07482764277346432
1782986672376787200,6.918787109375,-0.4518997181355953,1.6784256724014877,0.29519312583766877
1782986672386861000,6.928861083984375,-3.818942786607146,1.0562214100524783,0.8054914030585437
1782986672396936200,6.938936279296875,-6.903644831225275,-0.5848281791567802,2.3351577889047563
1782986672407010000,6.949010009765625,-7.9675898212671274,-3.0467402704924345,4.364062640231848
1782986672417084200,6.959084228515625,-9.809530523872375,-5.554717947432398,3.1981215030491352
1782986672427158000,6.969157958984375,-15.206149913191794,-6.5074436194360255,0.8133582639761269
1782986672437233200,6.979233154296875,-22.9045136282444,-4.8477924978703255,2.5241651338919997
1782986672447307000,6.98930712890625,-28.416094444739816,-3.1087703179478643,3.4468975264310835
1782986672457381400,6.99938134765625,-30.201984174299238,-2.524906599909067,1.9411945653006433
1782986672467456000,7.0094560546875,-29.982573361611365,-3.0812609642535445,1.6583283485293387
1782986672477530400,7.0195302734375,-28.576094452559946,-2.930668543986976,4.259750325103104
1782986672487604200,7.029604248046875,-28.47093662651777,-1.3838413991771639,4.812425124152004
1782986672497678000,7.039677978515625,-28.377282191264626,0.541884817226231,2.839518492770195
1782986672507753200,7.049753173828125,-25.235463005673886,0.9582603636465966,1.5966078054144976
1782986672517827300,7.059827392578125,-19.656762709629536,1.0624991020824759,0.7297538058333098
1782986672527901200,7.069901123046875,-12.895948724758624,1.4424743515402079,0.6953009166114031
1782986672537976300,7.079976318359375,-7.060377946203946,1.2442914741896092,0.39558614863082764
1782986672548050200,7.09005029296875,-3.745907361012697,0.6795319773323834,0.8203293450977652
1782986672558124000,7.1001240234375,-2.414893735051155,0.19291801562495528,0.8581524414051324
1782986672568198100,7.1101982421875,-1.3403466869741678,-0.5909615673452615,-0.18805420898087322
1782986672578273000,7.12027294921875,0.7185165186345577,-1.3434092894151806,-1.0614088956929744
1782986672588347100,7.13034716796875,3.9498148996204137,-2.153680108769983,-1.9919849874697624
1782986672598421000,7.1404208984375,8.196541784760356,-2.452806993860006,-2.3859742222979663
1782986672608496000,7.15049609375,12.838847950398922,-2.252391681282222,-2.6558608382478357
1782986672618570000,7.160570068359375,17.124494641041753,-3.1075375612825153,-3.4049405451893806
1782986672628644400,7.170644287109375,20.300711770796774,-3.3662340901762247,-2.987912818470597
1782986672638719000,7.180718994140625,22.049103252089022,-2.4602812752634287,-2.575347331857681
1782986672648793300,7.19079345703125,21.613938395655154,-1.6815153089798986,-2.1017264880403874
1782986672658867200,7.2008671875,19.03704441887736,-0.9159918322376907,-1.853240825907141
1782986672668941300,7.21094140625,15.289703810191154,0.3156786453098058,-1.5558676526166497
1782986672679016200,7.22101611328125,11.63739477033019,1.6226998396568,-1.1999179333254695
1782986672689090300,7.23109033203125,8.66496652123928,2.3254029953487216,-1.1499880735084413
1782986672699164200,7.2411640625,6.846153596243262,2.7915006040543315,-1.6944348501771687
1782986672709239300,7.2512392578125,6.193946994340419,2.991438069987297,-1.9976501736246048
1782986672719313200,7.261313232421875,6.5292369335711,3.078656919234991,-1.9526514865994453
1782986672729387000,7.271386962890625,7.462595057281852,3.1441420755803584,-1.9037360645219683
1782986672739461000,7.281461181640625,8.518537358132004,3.1405665551811457,-1.9304232881784438
1782986672749536000,7.291535888671875,9.367606256306171,2.9647488005042075,-1.9551957642547786
1782986672759610000,7.301610107421875,9.927999082386494,2.7948949226677415,-1.765113629642874
1782986672769684000,7.31168408203125,9.98787049050331,2.5076971064329148,-1.9105593346707521
1782986672779759000,7.321759033203125,9.856151989793776,2.373557077664882,-1.7125296020552514
1782986672789833000,7.3318330078125,9.715648709604144,2.1419936164990068,-1.7085200741529463
1782986672799907300,7.3419072265625,9.354954864525794,2.0346732055954635,-1.5572954934626817
1782986672809982000,7.35198193359375,9.119536919888853,1.880778090521693,-1.4051536517970262
1782986672820056300,7.362056396484375,8.935003943836689,1.7372461101606487,-1.2902327027618885
1782986672830130200,7.372130126953125,8.680022051551937,1.5759008252114057,-1.0741465775173158
1782986672840204300,7.382204345703125,8.206794883227348,1.3777517039999365,-0.8153173621546477
1782986672850278700,7.392278564453125,7.4374208685368295,1.2385866866767405,-0.5664462078351528
1782986672860352500,7.4023525390625,6.577022182574868,1.3524477513954043,-0.25084608938796443
1782986672870426600,7.412426513671875,5.835606434389948,1.5614061436519027,0.026120726047246714
1782986672880501500,7.42250146484375,4.484306976246834,1.5880661870405077,0.12844418261344545
1782986672890575600,7.43257568359375,2.422743279507756,2.059182939082384,0.43355807882435615
1782986672900649500,7.4426494140625,-1.0643933183312415,2.2221429657518863,0.5319930263523012
1782986672910723600,7.4527236328125,-4.934233348482847,1.283472707107663,0.22269063807614145
1782986672920798500,7.462798583984375,-7.280436409145593,-0.855735662586987,0.11190023124078288
1782986672930872600,7.47287255859375,-8.166081180045008,-3.9430855913653966,1.3744368803635238
1782986672940946700,7.48294677734375,-8.946390430247783,-7.194467852219939,1.591599914124608
1782986672951021600,7.493021484375,-12.295215704983471,-10.539068787258863,-1.4333385666653513
1782986672961095700,7.503095703125,-19.268628484439848,-11.605866828644276,-2.3660068084158
1782986672971169800,7.513169677734375,-26.359702013158795,-10.035041407001017,0.47634182974640277
1782986672981243600,7.52324365234375,-29.766676694524286,-9.283492387336493,1.0432906168088316
1782986672991318800,7.53331884765625,-30.15327012001276,-8.75359114563167,0.9047731766741722
1782986673001392600,7.543392578125,-29.125105468404293,-8.184923243159055,2.1532541384428736
1782986673011466500,7.553466552734375,-29.011913973510264,-5.293194086158275,2.211105000517517
1782986673021541600,7.563541748046875,-28.923227974319456,-1.267743515317142,1.5451564351186156
1782986673031615500,7.573615478515625,-25.987527573645114,0.9901052623271942,0.0674764397604391
1782986673041689600,7.583689697265625,-19.498015916740894,1.6695836097761987,-1.7354786620967089
1782986673051764700,7.5937646484375,-12.266114698183536,1.5647314886823296,-2.1492199144907294
1782986673061838600,7.603838623046875,-6.189847742328047,1.2935071943879126,-1.9389184370622037
1782986673071912400,7.613912353515625,-1.5011410600423811,0.7472273570731282,-1.9108790681444108
1782986673081986600,7.623986572265625,1.6331582514375447,0.33358605792224405,-1.949152100176364
1782986673092061400,7.6340615234375,3.576952477842569,0.32354484864026306,-2.1351650856532154
1782986673102135600,7.644135498046875,5.0477673732042305,0.035173312450945377,-2.216692737521976
1782986673112209700,7.654209716796875,6.736387399622798,-0.36708705324679614,-2.0930653349399564
1782986673122284500,7.664284423828125,8.807670526343584,-0.3110360802009702,-1.9467866862192749
1782986673132358700,7.674358642578125,11.288909833961725,-0.07314911510199308,-1.9115444001853465
1782986673142432800,7.684432861328125,13.680952270257473,0.22651684530079363,-1.738708730059117
1782986673152506600,7.694506591796875,15.614902563518285,0.7304656073644756,-1.3212258069187401
1782986673162581800,7.704581787109375,16.871506552922725,1.3065025773003696,-0.8365677285194396
1782986673172655600,7.714655517578125,17.110784095597268,1.8756889506891368,-0.49045850830636917
1782986673182729700,7.724729736328125,16.31454603937864,2.384201367406547,-0.6209105692766607
1782986673192804600,7.7348046875,14.62004046205282,2.7906337580919263,-0.776799196255207
1782986673202878700,7.744878662109375,12.606399961483477,3.239470581525564,-0.5739877823211252
1782986673212952600,7.75495263671875,10.661104098343849,3.5443282653525467,-0.46323030964098866
1782986673223026400,7.7650263671875,8.801144339445234,3.699115799221396,-0.5688597717829048
1782986673233101600,7.7751015625,7.615855527713895,3.789128663101792,-0.6553649928685278
1782986673243175400,7.785175537109375,7.315670804134011,3.681408000834286,-0.5294208377767354
1782986673253249500,7.79524951171875,7.605275096988677,3.4773332889661193,-0.390198464243114
1782986673263324400,7.805324462890625,7.928229870781302,3.2615345292955635,-0.3844941881868988
1782986673273398500,7.8153984375,8.120381505143643,3.0671576200991866,-0.5081676949329674
1782986673283472600,7.82547265625,8.110857889994978,2.9027357041835784,-0.5630539350483567
1782986673293547500,7.835547607421875,8.017920663100481,2.768427479241788,-0.6565513531088829
1782986673303621600,7.84562158203125,8.027235603934527,2.63527193146646,-0.7695747979596257
1782986673313695700,7.85569580078125,8.046587370136379,2.527112585520744,-0.8035187878113239
1782986673323769600,7.86576953125,7.999583042377233,2.4030790863558646,-0.8685985051609575
1782986673333844700,7.8758447265625,7.768869914430379,2.2430320245236155,-0.765308957208693
1782986673343918600,7.885918701171875,7.502310397076607,2.107775997337699,-0.7681995640836655
1782986673353992700,7.89599267578125,7.399483644330501,2.0250448148980738,-0.9778503225184977
1782986673364067600,7.906067626953125,7.3600845308780665,1.8956784302726386,-1.1294796846173702
1782986673374141700,7.9161416015625,7.147090014973283,1.7807830540701746,-1.1681811711944639
1782986673384215600,7.926215576171875,6.7223863467991345,1.7540321175277231,-1.1828478483200073
1782986673394289700,7.93628955078125,5.970870060360431,1.9210054714918134,-1.3054485382027923
1782986673404364500,7.946364501953125,4.8948582004278895,2.2589450484484432,-1.3953513658374548
1782986673414438700,7.956438720703125,3.4880122116297483,2.2718094984576105,-1.53192519762367
1782986673424512500,7.966512451171875,1.825801468709111,2.2892770583480595,-1.4568382463268934
1782986673434587600,7.976587646484375,-0.09245499633550644,1.8809552006542682,-1.3068950837492943
1782986673444661500,7.98666162109375,-2.4739170019060372,0.9896174788102508,-1.272452423660457
1782986673454735600,7.996735595703125,-5.267049006554484,-0.32016134368181226,-1.6009985877193509
1782986673464809700,8.006809814453124,-7.645512414830923,-2.6004610225871203,-1.4851311516143382
1782986673474884600,8.016884521484375,-9.584363924136758,-6.995054117900133,-0.2453384318823926
1782986673484958700,8.026958740234376,-12.12688392214775,-11.666332111001013,0.35069968980848787
1782986673495032600,8.037032470703124,-16.793087096202374,-11.73060847607851,1.789024666584283
1782986673505107700,8.047107666015625,-22.44374671304226,-9.987371308809518,5.033265385121107
1782986673515181600,8.057181640625,-27.758724760985373,-9.467857605606318,5.137746919336915
1782986673525255700,8.067255615234375,-32.530593126082415,-8.808453785675763,2.2722641103573142
1782986673535330600,8.07733056640625,-35.87654839833974,-7.370663208037614,0.9918894423302262
1782986673545404700,8.08740478515625,-37.32569039107561,-4.063336941643059,0.30083748840019103
1782986673555478500,8.097478515625,-35.827647297048564,-1.5086135878801346,-1.5002682227306068
1782986673565552600,8.107552734375,-29.9806444393754,-1.1562921420887111,-3.5715503265380857
1782986673575627500,8.11762744140625,-20.96289557683468,-1.4740981548160315,-4.545378992325067
1782986673585701600,8.12770166015625,-11.46614973039627,-1.3010925349503755,-4.379145058551431
1782986673595775500,8.137775390625,-3.849042156794667,-0.9281012260958552,-3.8424014036059377
1782986673605850600,8.1478505859375,1.124809500849247,-0.7958756526470184,-3.2104145829111337
1782986673615924500,8.157924560546874,3.7809126234203574,-0.3732645728379488,-2.302878152068704
1782986673625998600,8.16799853515625,5.467465780436992,0.20038141030818224,-1.4358648702725767
1782986673636072700,8.17807275390625,6.9679498378753655,0.532809822627902,-0.7032323671977967
1782986673646147800,8.18814794921875,8.091938669991492,0.6199085526272654,-0.0010305120915174483
1782986673656221700,8.1982216796875,9.31376652956903,0.5345478984668851,0.498708231061697
1782986673666295600,8.208295654296874,11.027416952347755,0.40533787344694133,1.1129691331908107
1782986673676370700,8.21837060546875,13.288852648568152,0.2520133978679776,1.68747611708045
1782986673686444500,8.228444580078126,15.609189446568488,0.42662002318948505,1.912364192135632
1782986673696518700,8.2385185546875,17.546804692077636,0.6827391028106212,1.4783397379085421
1782986673706592500,8.248592529296875,18.693428549849987,1.026743678894639,0.5798036289930343
1782986673716667600,8.258667724609374,18.67598641666174,1.5306956558287144,0.289375671730563
1782986673726741500,8.268741455078125,17.317464021527766,1.995411016395688,0.28118113149488344
1782986673736815600,8.278815673828126,15.407230119419097,2.6287580195277926,0.06647893488937988
1782986673746890500,8.288890380859375,13.376014214670658,3.2450422441780566,0.1410438807392027
1782986673756964600,8.298964599609375,11.660077726781367,3.4319475023195145,0.07028577982643619
1782986673767038500,8.30903857421875,10.501443113219738,3.3846433148309587,0.0962571833637543
1782986673777113600,8.319113525390625,9.98843163151741,3.332947029863298,0.18699604169744996
1782986673787187500,8.3291875,9.679378541827202,3.6399259436279534,-0.26432145610339935
1782986673797261800,8.33926171875,9.353329893672466,3.6295150242507455,-0.1398142384795472
1782986673807335700,8.349335693359375,9.111632430374621,3.312006240904331,0.10254168872702867
1782986673817410800,8.359410888671874,8.806994819039106,3.069931760987639,-0.06156034758444875
1782986673827484700,8.369484619140625,8.355819323524832,2.9351401364430783,-0.4264293229229748
1782986673837558500,8.37955859375,7.793111206239462,2.9077859733104705,-0.8689438845325261
1782986673847633700,8.389633544921875,7.386252991357445,2.833112425120175,-1.025621542996913
1782986673857708300,8.399708251953125,7.170222468757629,2.6936025398820638,-1.2189125566527246
1782986673867782400,8.409782470703124,7.331024440610408,2.566007548843324,-1.4812125168658792
1782986673877856300,8.419856201171875,7.833578825706243,2.4595368866369127,-1.5289116950213908
1782986673887931400,8.429931396484376,8.26449303895831,2.3037331614628433,-1.3056843927852808
1782986673898005200,8.440005126953125,8.481697866034507,2.186423125334084,-1.1638652076914906
1782986673908079000,8.4500791015625,8.523854753762484,2.141443727531284,-1.0253194913104176
1782986673918154200,8.460154296875,8.17816441654861,2.014354640188068,-0.6645116644635796
1782986673928228000,8.47022802734375,7.3927166344136,1.658877068453282,-0.47331784228272733
1782986673938302200,8.48030224609375,6.560263355475664,1.407647514439374,-0.3841721896909177
1782986673948376000,8.4903759765625,5.532352386367321,1.2956814696870744,-0.26379823594689367
1782986673958451200,8.500451171875,3.941452144944668,1.1995086218722164,-0.14241928814509883
1782986673968525000,8.510525146484374,1.3644091150850057,0.9150428609497845,0.3817383866727352
1782986673978599400,8.520599365234375,-2.632295546004176,0.15923019249141215,1.636784186849743
1782986673988674000,8.530674072265626,-8.090573226857185,-1.6349992031291127,2.5980273656994104
1782986673998748400,8.54074853515625,-12.88543785213828,-3.8829546555295584,3.0487390430942174
1782986674008822300,8.550822265625,-15.231527515554427,-6.528935320276021,3.1317242002949115
1782986674018897400,8.5608974609375,-16.875514034998417,-10.016462963259219,0.7864240798212587
1782986674028971300,8.57097119140625,-20.649358035206795,-10.901924778807162,-0.8753934259980917
1782986674039045400,8.58104541015625,-26.4592811622858,-8.971650543710588,1.975393772022426
1782986674049119200,8.591119140625,-30.22831337829828,-6.816855021044612,3.935966699270904
1782986674059194400,8.6011943359375,-31.50890263892412,-4.95069640750587,3.1350960148155687
1782986674069268200,8.611268310546874,-32.36294757194519,-3.7346842484697698,3.0407667490407824
1782986674079342000,8.621342041015625,-32.052865723729134,-2.772609441101551,2.983732902437448
1782986674089417200,8.631417236328126,-30.03968582640886,-0.4660245434693992,2.2694090131871403
1782986674099491300,8.6414912109375,-27.15161226930618,1.8803984435543417,1.8033090663939713
1782986674109565200,8.651565185546875,-23.42514493730068,2.5825644236296412,0.9300776407353579
1782986674119639000,8.66163916015625,-18.112722419059274,2.3049881299600004,-0.4758749063543975
1782986674129714200,8.671714111328125,-11.671368351602554,1.89735907683596,-1.3091243041060865
1782986674139788000,8.6817880859375,-5.809919619947672,1.6551796752400696,-1.5594721068494022
1782986674149862400,8.6918623046875,-0.6507312686532736,1.535560046994686,-2.109104469462484
1782986674159937000,8.70193701171875,3.712641051226854,1.5534375028602778,-1.9380895850226283
1782986674170011400,8.712011474609374,6.880311886432766,0.9598680911041796,-1.9505138900488614
1782986674180085200,8.722085205078125,8.805765569505095,0.47861485271230336,-2.6962980625763535
1782986674190160400,8.732160400390624,10.326067841613293,0.31207360655516386,-3.380907050912082
1782986674200234200,8.742234130859375,12.046072601854801,0.331079628059268,-3.9733714240357276
1782986674210308400,8.752308349609375,14.170458957731723,0.13948562757968902,-3.9442221941798925
1782986674220382200,8.76238232421875,16.461261033689976,0.5969938332468271,-3.747420103663206
1782986674230457300,8.772457275390625,18.34088235539198,1.186453471596539,-3.664273618420958
1782986674240531200,8.78253125,19.262512047386167,1.4790984473213553,-3.391907460615039
1782986674250605300,8.792605224609375,18.894548503565787,1.640197940815985,-3.0792730053067205
1782986674260680200,8.80268017578125,17.203510310089587,1.9858046913996337,-2.805381245368719
1782986674270754300,8.81275439453125,14.67545196815133,2.381073590774834,-2.166023603644967
1782986674280828200,8.822828125,12.03900690125227,2.728246275500953,-1.43247858883515
1782986674290902000,8.832902099609376,9.548070960006116,2.897124001781642,-1.086236462957412
1782986674300977200,8.84297705078125,7.546279302662611,3.0022949795663356,-0.9608769758857786
1782986674311051000,8.853051025390625,6.153282975518703,2.999514408937096,-0.6635914808787405
1782986674321125400,8.86312548828125,5.501178664946556,2.682611190268397,-0.5859587906219065
1782986674331200000,8.873199951171875,5.619751268357038,2.230942066018283,-0.756092946704477
1782986674341274400,8.8832744140625,6.360505922284722,2.084723184660822,-0.8426759822666644
1782986674351348200,8.89334814453125,7.487783859074115,2.0871390136308965,-0.7189500877462327
1782986674361422300,8.90342236328125,8.479755499795079,1.9098563009679317,-0.8105234789416194
1782986674371497200,8.913497314453124,9.230944453975559,1.8887454161390662,-0.7843354369789362
1782986674381571300,8.9235712890625,9.668886958429217,1.9394648188985883,-0.738631962685287
1782986674391645200,8.933645263671876,9.656603230917453,1.944640760231763,-0.6862308173839002
1782986674401720300,8.94372021484375,9.179509450292587,1.9305903153084218,-0.6382917660579085
1782986674411794200,8.953794189453125,8.518157418903709,1.9037142910815774,-0.6345873585820198
1782986674421868300,8.963868408203124,7.706230795165896,1.8465080105207858,-0.7605185811270028
1782986674431943200,8.973943115234375,6.937528980648517,1.7232085247188806,-0.7422890969533473
1782986674442017300,8.984017333984376,6.192983702266216,1.507242737918347,-0.520335687110573
1782986674452091100,8.994091064453125,5.317031473341584,1.454423586400598,-0.4657444844190031
1782986674462165200,9.004165283203125,4.874399934288859,1.5634543083533643,-0.5180463340643793
1782986674472240000,9.014240234375,4.7873225393384695,1.5760015091069042,-0.49940045110955833
1782986674482314200,9.024314208984375,4.500099588662386,1.4909952213421462,-0.4817458442144096
1782986674492388400,9.034388427734376,3.5034757382214066,1.4470534960240125,-0.20781879376731813
1782986674502463200,9.044463134765625,1.2080728904694318,1.2142509945824742,0.4478559957027435
1782986674512537300,9.054537353515625,-1.8875842634052038,0.5507515759013593,1.3406921394109725
1782986674522611200,9.064611083984374,-5.012831084379553,-0.8619003226965666,1.928797586672753
1782986674532685300,9.074685302734375,-6.990515305426716,-3.010315788936615,2.484184128898382
1782986674542760200,9.08476025390625,-8.311076510956884,-4.820750177165865,2.314355093242228
1782986674552834300,9.094834228515625,-11.969544657969474,-6.084213530945777,0.8432382192593068
1782986674562908200,9.104908203125,-18.628151483297348,-6.677293990141153,1.7237214426770806
1782986674572983300,9.1149833984375,-25.315603294837473,-6.19066490392983,4.63667458949238
1782986674583057200,9.12505712890625,-28.396714036965367,-6.386071156173944,5.94722381183505
1782986674593131300,9.13513134765625,-27.860768254399296,-7.051323117610812,5.8687646076262
1782986674603206100,9.1452060546875,-26.357798809885978,-5.743948141390085,6.35379561099112
1782986674613280300,9.1552802734375,-25.758163522219657,-3.7194086456656454,7.699170939782261
1782986674623354000,9.16535400390625,-26.176236958599088,-1.424508486738801,7.3079124450922
1782986674633428200,9.17542822265625,-26.099185283100603,0.8037035697937012,4.707603398196399
1782986674643503000,9.185503173828126,-23.90909632873535,1.0872234281681477,1.3128075226634741
1782986674653577200,9.1955771484375,-19.149215338551997,0.6363314257703722,-1.8206383868575096
1782986674663651300,9.2056513671875,-12.502752540004252,1.2186501063242554,-3.1923370744287967
1782986674673726200,9.215726318359375,-5.350005522182584,2.005772543673217,-3.2796798423171043
1782986674683800300,9.22580029296875,0.5205453843384981,2.557097973939776,-3.3730203893154855
1782986674693874200,9.235874267578126,4.205982786819338,2.854863945940137,-3.462142734096944
1782986674703948300,9.2459482421875,5.92294218801558,2.9169860555931924,-3.214393715675175
1782986674714023400,9.2560234375,6.5331017923057075,2.443058922305703,-3.065907912299037
1782986674724097300,9.26609716796875,7.070317740938067,1.4043247997574508,-2.6537875391051173
1782986674734171100,9.276171142578125,8.49226660632193,0.44705373940914866,-2.579148477706313
1782986674744246300,9.286246337890624,10.749058276128768,-0.20931348930448293,-2.6582038942426442
1782986674754320100,9.296320068359375,13.32871119622588,-0.44847865764573214,-2.172109061038494
1782986674764394200,9.306394287109375,15.744703832429646,-0.5115279651463032,-1.335556822349131
1782986674774468000,9.316468017578124,17.484403473222255,-0.42120705823004245,-0.9470144547499716
1782986674784543200,9.326543212890625,18.10917554023266,-0.2781052859798074,-0.88800872355178
1782986674794617000,9.3366171875,17.511576726830004,-0.016058569875359533,-0.957751391211152
1782986674804691200,9.346691162109375,15.912449924331902,0.41758667577579617,-1.138842921572551
1782986674814766000,9.35676611328125,13.485384105449914,0.9005766748324036,-1.093120815643668
1782986674824840200,9.366840087890624,10.61787169033885,1.2518072566471994,-0.8957961625576019
1782986674834914300,9.376914306640625,7.969495362627506,1.5270650442413984,-0.9420608509305864
1782986674844989200,9.3869892578125,5.809985670921206,1.5981149951070546,-1.0879486737027764
1782986674855063000,9.39706298828125,4.241287908956409,1.3816523647002874,-1.0632537929072976
1782986674865137200,9.40713720703125,3.6459792523175474,1.2332605232179163,-1.0382798759747296
1782986674875211000,9.4172109375,4.114872775352001,1.1916720830276608,-1.0173863602235913
1782986674885286100,9.4272861328125,5.2950575419425965,1.1793304878488182,-0.918558321724832
1782986674895360000,9.437360107421876,6.5053106990605585,1.1910624266967176,-0.8532733641266822
1782986674905433900,9.447433837890625,7.353223412936925,1.1701074630819261,-0.8356767710290849
1782986674915509000,9.457509033203126,7.683895044717192,1.098699492558837,-0.8094379487272352
1782986674925582800,9.467582763671874,7.695352258276939,1.1293046203114092,-0.817597947372496
1782986674935657000,9.477656982421875,7.566510774308442,1.2145898711480199,-0.733118021569401
1782986674945730800,9.487730712890626,7.482865691894292,1.224354893837124,-0.7517940804667771
1782986674955806000,9.497805908203125,7.4769339637577525,1.2069251817390323,-0.8249683300100267
1782986674965879800,9.5078798828125,7.472711962148547,1.1189447004690765,-0.784275085093826
1782986674975954200,9.5179541015625,7.4219216861099,1.1220128558680416,-0.7451731279570609
1782986674986028800,9.52802880859375,6.952540671819448,1.1271563562363385,-0.7711004000917077
1782986674996103200,9.538103271484376,6.431413688200712,1.3875569125689566,-0.7741296847850084
1782986675006177000,9.548177001953125,6.131946757501363,1.573445541013777,-0.7862156977675855
1782986675016251100,9.558251220703125,5.716570889642834,1.5222471225656569,-0.8139683586984873
1782986675026326000,9.568325927734374,4.764080779960751,1.5774587221778928,-0.5209430053539574
1782986675036400000,9.578400146484375,2.5859640029400586,1.4551618375472724,0.007652779775485396
1782986675046474000,9.588473876953126,-1.101530332070589,0.9251404765941202,0.8604553845852613
1782986675056549000,9.598549072265625,-4.87766273547709,-0.56531610782668,1.4726508786171675
1782986675066623000,9.608623046875,-7.808079642790555,-2.891518436859548,2.070632553857565
1782986675076696800,9.61869677734375,-10.190844547653198,-4.630783485627174,2.8444293534263965
1782986675086772000,9.62877197265625,-12.782219469726085,-5.890965918040275,1.7554413998037575
1782986675096846000,9.63884619140625,-17.701104442429543,-6.979180256941914,0.7875941465139389
1782986675106920000,9.648919921875,-23.527955323433876,-7.230238838303089,1.4390882162332534
1782986675116993800,9.658993896484375,-25.99960379588604,-7.068851760038733,2.4683453392535446
1782986675127069000,9.66906884765625,-24.069098674643037,-7.852845836234092,3.520520981046557
1782986675137142800,9.679142822265625,-19.97889739921093,-8.737808470088243,4.693200486573577
1782986675147217200,9.689217041015626,-17.256142999124528,-8.15684865679741,5.670559080052375
1782986675157291800,9.699291748046875,-18.216374516713618,-6.107962655323743,6.458544856232404
1782986675167366100,9.7093662109375,-22.538060488986968,-2.9853084811910984,6.200393101739883
1782986675177440000,9.71943994140625,-26.873227874124048,-0.4671573468916118,4.464647167009115
1782986675187515100,9.72951513671875,-26.488149529373644,-0.4316498340502381,2.6974621379196644
1782986675197589000,9.739589111328126,-21.2724864266634,-1.1904361114919184,0.22208032415807247
1782986675207663000,9.7496630859375,-12.896370749562978,-0.9425251805067062,-1.3546243647821248
1782986675217737000,9.759737060546875,-4.588578082582354,-0.03033025633394718,-1.2218198224015533
1782986675227812000,9.76981201171875,0.977695862609148,0.672297496034205,-0.7110504205375909
1782986675237886000,9.779885986328125,3.7598902936577794,1.2240545957162976,-0.7756788139231503
1782986675247960000,9.7899599609375,5.043236159515381,1.9264207745388149,-0.7252486033685505
1782986675258035000,9.800034912109375,5.679793356865644,2.411659867696464,-0.9035380088560283
1782986675268109000,9.810109130859376,6.622115708276629,2.239184409184754,-1.8130045309782028
1782986675278183000,9.820182861328124,8.239357428658009,1.2286997911736368,-2.7507617664307356
1782986675288256800,9.8302568359375,10.532383025884627,0.3001803396657109,-3.151522541220486
1782986675298332000,9.840331787109376,13.11811731172204,-0.18128274208456277,-3.3066736477047205
1782986675308405800,9.85040576171875,15.622355217611789,-0.13675737165957688,-3.175832514351606
1782986675318480100,9.860480224609375,17.812702530652285,0.23415946900844573,-2.764617857825756
1782986675328555000,9.870554931640624,18.577963264805078,0.7420780114859342,-2.3423545685410496
1782986675338629000,9.880629150390625,17.237883704334497,1.2707409435674548,-2.022588069395721
1782986675348703000,9.890702880859376,13.969540079545974,1.9994222978636622,-2.021611917839944
1782986675358777000,9.900777099609375,9.722654204452038,2.7831340499863026,-1.8992318849705159
1782986675368852000,9.91085205078125,6.112433663257956,3.5299797142654654,-1.9521876684799788
1782986675378926000,9.920926025390624,3.9143145471721885,3.8788554035171865,-2.126073578311503
1782986675389000000,9.931,3.103810065191984,3.8165138058945534,-2.175830127388239
1782986675399075000,9.941074951171874,3.445678798291087,3.7228272219374774,-1.982899471477419
1782986675409149000,9.95114892578125,4.777179330986738,3.6338179821416734,-1.8581690760895608
1782986675419223000,9.96122314453125,6.60635349099934,3.6138548060432076,-1.7263034219942985
1782986675429298000,9.9712978515625,8.355071720027922,3.436730352681875,-1.5221863322891294
1782986675439372000,9.9813720703125,9.696584528172016,3.3955002244099974,-1.2769583567775784
1782986675449446000,9.99144580078125,10.339523535513877,3.2839433449804782,-1.1218006744220852
1782986675459520000,10.00152001953125,10.281593909114598,2.9296491378113627,-1.095380431138724
1782986675469595000,10.011594970703126,9.685660398575664,2.5847221861854193,-1.1492451461866497
1782986675479669000,10.0216689453125,9.138423406666517,2.5080735385298727,-1.0722881632342933
1782986675489743000,10.0317431640625,8.629166309061645,2.4928905824452636,-1.0176872428663075
1782986675499818000,10.04181787109375,8.062987885317206,2.470809099018574,-0.8727341436609626
1782986675509892000,10.05189208984375,7.416992997536063,2.491823245474696,-0.8060318666107952
1782986675519966000,10.061966064453125,6.972241397589444,2.4792671307623384,-0.9048141662716865
1782986675530040000,10.0720400390625,6.758674634754657,2.4008453359544277,-0.9063830230236053
1782986675540115000,10.082114990234375,6.441839805147051,2.396185527449846,-0.6596053338520228
1782986675550189000,10.09218896484375,5.967950373521447,2.435792730695009,-0.48118945244066413
1782986675560263000,10.102262939453125,5.200479562103748,2.2813766604870556,-0.26520700676627457
1782986675570338000,10.112338134765626,4.116922693619132,2.019771842931211,0.11652721518799662
1782986675580412000,10.122411865234374,2.438621816641092,1.8342767438486218,0.6681080815203487
1782986675590486000,10.132486083984375,-0.19812194094359872,1.3418150059610605,1.0007084163408726
1782986675600559900,10.142559814453126,-3.470856494167447,0.3377124902024865,0.9981327936992048
1782986675610635000,10.152635009765625,-6.2015019397646185,-0.9897186010971665,0.5575610367204994
1782986675620708900,10.162708984375,-7.7324238055646415,-2.7531168051242827,0.1991909584145993
1782986675630783000,10.172782958984374,-9.233715087732673,-5.255924970471859,-0.013720263120904564
1782986675640857900,10.18285791015625,-11.241410416162013,-8.001653418910504,-0.2191634868633002
1782986675650932000,10.192931884765626,-13.822170420718193,-10.346229170632363,0.8077139744788407
1782986675661006000,10.203006103515625,-16.08153457136154,-11.885011102283,2.5929566383063793
1782986675671081000,10.2130810546875,-17.501785985177754,-12.446410475057363,4.431908972750604
1782986675681155000,10.223155029296874,-18.55606590577364,-11.288896974480151,5.666885944497585
1782986675691229200,10.233229248046875,-19.72497173798084,-9.069690646702051,7.26828303001523
1782986675701303000,10.243302978515626,-21.382664126694202,-7.4143375145912165,8.121729997143149
1782986675711378200,10.253378173828125,-24.43362990592718,-5.043958628571033,7.478460150411725
1782986675721452000,10.2634521484375,-26.949886750912665,-1.9827417966976761,5.0209617838650935
1782986675731526000,10.27352587890625,-25.883087540483473,-0.37729397448450325,1.7034325417555867
1782986675741601000,10.28360107421875,-20.31821235617399,0.060441024698317046,-1.0710374325208365
1782986675751675000,10.2936748046875,-11.886067917859554,0.6765209589481354,-2.4828292071580886
1782986675761749000,10.3037490234375,-4.212515987980366,1.3304282272890209,-2.4914047278016804
1782986675771823900,10.313823974609376,0.7233429158776998,1.2350026907101272,-2.303504321143031
1782986675781898000,10.32389794921875,3.2918408202320335,1.4522022570893167,-1.98102344847247
1782986675791971800,10.333971923828125,4.065547311168909,1.947252550165355,-1.2892290786772966
1782986675802046000,10.3440458984375,4.0433009925693275,2.0454148182317615,-0.953318377199769
1782986675812120800,10.354120849609375,4.457963743722439,1.7576985310807822,-0.9384259284943341
1782986675822195000,10.36419482421875,5.878147352999449,1.1336986174866557,-1.4653133753359318
1782986675832269000,10.37426904296875,8.446886080372334,0.5426166386321186,-2.027461666781455
1782986675842344000,10.384343994140625,12.07022504633665,0.38221009583771226,-1.9419433378413318
1782986675852417800,10.394417724609376,15.47873000600934,0.23609423646330832,-1.8038678693205117
1782986675862491600,10.40449169921875,17.17008267226219,0.5793339656546712,-1.5059003833986817
1782986675872565500,10.4145654296875,16.442635828197,1.3132038285046814,-1.348124189107865
1782986675882640600,10.424640625,13.565413335454464,2.0263371927961704,-1.3842317136690019
1782986675892714500,10.434714599609375,10.37995374557972,2.894888790075481,-1.4479010527640581
1782986675902788600,10.44478857421875,8.211873793926834,3.607614158087969,-1.3307532214596867
1782986675912863700,10.45486376953125,6.9271899574637406,4.012447004622221,-1.2954492683663963
1782986675922937600,10.4649375,5.359629675096273,4.163846357357501,-0.8566582573246211
1782986675933011500,10.475011474609374,3.9313884315699337,3.975998557668924,-0.7547000310413539
1782986675943085600,10.48508544921875,3.3606068979442116,4.63501571636945,-0.9937462491780519
1782986675953160400,10.495160400390626,3.315083164131641,4.261690060994029,-1.012413613312319
1782986675963234600,10.505234619140625,4.350201872661709,3.8797333553954956,-1.25711632284075
1782986675973308700,10.51530859375,5.96298193745911,3.6847029507264493,-1.596604444413632
1782986675983383600,10.525383544921874,7.590715241238474,3.385108886516094,-1.460311037003994
