time,seconds_elapsed,z,y,x
1782986665526266400,0.068266357421875,1.4608290195465088,-0.5994608998298645,-0.17037194967269897
1782986665536340500,0.078340576171875,1.2556722164154053,-1.8549683094024658,-0.7199599742889404
1782986665546414300,0.088414306640625,0.8853550553321838,-3.05694580078125,-1.2094314098358154
1782986665556489500,0.098489501953125,0.45011964440345764,-3.2146246433258057,-1.29658842086792
1782986665566563300,0.108563232421875,-0.1014135405421257,-2.29934024810791,-1.1796187162399292
1782986665576637400,0.118637451171875,-0.5275882482528687,-0.924723744392395,-1.0344401597976685
1782986665586711300,0.128711181640625,-0.6005503535270691,0.33501553535461426,-0.983052670955658
1782986665596786400,0.138786376953125,-0.3918445408344269,1.273457646369934,-1.1187844276428223
1782986665606860300,0.1488603515625,-0.17371124029159546,1.7782124280929565,-1.349290370941162
1782986665616934400,0.158934326171875,-0.131996288895607,1.6268441677093506,-1.5343137979507446
1782986665627009300,0.16900927734375,-0.18887192010879517,1.0476585626602173,-1.469281554222107
1782986665637083400,0.17908349609375,-0.2559494972229004,0.35245105624198914,-1.139552116394043
1782986665647157500,0.189157470703125,-0.29928678274154663,-0.15028022229671478,-0.6927462816238403
1782986665657232600,0.199232666015625,-0.3032711446285248,-0.21660305559635162,-0.3000551760196686
1782986665667306500,0.209306396484375,-0.3270055949687958,-0.019952325150370598,-0.032751329243183136
1782986665677380400,0.21938037109375,-0.3448546528816223,0.25821805000305176,0.1359516680240631
1782986665687454500,0.229454345703125,-0.3210493326187134,0.4615139067173004,0.21343371272087097
1782986665697529300,0.239529296875,-0.3021576702594757,0.6279156804084778,0.18620528280735016
1782986665707603500,0.249603515625,-0.3097379505634308,0.6687513589859009,0.10303428769111633
1782986665717677300,0.25967724609375,-0.45839694142341614,0.48084592819213867,-0.0005789289716631174
1782986665727752400,0.26975244140625,-0.6304784417152405,0.17509716749191284,-0.14941953122615814
1782986665737826300,0.279826416015625,-0.701419472694397,-0.22099611163139343,-0.37111783027648926
1782986665747900400,0.289900390625,-0.6727033257484436,-0.49906888604164124,-0.6246615648269653
1782986665757974300,0.299974365234375,-0.5842962265014648,-0.6835132837295532,-0.8653975129127502
1782986665768049400,0.31004931640625,-0.5228747725486755,-0.8716334104537964,-0.9363390803337097
1782986665778123300,0.320123291015625,-0.5460988879203796,-0.5209209322929382,-0.6772065758705139
1782986665788197600,0.33019775390625,-0.6423299312591553,-0.2897721230983734,-0.3838610053062439
1782986665798272300,0.340272216796875,-0.6588271856307983,-0.2112770676612854,-0.16248920559883118
1782986665808346600,0.3503466796875,-0.5733376145362854,-0.11231787502765656,0.0016456907615065575
1782986665818420500,0.36042041015625,-0.4509166181087494,-0.06037212163209915,0.13524556159973145
1782986665828495600,0.37049560546875,-0.34385764598846436,-0.080952949821949,0.24961607158184052
1782986665838569500,0.380569580078125,-0.28254157304763794,-0.15722057223320007,0.37728187441825867
1782986665848643300,0.390643310546875,-0.25718286633491516,-0.2395782172679901,0.5173020362854004
1782986665858717400,0.400717529296875,-0.24313762784004211,-0.37272295355796814,0.6661924719810486
1782986665868792300,0.410792236328125,-0.2302587479352951,-0.5305969715118408,0.8188044428825378
1782986665878866400,0.420866455078125,-0.18095991015434265,-0.4881826937198639,0.9764675498008728
1782986665888940300,0.430940185546875,-0.14383091032505035,-0.34144464135169983,1.1021082401275635
1782986665899015400,0.441015380859375,-0.1680220067501068,-0.1840885877609253,1.144036889076233
1782986665909089300,0.45108935546875,-0.23343463242053986,0.06946589052677155,1.1189215183258057
1782986665919163400,0.461163330078125,-0.2992953956127167,0.29036152362823486,1.0679675340652466
1782986665929238300,0.47123828125,-0.3717731535434723,0.46771422028541565,1.0860792398452759
1782986665939312400,0.4813125,-0.4242461919784546,0.7339642643928528,1.2112562656402588
1782986665949386200,0.49138623046875,-0.4517669677734375,1.1030974388122559,1.3934260606765747
1782986665959460600,0.501460693359375,-0.39493218064308167,1.3671590089797974,1.580306887626648
1782986665969535200,0.51153515625,-0.23698493838310242,1.2705223560333252,1.732241153717041
1782986665979609600,0.521609619140625,-0.00951316673308611,0.7862154245376587,1.8417959213256836
1782986665989683500,0.531683349609375,0.2842937409877777,0.0925089493393898,1.9378098249435425
1782986665999758600,0.541758544921875,0.5686697959899902,-0.801498532295227,1.8159555196762085
1782986666009832400,0.55183251953125,0.7232990860939026,-1.4786690473556519,1.5610884428024292
1782986666019906600,0.561906494140625,0.8387942314147949,-1.2602394819259644,1.508197546005249
1782986666029981400,0.5719814453125,1.0072370767593384,-0.2773013710975647,1.681973934173584
1782986666040055600,0.5820556640625,1.1697074174880981,0.6712529063224792,1.6610296964645386
1782986666050129400,0.59212939453125,1.1504597663879395,1.0217552185058594,1.1684091091156006
1782986666060203300,0.602203369140625,0.8877031803131104,0.5579438209533691,0.17311544716358185
1782986666070278400,0.6122783203125,0.41303810477256775,-0.5204293131828308,-1.2121641635894775
1782986666080352300,0.622352294921875,-0.09069296717643738,-1.5676952600479126,-2.5422956943511963
1782986666090426400,0.63242626953125,-0.4348667860031128,-1.750702977180481,-3.1836178302764893
1782986666100501200,0.642501220703125,-0.5701993107795715,-1.224185585975647,-3.078083038330078
1782986666110575400,0.652575439453125,-0.4364948570728302,-0.39066848158836365,-2.389218807220459
1782986666120649200,0.662649169921875,-0.2115299254655838,0.3049933910369873,-1.4072321653366089
1782986666130724400,0.672724365234375,-0.06742618978023529,0.6915770173072815,-0.5518441200256348
1782986666140798200,0.682798095703125,-0.09274458885192871,0.9410784244537354,-0.09464031457901001
1782986666150872600,0.69287255859375,-0.27019569277763367,1.1950887441635132,-0.03669843077659607
1782986666160946400,0.702946533203125,-0.4860678017139435,1.5305352210998535,-0.17444591224193573
1782986666171021600,0.713021484375,-0.6422836780548096,1.8054388761520386,-0.2942362129688263
1782986666181095400,0.723095458984375,-0.8269999623298645,1.6890619993209839,-0.38465240597724915
1782986666191169500,0.73316943359375,-0.959581196308136,1.2881921529769897,-0.3984842896461487
1782986666201244400,0.743244384765625,-0.9279236793518066,0.7658601999282837,-0.2659931182861328
1782986666211318500,0.753318603515625,-0.6382890939712524,0.3413473665714264,-0.050362229347229004
1782986666221392400,0.763392333984375,-0.2781948149204254,0.0627429261803627,0.21182064712047577
1782986666231467500,0.773467529296875,-0.003384966403245926,-0.1659344583749771,0.4581758677959442
1782986666241541400,0.783541259765625,0.09486783295869827,-0.3392087519168854,0.6197397112846375
1782986666251615500,0.793615478515625,0.03177753463387489,-0.4388790726661682,0.6280037760734558
1782986666261689300,0.803689453125,-0.11051303148269653,-0.48897606134414673,0.512856662273407
1782986666271764500,0.813764404296875,-0.2664106786251068,-0.5048476457595825,0.3177379071712494
1782986666281838300,0.82383837890625,-0.38166722655296326,-0.5224447846412659,0.07468478381633759
1782986666291912200,0.833912109375,-0.42125511169433594,-0.5597190260887146,-0.1849990040063858
1782986666301987300,0.8439873046875,-0.4077158570289612,-0.5706731081008911,-0.43739983439445496
1782986666312061200,0.854061279296875,-0.42768919467926025,-0.6968490481376648,-0.614759624004364
1782986666322135600,0.864135498046875,-0.45865535736083984,-0.8584861159324646,-0.686855137348175
1782986666332210200,0.874210205078125,-0.4463517963886261,-0.9853323101997375,-0.6792766451835632
1782986666342284500,0.884284423828125,-0.3763679265975952,-0.9805857539176941,-0.5765811800956726
1782986666352358400,0.8943583984375,-0.3017961382865906,-0.94136643409729,-0.4219051003456116
1782986666362432500,0.9044326171875,-0.2849753499031067,-0.7180137634277344,-0.18937307596206665
1782986666372507400,0.91450732421875,-0.35820692777633667,-0.2045290768146515,0.14208444952964783
1782986666382581500,0.92458154296875,-0.5164607167243958,0.33128535747528076,0.46984899044036865
1782986666392655400,0.9346552734375,-0.7019352912902832,0.6152299046516418,0.7197427749633789
1782986666402730500,0.94473046875,-0.8888260722160339,0.4040660262107849,0.8081514835357666
1782986666412804400,0.954804443359375,-0.9274166226387024,-0.07900845259428024,0.7921209931373596
1782986666422878500,0.96487841796875,-0.8445534110069275,-0.4139227867126465,0.7974587678909302
1782986666432953300,0.974953369140625,-0.7382721304893494,-0.6420839428901672,0.8419641852378845
1782986666443027500,0.98502734375,-0.7206710577011108,-0.8141196370124817,0.8786958456039429
1782986666453101300,0.995101318359375,-0.8311629891395569,-0.7168415784835815,0.8739750385284424
1782986666463175400,1.005175537109375,-1.0056346654891968,-0.5201607346534729,0.8382071852684021
1782986666473250300,1.015250244140625,-1.0116357803344727,-0.40645092725753784,0.8187931180000305
1782986666483324400,1.025324462890625,-0.8564339280128479,-0.3575630187988281,0.9613239169120789
1782986666493398500,1.0353984375,-0.6486126780509949,-0.48713982105255127,1.246692180633545
1782986666503473400,1.045473388671875,-0.39120349287986755,-0.4933420717716217,1.5289620161056519
1782986666513547500,1.055547607421875,-0.14525902271270752,-0.5065730810165405,1.6217681169509888
1782986666523621400,1.065621337890625,0.07920364290475845,-1.0880907773971558,1.4440466165542603
1782986666533696500,1.075696533203125,0.2604001462459564,-1.784108281135559,1.2391719818115234
1782986666543770400,1.085770263671875,0.40068507194519043,-1.9777052402496338,1.1152832508087158
1782986666553844500,1.095844482421875,0.4708598554134369,-1.5957015752792358,0.879037082195282
1782986666563918300,1.10591845703125,0.40960556268692017,-1.2649444341659546,0.24354109168052673
1782986666573993500,1.115993408203125,0.1604793667793274,-1.2880275249481201,-0.9655386805534363
1782986666584067300,1.1260673828125,-0.17759054899215698,-1.4372124671936035,-2.3904826641082764
1782986666594141400,1.136141357421875,-0.5701220631599426,-1.1280252933502197,-3.292511463165283
1782986666604216300,1.14621630859375,-0.952186644077301,-0.5647369027137756,-3.4846930503845215
1782986666614290400,1.15629052734375,-1.134389042854309,0.025863945484161377,-3.0077011585235596
1782986666624364300,1.1663642578125,-1.2109419107437134,0.4686003625392914,-2.225850820541382
1782986666634439400,1.176439453125,-1.306846022605896,0.6521778702735901,-1.564871072769165
1782986666644513300,1.18651318359375,-1.390222191810608,0.7456969022750854,-1.2362393140792847
1782986666654587400,1.19658740234375,-1.4213858842849731,0.9661827683448792,-1.2127692699432373
1782986666664661500,1.20666162109375,-1.423850178718567,1.306594967842102,-1.2763519287109375
1782986666674736400,1.216736328125,-1.3415189981460571,1.5421969890594482,-1.212001919746399
1782986666684810500,1.226810546875,-1.2566554546356201,1.3267744779586792,-1.0662657022476196
1782986666694884400,1.23688427734375,-1.176367163658142,0.8065881729125977,-0.8760233521461487
1782986666704959500,1.24695947265625,-1.0331295728683472,0.32616615295410156,-0.7058665156364441
1782986666715033300,1.257033447265625,-0.8867048025131226,-0.017296401783823967,-0.5459756255149841
1782986666725107500,1.267107421875,-0.7227656841278076,-0.27694714069366455,-0.34670165181159973
1782986666735182600,1.2771826171875,-0.5353726744651794,-0.49382221698760986,-0.057357240468263626
1782986666745256400,1.28725634765625,-0.4105234146118164,-0.6306671500205994,0.2550709843635559
1782986666755330300,1.297330322265625,-0.3527770936489105,-0.6976872682571411,0.4935437738895416
1782986666765404400,1.307404296875,-0.3384881913661957,-0.7578288912773132,0.5688859820365906
1782986666775479300,1.317479248046875,-0.3590173125267029,-0.8408880233764648,0.5466222167015076
1782986666785553400,1.327553466796875,-0.3879578709602356,-0.9125387668609619,0.4361649453639984
1782986666795627300,1.337627197265625,-0.38024377822875977,-0.9270786046981812,0.25626707077026367
1782986666805702400,1.347702392578125,-0.3438442051410675,-0.8587232828140259,0.06269548088312149
1782986666815776300,1.3577763671875,-0.3136782646179199,-0.7092840075492859,-0.11908929795026779
1782986666825850400,1.367850341796875,-0.3086209297180176,-0.5362592339515686,-0.24599690735340118
1782986666835924500,1.377924560546875,-0.27834686636924744,-0.3084102272987366,-0.24986550211906433
1782986666845999900,1.387999755859375,-0.22530096769332886,-0.07564353197813034,-0.17459125816822052
1782986666856074000,1.398073974609375,-0.22617971897125244,0.07213371992111206,-0.058767832815647125
1782986666866147800,1.40814794921875,-0.29553642868995667,0.11340659111738205,0.1772548109292984
1782986666876223000,1.418222900390625,-0.44463756680488586,0.03216894343495369,0.46869635581970215
1782986666886296800,1.428296875,-0.6205282211303711,-0.1405242681503296,0.6975671052932739
1782986666896371000,1.438370849609375,-0.7627243399620056,-0.3390076756477356,0.7741444706916809
1782986666906446000,1.448446044921875,-0.8032971024513245,-0.4143085777759552,0.7354015707969666
1782986666916520000,1.45852001953125,-0.770082950592041,-0.35017362236976624,0.5968093872070312
1782986666926593800,1.46859375,-0.7247599363327026,-0.1825132519006729,0.4045296609401703
1782986666936668000,1.47866796875,-0.6732868552207947,-0.022735387086868286,0.19608567655086517
1782986666946742800,1.48874267578125,-0.645761251449585,0.07925169914960861,-0.007069569081068039
1782986666956817000,1.49881689453125,-0.6466544270515442,0.06701264530420303,-0.18487301468849182
1782986666966890800,1.508890869140625,-0.6669341325759888,0.01896229200065136,-0.3607447147369385
1782986666976966000,1.5189658203125,-0.6830942034721375,-0.1914287656545639,-0.5638389587402344
1782986666987039700,1.529039794921875,-0.6503069400787354,-0.32846757769584656,-0.500427782535553
1782986666997113900,1.53911376953125,-0.5999893546104431,0.05016791820526123,-0.15047819912433624
1782986667007188700,1.549188720703125,-0.5441410541534424,0.4457213580608368,0.281729131937027
1782986667017262800,1.559262939453125,-0.4812255799770355,0.7530802488327026,0.8225101232528687
1782986667027337000,1.5693369140625,-0.29887068271636963,0.7989364266395569,1.25210440158844
1782986667037411000,1.5794111328125,0.019629299640655518,0.3503183126449585,1.250268578529358
1782986667047486000,1.58948583984375,0.36788955330848694,-0.33796873688697815,0.7941442131996155
1782986667057560000,1.59956005859375,0.6238139271736145,-0.9096154570579529,0.12154955416917801
1782986667067634000,1.609634033203125,0.8050470948219299,-1.312014102935791,-0.6156890392303467
1782986667077709000,1.619708984375,1.0077896118164062,-1.571014642715454,-1.2234266996383667
1782986667087783000,1.629782958984375,1.0749026536941528,-1.4321411848068237,-1.5376759767532349
1782986667097856800,1.639856689453125,0.9916770458221436,-0.7527605295181274,-1.4178498983383179
1782986667107932000,1.649931884765625,0.8492631912231445,-0.13938629627227783,-0.9268053770065308
1782986667118005800,1.660005859375,0.771098256111145,0.2054823338985443,-0.3450028598308563
1782986667128080000,1.670079833984375,0.845822811126709,-0.04917604848742485,-0.20075462758541107
1782986667138153700,1.68015380859375,1.051483154296875,-0.8590527772903442,-0.6394327282905579
1782986667148228900,1.690228759765625,1.1429775953292847,-1.8191193342208862,-1.7777793407440186
1782986667158302700,1.700302734375,1.0177556276321411,-2.7676210403442383,-3.7378790378570557
1782986667168376800,1.710376953125,0.67256098985672,-2.821035623550415,-5.77162504196167
1782986667178451700,1.72045166015625,0.2548789381980896,-0.3728789985179901,-6.44558048248291
1782986667188525800,1.73052587890625,-0.1724497675895691,2.675142765045166,-5.766712665557861
1782986667198600000,1.740599853515625,-0.7195159792900085,4.673366069793701,-4.417397499084473
1782986667208674800,1.7506748046875,-1.180270791053772,5.691817283630371,-2.761350393295288
1782986667218749000,1.7607490234375,-1.4098639488220215,5.502334117889404,-1.289372205734253
1782986667228823000,1.770822998046875,-1.3926273584365845,4.334539890289307,-0.22035832703113556
1782986667238897000,1.78089697265625,-1.207627773284912,2.763341188430786,0.48882606625556946
1782986667248972000,1.790971923828125,-1.0367237329483032,1.034692406654358,0.9220603704452515
1782986667259046000,1.8010458984375,-0.8739837408065796,-0.44849157333374023,1.1427544355392456
1782986667269120000,1.8111201171875,-0.7185052037239075,-1.318496823310852,1.1208691596984863
1782986667279195000,1.82119482421875,-0.5130759477615356,-1.51357901096344,0.851589560508728
1782986667289269000,1.83126904296875,-0.21572043001651764,-1.1088720560073853,0.3207179605960846
1782986667299342800,1.8413427734375,0.1097092553973198,-0.21138183772563934,-0.20347881317138672
1782986667309416700,1.851416748046875,0.29155468940734863,0.6360642313957214,-0.4445265829563141
1782986667319491800,1.861491943359375,0.25474968552589417,0.944341242313385,-0.3516179919242859
1782986667329565700,1.871565673828125,0.10099606961011887,0.8140103816986084,-0.004777485504746437
1782986667339639800,1.881639892578125,-0.042279597371816635,0.478583961725235,0.4605414569377899
1782986667349714700,1.891714599609375,-0.0869717001914978,0.015107125043869019,0.8846685290336609
1782986667359788800,1.901788818359375,-0.0072967298328876495,-0.4495890736579895,1.1965614557266235
1782986667369863000,1.91186279296875,0.15083111822605133,-0.7605397701263428,1.431710124015808
1782986667379937800,1.921937744140625,0.27994975447654724,-0.991038978099823,1.6086335182189941
1782986667390012000,1.932011962890625,-0.0497402586042881,-0.995297372341156,1.9100176095962524
1782986667400086000,1.9420859375,-0.3195485770702362,-1.1158792972564697,2.1162943840026855
1782986667410159900,1.952159912109375,-0.2861783802509308,-0.7798283696174622,2.1800241470336914
1782986667420235000,1.962235107421875,0.10010696202516556,-0.09047885239124298,2.2328836917877197
1782986667430308900,1.972308837890625,0.500372588634491,0.494510293006897,2.159144163131714
1782986667440383000,1.982383056640625,0.48441582918167114,0.6030757427215576,2.0077078342437744
1782986667450457900,1.992457763671875,0.2473689466714859,0.5829505324363708,1.9348539113998413
1782986667460532000,2.002531982421875,-0.08267073333263397,0.4315286874771118,1.9169076681137085
1782986667470605800,2.012605712890625,-0.45254093408584595,0.013347689993679523,1.851547360420227
1782986667480681000,2.022680908203125,-0.8165982365608215,-0.5645849108695984,1.5992282629013062
1782986667490754800,2.0327548828125,-1.0767501592636108,-1.0953489542007446,1.1731078624725342
1782986667500829000,2.042828857421875,-1.2547762393951416,-1.2443734407424927,0.7062183022499084
1782986667510902800,2.05290283203125,-1.424638032913208,-1.2851691246032715,0.010884230956435204
1782986667520978000,2.06297802734375,-1.2514320611953735,-1.527585744857788,-0.104789599776268
1782986667531051800,2.0730517578125,-0.684825599193573,-1.8858695030212402,0.258992075920105
1782986667541126000,2.0831259765625,-0.0683668926358223,-2.385024070739746,1.0523509979248047
1782986667551200800,2.09320068359375,0.0008790205465629697,-1.4102575778961182,1.915399193763733
1782986667561275000,2.10327490234375,-0.02750098705291748,0.9523899555206299,2.797489881515503
1782986667571349000,2.113348876953125,0.14754033088684082,2.4165780544281006,3.176215887069702
1782986667581422800,2.1234228515625,0.524054229259491,2.2702221870422363,2.9581551551818848
1782986667591498000,2.133498046875,0.987531304359436,1.1300804615020752,2.392009973526001
1782986667601571800,2.14357177734375,1.1592628955841064,-0.05070829764008522,1.5488450527191162
1782986667611646000,2.15364599609375,1.1446772813796997,-0.46715211868286133,0.6666581034660339
1782986667621720800,2.163720947265625,1.3396803140640259,-0.4436967074871063,-0.09669864922761917
1782986667631795000,2.173794921875,1.6697229146957397,-0.9331622123718262,-0.8806427121162415
1782986667641868800,2.183868896484375,1.8663005828857422,-2.068692207336426,-1.661568284034729
1782986667651944000,2.19394384765625,1.8287683725357056,-1.8922772407531738,-2.0262818336486816
1782986667662017800,2.204017822265625,1.7088587284088135,-0.5261780023574829,-1.797088861465454
1782986667672092000,2.214091796875,1.4170881509780884,0.6461425423622131,-1.2237664461135864
1782986667682165800,2.224165771484375,0.8984540700912476,1.5637990236282349,-0.6620445847511292
1782986667692241000,2.234240966796875,0.32104721665382385,2.2973434925079346,-0.49210238456726074
1782986667702314800,2.244314697265625,-0.17068292200565338,2.7992000579833984,-0.7580167055130005
1782986667712388900,2.254388916015625,-0.5457279086112976,3.349749803543091,-0.9095945358276367
1782986667722463700,2.264463623046875,-0.7952183485031128,3.5417487621307373,-0.8496406078338623
1782986667732537900,2.274537841796875,-1.28147292137146,3.1274468898773193,-0.47608011960983276
1782986667742612000,2.284612060546875,-1.7874406576156616,2.231058120727539,0.16228529810905457
1782986667752687000,2.29468701171875,-2.053318738937378,1.1454709768295288,0.7940004467964172
1782986667762761000,2.304760986328125,-2.168576717376709,0.39372387528419495,1.28770112991333
1782986667772834800,2.314834716796875,-2.2527546882629395,-0.14880172908306122,1.4989665746688843
1782986667782909000,2.324908935546875,-2.1656858921051025,-0.5005711913108826,1.3229620456695557
1782986667792983800,2.33498388671875,-1.8995463848114014,-0.5827829837799072,0.8423994183540344
1782986667803058000,2.345057861328125,-1.5828039646148682,-0.5261113047599792,0.20574595034122467
1782986667813131800,2.3551318359375,-1.2407007217407227,-0.596220076084137,-0.4047706723213196
1782986667823207000,2.36520703125,-0.8682310581207275,-0.9491158127784729,-0.8667537569999695
1782986667833280800,2.37528076171875,-0.5970786213874817,-1.3168352842330933,-1.1596918106079102
1782986667843355000,2.38535498046875,-0.5551732778549194,-1.4228957891464233,-1.2845385074615479
1782986667853428500,2.395428466796875,-0.6086263656616211,-1.495402216911316,-1.2540078163146973
1782986667863503400,2.40550341796875,-0.6456595659255981,-1.5411189794540405,-1.0788394212722778
1782986667873577500,2.415577392578125,-0.747597873210907,-1.2414100170135498,-0.7661987543106079
1782986667883651300,2.4256513671875,-0.889132559299469,-0.8321259021759033,-0.38641443848609924
1782986667893726500,2.4357265625,-0.9898098707199097,-0.43530696630477905,-0.029900815337896347
1782986667903800300,2.44580029296875,-1.0550217628479004,-0.10353770852088928,0.22562500834465027
1782986667913874400,2.45587451171875,-1.065660834312439,0.09437777101993561,0.2836363911628723
1782986667923949600,2.465949462890625,-1.0294551849365234,0.21278083324432373,0.2394087016582489
1782986667934023400,2.4760234375,-1.0027927160263062,0.3018398582935333,0.129177525639534
1782986667944097300,2.48609716796875,-0.9586536884307861,0.3652445375919342,-0.018701625987887383
1782986667954171400,2.49617138671875,-0.8907696604728699,0.39544424414634705,-0.23180244863033295
1782986667964246300,2.506246337890625,-0.7872618436813354,0.3937186002731323,-0.45692503452301025
1782986667974320400,2.5163203125,-0.6851967573165894,0.37626662850379944,-0.647695004940033
1782986667984394200,2.526394287109375,-0.64935702085495,0.32650861144065857,-0.8849908113479614
1782986667994469400,2.536469482421875,-0.6327838897705078,0.08979033678770065,-1.1826478242874146
1782986668004543200,2.546543212890625,-0.6047195196151733,-0.39775747060775757,-1.4091397523880005
1782986668014617300,2.556617431640625,-0.5686390399932861,-0.8463214039802551,-1.4514923095703125
1782986668024692200,2.566692138671875,-0.5213230848312378,-1.263943076133728,-1.3341935873031616
1782986668034766300,2.576766357421875,-0.441290020942688,-1.6864149570465088,-1.1011033058166504
1782986668044840400,2.58684033203125,-0.4021948575973511,-1.8501893281936646,-0.8234037160873413
1782986668054914600,2.59691455078125,-0.4213951826095581,-1.5119473934173584,-0.4054357409477234
1782986668064989400,2.606989501953125,-0.5430678725242615,-1.0261424779891968,-0.07547369599342346
1782986668075063600,2.6170634765625,-0.5514712333679199,-0.5176907181739807,-0.028773300349712372
1782986668085137400,2.627137451171875,-0.3584636449813843,0.22825106978416443,-0.0951247587800026
1782986668095212500,2.637212646484375,-0.2532599866390228,0.9316454529762268,-0.07837214320898056
1782986668105286400,2.647286376953125,-0.4069662094116211,1.59418523311615,-0.15474912524223328
1782986668115360300,2.6573603515625,-0.4512564539909363,1.9025212526321411,-0.2446843385696411
1782986668125434400,2.667434326171875,-0.33379873633384705,1.7131680250167847,-0.18388774991035461
1782986668135509200,2.67750927734375,0.01610468327999115,1.302131175994873,-0.23517490923404694
1782986668145583400,2.687583251953125,0.22961951792240143,0.8445910215377808,-0.6613379716873169
1782986668155657200,2.6976572265625,0.3067268431186676,0.9981763362884521,-1.1848763227462769
1782986668165732400,2.707732421875,0.4420495331287384,1.318379521369934,-1.5579044818878174
1782986668175806200,2.71780615234375,0.646012544631958,1.5702626705169678,-1.6356014013290405
1782986668185880300,2.72788037109375,0.6717138290405273,1.634527325630188,-1.4493613243103027
1782986668195955200,2.737955078125,0.4563024640083313,1.4022389650344849,-1.2795193195343018
1782986668206029300,2.748029296875,0.19489438831806183,0.9711944460868835,-1.286076307296753
1782986668216103400,2.758103515625,0.016203192993998528,0.6324483156204224,-1.2498365640640259
1782986668226177500,2.768177490234375,-0.08010990172624588,0.36269932985305786,-0.852885365486145
1782986668236252400,2.77825244140625,-0.12128423899412155,0.23595260083675385,-0.08018489181995392
1782986668246326500,2.788326416015625,-0.15412013232707977,0.08397597819566727,0.77824467420578
1782986668256400400,2.798400390625,-0.15851114690303802,-0.17553256452083588,1.5321249961853027
1782986668266475500,2.8084755859375,-0.1325685977935791,-0.41660836338996887,2.0042169094085693
1782986668276549400,2.81854931640625,-0.041786495596170425,-0.5509189963340759,2.0792360305786133
1782986668286623500,2.82862353515625,0.023748572915792465,-0.6583716869354248,1.7396358251571655
1782986668296697300,2.838697265625,0.06876345723867416,-0.6789957284927368,1.1086053848266602
1782986668306772500,2.8487724609375,0.1891893893480301,-0.6111521124839783,0.366613507270813
1782986668316846300,2.858846435546875,0.29467669129371643,-0.6030185222625732,-0.30969172716140747
1782986668326920200,2.868920166015625,0.2943982779979706,-0.5704437494277954,-0.8074705004692078
1782986668336995300,2.878995361328125,0.24012066423892975,-0.49854475259780884,-1.1121339797973633
1782986668347069200,2.889069091796875,0.1613614857196808,-0.442120224237442,-1.1683475971221924
1782986668357143300,2.899143310546875,0.009828419424593449,-0.369718998670578,-0.9385996460914612
1782986668367218200,2.90921826171875,-0.21084865927696228,-0.26561397314071655,-0.5104578733444214
1782986668377292300,2.919292236328125,-0.4323224723339081,-0.33275893330574036,-0.0325554721057415
1782986668387366400,2.929366455078125,-0.6155862212181091,-0.5143964886665344,0.3526802062988281
1782986668397440500,2.9394404296875,-0.7607817649841309,-0.6846188306808472,0.5803783535957336
1782986668407515400,2.949515380859375,-0.856244683265686,-0.7788210511207581,0.6573613286018372
1782986668417589500,2.959589599609375,-0.9003269076347351,-0.8310041427612305,0.6127339005470276
1782986668427663400,2.969663330078125,-0.87060546875,-0.9312847256660461,0.46240076422691345
1782986668437738500,2.979738525390625,-0.8078392744064331,-1.0042369365692139,0.2880563735961914
1782986668447812400,2.989812255859375,-0.7317362427711487,-0.9925432801246643,0.14303171634674072
1782986668457886500,2.999886474609375,-0.644670844078064,-0.9343848824501038,0.0516623854637146
1782986668467960300,3.009960205078125,-0.5615405440330505,-0.8669715523719788,-0.0011770924320444465
1782986668478035500,3.020035400390625,-0.4722614884376526,-0.8247799277305603,0.0039699990302324295
1782986668488109300,3.030109375,-0.37802594900131226,-0.7733663320541382,0.05766984447836876
1782986668498183200,3.04018310546875,-0.2695807218551636,-0.7009674906730652,0.17004592716693878
1782986668508258300,3.05025830078125,-0.13620494306087494,-0.6735715866088867,0.34839218854904175
1782986668518332400,3.06033251953125,0.025981834158301353,-0.693722128868103,0.58553546667099
1782986668528406300,3.07040625,0.2060653567314148,-0.6963425874710083,0.838620126247406
1782986668538480400,3.08048046875,0.4060189425945282,-0.820471465587616,1.0497422218322754
1782986668548555300,3.09055517578125,0.632567286491394,-1.1050275564193726,1.1825343370437622
1782986668558629400,3.10062939453125,0.8572863936424255,-1.381276249885559,1.2324904203414917
1782986668568703500,3.110703369140625,1.0352528095245361,-1.4665138721466064,1.2376388311386108
1782986668578778400,3.1207783203125,1.052264928817749,-1.0767303705215454,1.2168012857437134
1782986668588852500,3.1308525390625,0.9836326241493225,-0.2757743299007416,1.2010765075683594
1782986668598926300,3.14092626953125,0.989422082901001,0.38591280579566956,1.1780140399932861
1782986668609001500,3.15100146484375,0.873287558555603,0.7522484660148621,0.9592498540878296
1782986668619075300,3.161075439453125,0.4657973349094391,0.9522662162780762,0.5995540022850037
1782986668629149400,3.1711494140625,0.06832517683506012,0.8864014744758606,0.20015950500965118
1782986668639223300,3.181223388671875,-0.10524767637252808,0.6371141672134399,-0.18513597548007965
1782986668649298400,3.19129833984375,-0.044964101165533066,0.48616158962249756,-0.36747676134109497
1782986668659372300,3.201372314453125,0.06454268842935562,0.5705214738845825,-0.50808185338974
1782986668669446400,3.2114462890625,0.09276953339576721,0.5017305016517639,-0.779090940952301
1782986668679521300,3.221521240234375,-0.055544301867485046,0.4167783558368683,-1.1656280755996704
1782986668689595400,3.231595458984375,-0.055046409368515015,0.4853213429450989,-1.5527315139770508
1782986668699669200,3.241669189453125,0.16069839894771576,0.6365406513214111,-1.666139841079712
1782986668709743400,3.251743408203125,0.4289143979549408,0.6768584251403809,-1.3883150815963745
1782986668719818200,3.261818359375,0.6679794192314148,0.5295472741127014,-0.834893524646759
1782986668729892400,3.271892333984375,0.8653307557106018,0.4758951961994171,-0.19900572299957275
1782986668739966500,3.281966552734375,0.8686895370483398,0.6586537957191467,0.2726278603076935
1782986668750041300,3.292041259765625,0.7618963122367859,0.9409971237182617,0.3606216609477997
1782986668760115500,3.302115478515625,0.6369815468788147,1.0123741626739502,0.05342496559023857
1782986668770189300,3.312189208984375,0.5202071666717529,0.8353273868560791,-0.33754095435142517
1782986668780264400,3.322264404296875,0.40365684032440186,0.6725366115570068,-0.47859156131744385
1782986668790338300,3.33233837890625,0.23101916909217834,0.42728492617607117,-0.37008136510849
1782986668800412400,3.342412353515625,0.034136995673179626,0.09464892745018005,-0.1065077930688858
1782986668810486300,3.352486328125,-0.15656815469264984,-0.14314068853855133,0.20691286027431488
1782986668820561400,3.3625615234375,-0.3428080677986145,-0.20687945187091827,0.47178179025650024
1782986668830635300,3.37263525390625,-0.47363901138305664,-0.2364523857831955,0.5386933088302612
1782986668840709400,3.38270947265625,-0.5512421727180481,-0.2342427521944046,0.3273501992225647
1782986668850784500,3.392784423828125,-0.5586466193199158,-0.2566429078578949,-0.09288773685693741
1782986668860858600,3.402858642578125,-0.4882201552391052,-0.3815036416053772,-0.5660648941993713
1782986668870932500,3.412932373046875,-0.39431384205818176,-0.4851227104663849,-0.8960481882095337
1782986668881006600,3.423006591796875,-0.3114525079727173,-0.5061872601509094,-0.995561957359314
1782986668891081500,3.43308154296875,-0.24495592713356018,-0.5123015642166138,-0.9050509333610535
1782986668901155600,3.443155517578125,-0.18681539595127106,-0.49996212124824524,-0.7255533933639526
1782986668911229700,3.453229736328125,-0.14935201406478882,-0.4537312388420105,-0.5689366459846497
1782986668921304600,3.4633046875,-0.13663461804389954,-0.4087003767490387,-0.47702908515930176
1782986668931378700,3.473378662109375,-0.12720879912376404,-0.41829559206962585,-0.44220370054244995
1782986668941452500,3.48345263671875,-0.14364929497241974,-0.43603089451789856,-0.46448132395744324
1782986668951526700,3.493526611328125,-0.15020419657230377,-0.3922729790210724,-0.4771340787410736
1782986668961601500,3.5036015625,-0.15070699155330658,-0.28717663884162903,-0.4163825809955597
1782986668971675600,3.513675537109375,-0.13921412825584412,-0.16369545459747314,-0.2621093690395355
1782986668981749500,3.52374951171875,-0.08808596432209015,-0.037175603210926056,-0.020583314821124077
1782986668991824600,3.53382470703125,-0.012784860096871853,0.1028623953461647,0.295274019241333
1782986669001898500,3.5438984375,0.08403515815734863,0.29738447070121765,0.6319984793663025
1782986669011972600,3.55397265625,0.1940712034702301,0.5039493441581726,0.8952957987785339
1782986669022047500,3.564047607421875,0.31046438217163086,0.6024159789085388,1.0512323379516602
1782986669032121600,3.57412158203125,0.45215386152267456,0.5409634113311768,1.1551127433776855
1782986669042195500,3.584195556640625,0.5646622776985168,0.34862515330314636,1.18878972530365
1782986669052269800,3.594269775390625,0.5997936725616455,-0.1927780956029892,1.160305380821228
1782986669062344400,3.604344482421875,0.6345828175544739,-1.0983079671859741,1.0436532497406006
1782986669072418800,3.614418701171875,0.6854848861694336,-2.183209180831909,0.765121579170227
1782986669082492700,3.62449267578125,0.6912881731987,-2.792306423187256,0.40205734968185425
1782986669092567800,3.63456787109375,0.7144232392311096,-2.4824225902557373,0.1658816933631897
1782986669102641700,3.6446416015625,0.6959648728370667,-1.553863763809204,0.1655951291322708
1782986669112715800,3.6547158203125,0.4686098098754883,-0.46164825558662415,0.2729302644729614
1782986669122789600,3.66478955078125,0.2168327122926712,0.7160127758979797,0.4260883927345276
1782986669132864800,3.67486474609375,0.021620795130729675,1.870166301727295,0.438467413187027
1782986669142938600,3.684938720703125,-0.07622640579938889,2.297811269760132,0.49544548988342285
1782986669153012500,3.695012451171875,-0.08242092281579971,2.0851078033447266,0.5998831987380981
1782986669163087600,3.705087646484375,-0.16832411289215088,1.120583415031433,0.5541948080062866
1782986669173161500,3.715161376953125,-0.3268534243106842,-0.10450030863285065,0.33041250705718994
1782986669183235600,3.725235595703125,-0.33778756856918335,-1.0232990980148315,0.04403161257505417
1782986669193310500,3.735310546875,-0.11625045537948608,-1.748523235321045,-0.2898247241973877
1782986669203384600,3.745384521484375,0.2818830609321594,-2.22941517829895,-0.7670024633407593
1782986669213458400,3.75545849609375,0.7358447313308716,-2.1892812252044678,-1.321635127067566
1782986669223532800,3.76553271484375,1.0977824926376343,-1.9216907024383545,-1.4742236137390137
1782986669233607400,3.775607421875,1.2153818607330322,-1.5243277549743652,-0.9309040307998657
1782986669243681800,3.785681884765625,1.1194119453430176,-0.8759734034538269,0.0298870000988245
1782986669253755600,3.795755615234375,0.8643863797187805,-0.08032263815402985,0.746221125125885
1782986669263830800,3.805830810546875,0.5204039812088013,0.8890573382377625,0.7384175658226013
1782986669273904600,3.815904541015625,0.2163887619972229,1.9063670635223389,0.13510659337043762
1782986669283978800,3.825978759765625,-0.0474117286503315,2.433941125869751,-0.502597987651825
1782986669294052600,3.836052490234375,-0.22318844497203827,2.505101442337036,-0.6433038711547852
1782986669304127700,3.846127685546875,-0.28844785690307617,2.3344886302948,-0.14694306254386902
1782986669314201600,3.85620166015625,-0.2206925004720688,2.033966064453125,0.7752891182899475
1782986669324275700,3.866275634765625,-0.15899372100830078,1.6561040878295898,1.744566559791565
1782986669334350600,3.8763505859375,-0.0367325022816658,1.2985252141952515,2.48708438873291
1782986669344424700,3.8864248046875,0.1531713902950287,1.0538616180419922,2.753786087036133
1782986669354498600,3.89649853515625,0.24025322496891022,0.7265192270278931,2.5294766426086426
1782986669364573700,3.90657373046875,0.2144772857427597,0.5034864544868469,1.878696322441101
1782986669374647600,3.9166474609375,0.0787731260061264,0.2662450969219208,0.9416727423667908
1782986669384721400,3.926721435546875,-0.12521542608737946,0.13723041117191315,-0.09413443505764008
1782986669394795800,3.936795654296875,-0.3212500214576721,0.1572265625,-0.9808685779571533
1782986669404870400,3.946870361328125,-0.47577807307243347,0.13522805273532867,-1.5049052238464355
1782986669414944800,3.95694482421875,-0.5873623490333557,0.15940019488334656,-1.6183497905731201
1782986669425018600,3.9670185546875,-0.6582711338996887,0.20637115836143494,-1.39083993434906
1782986669435093800,3.97709375,-0.7304800748825073,0.2042897641658783,-0.9563291668891907
1782986669445167600,3.987167724609375,-0.8253434896469116,0.1152256578207016,-0.43671366572380066
1782986669455241700,3.99724169921875,-0.9008601307868958,0.07911315560340881,0.03199058026075363
1782986669465315600,4.007315673828125,-0.9500399231910706,0.04975100979208946,0.3177994191646576
1782986669475390700,4.017390625,-0.9851003289222717,-0.05324067175388336,0.3907190263271332
1782986669485464600,4.027464599609375,-0.9974967837333679,-0.1858072280883789,0.31445541977882385
1782986669495538700,4.03753857421875,-0.9275963306427002,-0.2065393179655075,0.14866483211517334
1782986669505613600,4.047613525390625,-0.8122676610946655,-0.16406989097595215,-0.07686576247215271
1782986669515687700,4.057687744140625,-0.6644488573074341,-0.12649202346801758,-0.29636117815971375
1782986669525761500,4.067761474609375,-0.5300319194793701,-0.0933641567826271,-0.4539166986942291
1782986669535835400,4.07783544921875,-0.4362545907497406,-0.03930675983428955,-0.5087066888809204
1782986669545910500,4.08791064453125,-0.4132520854473114,-0.021212175488471985,-0.4558125436306
1782986669555984400,4.097984375,-0.4157007336616516,-0.015619349665939808,-0.33709999918937683
1782986669566058800,4.108058837890625,-0.42579492926597595,-0.07902920991182327,-0.1868351399898529
1782986669576133600,4.118133544921875,-0.40799564123153687,-0.21392980217933655,0.03562556579709053
1782986669586207700,4.128207763671875,-0.3494223356246948,-0.33084365725517273,0.26308614015579224
1782986669596281600,4.138281494140625,-0.27448809146881104,-0.4617140591144562,0.43948954343795776
1782986669606356700,4.148356689453125,-0.19826842844486237,-0.6594729423522949,0.518444836139679
1782986669616430600,4.1584306640625,-0.15776222944259644,-0.9001420736312866,0.5201395153999329
1782986669626504700,4.168504638671875,-0.1495186686515808,-1.0472966432571411,0.4848126471042633
1782986669636578600,4.17857861328125,-0.12712199985980988,-1.0292587280273438,0.47247183322906494
1782986669646653700,4.18865380859375,-0.16653385758399963,-0.9283539056777954,0.5035791397094727
1782986669656727600,4.1987275390625,-0.23100940883159637,-0.7013177275657654,0.5504018068313599
1782986669666801700,4.2088017578125,-0.27683335542678833,-0.29779931902885437,0.5514929294586182
1782986669676876500,4.21887646484375,-0.2496630996465683,0.3038717806339264,0.4354184865951538
1782986669686950700,4.22895068359375,-0.1612834334373474,0.5033974051475525,0.19669803977012634
1782986669697024500,4.2390244140625,-0.2241862267255783,0.09729856997728348,-0.07810313254594803
1782986669707098600,4.2490986328125,-0.36821985244750977,-0.3888865113258362,-0.4213675558567047
1782986669717173500,4.259173583984375,-0.36330750584602356,-0.22586993873119354,-0.4712925851345062
1782986669727247600,4.26924755859375,-0.24024708569049835,0.34223824739456177,-0.5215490460395813
1782986669737321700,4.27932177734375,-0.10525741428136826,0.9220399260520935,-0.7490123510360718
1782986669747396600,4.289396728515625,-0.015957098454236984,1.3823907375335693,-1.0249017477035522
1782986669757470700,4.299470703125,0.1498592644929886,2.0595340728759766,-1.0972168445587158
1782986669767544600,4.309544677734375,0.37422898411750793,2.6985599994659424,-1.0690017938613892
1782986669777619700,4.31961962890625,0.6917866468429565,3.3215487003326416,-0.7075361013412476
1782986669787693600,4.329693603515625,0.809204638004303,3.394644021987915,-0.027250006794929504
1782986669797767700,4.339767578125,0.6393789052963257,2.8303329944610596,0.8672708868980408
1782986669807841500,4.349841552734375,0.3021281659603119,2.0541257858276367,1.4320460557937622
1782986669817916700,4.359916748046875,0.05929051339626312,1.130358099937439,1.351251244544983
1782986669827990500,4.369990478515625,0.056824691593647,0.4592024087905884,0.7132071256637573
1782986669838064600,4.380064697265625,0.2926386594772339,-0.04845138266682625,-0.138414204120636
1782986669848140000,4.39014013671875,0.3722418546676636,-0.6179678440093994,-0.40812769532203674
1782986669858214000,4.4002138671875,0.341781347990036,-1.1392086744308472,0.12997514009475708
1782986669868288000,4.4102880859375,0.2923964858055115,-1.3881289958953857,0.8614419102668762
1782986669878361900,4.42036181640625,0.3583158552646637,-1.2650821208953857,1.4949126243591309
1782986669888437000,4.43043701171875,0.30046185851097107,-1.0712628364562988,1.801190733909607
1782986669898510800,4.4405107421875,0.22599276900291443,-0.7954923510551453,1.6071377992630005
1782986669908585000,4.4505849609375,0.22100067138671875,-0.3787481486797333,0.9396460056304932
1782986669918659800,4.460659912109375,0.1537974625825882,-0.031387556344270706,0.06762222945690155
1782986669928734000,4.47073388671875,0.04805958271026611,0.19077439606189728,-0.6980778574943542
1782986669938808000,4.48080810546875,-0.05633819103240967,0.31263914704322815,-1.173287034034729
1782986669948882200,4.490882080078125,-0.1932198703289032,0.31775614619255066,-1.3567439317703247
1782986669958957000,4.50095703125,-0.2937951982021332,0.253944993019104,-1.29215407371521
1782986669969031200,4.51103125,-0.32219406962394714,0.14269517362117767,-1.053574562072754
1782986669979105000,4.52110498046875,-0.2796071171760559,0.03607627749443054,-0.6814825534820557
1782986669989180200,4.53118017578125,-0.26358845829963684,0.07605431228876114,-0.24776841700077057
1782986669999254000,4.54125390625,-0.25676965713500977,0.10154320299625397,0.07095346599817276
1782986670009327900,4.551327880859375,-0.24368900060653687,-0.0038798940367996693,0.19991090893745422
1782986670019403000,4.561403076171875,-0.22211837768554688,-0.22077852487564087,0.11968303471803665
1782986670029476900,4.571476806640625,-0.22747719287872314,-0.5191356539726257,-0.0635182112455368
1782986670039551000,4.581551025390625,-0.19784222543239594,-0.6875129342079163,-0.3679385185241699
1782986670049624800,4.591624755859375,-0.2082647681236267,-0.8711019158363342,-0.6512975692749023
1782986670059700000,4.601699951171875,-0.2258952260017395,-1.01397705078125,-0.8754346370697021
1782986670069773800,4.61177392578125,-0.23723816871643066,-1.2056831121444702,-1.0155946016311646
1782986670079848000,4.621847900390625,-0.22295761108398438,-1.3876869678497314,-1.0550379753112793
1782986670089922800,4.6319228515625,-0.17185235023498535,-1.541810393333435,-0.9951397180557251
1782986670099997000,4.641996826171875,-0.10524171590805054,-1.6961854696273804,-0.8791280388832092
1782986670110071000,4.652071044921875,-0.06798674911260605,-1.823905110359192,-0.8080496191978455
1782986670120145200,4.662145263671875,-0.07602190226316452,-1.8845776319503784,-0.8854650855064392
1782986670130220000,4.672219970703125,-0.08746577054262161,-1.6871912479400635,-1.0265202522277832
1782986670140294100,4.682294189453125,-0.05385734513401985,-1.4349007606506348,-0.9735690355300903
1782986670150368000,4.692367919921875,0.11595646291971207,-1.2370907068252563,-0.8017722368240356
1782986670160443100,4.702443115234375,0.295230895280838,-0.9481345415115356,-0.49067187309265137
1782986670170517000,4.71251708984375,0.27149200439453125,-0.5277396440505981,-0.031940799206495285
1782986670180591000,4.722591064453125,0.16990290582180023,-0.1787269115447998,0.3676127791404724
1782986670190665000,4.7326650390625,0.14325451850891113,-0.088839091360569,0.5995917320251465
1782986670200740000,4.742739990234375,0.1804075688123703,-0.22879274189472198,0.7435722947120667
1782986670210814000,4.75281396484375,0.2753463387489319,-0.13432908058166504,0.8281425833702087
1782986670220887800,4.7628876953125,0.409732848405838,0.07749588042497635,0.9374244809150696
1782986670230963000,4.772962890625,0.4545045793056488,0.11832879483699799,0.9904813170433044
1782986670241036800,4.783036865234375,0.29584893584251404,0.03588126227259636,1.0134996175765991
1782986670251111000,4.79311083984375,0.002761945128440857,0.03750951960682869,0.9817220568656921
1782986670261185800,4.803185791015625,-0.03626396507024765,0.3409888744354248,0.7664019465446472
1782986670271260000,4.813260009765625,0.1504334807395935,0.8915071487426758,0.2755161225795746
1782986670281334000,4.823333984375,0.41667503118515015,1.270459771156311,-0.4141318202018738
1782986670291408100,4.833408203125,0.6468709111213684,1.4994993209838867,-1.152025580406189
1782986670301483000,4.84348291015625,0.680999755859375,1.5568959712982178,-1.605302095413208
1782986670311557000,4.85355712890625,0.5040827989578247,1.6100795269012451,-1.390260100364685
1782986670321631000,4.863630859375,0.130875363945961,1.3357237577438354,-0.5315719842910767
1782986670331706000,4.8737060546875,-0.28258809447288513,0.6742401719093323,0.35661542415618896
1782986670341780000,4.883780029296875,-0.6298660635948181,0.04132018983364105,0.8819859027862549
1782986670351854000,4.89385400390625,-0.8477200865745544,-0.4980229437351227,0.98642897605896
1782986670361928000,4.903927978515625,-0.8882095813751221,-0.8427502512931824,0.867662787437439
1782986670372003000,4.914003173828125,-0.765677809715271,-0.7678254246711731,0.8373136520385742
1782986670382077000,4.924076904296875,-0.6576637625694275,-0.4085584282875061,1.0305986404418945
1782986670392150800,4.93415087890625,-0.6153746247291565,-0.1119304895401001,1.2184311151504517
1782986670402226000,4.944225830078125,-0.5450619459152222,0.007233974523842335,1.2310385704040527
1782986670412299800,4.9542998046875,-0.4283960461616516,0.17904621362686157,1.0533699989318848
1782986670422374000,4.964373779296875,-0.30113914608955383,0.31753236055374146,0.6770434975624084
1782986670432449000,4.974448974609375,-0.1922406405210495,0.4076974093914032,0.08124084025621414
1782986670442523000,4.98452294921875,-0.11995993554592133,0.3969550132751465,-0.5917404890060425
1782986670452597000,4.994596923828125,-0.12405641376972198,0.2606046199798584,-1.1496127843856812
1782986670462671000,5.004671142578125,-0.1410606950521469,0.04009835794568062,-1.568957805633545
1782986670472746000,5.01474609375,-0.09939101338386536,-0.3520718216896057,-1.8042023181915283
1782986670482820000,5.024820068359375,-0.07477578520774841,-0.7967329621315002,-1.756994605064392
1782986670492894000,5.03489404296875,-0.13570064306259155,-1.1232720613479614,-1.5357111692428589
1782986670502969000,5.044968994140625,-0.21506330370903015,-1.338911771774292,-1.2169978618621826
1782986670513043000,5.05504296875,-0.30693838000297546,-1.363875389099121,-0.8798208832740784
1782986670523117000,5.065116943359375,-0.41410526633262634,-1.1843605041503906,-0.5081340074539185
1782986670533191000,5.07519091796875,-0.5078911781311035,-0.798200786113739,-0.18883375823497772
1782986670543266000,5.08526611328125,-0.5215131044387817,-0.532673180103302,-0.03572644665837288
1782986670553340000,5.09533984375,-0.4433296322822571,-0.2735646367073059,-0.11440661549568176
1782986670563414000,5.1054140625,-0.25523900985717773,0.09664567559957504,-0.24765266478061676
1782986670573489000,5.115489013671875,-0.13904954493045807,0.5325494408607483,-0.34166571497917175
1782986670583563000,5.12556298828125,-0.09611763805150986,0.7030636668205261,-0.3573102653026581
1782986670593636900,5.135636962890625,-0.08536406606435776,0.7430651783943176,-0.3509487807750702
1782986670603711000,5.1457109375,-0.11049589514732361,0.7991315722465515,-0.2722369432449341
1782986670613785900,5.155785888671875,-0.1583515703678131,0.782718300819397,-0.12223653495311737
1782986670623860000,5.16585986328125,-0.1686553806066513,0.7103031873703003,0.07702416926622391
1782986670633934000,5.17593408203125,-0.1464185118675232,0.6451857089996338,0.28612279891967773
1782986670644009000,5.186009033203125,-0.0792417898774147,0.5156381130218506,0.48395290970802307
1782986670654083000,5.1960830078125,0.02065790258347988,0.35924234986305237,0.5999727249145508
1782986670664157000,5.206156982421875,0.11293136328458786,0.14333684742450714,0.6496379971504211
1782986670674231000,5.21623095703125,0.15872521698474884,-0.11236734688282013,0.6550964117050171
1782986670684306000,5.226305908203125,0.1766553819179535,-0.37028029561042786,0.6381105184555054
1782986670694380000,5.236380126953125,0.1693814992904663,-0.558447539806366,0.6483902931213379
1782986670704454000,5.246453857421875,0.17075103521347046,-0.6588946580886841,0.7391965389251709
1782986670714529000,5.256529052734375,0.16517330706119537,-0.7383742928504944,0.886445939540863
1782986670724603000,5.266602783203125,0.18466007709503174,-0.8036838173866272,1.0121558904647827
1782986670734677000,5.276677001953125,0.2830883860588074,-0.9320992827415466,1.1228747367858887
1782986670744751900,5.286751953125,0.36078980565071106,-1.037324070930481,1.1442193984985352
1782986670754826000,5.296825927734375,0.35484403371810913,-1.0151727199554443,0.8943870067596436
1782986670764900000,5.306900146484375,0.35225680470466614,-0.8081802129745483,0.34519362449645996
1782986670774974200,5.31697412109375,0.26758185029029846,-0.4545994699001312,-0.3626096248626709
1782986670785049000,5.327049072265625,0.026799986138939857,0.11485885828733444,-0.7892107367515564
1782986670795123200,5.337123291015625,-0.3280944526195526,0.5699030756950378,-0.7865324020385742
1782986670805197000,5.347197021484375,-0.6379454135894775,0.7876511216163635,-0.4735749661922455
1782986670815272200,5.357272216796875,-0.7347688674926758,1.0138051509857178,-0.2609527111053467
1782986670825346000,5.367345947265625,-0.6398617029190063,1.216923475265503,-0.5724568963050842
1782986670835420000,5.377419921875,-0.40901461243629456,1.2883331775665283,-1.2018197774887085
1782986670845494000,5.387493896484375,-0.08473362028598785,1.321793794631958,-1.7138988971710205
1782986670855569200,5.397569091796875,0.3379811644554138,1.3258527517318726,-1.7639987468719482
1782986670865643300,5.407643310546875,0.641291081905365,1.3149877786636353,-1.1832716464996338
1782986670875717000,5.417717041015625,0.7498857378959656,1.2833017110824585,-0.2554607093334198
1782986670885792300,5.427792236328125,0.6429736614227295,1.4658914804458618,0.5428409576416016
1782986670895866000,5.4378662109375,0.3466531038284302,1.5831280946731567,0.9314214587211609
1782986670905940000,5.44793994140625,0.004151820670813322,1.4807683229446411,1.026175618171692
1782986670916015000,5.45801513671875,-0.2888536751270294,1.3575321435928345,0.8623155355453491
1782986670926089000,5.4680888671875,-0.43123477697372437,1.0657168626785278,0.6263431310653687
1782986670936163000,5.4781630859375,-0.35160067677497864,0.5769954919815063,0.45328402519226074
1782986670946237200,5.4882373046875,-0.11509726941585541,0.14987917244434357,0.34062477946281433
1782986670956312000,5.49831201171875,0.17201119661331177,-0.3119017779827118,0.2742129862308502
1782986670966386200,5.50838623046875,0.45188674330711365,-0.8867702484130859,0.2548942267894745
1782986670976460300,5.518460205078125,0.6852625012397766,-1.2300776243209839,0.3374016284942627
1782986670986535200,5.52853515625,0.8101907968521118,-1.3853840827941895,0.6402918100357056
1782986670996609300,5.538609375,0.7925300598144531,-1.3002839088439941,1.0131322145462036
1782986671006683100,5.54868310546875,0.6761954426765442,-0.9277253150939941,1.2233784198760986
1782986671016757200,5.55875732421875,0.49059364199638367,-0.45350950956344604,1.087446689605713
1782986671026832100,5.56883203125,0.2821790277957916,-0.06311193853616714,0.600795567035675
1782986671036906200,5.57890625,0.07516486197710037,0.1548488885164261,-0.13580761849880219
1782986671046980000,5.58897998046875,-0.04639534652233124,0.32176849246025085,-0.8662841320037842
1782986671057055200,5.59905517578125,-0.11995957791805267,0.43750494718551636,-1.4391065835952759
1782986671067129000,5.609129150390625,-0.15004494786262512,0.4892233908176422,-1.7803267240524292
1782986671077203200,5.619203125,-0.14294281601905823,0.4546600878238678,-1.8624210357666016
1782986671087278000,5.629278076171875,-0.12047822773456573,0.41330763697624207,-1.7051774263381958
1782986671097352200,5.639352294921875,-0.11299394816160202,0.4017351567745209,-1.3863011598587036
1782986671107426000,5.649426025390625,-0.16807420551776886,0.33417683839797974,-1.026345133781433
1782986671117500200,5.659500244140625,-0.2554767429828644,0.28171202540397644,-0.7338201403617859
1782986671127575000,5.669574951171875,-0.34886160492897034,0.2515808939933777,-0.5276873707771301
1782986671137649200,5.679649169921875,-0.44122377038002014,0.22728274762630463,-0.38958728313446045
1782986671147723300,5.68972314453125,-0.5371082425117493,0.16966329514980316,-0.31437402963638306
1782986671157798100,5.699798095703125,-0.6076955795288086,0.023991316556930542,-0.2913201153278351
1782986671167872300,5.709872314453125,-0.6290903687477112,-0.1991984099149704,-0.2835525870323181
1782986671177946000,5.719946044921875,-0.6166808605194092,-0.41674721240997314,-0.22074325382709503
1782986671188020200,5.730020263671875,-0.590401828289032,-0.6121251583099365,-0.12642112374305725
1782986671198095000,5.74009521484375,-0.5559732913970947,-0.7956273555755615,-0.05982451140880585
1782986671208169200,5.750169189453125,-0.5194029211997986,-0.9521961212158203,-0.044876568019390106
1782986671218243000,5.7602431640625,-0.5209001898765564,-1.0139873027801514,-0.006211731117218733
1782986671228318200,5.770318115234375,-0.5313650369644165,-1.015133023262024,0.05169357731938362
1782986671238392000,5.78039208984375,-0.5365123748779297,-0.9947167634963989,0.06635934114456177
1782986671248466200,5.790466064453125,-0.5599344372749329,-1.0702937841415405,-0.03385251387953758
1782986671258540000,5.8005400390625,-0.5868046879768372,-1.236192226409912,-0.23176586627960205
1782986671268615200,5.810615234375,-0.588631272315979,-1.4164656400680542,-0.5158934593200684
1782986671278689000,5.82068896484375,-0.560387134552002,-1.6465797424316406,-0.8265860676765442
1782986671288763100,5.83076318359375,-0.507087767124176,-1.790693998336792,-0.9175775051116943
1782986671298838000,5.840838134765625,-0.41943061351776123,-1.440114974975586,-0.6690225601196289
1782986671308912000,5.850912109375,-0.3050267994403839,-0.7824655175209045,-0.10277646034955978
1782986671318986200,5.860986328125,-0.24532431364059448,-0.280863881111145,0.5189587473869324
1782986671329060000,5.87106005859375,-0.14892859756946564,-0.2594410479068756,0.8218904137611389
1782986671339135200,5.88113525390625,-0.27169978618621826,-0.05121674761176109,0.6644190549850464
1782986671349209000,5.891208984375,-0.6347924470901489,0.4310760796070099,0.308017373085022
1782986671359283200,5.901283203125,-0.997238278388977,0.7676743268966675,0.2184310406446457
1782986671369358000,5.911358154296875,-1.2157756090164185,0.8395185470581055,0.45835480093955994
1782986671379432200,5.92143212890625,-1.2545496225357056,0.8035903573036194,0.6560097932815552
1782986671389506000,5.931506103515625,-1.0344243049621582,0.5442242622375488,0.49808043241500854
1782986671399581200,5.941581298828125,-0.6416791677474976,0.20519453287124634,0.12773646414279938
1782986671409655000,5.951655029296875,-0.16125084459781647,-0.24709317088127136,-0.34058430790901184
1782986671419729200,5.961729248046875,0.3777298033237457,-0.6319180727005005,-0.6693482995033264
1782986671429803000,5.971802978515625,0.8239428400993347,-0.6537489891052246,-0.6567792892456055
1782986671439878100,5.981878173828125,1.0879122018814087,-0.4194917678833008,-0.41237515211105347
1782986671449952000,5.991951904296875,1.091165542602539,0.03418508917093277,-0.18296143412590027
1782986671460026400,6.0020263671875,0.8474924564361572,0.5110102295875549,-0.19167156517505646
1782986671470101000,6.01210107421875,0.4776251018047333,0.9394484162330627,-0.489180326461792
1782986671480175400,6.02217529296875,0.09160124510526657,1.2191364765167236,-0.876653790473938
1782986671490249200,6.032249267578125,-0.18518583476543427,1.1899725198745728,-1.1042660474777222
1782986671500323000,6.042322998046875,-0.2895309031009674,0.9876818060874939,-1.039133906364441
1782986671510398200,6.052398193359375,-0.22767607867717743,0.7828696966171265,-0.6645484566688538
1782986671520472000,6.06247216796875,-0.006580446846783161,0.6248254776000977,-0.09701577574014664
1782986671530546200,6.072546142578125,0.22509527206420898,0.5942084789276123,0.5078959465026855
1782986671540621000,6.08262109375,0.36449337005615234,0.6055042743682861,1.1132001876831055
1782986671550695200,6.092695068359375,0.39327454566955566,0.6362422108650208,1.551511287689209
1782986671560769000,6.10276904296875,0.3661307990550995,0.5182023644447327,1.674870491027832
1782986671570843100,6.112843017578125,0.3057163655757904,0.183290496468544,1.488208532333374
1782986671580918000,6.12291796875,0.3129809498786926,-0.08312840014696121,1.1089898347854614
1782986671590992100,6.1329921875,0.29621952772140503,-0.41484197974205017,0.6313400268554688
1782986671601066200,6.143066162109375,0.2838105261325836,-0.72086501121521,0.13649882376194
1782986671611141000,6.15314111328125,0.31020399928092957,-0.9427877068519592,-0.29273760318756104
1782986671621215200,6.16321533203125,0.36275190114974976,-1.0164470672607422,-0.6241285800933838
1782986671631289300,6.173289306640625,0.4271788001060486,-0.9538149237632751,-0.80338454246521
1782986671641364200,6.1833642578125,0.4602786898612976,-0.8163590431213379,-0.7959966659545898
1782986671651438300,6.193438232421875,0.4475593864917755,-0.6556675434112549,-0.5951297879219055
1782986671661512200,6.20351220703125,0.39469242095947266,-0.47995084524154663,-0.253902405500412
1782986671671586300,6.21358642578125,0.3323202133178711,-0.28837206959724426,0.1583331674337387
1782986671681661200,6.2236611328125,0.2709822952747345,-0.1261482536792755,0.5117112398147583
1782986671691735300,6.2337353515625,0.22858567535877228,-0.04850608855485916,0.7426669597625732
1782986671701809200,6.24380908203125,0.19818222522735596,-0.020117858424782753,0.8471888303756714
1782986671711884300,6.25388427734375,0.18829582631587982,0.011920744553208351,0.8347017168998718
1782986671721958100,6.263958251953125,0.19533322751522064,0.03500981628894806,0.7449710369110107
1782986671732032000,6.274031982421875,0.20935742557048798,0.029461828991770744,0.620997428894043
1782986671742106000,6.284106201171875,0.2265116423368454,-0.005125975236296654,0.4833136200904846
1782986671752181000,6.294180908203125,0.25065910816192627,-0.10952092707157135,0.3686618208885193
1782986671762255000,6.304255126953125,0.2558884918689728,-0.1636936217546463,0.3062035143375397
1782986671772329200,6.3143291015625,0.24001555144786835,-0.18067920207977295,0.30595043301582336
1782986671782404000,6.324404052734375,0.21368062496185303,-0.2464773952960968,0.35289424657821655
1782986671792478200,6.334478271484375,0.166418194770813,-0.3008892238140106,0.4431852102279663
1782986671802552300,6.34455224609375,0.1013939157128334,-0.2620909810066223,0.5604902505874634
1782986671812627200,6.354627197265625,0.03340967744588852,-0.10866060853004456,0.6636182069778442
1782986671822701300,6.364701416015625,0.0020988956093788147,0.062162529677152634,0.7008534073829651
1782986671832775200,6.374775146484375,-0.0003911179373972118,0.17828617990016937,0.6218578815460205
1782986671842849300,6.384849365234375,0.030357740819454193,0.15737557411193848,0.40875306725502014
1782986671852924200,6.394924072265625,0.09071213006973267,0.07970326393842697,0.06349775195121765
1782986671862998300,6.404998291015625,0.2425117790699005,0.22466179728507996,-0.3595248758792877
1782986671873072000,6.415072021484375,0.3759741485118866,0.26783016324043274,-0.5776932835578918
1782986671883147300,6.425147216796875,0.3960149586200714,-0.30715641379356384,-0.37630555033683777
1782986671893221000,6.43522119140625,0.2201893925666809,-1.0878039598464966,0.06637673079967499
1782986671903295000,6.445294921875,0.04768260195851326,-1.0855674743652344,0.21893644332885742
1782986671913369000,6.455369140625,-0.00695348996669054,-0.5424941778182983,-0.06654805690050125
1782986671923444200,6.4654443359375,0.0011225456837564707,-0.09009985625743866,-0.6846845746040344
1782986671933518000,6.47551806640625,0.19024400413036346,-0.160818412899971,-1.3938301801681519
1782986671943592200,6.48559228515625,0.5659826993942261,-0.3926961123943329,-1.9611024856567383
1782986671953667000,6.4956669921875,0.7859786748886108,-0.5832358598709106,-2.039158821105957
1782986671963741200,6.5057412109375,0.7019695043563843,-0.7729999423027039,-1.5623326301574707
1782986671973815300,6.515815185546875,0.44823747873306274,-0.6581318378448486,-0.7989400029182434
1782986671983890200,6.52589013671875,0.107195183634758,-0.19926390051841736,-0.08686211705207825
1782986671993964300,6.53596435546875,-0.29247355461120605,0.39530184864997864,0.30741146206855774
1782986672004038100,6.5460380859375,-0.6580893397331238,1.0713527202606201,0.33684632182121277
1782986672014112300,6.5561123046875,-0.9360446929931641,1.7141412496566772,0.12727615237236023
1782986672024187100,6.566187255859375,-1.1045855283737183,2.129055976867676,-0.14177155494689941
1782986672034261200,6.57626123046875,-1.1272832155227661,2.0950677394866943,-0.31016820669174194
1782986672044335000,6.586335205078125,-1.0406804084777832,1.7198002338409424,-0.25639525055885315
1782986672054410200,6.59641015625,-0.8174839615821838,1.2511918544769287,0.02429749257862568
1782986672064484000,6.606484130859375,-0.5437722206115723,0.904161810874939,0.4236280918121338
1782986672074558200,6.61655810546875,-0.3189060389995575,0.6610344648361206,0.8464754819869995
1782986672084632000,6.626632080078125,-0.09491635859012604,0.4244152307510376,1.0658373832702637
1782986672094707200,6.636707275390625,-0.05478450283408165,0.17743206024169922,0.9449306130409241
1782986672104781000,6.646781005859375,-0.06724783033132553,-0.09876730293035507,0.5473456978797913
1782986672114855200,6.656855224609375,-0.11903553456068039,-0.44468140602111816,-0.05937522277235985
1782986672124930000,6.666929931640625,-0.17326948046684265,-0.9125404953956604,-0.711447536945343
1782986672135004200,6.677004150390625,-0.19520564377307892,-1.4035125970840454,-1.2803689241409302
1782986672145078300,6.687078369140625,-0.17242683470249176,-1.766467809677124,-1.6850719451904297
1782986672155152100,6.697152099609375,-0.09827069193124771,-1.9183071851730347,-1.864532709121704
1782986672165227300,6.707227294921875,-0.02285821922123432,-1.7958019971847534,-1.7608715295791626
1782986672175301000,6.717301025390625,0.060523033142089844,-1.556917667388916,-1.451947569847107
1782986672185375200,6.727375244140625,0.12810686230659485,-1.2979437112808228,-1.0147223472595215
1782986672195450000,6.7374501953125,0.15964999794960022,-0.9822837710380554,-0.5102724432945251
1782986672205524200,6.747524169921875,0.14483243227005005,-0.6713599562644958,0.03467981144785881
1782986672215598000,6.75759814453125,0.12361490726470947,-0.3789939880371094,0.4619583785533905
1782986672225673200,6.767673095703125,0.11491569131612778,-0.14459772408008575,0.7266286015510559
1782986672235747000,6.7777470703125,0.07966317236423492,0.1018744632601738,0.8561464548110962
1782986672245821200,6.7878212890625,0.04336055368185043,0.32533523440361023,0.8565294146537781
1782986672255895000,6.79789501953125,0.0018693311139941216,0.48067668080329895,0.7498798370361328
1782986672265970200,6.80797021484375,-0.015326699241995811,0.5572910308837891,0.5863481760025024
1782986672276044000,6.8180439453125,0.001638820511288941,0.588127076625824,0.4185725450515747
1782986672286118100,6.8281181640625,0.034525398164987564,0.5987110137939453,0.28743287920951843
1782986672296193000,6.838193115234375,0.061214178800582886,0.5809502005577087,0.19981501996517181
1782986672306267100,6.84826708984375,0.07405461370944977,0.5448521375656128,0.15196865797042847
1782986672316341200,6.85834130859375,0.09079250693321228,0.4430655241012573,0.1307208091020584
1782986672326415000,6.8684150390625,0.11176729947328568,0.3057188391685486,0.15818677842617035
1782986672336490200,6.878490234375,0.14611539244651794,0.21923254430294037,0.24747520685195923
1782986672346564000,6.888564208984375,0.17367911338806152,0.12722085416316986,0.38776707649230957
1782986672356638200,6.89863818359375,0.2147466540336609,0.060934338718652725,0.5745041966438293
1782986672366713000,6.908713134765625,0.32200226187705994,0.2306637167930603,0.7236358523368835
1782986672376787200,6.918787109375,0.43098384141921997,0.5092581510543823,0.7038367390632629
1782986672386861000,6.928861083984375,0.6238909959793091,0.79880291223526,0.44594311714172363
1782986672396936200,6.938936279296875,0.9029244184494019,0.7191842794418335,0.10742265731096268
1782986672407010000,6.949010009765625,0.8790438771247864,-0.06353022158145905,-0.19514547288417816
1782986672417084200,6.959084228515625,0.4136819541454315,-1.0694078207015991,-0.5056816339492798
1782986672427158000,6.969157958984375,-0.07383177429437637,-1.3493212461471558,-0.7206176519393921
1782986672437233200,6.979233154296875,-0.4842607080936432,-0.989669680595398,-0.6243619918823242
1782986672447307000,6.98930712890625,-0.7587018609046936,-0.4137645363807678,-0.4052833914756775
1782986672457381400,6.99938134765625,-0.9418472051620483,-0.2578549087047577,-0.5549119710922241
1782986672467456000,7.0094560546875,-0.7878685593605042,-0.8875055909156799,-1.332346796989441
1782986672477530400,7.0195302734375,-0.43597039580345154,-1.305925726890564,-1.9790406227111816
1782986672487604200,7.029604248046875,-0.1433422565460205,-0.9477172493934631,-1.9982761144638062
1782986672497678000,7.039677978515625,0.12318535149097443,-0.17843060195446014,-1.5936306715011597
1782986672507753200,7.049753173828125,0.25465789437294006,0.7517993450164795,-1.1729018688201904
1782986672517827300,7.059827392578125,0.31556493043899536,1.4227451086044312,-0.9837707877159119
1782986672527901200,7.069901123046875,0.25084078311920166,1.4860138893127441,-1.0009974241256714
1782986672537976300,7.079976318359375,0.17456910014152527,1.2012661695480347,-0.9148526191711426
1782986672548050200,7.09005029296875,0.08323358744382858,0.8241960406303406,-0.4725710153579712
1782986672558124000,7.1001240234375,0.008829278871417046,0.5514235496520996,0.2825176417827606
1782986672568198100,7.1101982421875,-0.027721809223294258,0.5340227484703064,1.1772336959838867
1782986672578273000,7.12027294921875,-0.02832026220858097,0.7613829374313354,2.0326409339904785
1782986672588347100,7.13034716796875,0.05283424258232117,1.0685385465621948,2.6406633853912354
1782986672598421000,7.1404208984375,0.18993894755840302,1.0944315195083618,2.8433003425598145
1782986672608496000,7.15049609375,0.22213655710220337,1.0412266254425049,2.6576693058013916
1782986672618570000,7.160570068359375,0.2468387633562088,0.8681215047836304,2.0741710662841797
1782986672628644400,7.170644287109375,0.25924190878868103,0.6006389260292053,1.1677944660186768
1782986672638719000,7.180718994140625,0.27332934737205505,0.24647708237171173,0.1482267677783966
1782986672648793300,7.19079345703125,0.28597748279571533,-0.03217053785920143,-0.6931084394454956
1782986672658867200,7.2008671875,0.31333473324775696,-0.12497986853122711,-1.1461104154586792
1782986672668941300,7.21094140625,0.35810965299606323,-0.13713720440864563,-1.2546662092208862
1782986672679016200,7.22101611328125,0.43430566787719727,-0.1010502427816391,-1.0453941822052002
1782986672689090300,7.23109033203125,0.4549350440502167,-0.058729685842990875,-0.6368107795715332
1782986672699164200,7.2411640625,0.43882524967193604,-0.059172339737415314,-0.16100408136844635
1782986672709239300,7.2512392578125,0.41057655215263367,-0.0801687017083168,0.23503939807415009
1782986672719313200,7.261313232421875,0.3842664957046509,-0.0978536531329155,0.4812772274017334
1782986672729387000,7.271386962890625,0.3416212797164917,-0.13112187385559082,0.5892670154571533
1782986672739461000,7.281461181640625,0.2968433201313019,-0.21746866405010223,0.5884271264076233
1782986672749536000,7.291535888671875,0.26974883675575256,-0.2866288125514984,0.526298463344574
1782986672759610000,7.301610107421875,0.22759507596492767,-0.5405606627464294,0.4666176736354828
1782986672769684000,7.31168408203125,0.19672371447086334,-0.7409701943397522,0.4168647527694702
1782986672779759000,7.321759033203125,0.190318301320076,-0.9112553596496582,0.40658196806907654
1782986672789833000,7.3318330078125,0.1875305026769638,-1.0804708003997803,0.4311467111110687
1782986672799907300,7.3419072265625,0.19018851220607758,-1.21221125125885,0.491736501455307
1782986672809982000,7.35198193359375,0.18668831884860992,-1.2855706214904785,0.5574782490730286
1782986672820056300,7.362056396484375,0.1875816136598587,-1.3623404502868652,0.6294529438018799
1782986672830130200,7.372130126953125,0.19872801005840302,-1.524932861328125,0.7425496578216553
1782986672840204300,7.382204345703125,0.22091634571552277,-1.662906527519226,0.902519702911377
1782986672850278700,7.392278564453125,0.2275438904762268,-1.7024695873260498,1.071150541305542
1782986672860352500,7.4023525390625,0.1900513619184494,-1.6795885562896729,1.1754605770111084
1782986672870426600,7.412426513671875,0.13595643639564514,-1.719403624534607,1.219748616218567
1782986672880501500,7.42250146484375,0.06664109975099564,-1.6542710065841675,1.250821828842163
1782986672890575600,7.43257568359375,-0.002295088954269886,-1.1969887018203735,1.2805339097976685
1782986672900649500,7.4426494140625,-0.03171825408935547,-0.42911553382873535,1.248324990272522
1782986672910723600,7.4527236328125,-0.00898391380906105,0.44093653559684753,1.1378037929534912
1782986672920798500,7.462798583984375,0.26966920495033264,1.0389264822006226,0.7744563221931458
1782986672930872600,7.47287255859375,0.4520781636238098,0.821320116519928,0.20182743668556213
1782986672940946700,7.48294677734375,0.18940536677837372,0.021130522713065147,-0.22279146313667297
1782986672951021600,7.493021484375,-0.24627286195755005,-0.7078405618667603,-0.34734511375427246
1782986672961095700,7.503095703125,-0.5608636736869812,-1.0217735767364502,-0.22662502527236938
1782986672971169800,7.513169677734375,-0.7317049503326416,-0.6450189352035522,-0.02863285131752491
1782986672981243600,7.52324365234375,-0.6802569031715393,-0.18805335462093353,-0.050460804253816605
1782986672991318800,7.53331884765625,-0.30991557240486145,-0.33491817116737366,-0.5030863285064697
1782986673001392600,7.543392578125,0.10152535885572433,-0.6243302822113037,-1.1715983152389526
1782986673011466500,7.553466552734375,0.3912261426448822,-0.4110068082809448,-1.4148963689804077
1782986673021541600,7.563541748046875,0.4733419418334961,0.22285029292106628,-1.1458333730697632
1782986673031615500,7.573615478515625,0.2745268642902374,0.789566159248352,-0.7993102669715881
1782986673041689600,7.583689697265625,-0.046829380095005035,1.203122854232788,-0.6551504135131836
1782986673051764700,7.5937646484375,-0.35693103075027466,1.5227769613265991,-0.6828951835632324
1782986673061838600,7.603838623046875,-0.6211370825767517,1.7605092525482178,-0.7361398339271545
1782986673071912400,7.613912353515625,-0.8056885600090027,1.9237549304962158,-0.6302493810653687
1782986673081986600,7.623986572265625,-0.9249634742736816,1.9643596410751343,-0.32346057891845703
1782986673092061400,7.6340615234375,-1.0023540258407593,1.8992607593536377,0.20344235002994537
1782986673102135600,7.644135498046875,-0.992963969707489,1.6574058532714844,0.8501154780387878
1782986673112209700,7.654209716796875,-0.8658345341682434,1.2547756433486938,1.4175806045532227
1782986673122284500,7.664284423828125,-0.6789913773536682,0.8028412461280823,1.7412844896316528
1782986673132358700,7.674358642578125,-0.5037276744842529,0.3845934271812439,1.7755966186523438
1782986673142432800,7.684432861328125,-0.3325378894805908,-0.012761710211634636,1.5321892499923706
1782986673152506600,7.694506591796875,-0.15918609499931335,-0.3737127184867859,1.0545092821121216
1782986673162581800,7.704581787109375,-0.012989426031708717,-0.5843736529350281,0.43784698843955994
1782986673172655600,7.714655517578125,0.06390056014060974,-0.6638349294662476,-0.19697871804237366
1782986673182729700,7.724729736328125,0.07860646396875381,-0.6109267473220825,-0.7307913303375244
1782986673192804600,7.7348046875,0.08314982056617737,-0.4746171236038208,-1.1267160177230835
1782986673202878700,7.744878662109375,0.07273007929325104,-0.2873418629169464,-1.3084357976913452
1782986673212952600,7.75495263671875,0.033366963267326355,-0.03190024197101593,-1.233564019203186
1782986673223026400,7.7650263671875,-0.0006859959103167057,0.21130304038524628,-0.9985212683677673
1782986673233101600,7.7751015625,-0.019484451040625572,0.33906126022338867,-0.7311292290687561
1782986673243175400,7.785175537109375,-0.033107660710811615,0.3088095188140869,-0.5031683444976807
1782986673253249500,7.79524951171875,-0.044596802443265915,0.16530001163482666,-0.3304881751537323
1782986673263324400,7.805324462890625,-0.06861159950494766,-0.02967117354273796,-0.2142590433359146
1782986673273398500,7.8153984375,-0.09863394498825073,-0.23412364721298218,-0.13605505228042603
1782986673283472600,7.82547265625,-0.13294756412506104,-0.3724033534526825,-0.0696108415722847
1782986673293547500,7.835547607421875,-0.1586175113916397,-0.46956637501716614,-0.00627874257043004
1782986673303621600,7.84562158203125,-0.1689152717590332,-0.5367569327354431,0.04099631309509277
1782986673313695700,7.85569580078125,-0.16898345947265625,-0.5687519311904907,0.08548787981271744
1782986673323769600,7.86576953125,-0.14118827879428864,-0.6320849061012268,0.14010055363178253
1782986673333844700,7.8758447265625,-0.09331637620925903,-0.6630028486251831,0.22904907166957855
1782986673343918600,7.885918701171875,-0.0562678761780262,-0.649925708770752,0.3334781527519226
1782986673353992700,7.89599267578125,-0.03847609832882881,-0.6235060691833496,0.4396040737628937
1782986673364067600,7.906067626953125,-0.04188857972621918,-0.6647211313247681,0.5430172681808472
1782986673374141700,7.9161416015625,-0.049811217933893204,-0.8103649020195007,0.6589824557304382
1782986673384215600,7.926215576171875,-0.08262839168310165,-0.973540723323822,0.8093538284301758
1782986673394289700,7.93628955078125,-0.1471453309059143,-1.1736629009246826,0.9714913368225098
1782986673404364500,7.946364501953125,-0.22913572192192078,-1.4657641649246216,1.0973258018493652
1782986673414438700,7.956438720703125,-0.3060765862464905,-1.7180685997009277,1.1314611434936523
1782986673424512500,7.966512451171875,-0.32933124899864197,-1.652868390083313,1.0462878942489624
1782986673434587600,7.976587646484375,-0.30224609375,-1.2692501544952393,0.8410918116569519
1782986673444661500,7.98666162109375,-0.2596147358417511,-0.46044307947158813,0.6066819429397583
1782986673454735600,7.996735595703125,-0.24069510400295258,0.28760477900505066,0.3564910292625427
1782986673464809700,8.006809814453124,-0.2656495273113251,0.5640965700149536,0.03594938665628433
1782986673474884600,8.016884521484375,-0.4390096068382263,0.21342960000038147,-0.4587692618370056
1782986673484958700,8.026958740234376,-0.4921858310699463,-0.6303236484527588,-1.0262672901153564
1782986673495032600,8.037032470703124,-0.21396273374557495,-1.2059632539749146,-1.4462424516677856
1782986673505107700,8.047107666015625,0.20406144857406616,-1.229574203491211,-1.5524095296859741
1782986673515181600,8.057181640625,0.5064687132835388,-1.4499998092651367,-1.5396533012390137
1782986673525255700,8.067255615234375,0.7844007611274719,-1.8660846948623657,-1.49821937084198
1782986673535330600,8.07733056640625,1.0352860689163208,-1.8916536569595337,-1.2829004526138306
1782986673545404700,8.08740478515625,1.0883132219314575,-1.4278932809829712,-0.6020476222038269
1782986673555478500,8.097478515625,0.866346001625061,-0.8420378565788269,0.36059698462486267
1782986673565552600,8.107552734375,0.515328049659729,-0.3811054825782776,1.0293654203414917
1782986673575627500,8.11762744140625,0.14848001301288605,-0.0192404855042696,1.0986260175704956
1782986673585701600,8.12770166015625,-0.19766327738761902,0.25066620111465454,0.7325177788734436
1782986673595775500,8.137775390625,-0.4893486797809601,0.5111848711967468,0.23911021649837494
1782986673605850600,8.1478505859375,-0.6629049777984619,0.8234134316444397,-0.08970029652118683
1782986673615924500,8.157924560546874,-0.6540387868881226,1.0790553092956543,-0.17582666873931885
1782986673625998600,8.16799853515625,-0.5207809805870056,1.1766901016235352,-0.01679418794810772
1782986673636072700,8.17807275390625,-0.3179831802845001,1.163414478302002,0.3458244800567627
1782986673646147800,8.18814794921875,-0.10897743701934814,1.1595408916473389,0.7885324954986572
1782986673656221700,8.1982216796875,0.0730363056063652,1.2408828735351562,1.1503468751907349
1782986673666295600,8.208295654296874,0.1901216357946396,1.276885747909546,1.3207646608352661
1782986673676370700,8.21837060546875,0.2429603487253189,1.158000111579895,1.2513285875320435
1782986673686444500,8.228444580078126,0.19019906222820282,0.9996062517166138,0.9711288213729858
1782986673696518700,8.2385185546875,0.014605681411921978,0.8154428005218506,0.4743366241455078
1782986673706592500,8.248592529296875,-0.15993739664554596,0.5927243828773499,-0.13295108079910278
1782986673716667600,8.258667724609374,-0.29322221875190735,0.4242914617061615,-0.6854888200759888
1782986673726741500,8.268741455078125,-0.39714524149894714,0.3423542082309723,-1.0763092041015625
1782986673736815600,8.278815673828126,-0.45915350317955017,0.4141961634159088,-1.2479370832443237
1782986673746890500,8.288890380859375,-0.5302940011024475,0.5967018008232117,-1.2180202007293701
1782986673756964600,8.298964599609375,-0.5681430697441101,0.8063831329345703,-1.0645852088928223
1782986673767038500,8.30903857421875,-0.5769773125648499,0.8942093849182129,-0.859218180179596
1782986673777113600,8.319113525390625,-0.5563982725143433,0.6877688765525818,-0.701935887336731
1782986673787187500,8.3291875,-0.45669835805892944,0.3668115437030792,-0.6018885374069214
1782986673797261800,8.33926171875,-0.3065621256828308,0.01622503064572811,-0.5541117191314697
1782986673807335700,8.349335693359375,-0.15616409480571747,-0.3049963116645813,-0.5461168885231018
1782986673817410800,8.359410888671874,-0.03754822537302971,-0.5228399634361267,-0.5389947891235352
1782986673827484700,8.369484619140625,0.022850140929222107,-0.5364262461662292,-0.4929135739803314
1782986673837558500,8.37955859375,0.03904376178979874,-0.4694006145000458,-0.4301926791667938
1782986673847633700,8.389633544921875,0.03175169229507446,-0.3582629859447479,-0.3331919014453888
1782986673857708300,8.399708251953125,0.004429256543517113,-0.16555242240428925,-0.2682608366012573
1782986673867782400,8.409782470703124,-0.02132778987288475,0.05680171400308609,-0.255118727684021
1782986673877856300,8.419856201171875,-0.022542191669344902,0.2857225239276886,-0.2940797209739685
1782986673887931400,8.429931396484376,-0.03300757333636284,0.4487958252429962,-0.3962160050868988
1782986673898005200,8.440005126953125,-0.04096083715558052,0.4603688716888428,-0.5207369327545166
1782986673908079000,8.4500791015625,-0.01877705007791519,0.3313870429992676,-0.6243760585784912
1782986673918154200,8.460154296875,0.004265152849256992,0.1716887354850769,-0.6331881880760193
1782986673928228000,8.47022802734375,0.0468115471303463,0.014662898145616055,-0.5579330921173096
1782986673938302200,8.48030224609375,0.09862601011991501,-0.1721746325492859,-0.46266013383865356
1782986673948376000,8.4903759765625,0.1440853327512741,-0.315130352973938,-0.4067821204662323
1782986673958451200,8.500451171875,0.19096656143665314,-0.3626936078071594,-0.4054476320743561
1782986673968525000,8.510525146484374,0.3067953884601593,-0.47172462940216064,-0.46121224761009216
1782986673978599400,8.520599365234375,0.4634436070919037,-0.32610324025154114,-0.4803593158721924
1782986673988674000,8.530674072265626,0.6357907056808472,0.39979198575019836,-0.3395680785179138
1782986673998748400,8.54074853515625,0.7564681172370911,1.3151476383209229,-0.27309608459472656
1782986674008822300,8.550822265625,0.48968878388404846,1.5289274454116821,-0.43008577823638916
1782986674018897400,8.5608974609375,-0.06880699098110199,1.0316694974899292,-0.613167941570282
1782986674028971300,8.57097119140625,-0.5361611247062683,0.756120502948761,-0.4672207236289978
1782986674039045400,8.58104541015625,-0.73103928565979,0.49879467487335205,-0.08795596659183502
1782986674049119200,8.591119140625,-0.6185286045074463,0.11684569716453552,0.13186681270599365
1782986674059194400,8.6011943359375,-0.3192058205604553,0.04926319420337677,-0.04236011207103729
1782986674069268200,8.611268310546874,0.020389195531606674,0.46672549843788147,-0.5099039077758789
1782986674079342000,8.621342041015625,0.2943429946899414,1.2751154899597168,-0.9751358032226562
1782986674089417200,8.631417236328126,0.5099698901176453,2.120051860809326,-1.0756895542144775
1782986674099491300,8.6414912109375,0.5587909817695618,2.820941925048828,-0.6879270672798157
1782986674109565200,8.651565185546875,0.3667382597923279,3.157369375228882,-0.02788889780640602
1782986674119639000,8.66163916015625,-0.008883016183972359,2.8916053771972656,0.569337785243988
1782986674129714200,8.671714111328125,-0.3779873549938202,2.15279221534729,0.9917751550674438
1782986674139788000,8.6817880859375,-0.6677736043930054,1.1799988746643066,1.2153438329696655
1782986674149862400,8.6918623046875,-0.7663712501525879,0.19152618944644928,1.2654930353164673
1782986674159937000,8.70193701171875,-0.7242608070373535,-0.6389481425285339,1.2850968837738037
1782986674170011400,8.712011474609374,-0.5566667914390564,-1.1651084423065186,1.4254059791564941
1782986674180085200,8.722085205078125,-0.3877398371696472,-1.4220635890960693,1.7161641120910645
1782986674190160400,8.732160400390624,-0.31153959035873413,-1.5403404235839844,1.9598937034606934
1782986674200234200,8.742234130859375,-0.23033981025218964,-1.4291871786117554,1.9697719812393188
1782986674210308400,8.752308349609375,-0.1638445109128952,-1.0885190963745117,1.722333312034607
1782986674220382200,8.76238232421875,-0.14783704280853271,-0.6468625068664551,1.1882739067077637
1782986674230457300,8.772457275390625,-0.15300779044628143,-0.30215269327163696,0.4050418734550476
1782986674240531200,8.78253125,-0.16838061809539795,-0.08049595355987549,-0.4520760178565979
1782986674250605300,8.792605224609375,-0.22250209748744965,0.027017764747142792,-1.173142433166504
1782986674260680200,8.80268017578125,-0.2441762238740921,-0.002059159567579627,-1.6628522872924805
1782986674270754300,8.81275439453125,-0.2018090933561325,-0.07012367248535156,-1.8824734687805176
1782986674280828200,8.822828125,-0.13550011813640594,-0.14514945447444916,-1.8261090517044067
1782986674290902000,8.832902099609376,-0.06859265267848969,-0.22174157202243805,-1.5635135173797607
1782986674300977200,8.84297705078125,0.018114281818270683,-0.26343628764152527,-1.1380144357681274
1782986674311051000,8.853051025390625,0.08170504868030548,-0.26250922679901123,-0.625982403755188
1782986674321125400,8.86312548828125,0.06218593940138817,-0.261969655752182,-0.12168514728546143
1782986674331200000,8.873199951171875,-0.007764493580907583,-0.32295656204223633,0.2319224327802658
1782986674341274400,8.8832744140625,-0.0699373185634613,-0.48484960198402405,0.3915315270423889
1782986674351348200,8.89334814453125,-0.14487141370773315,-0.6189353466033936,0.3863994777202606
1782986674361422300,8.90342236328125,-0.2119085043668747,-0.7105633020401001,0.2690257132053375
1782986674371497200,8.913497314453124,-0.271255761384964,-0.7411512136459351,0.07552716135978699
1782986674381571300,8.9235712890625,-0.3024192750453949,-0.7013933658599854,-0.14284220337867737
1782986674391645200,8.933645263671876,-0.29984432458877563,-0.6299712061882019,-0.3158114552497864
1782986674401720300,8.94372021484375,-0.2759525775909424,-0.48699164390563965,-0.38711974024772644
1782986674411794200,8.953794189453125,-0.25336384773254395,-0.3548372983932495,-0.35819125175476074
1782986674421868300,8.963868408203124,-0.22110788524150848,-0.291702002286911,-0.274489164352417
1782986674431943200,8.973943115234375,-0.194234237074852,-0.28465285897254944,-0.12596113979816437
1782986674442017300,8.984017333984376,-0.1832292526960373,-0.2627717852592468,0.08651223033666611
1782986674452091100,8.994091064453125,-0.19600443542003632,-0.25591912865638733,0.3082236051559448
1782986674462165200,9.004165283203125,-0.21075062453746796,-0.3149542212486267,0.4667682349681854
1782986674472240000,9.014240234375,-0.2278476357460022,-0.439542293548584,0.5129900574684143
1782986674482314200,9.024314208984375,-0.2613896131515503,-0.6950225234031677,0.44168558716773987
1782986674492388400,9.034388427734376,-0.24708779156208038,-0.7713336944580078,0.3228130340576172
1782986674502463200,9.044463134765625,-0.13333699107170105,-0.29123660922050476,0.26525813341140747
1782986674512537300,9.054537353515625,0.034119151532649994,0.45679327845573425,0.2552435100078583
1782986674522611200,9.064611083984374,0.2662200331687927,1.1532349586486816,0.2156529426574707
1782986674532685300,9.074685302734375,0.46157580614089966,1.1279374361038208,0.10197436064481735
1782986674542760200,9.08476025390625,0.35307782888412476,0.6873421669006348,-0.033566154539585114
1782986674552834300,9.094834228515625,0.12899969518184662,0.4087807834148407,-0.08385837078094482
1782986674562908200,9.104908203125,-0.06375297158956528,0.23469525575637817,0.12325379997491837
1782986674572983300,9.1149833984375,-0.11719571799039841,-0.04535776004195213,0.6685547232627869
1782986674583057200,9.12505712890625,0.06066695600748062,0.05802242457866669,1.2207154035568237
1782986674593131300,9.13513134765625,0.3997529447078705,0.5089251399040222,1.1344506740570068
1782986674603206100,9.1452060546875,0.7195221781730652,0.18306373059749603,0.1301177740097046
1782986674613280300,9.1552802734375,0.8663960695266724,-0.24574457108974457,-0.9629884958267212
1782986674623354000,9.16535400390625,0.8537641763687134,-0.27197909355163574,-1.3288770914077759
1782986674633428200,9.17542822265625,0.6504674553871155,-0.2895668148994446,-0.9424601197242737
1782986674643503000,9.185503173828126,0.3083798587322235,-0.2363922894001007,-0.22242875397205353
1782986674653577200,9.1955771484375,-0.00809492077678442,-0.03585259988903999,0.32609084248542786
1782986674663651300,9.2056513671875,-0.19986382126808167,0.26132526993751526,0.42692503333091736
1782986674673726200,9.215726318359375,-0.33488723635673523,0.4482376277446747,0.1574239581823349
1782986674683800300,9.22580029296875,-0.44922739267349243,0.47730308771133423,-0.2502572536468506
1782986674693874200,9.235874267578126,-0.5116809010505676,0.5070669651031494,-0.5021355748176575
1782986674703948300,9.2459482421875,-0.4967102110385895,0.6783623099327087,-0.42198535799980164
1782986674714023400,9.2560234375,-0.4432068169116974,0.7912735939025879,-0.031521283090114594
1782986674724097300,9.26609716796875,-0.3730727434158325,0.6813795566558838,0.5043139457702637
1782986674734171100,9.276171142578125,-0.2810826003551483,0.4354010820388794,0.981579065322876
1782986674744246300,9.286246337890624,-0.1636182814836502,0.15500351786613464,1.243245005607605
1782986674754320100,9.296320068359375,-0.023005856201052666,-0.0777955949306488,1.188052773475647
1782986674764394200,9.306394287109375,0.08421061187982559,-0.3109513521194458,0.8079426884651184
1782986674774468000,9.316468017578124,0.15719877183437347,-0.5333806276321411,0.213802769780159
1782986674784543200,9.326543212890625,0.16812679171562195,-0.6679219603538513,-0.4413692057132721
1782986674794617000,9.3366171875,0.12217474728822708,-0.7063645124435425,-1.008056640625
1782986674804691200,9.346691162109375,0.05908499285578728,-0.7968313097953796,-1.411818504333496
1782986674814766000,9.35676611328125,0.02332209423184395,-0.8795684576034546,-1.6232249736785889
1782986674824840200,9.366840087890624,-0.0019984422251582146,-0.8570511341094971,-1.5812925100326538
1782986674834914300,9.376914306640625,-0.01857266016304493,-0.6770349740982056,-1.3039531707763672
1782986674844989200,9.3869892578125,-0.02844127081334591,-0.38756024837493896,-0.8457653522491455
1782986674855063000,9.39706298828125,-0.047014687210321426,-0.1053948700428009,-0.3491974174976349
1782986674865137200,9.40713720703125,-0.05533360317349434,0.13729500770568848,0.028357328847050667
1782986674875211000,9.4172109375,-0.0558340959250927,0.3026174306869507,0.23133455216884613
1782986674885286100,9.4272861328125,-0.06700152903795242,0.32504817843437195,0.27345457673072815
1782986674895360000,9.437360107421876,-0.07668547332286835,0.22613517940044403,0.20439191162586212
1782986674905433900,9.447433837890625,-0.08391355723142624,0.08629179745912552,0.12196362018585205
1782986674915509000,9.457509033203126,-0.08554363995790482,-0.019010771065950394,0.07683786749839783
1782986674925582800,9.467582763671874,-0.07267950475215912,-0.062400322407484055,0.09539051353931427
1782986674935657000,9.477656982421875,-0.0628390833735466,-0.04014777019619942,0.1544841229915619
1782986674945730800,9.487730712890626,-0.05514254793524742,-0.012111343443393707,0.21352693438529968
1782986674955806000,9.497805908203125,-0.047883376479148865,0.00803303811699152,0.2618879973888397
1782986674965879800,9.5078798828125,-0.036752428859472275,-0.026367811486124992,0.3149453401565552
1782986674975954200,9.5179541015625,-0.036169782280921936,-0.09968558698892593,0.4137483835220337
1782986674986028800,9.52802880859375,-0.05524946749210358,-0.11934105306863785,0.55246502161026
1782986674996103200,9.538103271484376,-0.07914428412914276,-0.09043081849813461,0.6784757375717163
1782986675006177000,9.548177001953125,-0.11052563786506653,-0.19244427978992462,0.7168151140213013
1782986675016251100,9.558251220703125,-0.09478971362113953,-0.4199839234352112,0.6675189733505249
1782986675026326000,9.568325927734374,-0.03539535775780678,-0.4623172879219055,0.5736345648765564
1782986675036400000,9.578400146484375,0.04942779988050461,-0.24035249650478363,0.4489397406578064
1782986675046474000,9.588473876953126,0.17007087171077728,0.2819783389568329,0.22056913375854492
1782986675056549000,9.598549072265625,0.38461408019065857,0.9132193326950073,-0.1330776959657669
1782986675066623000,9.608623046875,0.6343494057655334,1.2365245819091797,-0.377676784992218
1782986675076696800,9.61869677734375,0.7054430842399597,1.1240246295928955,-0.3680848181247711
1782986675086772000,9.62877197265625,0.4927268326282501,0.8747567534446716,0.04479462653398514
1782986675096846000,9.63884619140625,0.08361423760652542,0.6800127625465393,0.7646729946136475
1782986675106920000,9.648919921875,-0.29425129294395447,0.5524790287017822,1.4679131507873535
1782986675116993800,9.658993896484375,-0.47449010610580444,0.36016008257865906,1.7584936618804932
1782986675127069000,9.66906884765625,-0.3630213737487793,0.14854398369789124,1.4240448474884033
1782986675137142800,9.679142822265625,0.047227878123521805,0.15272635221481323,0.5428984761238098
1782986675147217200,9.689217041015626,0.5201762914657593,-0.0029772217385470867,-0.7921897172927856
1782986675157291800,9.699291748046875,0.7659429311752319,-0.5005425810813904,-1.8940280675888062
1782986675167366100,9.7093662109375,0.8263351917266846,-0.5503892302513123,-1.9684721231460571
1782986675177440000,9.71943994140625,0.8271372318267822,-0.05634833499789238,-1.0316531658172607
1782986675187515100,9.72951513671875,0.6327858567237854,0.49715906381607056,0.15635918080806732
1782986675197589000,9.739589111328126,0.3862597346305847,0.8567900657653809,0.8855621218681335
1782986675207663000,9.7496630859375,0.14115092158317566,0.9612648487091064,0.9872986078262329
1782986675217737000,9.759737060546875,-0.028006311506032944,0.7352622747421265,0.6546295285224915
1782986675227812000,9.76981201171875,-0.13211993873119354,0.30150970816612244,0.21855399012565613
1782986675237886000,9.779885986328125,-0.12087956070899963,0.1127495989203453,-0.017040327191352844
1782986675247960000,9.7899599609375,-0.030452987179160118,0.1864967942237854,0.1035260334610939
1782986675258035000,9.800034912109375,0.05696921423077583,0.31729164719581604,0.5103647112846375
1782986675268109000,9.810109130859376,0.08906722813844681,0.3697900176048279,1.0341378450393677
1782986675278183000,9.820182861328124,0.14634785056114197,0.20560136437416077,1.4879871606826782
1782986675288256800,9.8302568359375,0.21505020558834076,0.018573414534330368,1.712841510772705
1782986675298332000,9.840331787109376,0.28983789682388306,-0.04454333335161209,1.5947346687316895
1782986675308405800,9.85040576171875,0.3527801036834717,-0.1038988009095192,1.0644124746322632
1782986675318480100,9.860480224609375,0.3932165205478668,-0.23504884541034698,0.2311476320028305
1782986675328555000,9.870554931640624,0.42775318026542664,-0.35650205612182617,-0.6102786660194397
1782986675338629000,9.880629150390625,0.4056648910045624,-0.4732833206653595,-1.2152886390686035
1782986675348703000,9.890702880859376,0.37629902362823486,-0.5033296942710876,-1.4391472339630127
1782986675358777000,9.900777099609375,0.355556458234787,-0.31319698691368103,-1.263596773147583
1782986675368852000,9.91085205078125,0.3031688630580902,0.008067058399319649,-0.8103157877922058
1782986675378926000,9.920926025390624,0.21098840236663818,0.2243080884218216,-0.31281232833862305
1782986675389000000,9.931,0.11155848205089569,0.3223606050014496,0.11741841584444046
1782986675399075000,9.941074951171874,0.02160518988966942,0.43836459517478943,0.42117902636528015
1782986675409149000,9.95114892578125,-0.05066687613725662,0.4873340129852295,0.5716630816459656
1782986675419223000,9.96122314453125,-0.0745604857802391,0.46938055753707886,0.5544441342353821
1782986675429298000,9.9712978515625,-0.03292010352015495,0.40467241406440735,0.4138004779815674
1782986675439372000,9.9813720703125,0.015016068704426289,0.282715380191803,0.24394361674785614
1782986675449446000,9.99144580078125,0.05023131147027016,0.10629614442586899,0.1115080788731575
1782986675459520000,10.00152001953125,0.05981115996837616,-0.11470960080623627,0.04802805557847023
1782986675469595000,10.011594970703126,0.06536198407411575,-0.3032057583332062,0.0546574629843235
1782986675479669000,10.0216689453125,0.07267571240663528,-0.41567131876945496,0.12183699756860733
1782986675489743000,10.0317431640625,0.06783542037010193,-0.4966910481452942,0.23408390581607819
1782986675499818000,10.04181787109375,0.05262807756662369,-0.5314348936080933,0.36477404832839966
1782986675509892000,10.05189208984375,0.029766174033284187,-0.4955610930919647,0.5184120535850525
1782986675519966000,10.061966064453125,0.012974943965673447,-0.49157965183258057,0.6422378420829773
1782986675530040000,10.0720400390625,0.013906784355640411,-0.5221998691558838,0.7082589268684387
1782986675540115000,10.082114990234375,0.02509339712560177,-0.5842793583869934,0.711203396320343
1782986675550189000,10.09218896484375,0.050105541944503784,-0.6473776698112488,0.6751577854156494
1782986675560263000,10.102262939453125,0.08145973831415176,-0.7260540723800659,0.6112403273582458
1782986675570338000,10.112338134765626,0.15360184013843536,-0.7414889931678772,0.5549152493476868
1782986675580412000,10.122411865234374,0.24048495292663574,-0.6093055009841919,0.5756838321685791
1782986675590486000,10.132486083984375,0.3448646366596222,-0.3713429868221283,0.7355664372444153
1782986675600559900,10.142559814453126,0.396506667137146,-0.08394283056259155,0.9803016185760498
1782986675610635000,10.152635009765625,0.44556501507759094,0.1965513974428177,1.1245617866516113
1782986675620708900,10.162708984375,0.37975841760635376,0.3939861059188843,1.0872970819473267
1782986675630783000,10.172782958984374,0.1477281153202057,0.22431957721710205,0.9171863198280334
1782986675640857900,10.18285791015625,-0.18664391338825226,-0.11373520642518997,0.681081235408783
1782986675650932000,10.192931884765626,-0.477439284324646,-0.5956538915634155,0.48094841837882996
1782986675661006000,10.203006103515625,-0.5283671617507935,-1.069403052330017,0.40817567706108093
1782986675671081000,10.2130810546875,-0.23244363069534302,-0.9051843285560608,0.29311540722846985
1782986675681155000,10.223155029296874,0.3639136850833893,-0.36245256662368774,-0.23623885214328766
1782986675691229200,10.233229248046875,1.0234359502792358,-0.38102543354034424,-1.1388062238693237
1782986675701303000,10.243302978515626,1.448323130607605,-0.626177966594696,-1.7565690279006958
1782986675711378200,10.253378173828125,1.5164446830749512,-0.7421591877937317,-1.5698705911636353
1782986675721452000,10.2634521484375,1.2614517211914062,-0.6185063123703003,-0.7054200172424316
1782986675731526000,10.27352587890625,0.7981528043746948,-0.21860788762569427,0.22558994591236115
1782986675741601000,10.28360107421875,0.3098888695240021,0.3301762640476227,0.6275267004966736
1782986675751675000,10.2936748046875,-0.08243604004383087,0.6264169812202454,0.35964804887771606
1782986675761749000,10.3037490234375,-0.3399984538555145,0.7994205355644226,-0.26603609323501587
1782986675771823900,10.313823974609376,-0.3953016698360443,0.8904188871383667,-0.8327999114990234
1782986675781898000,10.32389794921875,-0.2958412766456604,0.8850045204162598,-1.0397796630859375
1782986675791971800,10.333971923828125,-0.12348363548517227,0.8752251267433167,-0.8089085817337036
1782986675802046000,10.3440458984375,0.10828031599521637,0.9366896152496338,-0.20433472096920013
1782986675812120800,10.354120849609375,0.29084986448287964,0.9323697090148926,0.5719032287597656
1782986675822195000,10.36419482421875,0.4104793965816498,0.7995637059211731,1.1971858739852905
1782986675832269000,10.37426904296875,0.45848605036735535,0.5732291340827942,1.443804144859314
1782986675842344000,10.384343994140625,0.44756177067756653,0.2095191925764084,1.243695855140686
1782986675852417800,10.394417724609376,0.4111880660057068,-0.21017129719257355,0.7178208827972412
1782986675862491600,10.40449169921875,0.3475525677204132,-0.6290874481201172,0.09827494621276855
1782986675872565500,10.4145654296875,0.2662110924720764,-0.7692853212356567,-0.3222304582595825
1782986675882640600,10.424640625,0.21729706227779388,-0.5864660739898682,-0.4686444103717804
1782986675892714500,10.434714599609375,0.23992328345775604,-0.22733664512634277,-0.4711781442165375
1782986675902788600,10.44478857421875,0.2628873586654663,0.1154976561665535,-0.3007310926914215
1782986675912863700,10.45486376953125,0.24039988219738007,0.2573820650577545,-0.07510248571634293
1782986675922937600,10.4649375,0.2058357298374176,0.23678602278232574,0.02873396873474121
1782986675933011500,10.475011474609374,0.1450570821762085,0.024861522018909454,0.11209756135940552
1782986675943085600,10.48508544921875,0.03191398084163666,0.12348844110965729,0.2174142450094223
1782986675953160400,10.495160400390626,-0.11655964702367783,0.2650913596153259,0.27577102184295654
1782986675963234600,10.505234619140625,-0.29896748065948486,0.435818612575531,0.2915213108062744
1782986675973308700,10.51530859375,-0.4505963921546936,0.5915961861610413,0.28396645188331604
1782986675983383600,10.525383544921874,-0.5670847296714783,0.5535868406295776,0.15364058315753937
