time,seconds_elapsed,z,y,x
1782986378780910300,0.056910400390625,-0.830352783203125,-0.4575042724609375,0.1038970947265625
1782986378790984200,0.066984130859375,-0.8240203857421875,-0.4605255126953125,0.0982513427734375
1782986378801059300,0.077059326171875,-0.818206787109375,-0.460113525390625,0.092132568359375
1782986378811133200,0.08713330078125,-0.81060791015625,-0.46075439453125,0.08636474609375
1782986378821207300,0.097207275390625,-0.8041839599609375,-0.4599609375,0.084625244140625
1782986378831282400,0.107282470703125,-0.7960968017578125,-0.4654083251953125,0.0819549560546875
1782986378841356300,0.117356201171875,-0.7982940673828125,-0.472320556640625,0.0747528076171875
1782986378851430100,0.12743017578125,-0.810302734375,-0.4766693115234375,0.0729522705078125
1782986378861505300,0.13750537109375,-0.8225555419921875,-0.4803924560546875,0.068084716796875
1782986378871579100,0.1475791015625,-0.832427978515625,-0.486846923828125,0.064605712890625
1782986378881653200,0.1576533203125,-0.860015869140625,-0.495208740234375,0.0579986572265625
1782986378891727000,0.16772705078125,-0.8844757080078125,-0.4983673095703125,0.0537109375
1782986378901802200,0.17780224609375,-0.8953094482421875,-0.49639892578125,0.05816650390625
1782986378911876000,0.1878759765625,-0.913543701171875,-0.49578857421875,0.0722198486328125
1782986378921950500,0.197950439453125,-0.921630859375,-0.4908294677734375,0.0835723876953125
1782986378932025000,0.208025146484375,-0.9271240234375,-0.485198974609375,0.09759521484375
1782986378942099500,0.218099365234375,-0.93109130859375,-0.478729248046875,0.108367919921875
1782986378952173300,0.22817333984375,-0.9237060546875,-0.48052978515625,0.1105194091796875
1782986378962248400,0.23824853515625,-0.9146728515625,-0.4869537353515625,0.10870361328125
1782986378972322300,0.248322265625,-0.89837646484375,-0.4952392578125,0.10174560546875
1782986378982396400,0.258396484375,-0.8785552978515625,-0.494140625,0.0958251953125
1782986378992471300,0.26847119140625,-0.86907958984375,-0.489898681640625,0.100372314453125
1782986379002545400,0.27854541015625,-0.861358642578125,-0.48748779296875,0.100738525390625
1782986379012619300,0.288619384765625,-0.861541748046875,-0.4858551025390625,0.09722900390625
1782986379022694400,0.2986943359375,-0.86236572265625,-0.481048583984375,0.091033935546875
1782986379032768300,0.308768310546875,-0.8701171875,-0.4806976318359375,0.0787200927734375
1782986379042842000,0.318842041015625,-0.8792572021484375,-0.4864654541015625,0.07318115234375
1782986379052916200,0.328916259765625,-0.8816375732421875,-0.4859161376953125,0.0814208984375
1782986379062991400,0.338991455078125,-0.8785247802734375,-0.4816741943359375,0.0931854248046875
1782986379073065200,0.349065185546875,-0.8758544921875,-0.4791412353515625,0.1001129150390625
1782986379083139000,0.35913916015625,-0.8736114501953125,-0.4798431396484375,0.1013031005859375
1782986379093214200,0.369214111328125,-0.8708648681640625,-0.4820556640625,0.0988006591796875
1782986379103288000,0.3792880859375,-0.8704376220703125,-0.484100341796875,0.088592529296875
1782986379113362400,0.389362548828125,-0.88134765625,-0.4886627197265625,0.0762939453125
1782986379123437000,0.39943701171875,-0.8858795166015625,-0.494903564453125,0.0702667236328125
1782986379133511400,0.409511474609375,-0.8827056884765625,-0.50006103515625,0.0683135986328125
1782986379143585300,0.419585205078125,-0.871978759765625,-0.5015716552734375,0.0765380859375
1782986379153659400,0.429659423828125,-0.86395263671875,-0.505340576171875,0.09112548828125
1782986379163734300,0.439734375,-0.8599700927734375,-0.509429931640625,0.093231201171875
1782986379173808400,0.449808349609375,-0.86383056640625,-0.506011962890625,0.094390869140625
1782986379183882200,0.45988232421875,-0.874603271484375,-0.512451171875,0.096771240234375
1782986379193957400,0.469957275390625,-0.8961181640625,-0.5149383544921875,0.098541259765625
1782986379204031200,0.48003125,-0.8675079345703125,-0.4817962646484375,0.1094970703125
1782986379214105300,0.490105224609375,-0.86834716796875,-0.4882049560546875,0.10833740234375
1782986379224180200,0.50018017578125,-0.877960205078125,-0.5034332275390625,0.1208038330078125
1782986379234254300,0.51025439453125,-0.895233154296875,-0.5102996826171875,0.1329345703125
1782986379244328200,0.520328125,-0.8980712890625,-0.50921630859375,0.1299285888671875
1782986379254403300,0.5304033203125,-0.886810302734375,-0.5081329345703125,0.1173095703125
1782986379264477200,0.540477294921875,-0.873809814453125,-0.5074462890625,0.1025390625
1782986379274551000,0.550551025390625,-0.854766845703125,-0.5149078369140625,0.0939178466796875
1782986379284626200,0.560626220703125,-0.83282470703125,-0.526519775390625,0.0973968505859375
1782986379294700000,0.570699951171875,-0.818450927734375,-0.5405426025390625,0.112060546875
1782986379304774400,0.5807744140625,-0.8155059814453125,-0.55145263671875,0.1226959228515625
1782986379314848300,0.59084814453125,-0.81982421875,-0.552642822265625,0.1253509521484375
1782986379324923400,0.60092333984375,-0.8234710693359375,-0.550872802734375,0.1202545166015625
1782986379334997200,0.610997314453125,-0.8236083984375,-0.5505218505859375,0.112579345703125
1782986379345071400,0.6210712890625,-0.8278350830078125,-0.550262451171875,0.1036834716796875
1782986379355146200,0.631146240234375,-0.829925537109375,-0.5503082275390625,0.099761962890625
1782986379365220400,0.641220458984375,-0.8215484619140625,-0.546875,0.1075286865234375
1782986379375294200,0.651294189453125,-0.8163604736328125,-0.5478668212890625,0.128082275390625
1782986379385369300,0.661369384765625,-0.816558837890625,-0.553955078125,0.152801513671875
1782986379395443200,0.671443115234375,-0.769317626953125,-0.56329345703125,0.18536376953125
1782986379405517300,0.681517333984375,-0.757537841796875,-0.583892822265625,0.2187652587890625
1782986379415592200,0.69159228515625,-0.7711334228515625,-0.586273193359375,0.2126007080078125
1782986379425666300,0.701666259765625,-0.790252685546875,-0.5760498046875,0.194549560546875
1782986379435740200,0.711740234375,-0.8141632080078125,-0.556793212890625,0.1798858642578125
1782986379445814300,0.721814208984375,-0.8232879638671875,-0.5484466552734375,0.160430908203125
1782986379455889200,0.73188916015625,-0.8384246826171875,-0.561126708984375,0.1432647705078125
1782986379465963300,0.74196337890625,-0.85284423828125,-0.6017913818359375,0.1349639892578125
1782986379476037400,0.752037353515625,-0.84686279296875,-0.6201934814453125,0.131439208984375
1782986379486112300,0.7621123046875,-0.8163604736328125,-0.57965087890625,0.1302490234375
1782986379496186400,0.772186279296875,-0.779541015625,-0.523651123046875,0.1568756103515625
1782986379506260200,0.78226025390625,-0.7598419189453125,-0.5070037841796875,0.1954498291015625
1782986379516335400,0.79233544921875,-0.754974365234375,-0.523345947265625,0.213592529296875
1782986379526409200,0.8024091796875,-0.7708892822265625,-0.5500030517578125,0.2027130126953125
1782986379536483300,0.8124833984375,-0.7962188720703125,-0.5726470947265625,0.1754913330078125
1782986379546558500,0.822558349609375,-0.802215576171875,-0.5738983154296875,0.1549224853515625
1782986379556632300,0.83263232421875,-0.7973480224609375,-0.5607452392578125,0.1442108154296875
1782986379566706200,0.8427060546875,-0.7959136962890625,-0.5516510009765625,0.1419525146484375
1782986379576780300,0.8527802734375,-0.810546875,-0.549407958984375,0.13897705078125
1782986379586855200,0.862855224609375,-0.8250885009765625,-0.54925537109375,0.1334381103515625
1782986379596929300,0.87292919921875,-0.8232574462890625,-0.544952392578125,0.12091064453125
1782986379607003100,0.883003173828125,-0.81561279296875,-0.5369110107421875,0.1156158447265625
1782986379617078300,0.893078369140625,-0.7990875244140625,-0.53424072265625,0.1184844970703125
1782986379627152100,0.903152099609375,-0.78533935546875,-0.5378875732421875,0.123291015625
1782986379637226200,0.913226318359375,-0.78228759765625,-0.549224853515625,0.1291351318359375
1782986379647301000,0.923301025390625,-0.7947845458984375,-0.5571746826171875,0.12738037109375
1782986379657375200,0.933375244140625,-0.8025665283203125,-0.55352783203125,0.1226959228515625
1782986379667449300,0.943449462890625,-0.80316162109375,-0.545989990234375,0.11700439453125
1782986379677524200,0.953524169921875,-0.8018646240234375,-0.5421142578125,0.1164703369140625
1782986379687598300,0.963598388671875,-0.8103790283203125,-0.5451202392578125,0.1243438720703125
1782986379697672400,0.97367236328125,-0.823883056640625,-0.550933837890625,0.12860107421875
1782986379707746300,0.983746337890625,-0.8298492431640625,-0.5538330078125,0.131744384765625
1782986379717821400,0.993821533203125,-0.8215179443359375,-0.5471954345703125,0.140960693359375
1782986379727895300,1.003895263671875,-0.8167266845703125,-0.544769287109375,0.12506103515625
1782986379737969200,1.01396923828125,-0.8176116943359375,-0.5417633056640625,0.1035919189453125
1782986379748044300,1.024044189453125,-0.827972412109375,-0.5431365966796875,0.086212158203125
1782986379758118100,1.0341181640625,-0.836669921875,-0.542633056640625,0.07891845703125
1782986379768192300,1.044192138671875,-0.837249755859375,-0.5406341552734375,0.081329345703125
1782986379778267400,1.054267333984375,-0.8401031494140625,-0.54119873046875,0.083831787109375
1782986379788341200,1.06434130859375,-0.8430328369140625,-0.54595947265625,0.0815582275390625
1782986379798415400,1.074415283203125,-0.841217041015625,-0.549652099609375,0.0778350830078125
1782986379808490200,1.084490234375,-0.83831787109375,-0.5540771484375,0.0672760009765625
1782986379818564400,1.094564453125,-0.8325347900390625,-0.554534912109375,0.0654296875
1782986379828638200,1.10463818359375,-0.821319580078125,-0.55157470703125,0.0720367431640625
1782986379838713300,1.11471337890625,-0.8032684326171875,-0.544769287109375,0.079925537109375
1782986379848787200,1.124787109375,-0.7922821044921875,-0.539398193359375,0.0892181396484375
1782986379858861300,1.134861328125,-0.7920379638671875,-0.5410614013671875,0.0830535888671875
1782986379868935400,1.144935302734375,-0.8034515380859375,-0.5462493896484375,0.0724334716796875
1782986379879010300,1.15501025390625,-0.8120574951171875,-0.5430908203125,0.0692291259765625
1782986379889084400,1.16508447265625,-0.8162078857421875,-0.5415191650390625,0.0631103515625
1782986379899158300,1.175158203125,-0.8192291259765625,-0.5375823974609375,0.0695953369140625
1782986379909233400,1.1852333984375,-0.815887451171875,-0.534027099609375,0.0767059326171875
1782986379919307300,1.195307373046875,-0.811187744140625,-0.533111572265625,0.0840911865234375
1782986379929381400,1.20538134765625,-0.8149261474609375,-0.53936767578125,0.090087890625
1782986379939456300,1.215456298828125,-0.8239288330078125,-0.543609619140625,0.08966064453125
1782986379949530400,1.2255302734375,-0.8369903564453125,-0.5475616455078125,0.085205078125
1782986379959604200,1.235604248046875,-0.85601806640625,-0.551239013671875,0.0773468017578125
1782986379969679400,1.245679443359375,-0.866455078125,-0.5533447265625,0.068267822265625
1782986379979753200,1.255753173828125,-0.8600616455078125,-0.55731201171875,0.063323974609375
1782986379989827300,1.265827392578125,-0.84521484375,-0.556121826171875,0.06488037109375
1782986379999902200,1.275902099609375,-0.8330230712890625,-0.5579071044921875,0.073272705078125
1782986380009976300,1.285976318359375,-0.8268890380859375,-0.5604248046875,0.079345703125
1782986380020050200,1.29605029296875,-0.8273773193359375,-0.5636138916015625,0.076751708984375
1782986380030124300,1.306124267578125,-0.83074951171875,-0.5639190673828125,0.077545166015625
1782986380040199200,1.31619921875,-0.824554443359375,-0.56146240234375,0.0778656005859375
1782986380050273500,1.3262734375,-0.8199615478515625,-0.5618438720703125,0.0807647705078125
1782986380060347400,1.336347412109375,-0.817962646484375,-0.561126708984375,0.0803070068359375
1782986380070422500,1.346422607421875,-0.8159942626953125,-0.561737060546875,0.076904296875
1782986380080496400,1.356496337890625,-0.8166351318359375,-0.561065673828125,0.071258544921875
1782986380090570200,1.3665703125,-0.81866455078125,-0.55474853515625,0.083740234375
1782986380100645400,1.376645263671875,-0.8248443603515625,-0.555206298828125,0.0836181640625
1782986380110719200,1.38671923828125,-0.82269287109375,-0.55889892578125,0.0737762451171875
1782986380120793300,1.39679345703125,-0.818328857421875,-0.5615386962890625,0.0728302001953125
1782986380130868200,1.4068681640625,-0.81365966796875,-0.5671539306640625,0.0724334716796875
1782986380140942300,1.4169423828125,-0.804962158203125,-0.572052001953125,0.0702362060546875
1782986380151016200,1.42701611328125,-0.796722412109375,-0.5745849609375,0.06512451171875
1782986380161090300,1.43709033203125,-0.7932281494140625,-0.576629638671875,0.0635528564453125
1782986380171165200,1.447165283203125,-0.79412841796875,-0.5789337158203125,0.06451416015625
1782986380181239300,1.4572392578125,-0.7953643798828125,-0.5788726806640625,0.0640411376953125
1782986380191313200,1.467313232421875,-0.79901123046875,-0.5780029296875,0.060546875
1782986380201388300,1.47738818359375,-0.80889892578125,-0.5763702392578125,0.0624542236328125
1782986380211462100,1.487462158203125,-0.8188629150390625,-0.5787506103515625,0.0594329833984375
1782986380221536500,1.49753662109375,-0.8300933837890625,-0.580291748046875,0.05230712890625
1782986380231611100,1.507611083984375,-0.84368896484375,-0.5782470703125,0.0499114990234375
1782986380241685500,1.517685546875,-0.845794677734375,-0.5736541748046875,0.0505218505859375
1782986380251759400,1.52775927734375,-0.83978271484375,-0.56915283203125,0.0511627197265625
1782986380261834500,1.53783447265625,-0.837005615234375,-0.5671844482421875,0.0543670654296875
1782986380271908400,1.547908447265625,-0.8346099853515625,-0.5677490234375,0.054168701171875
1782986380281982500,1.557982421875,-0.824493408203125,-0.566741943359375,0.0500335693359375
1782986380292056300,1.568056396484375,-0.8165283203125,-0.568511962890625,0.051971435546875
1782986380302131500,1.57813134765625,-0.8105010986328125,-0.5717620849609375,0.0572509765625
1782986380312205300,1.588205322265625,-0.804229736328125,-0.5751495361328125,0.05352783203125
1782986380322279200,1.598279052734375,-0.799285888671875,-0.574981689453125,0.052825927734375
1782986380332354300,1.608354248046875,-0.7917327880859375,-0.5758056640625,0.0542755126953125
1782986380342428200,1.61842822265625,-0.788604736328125,-0.576690673828125,0.0578460693359375
1782986380352502300,1.628502197265625,-0.795166015625,-0.576385498046875,0.058990478515625
1782986380362577200,1.6385771484375,-0.7959442138671875,-0.574493408203125,0.06072998046875
1782986380372651300,1.6486513671875,-0.7931365966796875,-0.572723388671875,0.06219482421875
1782986380382725000,1.65872509765625,-0.7893829345703125,-0.5749969482421875,0.059722900390625
1782986380392800300,1.66880029296875,-0.7887725830078125,-0.57598876953125,0.06048583984375
1782986380402874000,1.6788740234375,-0.7856597900390625,-0.58099365234375,0.063934326171875
1782986380412948500,1.688948486328125,-0.7928619384765625,-0.58612060546875,0.06768798828125
1782986380423022300,1.699022216796875,-0.8013916015625,-0.5898895263671875,0.07147216796875
1782986380433097500,1.709097412109375,-0.8086395263671875,-0.58929443359375,0.0790863037109375
1782986380443171300,1.71917138671875,-0.8103179931640625,-0.5887908935546875,0.08660888671875
1782986380453245400,1.729245361328125,-0.8088226318359375,-0.5845184326171875,0.0897979736328125
1782986380463320300,1.7393203125,-0.8094635009765625,-0.58135986328125,0.0872650146484375
1782986380473394400,1.74939453125,-0.807830810546875,-0.578277587890625,0.08026123046875
1782986380483468300,1.75946826171875,-0.8106842041015625,-0.5780487060546875,0.0764312744140625
1782986380493543400,1.76954345703125,-0.81695556640625,-0.5798187255859375,0.07470703125
1782986380503617300,1.7796171875,-0.8203887939453125,-0.5768585205078125,0.0753021240234375
1782986380513691100,1.789691162109375,-0.8219146728515625,-0.573883056640625,0.0716400146484375
1782986380523766300,1.799766357421875,-0.813720703125,-0.572845458984375,0.072479248046875
1782986380533840400,1.80984033203125,-0.80615234375,-0.5768890380859375,0.073516845703125
1782986380543914200,1.819914306640625,-0.79693603515625,-0.582763671875,0.0735015869140625
1782986380553988000,1.829988037109375,-0.7913360595703125,-0.5880126953125,0.071746826171875
1782986380564063200,1.840063232421875,-0.7871551513671875,-0.5893707275390625,0.067962646484375
1782986380574137000,1.85013720703125,-0.78863525390625,-0.5965118408203125,0.067413330078125
1782986380584211500,1.86021142578125,-0.79388427734375,-0.59930419921875,0.0647125244140625
1782986380594286000,1.8702861328125,-0.798919677734375,-0.594635009765625,0.0697479248046875
1782986380604360400,1.8803603515625,-0.7967071533203125,-0.5890350341796875,0.0755462646484375
1782986380614434300,1.890434326171875,-0.798980712890625,-0.5887451171875,0.0875244140625
1782986380624509400,1.900509521484375,-0.803466796875,-0.58984375,0.0894622802734375
1782986380634583300,1.910583251953125,-0.810577392578125,-0.5861053466796875,0.083953857421875
1782986380644657400,1.920657470703125,-0.813323974609375,-0.5851287841796875,0.0770416259765625
1782986380654732300,1.930732177734375,-0.81396484375,-0.5853271484375,0.075469970703125
1782986380664806400,1.940806396484375,-0.810943603515625,-0.5868072509765625,0.0799560546875
1782986380674880300,1.95088037109375,-0.801422119140625,-0.58795166015625,0.0849761962890625
1782986380684955400,1.960955322265625,-0.7898101806640625,-0.587158203125,0.082672119140625
1782986380695029200,1.971029296875,-0.783050537109375,-0.5899810791015625,0.079833984375
1782986380705103400,1.981103271484375,-0.7817535400390625,-0.591339111328125,0.07415771484375
1782986380715177200,1.99117724609375,-0.78387451171875,-0.59124755859375,0.07073974609375
1782986380725252400,2.00125244140625,-0.792724609375,-0.590972900390625,0.0683441162109375
1782986380735326200,2.011326171875,-0.7978363037109375,-0.590179443359375,0.0696563720703125
1782986380745400000,2.021400146484375,-0.798309326171875,-0.58807373046875,0.071197509765625
1782986380755475200,2.03147509765625,-0.7961273193359375,-0.589202880859375,0.07275390625
1782986380765549300,2.04154931640625,-0.7985076904296875,-0.5892181396484375,0.07421875
1782986380775623400,2.05162353515625,-0.801727294921875,-0.5860595703125,0.073883056640625
1782986380785698300,2.0616982421875,-0.8018341064453125,-0.5842132568359375,0.075897216796875
1782986380795772400,2.0717724609375,-0.7988739013671875,-0.5833740234375,0.079315185546875
1782986380805846500,2.081846435546875,-0.800079345703125,-0.58306884765625,0.078399658203125
1782986380815921400,2.09192138671875,-0.7977752685546875,-0.58343505859375,0.077911376953125
1782986380825995500,2.10199560546875,-0.7975921630859375,-0.5813140869140625,0.0774993896484375
1782986380836069400,2.1120693359375,-0.79595947265625,-0.58209228515625,0.0736083984375
1782986380846143500,2.1221435546875,-0.7942352294921875,-0.5853118896484375,0.0721435546875
1782986380856218400,2.13221826171875,-0.78985595703125,-0.5872344970703125,0.070404052734375
1782986380866292500,2.14229248046875,-0.786895751953125,-0.5874176025390625,0.0674591064453125
1782986380876366300,2.152366455078125,-0.78790283203125,-0.5896453857421875,0.0690460205078125
1782986380886441500,2.16244140625,-0.7986907958984375,-0.592987060546875,0.0688018798828125
1782986380896515300,2.172515380859375,-0.80633544921875,-0.591461181640625,0.0738983154296875
1782986380906589400,2.18258935546875,-0.807373046875,-0.5897216796875,0.0773468017578125
1782986380916664300,2.192664306640625,-0.805511474609375,-0.589385986328125,0.08154296875
1782986380926738400,2.202738525390625,-0.8060455322265625,-0.5903472900390625,0.0815277099609375
1782986380936812300,2.212812255859375,-0.8055267333984375,-0.59271240234375,0.0781402587890625
1782986380946887400,2.222887451171875,-0.8050384521484375,-0.59197998046875,0.0762939453125
1782986380956961300,2.232961181640625,-0.803192138671875,-0.5931396484375,0.0773468017578125
1782986380967035400,2.243035400390625,-0.797119140625,-0.597320556640625,0.081146240234375
1782986380977109500,2.253109619140625,-0.7908477783203125,-0.599029541015625,0.0792999267578125
1782986380987184400,2.263184326171875,-0.790679931640625,-0.595916748046875,0.077239990234375
1782986380997258500,2.273258544921875,-0.7975311279296875,-0.5970916748046875,0.0758209228515625
1782986381007332400,2.283332275390625,-0.802734375,-0.59722900390625,0.0694122314453125
1782986381017407500,2.293407470703125,-0.7977294921875,-0.59539794921875,0.0700531005859375
1782986381027481300,2.3034814453125,-0.793609619140625,-0.5950469970703125,0.07275390625
1782986381037555500,2.313555419921875,-0.789520263671875,-0.598236083984375,0.076568603515625
1782986381047630300,2.32363037109375,-0.789215087890625,-0.603302001953125,0.0790557861328125
1782986381057704400,2.333704345703125,-0.789886474609375,-0.607513427734375,0.08221435546875
1782986381067778300,2.3437783203125,-0.7885894775390625,-0.60693359375,0.0865936279296875
1782986381077853400,2.353853515625,-0.78680419921875,-0.604339599609375,0.0931549072265625
1782986381087927300,2.36392724609375,-0.7855682373046875,-0.59722900390625,0.09918212890625
1782986381098001400,2.37400146484375,-0.784271240234375,-0.5935211181640625,0.099212646484375
1782986381108076300,2.384076171875,-0.783477783203125,-0.5947113037109375,0.088714599609375
1782986381118150400,2.394150390625,-0.7859039306640625,-0.5954132080078125,0.075836181640625
1782986381128224300,2.404224365234375,-0.787445068359375,-0.5963287353515625,0.0660858154296875
1782986381138298400,2.41429833984375,-0.7885894775390625,-0.5972442626953125,0.066986083984375
1782986381148373200,2.424373291015625,-0.790252685546875,-0.594818115234375,0.072784423828125
1782986381158447600,2.434447509765625,-0.800445556640625,-0.590087890625,0.0731658935546875
1782986381168521500,2.444521484375,-0.807952880859375,-0.5910491943359375,0.07037353515625
1782986381178596600,2.4545966796875,-0.80499267578125,-0.594085693359375,0.0675201416015625
1782986381188670500,2.46467041015625,-0.8010711669921875,-0.59735107421875,0.069091796875
1782986381198744300,2.474744384765625,-0.7959442138671875,-0.6024017333984375,0.06939697265625
1782986381208819500,2.4848193359375,-0.791961669921875,-0.6049346923828125,0.0663299560546875
1782986381218893300,2.494893310546875,-0.785980224609375,-0.604248046875,0.0653228759765625
1782986381228967400,2.504967529296875,-0.7799072265625,-0.602294921875,0.068389892578125
1782986381239042300,2.515042236328125,-0.78009033203125,-0.5987091064453125,0.0739593505859375
1782986381249116400,2.525116455078125,-0.793243408203125,-0.5962066650390625,0.0745086669921875
1782986381259190300,2.535190185546875,-0.8055877685546875,-0.5944976806640625,0.0776519775390625
1782986381269264400,2.545264404296875,-0.804901123046875,-0.5919036865234375,0.0791168212890625
1782986381279339300,2.55533935546875,-0.7983856201171875,-0.592376708984375,0.0810089111328125
1782986381289413400,2.565413330078125,-0.7953948974609375,-0.5962066650390625,0.0871429443359375
1782986381299487200,2.5754873046875,-0.79132080078125,-0.5960845947265625,0.0837554931640625
1782986381309562400,2.585562255859375,-0.7822723388671875,-0.59271240234375,0.0814971923828125
1782986381319636200,2.59563623046875,-0.7696685791015625,-0.59417724609375,0.0783843994140625
1782986381329710600,2.605710693359375,-0.7639923095703125,-0.5983428955078125,0.0773162841796875
1782986381339785200,2.61578515625,-0.7712249755859375,-0.6029052734375,0.072723388671875
1782986381349859600,2.625859619140625,-0.781341552734375,-0.6035003662109375,0.067474365234375
1782986381359933400,2.635933349609375,-0.7830963134765625,-0.5992889404296875,0.0680999755859375
1782986381370008600,2.646008544921875,-0.7805633544921875,-0.59625244140625,0.072113037109375
1782986381380082400,2.65608251953125,-0.78204345703125,-0.5974578857421875,0.078857421875
1782986381390156500,2.666156494140625,-0.7865753173828125,-0.5969390869140625,0.0829925537109375
1782986381400230400,2.67623046875,-0.7893829345703125,-0.5960845947265625,0.082794189453125
1782986381410305500,2.686305419921875,-0.787109375,-0.59613037109375,0.082611083984375
1782986381420379400,2.69637939453125,-0.7870635986328125,-0.5976409912109375,0.0777435302734375
1782986381430453200,2.706453369140625,-0.78729248046875,-0.60302734375,0.0750885009765625
1782986381440528400,2.7165283203125,-0.785430908203125,-0.6024932861328125,0.0732421875
1782986381450602200,2.726602294921875,-0.789398193359375,-0.597015380859375,0.0723724365234375
1782986381460676400,2.73667626953125,-0.79595947265625,-0.595489501953125,0.068359375
1782986381470751200,2.746751220703125,-0.79638671875,-0.5944976806640625,0.065460205078125
1782986381480825300,2.756825439453125,-0.7975311279296875,-0.5971527099609375,0.068817138671875
1782986381490899200,2.766899169921875,-0.79833984375,-0.6002960205078125,0.0751495361328125
1782986381500974300,2.776974365234375,-0.80413818359375,-0.59765625,0.07318115234375
1782986381511048200,2.787048095703125,-0.8103179931640625,-0.595184326171875,0.0706329345703125
1782986381521122600,2.79712255859375,-0.8140106201171875,-0.5927886962890625,0.070159912109375
1782986381531196400,2.807196533203125,-0.8106689453125,-0.593994140625,0.0730133056640625
1782986381541271600,2.817271484375,-0.8068389892578125,-0.59576416015625,0.0746307373046875
1782986381551345400,2.827345458984375,-0.7996368408203125,-0.59765625,0.073150634765625
1782986381561419500,2.83741943359375,-0.79522705078125,-0.598297119140625,0.069244384765625
1782986381571494400,2.847494384765625,-0.7939605712890625,-0.5977630615234375,0.069610595703125
1782986381581568500,2.857568603515625,-0.7897491455078125,-0.5985260009765625,0.0708770751953125
1782986381591642400,2.867642333984375,-0.784088134765625,-0.599853515625,0.0734100341796875
1782986381601717500,2.877717529296875,-0.77783203125,-0.602874755859375,0.0749664306640625
1782986381611791400,2.887791259765625,-0.776092529296875,-0.6021270751953125,0.077880859375
1782986381621865200,2.897865234375,-0.7766571044921875,-0.60040283203125,0.077484130859375
1782986381631940400,2.9079404296875,-0.779754638671875,-0.59967041015625,0.07818603515625
1782986381642014500,2.918014404296875,-0.77777099609375,-0.5984344482421875,0.078460693359375
1782986381652088300,2.92808837890625,-0.7796173095703125,-0.599884033203125,0.0757293701171875
1782986381662163500,2.93816357421875,-0.7866973876953125,-0.5993499755859375,0.0769195556640625
1782986381672237300,2.9482373046875,-0.7914886474609375,-0.603759765625,0.083984375
1782986381682311400,2.9583115234375,-0.7929229736328125,-0.5989227294921875,0.0807342529296875
1782986381692385500,2.968385498046875,-0.7928009033203125,-0.5952606201171875,0.0764617919921875
1782986381702460400,2.97846044921875,-0.7930755615234375,-0.5928497314453125,0.07769775390625
1782986381712534500,2.988534423828125,-0.7909088134765625,-0.5924530029296875,0.0789642333984375
1782986381722608400,2.9986083984375,-0.7884521484375,-0.5910491943359375,0.081024169921875
1782986381732683500,3.00868359375,-0.788726806640625,-0.592010498046875,0.07891845703125
1782986381742757400,3.01875732421875,-0.79730224609375,-0.5909881591796875,0.074493408203125
1782986381752831500,3.02883154296875,-0.804901123046875,-0.58819580078125,0.0733795166015625
1782986381762906600,3.03890673828125,-0.8075408935546875,-0.5858154296875,0.0772552490234375
1782986381772980500,3.04898046875,-0.808441162109375,-0.5873870849609375,0.0779876708984375
1782986381783054600,3.0590546875,-0.810302734375,-0.5879364013671875,0.07562255859375
1782986381793129500,3.06912939453125,-0.8132781982421875,-0.5896759033203125,0.0732421875
1782986381803203600,3.07920361328125,-0.8147125244140625,-0.5901031494140625,0.07147216796875
1782986381813277400,3.08927734375,-0.81646728515625,-0.5906829833984375,0.070953369140625
1782986381823351600,3.0993515625,-0.8126373291015625,-0.594085693359375,0.0727386474609375
1782986381833426400,3.109426513671875,-0.8056793212890625,-0.5924835205078125,0.0751800537109375
1782986381843500500,3.11950048828125,-0.797943115234375,-0.5941162109375,0.0752410888671875
1782986381853574400,3.129574462890625,-0.79400634765625,-0.5955810546875,0.075531005859375
1782986381863649500,3.1396494140625,-0.7956695556640625,-0.59619140625,0.07470703125
1782986381873723400,3.149723388671875,-0.7978363037109375,-0.5951690673828125,0.071258544921875
1782986381883797800,3.1597978515625,-0.800018310546875,-0.5941619873046875,0.0717620849609375
1782986381893872400,3.169872314453125,-0.7984771728515625,-0.5940399169921875,0.0753936767578125
1782986381903946800,3.17994677734375,-0.796295166015625,-0.5939788818359375,0.0761566162109375
1782986381914020600,3.1900205078125,-0.7973480224609375,-0.592437744140625,0.078765869140625
1782986381924095700,3.200095703125,-0.8003082275390625,-0.59033203125,0.0837249755859375
1782986381934169600,3.210169677734375,-0.8002471923828125,-0.5857696533203125,0.07940673828125
1782986381944243700,3.22024365234375,-0.7944793701171875,-0.5865631103515625,0.0778350830078125
1782986381954318600,3.230318603515625,-0.79608154296875,-0.5875244140625,0.0780029296875
1782986381964392700,3.240392822265625,-0.798004150390625,-0.5853271484375,0.0778961181640625
1782986381974466600,3.250466552734375,-0.7972259521484375,-0.582916259765625,0.074310302734375
1782986381984540400,3.26054052734375,-0.796173095703125,-0.5817718505859375,0.0738372802734375
1782986381994615600,3.270615478515625,-0.7942047119140625,-0.58087158203125,0.0718231201171875
1782986382004689400,3.280689453125,-0.7927093505859375,-0.58154296875,0.07293701171875
1782986382014763500,3.290763427734375,-0.791015625,-0.58123779296875,0.07244873046875
1782986382024838400,3.30083837890625,-0.7942962646484375,-0.5825347900390625,0.070709228515625
1782986382034912500,3.31091259765625,-0.7958984375,-0.583404541015625,0.0701141357421875
1782986382044986400,3.320986328125,-0.7972564697265625,-0.5858612060546875,0.0687713623046875
1782986382055061500,3.3310615234375,-0.797760009765625,-0.589324951171875,0.07330322265625
1782986382065135400,3.34113525390625,-0.7987213134765625,-0.5915374755859375,0.08135986328125
1782986382075209700,3.351209716796875,-0.792938232421875,-0.589080810546875,0.0892181396484375
1782986382085284400,3.361284423828125,-0.7884368896484375,-0.5861663818359375,0.093231201171875
1782986382095358700,3.371358642578125,-0.7838287353515625,-0.5805511474609375,0.0916748046875
1782986382105432600,3.3814326171875,-0.7780609130859375,-0.5811920166015625,0.0876922607421875
1782986382115506700,3.391506591796875,-0.775970458984375,-0.584259033203125,0.08026123046875
1782986382125581600,3.40158154296875,-0.7817230224609375,-0.587249755859375,0.070068359375
1782986382135655700,3.41165576171875,-0.7870025634765625,-0.5877532958984375,0.0644683837890625
1782986382145729500,3.4217294921875,-0.7942047119140625,-0.585479736328125,0.0640716552734375
1782986382155804700,3.4318046875,-0.80145263671875,-0.588104248046875,0.067413330078125
1782986382165878500,3.44187841796875,-0.8116912841796875,-0.5906219482421875,0.069732666015625
1782986382175952600,3.45195263671875,-0.8189697265625,-0.591827392578125,0.067718505859375
1782986382186027500,3.462027587890625,-0.818328857421875,-0.592987060546875,0.0643157958984375
1782986382196101600,3.4721015625,-0.8157196044921875,-0.5946197509765625,0.0645294189453125
1782986382206175500,3.482175537109375,-0.80767822265625,-0.5957183837890625,0.0645294189453125
1782986382216250600,3.492250732421875,-0.7987060546875,-0.5978851318359375,0.0637359619140625
1782986382226324500,3.502324462890625,-0.79541015625,-0.5995941162109375,0.0641937255859375
1782986382236398300,3.5123984375,-0.795745849609375,-0.598785400390625,0.0643768310546875
1782986382246473500,3.522473388671875,-0.801177978515625,-0.595977783203125,0.0650787353515625
1782986382256547300,3.53254736328125,-0.8070831298828125,-0.594085693359375,0.0699005126953125
1782986382266621700,3.54262158203125,-0.8130340576171875,-0.5906219482421875,0.070770263671875
1782986382276695600,3.552695556640625,-0.8182830810546875,-0.5861663818359375,0.0730743408203125
1782986382286770700,3.562770751953125,-0.8192901611328125,-0.5862274169921875,0.073699951171875
1782986382296844500,3.572844482421875,-0.8222503662109375,-0.5881500244140625,0.075958251953125
1782986382306918700,3.582918701171875,-0.8195648193359375,-0.587646484375,0.079437255859375
1782986382316993500,3.59299365234375,-0.81280517578125,-0.588287353515625,0.07781982421875
1782986382327067600,3.603067626953125,-0.804168701171875,-0.5892486572265625,0.077850341796875
1782986382337141500,3.6131416015625,-0.803802490234375,-0.5901336669921875,0.0808563232421875
1782986382347216600,3.623216552734375,-0.7969512939453125,-0.58929443359375,0.0819549560546875
1782986382357290500,3.63329052734375,-0.790191650390625,-0.5899810791015625,0.0792083740234375
1782986382367364600,3.643364501953125,-0.7888031005859375,-0.591949462890625,0.07867431640625
1782986382377439500,3.653439453125,-0.792633056640625,-0.5895233154296875,0.0794830322265625
1782986382387513600,3.663513671875,-0.7936553955078125,-0.5857086181640625,0.0768280029296875
1782986382397587500,3.67358740234375,-0.795318603515625,-0.5868377685546875,0.0708465576171875
1782986382407661300,3.683661376953125,-0.7979888916015625,-0.5849151611328125,0.0649871826171875
1782986382417736400,3.693736328125,-0.801849365234375,-0.5854034423828125,0.063140869140625
1782986382427810600,3.703810546875,-0.802703857421875,-0.5867156982421875,0.0632781982421875
1782986382437884700,3.713884765625,-0.8028411865234375,-0.5883941650390625,0.06573486328125
1782986382447959600,3.72395947265625,-0.800994873046875,-0.58917236328125,0.06890869140625
1782986382458033700,3.73403369140625,-0.7994842529296875,-0.5885009765625,0.07177734375
1782986382468107500,3.744107421875,-0.8002777099609375,-0.58404541015625,0.071685791015625
1782986382478182700,3.7541826171875,-0.8043365478515625,-0.58392333984375,0.0704345703125
1782986382488256500,3.764256591796875,-0.802978515625,-0.5844879150390625,0.0672760009765625
1782986382498330600,3.77433056640625,-0.80072021484375,-0.5864715576171875,0.0650634765625
1782986382508405500,3.784405517578125,-0.7966156005859375,-0.5852508544921875,0.063812255859375
1782986382518479600,3.794479736328125,-0.794647216796875,-0.5839385986328125,0.0642242431640625
1782986382528553500,3.804553466796875,-0.7947845458984375,-0.5817108154296875,0.06170654296875
1782986382538628600,3.814628662109375,-0.7999725341796875,-0.584564208984375,0.0624847412109375
1782986382548702500,3.824702392578125,-0.8022613525390625,-0.5856475830078125,0.0637664794921875
1782986382558776600,3.834776611328125,-0.8013153076171875,-0.58648681640625,0.0638427734375
1782986382568850400,3.844850341796875,-0.7936553955078125,-0.586212158203125,0.0623321533203125
1782986382578925600,3.854925537109375,-0.7924957275390625,-0.5854949951171875,0.0556182861328125
1782986382588999400,3.86499951171875,-0.7952880859375,-0.5789642333984375,0.057647705078125
1782986382599073500,3.875073486328125,-0.7982940673828125,-0.5755615234375,0.062774658203125
1782986382609148400,3.8851484375,-0.798095703125,-0.5736846923828125,0.0669708251953125
1782986382619222500,3.895222412109375,-0.79986572265625,-0.5720672607421875,0.06988525390625
1782986382629296600,3.905296630859375,-0.803985595703125,-0.5691986083984375,0.068572998046875
1782986382639371500,3.91537158203125,-0.8078460693359375,-0.568572998046875,0.0689697265625
1782986382649445600,3.925445556640625,-0.81304931640625,-0.566650390625,0.066619873046875
1782986382659519700,3.935519775390625,-0.818817138671875,-0.56500244140625,0.0696868896484375
1782986382669594600,3.9455947265625,-0.8212127685546875,-0.5615386962890625,0.0722198486328125
1782986382679668700,3.955668701171875,-0.820587158203125,-0.5593719482421875,0.0747222900390625
1782986382689742600,3.96574267578125,-0.816650390625,-0.5587921142578125,0.07867431640625
1782986382699816400,3.97581640625,-0.8170623779296875,-0.5595245361328125,0.0768280029296875
1782986382709891600,3.9858916015625,-0.8191375732421875,-0.5602874755859375,0.0731658935546875
1782986382719965400,3.99596533203125,-0.8228912353515625,-0.562347412109375,0.07147216796875
1782986382730039600,4.00603955078125,-0.825531005859375,-0.5628509521484375,0.0693359375
1782986382740114400,4.016114501953125,-0.824920654296875,-0.5636138916015625,0.0726318359375
1782986382750188500,4.0261884765625,-0.8240966796875,-0.5651397705078125,0.073333740234375
1782986382760262400,4.036262451171875,-0.824554443359375,-0.567840576171875,0.073333740234375
1782986382770337300,4.046337158203125,-0.8243408203125,-0.5677032470703125,0.0706024169921875
1782986382780411100,4.0564111328125,-0.824493408203125,-0.5651397705078125,0.0690155029296875
1782986382790485500,4.066485595703125,-0.821136474609375,-0.563201904296875,0.0670928955078125
1782986382800560000,4.07656005859375,-0.816619873046875,-0.56103515625,0.0660552978515625
1782986382810634500,4.086634521484375,-0.80975341796875,-0.56317138671875,0.069580078125
1782986382820708400,4.096708251953125,-0.8041534423828125,-0.56317138671875,0.072509765625
1782986382830783500,4.106783447265625,-0.7999267578125,-0.5640869140625,0.07568359375
1782986382840857300,4.116857421875,-0.7973175048828125,-0.5635223388671875,0.07720947265625
1782986382850931500,4.126931396484375,-0.8019866943359375,-0.5635833740234375,0.07421875
1782986382861005300,4.13700537109375,-0.807037353515625,-0.5615081787109375,0.06689453125
1782986382871080400,4.14708056640625,-0.807464599609375,-0.5634918212890625,0.0604705810546875
1782986382881154300,4.157154296875,-0.808929443359375,-0.5647735595703125,0.0565032958984375
1782986382891228200,4.167228271484375,-0.81207275390625,-0.5691070556640625,0.05352783203125
1782986382901303300,4.17730322265625,-0.819732666015625,-0.5735931396484375,0.0575408935546875
1782986382911377200,4.187377197265625,-0.824920654296875,-0.5714874267578125,0.0662078857421875
1782986382921451300,4.197451171875,-0.82550048828125,-0.5695343017578125,0.0753326416015625
1782986382931526400,4.2075263671875,-0.8175048828125,-0.5661163330078125,0.08282470703125
1782986382941600300,4.217600341796875,-0.806304931640625,-0.56536865234375,0.0843048095703125
1782986382951674000,4.227674072265625,-0.7987823486328125,-0.5647125244140625,0.078125
1782986382961749200,4.237749267578125,-0.79833984375,-0.5663604736328125,0.066680908203125
1782986382971823000,4.247822998046875,-0.79974365234375,-0.5680084228515625,0.0590972900390625
1782986382981897500,4.2578974609375,-0.8039703369140625,-0.5693511962890625,0.0578155517578125
1782986382991971300,4.267971435546875,-0.8077850341796875,-0.5691986083984375,0.0597991943359375
1782986383002046500,4.27804638671875,-0.809417724609375,-0.5687713623046875,0.0634765625
1782986383012120300,4.288120361328125,-0.8085784912109375,-0.564056396484375,0.0643463134765625
1782986383022194400,4.2981943359375,-0.8066558837890625,-0.5603790283203125,0.0623626708984375
1782986383032269300,4.308269287109375,-0.8046875,-0.5631866455078125,0.0646514892578125
1782986383042343400,4.318343505859375,-0.8036041259765625,-0.566558837890625,0.06292724609375
1782986383052417300,4.328417236328125,-0.8095245361328125,-0.572296142578125,0.06109619140625
1782986383062492400,4.338492431640625,-0.81695556640625,-0.572784423828125,0.06109619140625
1782986383072566300,4.348566162109375,-0.825531005859375,-0.569732666015625,0.0629119873046875
1782986383082640400,4.358640380859375,-0.833984375,-0.5690155029296875,0.0625457763671875
1782986383092715300,4.36871533203125,-0.836578369140625,-0.5655364990234375,0.064910888671875
1782986383102789400,4.378789306640625,-0.83905029296875,-0.565338134765625,0.0662841796875
1782986383112863200,4.38886328125,-0.8379974365234375,-0.5644683837890625,0.0663909912109375
1782986383122938400,4.3989384765625,-0.8397064208984375,-0.5646209716796875,0.067047119140625
1782986383133012200,4.40901220703125,-0.8408966064453125,-0.563201904296875,0.0708160400390625
1782986383143086000,4.419086181640625,-0.837982177734375,-0.564727783203125,0.0713043212890625
1782986383153160400,4.429160400390625,-0.831939697265625,-0.5659637451171875,0.0714874267578125
1782986383163235000,4.439235107421875,-0.822540283203125,-0.5692596435546875,0.0707244873046875
1782986383173309400,4.449309326171875,-0.813232421875,-0.5736846923828125,0.066925048828125
1782986383183383300,4.45938330078125,-0.805084228515625,-0.5754241943359375,0.0660400390625
1782986383193458400,4.46945849609375,-0.7991790771484375,-0.5799407958984375,0.06658935546875
1782986383203532300,4.4795322265625,-0.801177978515625,-0.582672119140625,0.065887451171875
1782986383213606400,4.4896064453125,-0.803802490234375,-0.5826263427734375,0.066864013671875
1782986383223681300,4.499681396484375,-0.8072967529296875,-0.581939697265625,0.0700531005859375
1782986383233755400,4.50975537109375,-0.81085205078125,-0.5824127197265625,0.071624755859375
1782986383243829200,4.519829345703125,-0.8154754638671875,-0.583282470703125,0.0733795166015625
1782986383253904400,4.529904296875,-0.817230224609375,-0.5827484130859375,0.07867431640625
1782986383263978200,4.539978271484375,-0.81640625,-0.5784454345703125,0.07745361328125
1782986383274052400,4.55005224609375,-0.8124847412109375,-0.5761871337890625,0.0765380859375
1782986383284127200,4.560127197265625,-0.806732177734375,-0.5762481689453125,0.0771026611328125
1782986383294201300,4.570201416015625,-0.8020477294921875,-0.5774993896484375,0.0755157470703125
1782986383304275200,4.580275146484375,-0.799591064453125,-0.577850341796875,0.070098876953125
1782986383314349300,4.590349365234375,-0.7977447509765625,-0.5795440673828125,0.0666656494140625
1782986383324424200,4.600424072265625,-0.79974365234375,-0.579132080078125,0.064361572265625
1782986383334498300,4.610498291015625,-0.8087615966796875,-0.5786285400390625,0.061737060546875
1782986383344572400,4.620572509765625,-0.81640625,-0.5754547119140625,0.0610809326171875
1782986383354647300,4.630647216796875,-0.819244384765625,-0.5716552734375,0.06109619140625
1782986383364721400,4.640721435546875,-0.8153839111328125,-0.5672454833984375,0.060028076171875
1782986383374795300,4.650795166015625,-0.81781005859375,-0.5633697509765625,0.0632781982421875
1782986383384870400,4.660870361328125,-0.8162994384765625,-0.55963134765625,0.0665435791015625
1782986383394944300,4.6709443359375,-0.814605712890625,-0.55963134765625,0.0648193359375
1782986383405018400,4.681018310546875,-0.8134307861328125,-0.5579071044921875,0.064483642578125
1782986383415093500,4.691093505859375,-0.8113250732421875,-0.55645751953125,0.0613250732421875
1782986383425167400,4.70116748046875,-0.8065643310546875,-0.553253173828125,0.060150146484375
1782986383435241200,4.7112412109375,-0.797607421875,-0.55401611328125,0.0615386962890625
1782986383445316400,4.72131640625,-0.791412353515625,-0.5574188232421875,0.065032958984375
1782986383455390200,4.73139013671875,-0.7891693115234375,-0.5592193603515625,0.066864013671875
1782986383465464300,4.74146435546875,-0.7921142578125,-0.5579681396484375,0.063812255859375
1782986383475539200,4.751539306640625,-0.7932891845703125,-0.557373046875,0.0596771240234375
1782986383485613300,4.76161328125,-0.802642822265625,-0.55499267578125,0.062530517578125
1782986383495687200,4.771687255859375,-0.813629150390625,-0.5551300048828125,0.069183349609375
1782986383505761300,4.78176123046875,-0.8230133056640625,-0.555908203125,0.076263427734375
1782986383515835400,4.79183544921875,-0.8290863037109375,-0.554107666015625,0.074676513671875
1782986383525909500,4.801909423828125,-0.8299560546875,-0.5538177490234375,0.074951171875
1782986383535984400,4.811984375,-0.8261260986328125,-0.5547943115234375,0.0719757080078125
1782986383546058500,4.82205859375,-0.821563720703125,-0.5552825927734375,0.07049560546875
1782986383556132400,4.83213232421875,-0.815277099609375,-0.5584259033203125,0.07086181640625
1782986383566206200,4.842206298828125,-0.811981201171875,-0.5601654052734375,0.070770263671875
1782986383576281300,4.85228125,-0.809234619140625,-0.5620574951171875,0.06951904296875
1782986383586355200,4.862355224609375,-0.808837890625,-0.5647430419921875,0.0647125244140625
1782986383596429300,4.87242919921875,-0.8083343505859375,-0.5672760009765625,0.059844970703125
1782986383606504200,4.882504150390625,-0.8110198974609375,-0.5670928955078125,0.060791015625
1782986383616578300,4.892578369140625,-0.814666748046875,-0.5687255859375,0.0628509521484375
1782986383626652200,4.902652099609375,-0.8261871337890625,-0.5719451904296875,0.069549560546875
1782986383636727300,4.912727294921875,-0.8414154052734375,-0.57598876953125,0.078094482421875
1782986383646801200,4.92280126953125,-0.8488616943359375,-0.5779876708984375,0.0867919921875
1782986383656875300,4.932875244140625,-0.841796875,-0.57342529296875,0.0948638916015625
1782986383666950100,4.9429501953125,-0.822540283203125,-0.570587158203125,0.0961456298828125
1782986383677024300,4.953024169921875,-0.803680419921875,-0.571502685546875,0.0916748046875
1782986383687098400,4.963098388671875,-0.7953033447265625,-0.5736846923828125,0.0803985595703125
1782986383697172500,4.97317236328125,-0.7996368408203125,-0.5786895751953125,0.0696563720703125
1782986383707247400,4.983247314453125,-0.809356689453125,-0.5799407958984375,0.0631103515625
1782986383717321500,4.993321533203125,-0.8150787353515625,-0.5797271728515625,0.0615081787109375
1782986383727395300,5.003395263671875,-0.816680908203125,-0.5808868408203125,0.0650787353515625
1782986383737470500,5.013470458984375,-0.8160552978515625,-0.5856781005859375,0.0649871826171875
1782986383747544300,5.02354443359375,-0.8125457763671875,-0.5883026123046875,0.0622406005859375
1782986383757618200,5.0336181640625,-0.811431884765625,-0.590606689453125,0.05902099609375
1782986383767693000,5.043693115234375,-0.807281494140625,-0.593475341796875,0.0577850341796875
1782986383777767000,5.053766845703125,-0.802642822265625,-0.5943756103515625,0.05804443359375
1782986383787841000,5.063841064453125,-0.797698974609375,-0.5937652587890625,0.0623016357421875
1782986383797916200,5.073916259765625,-0.7980499267578125,-0.591827392578125,0.0666961669921875
1782986383807990000,5.083989990234375,-0.79949951171875,-0.5893096923828125,0.069915771484375
1782986383818064000,5.09406396484375,-0.800537109375,-0.5854034423828125,0.06854248046875
1782986383828139000,5.104138916015625,-0.800994873046875,-0.5823974609375,0.066619873046875
1782986383838212900,5.114212890625,-0.803863525390625,-0.5814056396484375,0.0634918212890625
1782986383848287200,5.124287353515625,-0.8026885986328125,-0.5800628662109375,0.0659637451171875
1782986383858361000,5.134361083984375,-0.7993316650390625,-0.5790863037109375,0.069793701171875
1782986383868436200,5.144436279296875,-0.7949371337890625,-0.57855224609375,0.06988525390625
1782986383878510000,5.154510009765625,-0.7897796630859375,-0.579437255859375,0.067840576171875
1782986383888584200,5.164584228515625,-0.789642333984375,-0.5799102783203125,0.0645751953125
1782986383898659000,5.1746591796875,-0.787506103515625,-0.5795135498046875,0.06488037109375
1782986383908733200,5.184733154296875,-0.790130615234375,-0.5809783935546875,0.0625152587890625
1782986383918807000,5.19480712890625,-0.7946319580078125,-0.5814208984375,0.0585479736328125
1782986383928882200,5.204882080078125,-0.7984161376953125,-0.584075927734375,0.0625
1782986383938956000,5.2149560546875,-0.8012237548828125,-0.584625244140625,0.0677032470703125
1782986383949030100,5.225030029296875,-0.8008270263671875,-0.5860137939453125,0.0682220458984375
1782986383959105000,5.23510498046875,-0.8040771484375,-0.58563232421875,0.06982421875
1782986383969179100,5.24517919921875,-0.807220458984375,-0.5850677490234375,0.073883056640625
1782986383979253000,5.2552529296875,-0.8082427978515625,-0.5829925537109375,0.075286865234375
1782986383989328100,5.265328125,-0.802703857421875,-0.5849609375,0.07635498046875
1782986383999402000,5.275402099609375,-0.8001251220703125,-0.58746337890625,0.0770416259765625
1782986384009475800,5.285475830078125,-0.800445556640625,-0.588470458984375,0.07525634765625
1782986384019551000,5.295551025390625,-0.799285888671875,-0.58807373046875,0.0727081298828125
1782986384029624800,5.305624755859375,-0.7956390380859375,-0.5881805419921875,0.0728302001953125
1782986384039699200,5.31569921875,-0.790496826171875,-0.5894317626953125,0.0740203857421875
1782986384049773000,5.32577294921875,-0.7910308837890625,-0.5906219482421875,0.073333740234375
1782986384059848200,5.33584814453125,-0.79168701171875,-0.588897705078125,0.071014404296875
1782986384069922000,5.345922119140625,-0.7938385009765625,-0.587554931640625,0.06732177734375
1782986384079996200,5.35599609375,-0.797821044921875,-0.586761474609375,0.0677337646484375
1782986384090071000,5.366071044921875,-0.80023193359375,-0.587982177734375,0.06951904296875
1782986384100145200,5.376145263671875,-0.7984619140625,-0.5899810791015625,0.064300537109375
1782986384110219000,5.386218994140625,-0.7916259765625,-0.5885772705078125,0.0602264404296875
1782986384120294100,5.396294189453125,-0.7870025634765625,-0.5907745361328125,0.0635223388671875
1782986384130368000,5.406367919921875,-0.7832489013671875,-0.592376708984375,0.06549072265625
1782986384140442000,5.416442138671875,-0.7875518798828125,-0.5951995849609375,0.0652313232421875
1782986384150517000,5.42651708984375,-0.79766845703125,-0.5942535400390625,0.0594482421875
1782986384160591000,5.436591064453125,-0.8092041015625,-0.59539794921875,0.057159423828125
1782986384170665000,5.4466650390625,-0.8166656494140625,-0.596160888671875,0.062469482421875
1782986384180740000,5.456739990234375,-0.8201446533203125,-0.596405029296875,0.066314697265625
1782986384190814000,5.46681396484375,-0.8190765380859375,-0.594482421875,0.0679931640625
1782986384200888000,5.47688818359375,-0.8167724609375,-0.5929107666015625,0.065765380859375
1782986384210962200,5.486962158203125,-0.809783935546875,-0.592559814453125,0.0655059814453125
1782986384221037000,5.497037109375,-0.80377197265625,-0.5929412841796875,0.0633392333984375
1782986384231111200,5.507111083984375,-0.7983551025390625,-0.5952301025390625,0.066925048828125
1782986384241185000,5.51718505859375,-0.7930908203125,-0.5944061279296875,0.0677947998046875
1782986384251260200,5.52726025390625,-0.7943572998046875,-0.59051513671875,0.0670318603515625
1782986384261334000,5.537333984375,-0.7968902587890625,-0.5874176025390625,0.06591796875
1782986384271408000,5.547408203125,-0.7927703857421875,-0.589385986328125,0.063995361328125
1782986384281483300,5.557483154296875,-0.78802490234375,-0.590057373046875,0.0618896484375
1782986384291557000,5.56755712890625,-0.7863006591796875,-0.595367431640625,0.0641632080078125
1782986384301631000,5.577630859375,-0.78656005859375,-0.598602294921875,0.0670013427734375
1782986384311706000,5.5877060546875,-0.7873382568359375,-0.60150146484375,0.073516845703125
1782986384321780000,5.597780029296875,-0.7896881103515625,-0.5984649658203125,0.0858306884765625
1782986384331854000,5.60785400390625,-0.78900146484375,-0.5925445556640625,0.09637451171875
1782986384341929000,5.617928955078125,-0.78570556640625,-0.5882568359375,0.0927886962890625
1782986384352003000,5.628003173828125,-0.7780303955078125,-0.5872039794921875,0.0862274169921875
1782986384362077000,5.638076904296875,-0.779510498046875,-0.5877838134765625,0.076751708984375
1782986384372152000,5.648152099609375,-0.780853271484375,-0.5863189697265625,0.0647735595703125
1782986384382226000,5.658225830078125,-0.7852325439453125,-0.583831787109375,0.0617218017578125
1782986384392300000,5.668300048828125,-0.7870330810546875,-0.5849151611328125,0.064178466796875
1782986384402374100,5.6783740234375,-0.790985107421875,-0.58709716796875,0.0649566650390625
1782986384412449000,5.688448974609375,-0.7910919189453125,-0.5914306640625,0.06829833984375
1782986384422523100,5.698523193359375,-0.7919921875,-0.595428466796875,0.070892333984375
1782986384432597200,5.70859716796875,-0.79302978515625,-0.5996551513671875,0.068603515625
1782986384442672000,5.718672119140625,-0.7950286865234375,-0.6041259765625,0.0641632080078125
1782986384452746200,5.728746337890625,-0.7960357666015625,-0.60699462890625,0.0610198974609375
1782986384462820000,5.738820068359375,-0.796844482421875,-0.607513427734375,0.0551910400390625
1782986384472895200,5.748895263671875,-0.7916412353515625,-0.6016998291015625,0.0601654052734375
1782986384482969000,5.758968994140625,-0.7961883544921875,-0.6004486083984375,0.0714263916015625
1782986384493043000,5.76904296875,-0.8070526123046875,-0.5999603271484375,0.077789306640625
1782986384503118000,5.7791181640625,-0.81793212890625,-0.596038818359375,0.0801239013671875
1782986384513192000,5.78919189453125,-0.8175201416015625,-0.5940093994140625,0.0755462646484375
1782986384523266000,5.79926611328125,-0.8074188232421875,-0.59375,0.07415771484375
1782986384533341200,5.809341064453125,-0.7971954345703125,-0.5966033935546875,0.0756988525390625
1782986384543415000,5.8194150390625,-0.785064697265625,-0.59686279296875,0.0773162841796875
1782986384553489000,5.829489013671875,-0.7718963623046875,-0.5968017578125,0.0775604248046875
1782986384563564000,5.83956396484375,-0.7660369873046875,-0.59869384765625,0.0764617919921875
1782986384573638000,5.849637939453125,-0.766448974609375,-0.59881591796875,0.0750579833984375
1782986384583712000,5.8597119140625,-0.7706451416015625,-0.6004180908203125,0.0744476318359375
1782986384593786000,5.8697861328125,-0.778564453125,-0.597869873046875,0.073822021484375
1782986384603861000,5.879861083984375,-0.7915191650390625,-0.597625732421875,0.0737762451171875
1782986384613935000,5.88993505859375,-0.8030548095703125,-0.59710693359375,0.0743865966796875
1782986384624009200,5.90000927734375,-0.80450439453125,-0.5981903076171875,0.0820159912109375
1782986384634084000,5.910083984375,-0.801239013671875,-0.598907470703125,0.087066650390625
1782986384644158200,5.920158203125,-0.798675537109375,-0.6026153564453125,0.0892791748046875
1782986384654232000,5.930232177734375,-0.79803466796875,-0.6050262451171875,0.0875701904296875
1782986384664307200,5.94030712890625,-0.796112060546875,-0.6049652099609375,0.0851898193359375
1782986384674381000,5.950381103515625,-0.7917327880859375,-0.6030120849609375,0.0861663818359375
1782986384684455200,5.960455078125,-0.787200927734375,-0.6021728515625,0.0829925537109375
1782986384694530000,5.970530029296875,-0.7845458984375,-0.6020050048828125,0.080291748046875
1782986384704604200,5.980604248046875,-0.785552978515625,-0.601043701171875,0.0780029296875
1782986384714678000,5.990677978515625,-0.788848876953125,-0.6023406982421875,0.076812744140625
1782986384724753200,6.000753173828125,-0.790008544921875,-0.6043548583984375,0.0747833251953125
1782986384734827000,6.010826904296875,-0.791748046875,-0.60595703125,0.07574462890625
1782986384744900900,6.02090087890625,-0.798248291015625,-0.6063995361328125,0.0772247314453125
1782986384754976000,6.03097607421875,-0.803497314453125,-0.6063232421875,0.073760986328125
1782986384765050000,6.041050048828125,-0.802459716796875,-0.6044464111328125,0.0718536376953125
1782986384775124500,6.05112451171875,-0.79425048828125,-0.6027069091796875,0.0732574462890625
1782986384785198300,6.0611982421875,-0.7855224609375,-0.6059417724609375,0.0731964111328125
1782986384795273500,6.0712734375,-0.7817535400390625,-0.6088409423828125,0.07232666015625
1782986384805347300,6.081347412109375,-0.782379150390625,-0.6070404052734375,0.071624755859375
1782986384815421700,6.091421630859375,-0.78704833984375,-0.603515625,0.070556640625
1782986384825496600,6.10149658203125,-0.7882843017578125,-0.603240966796875,0.071258544921875
1782986384835570700,6.11157080078125,-0.78619384765625,-0.60260009765625,0.0737152099609375
1782986384845644500,6.12164453125,-0.7820892333984375,-0.60491943359375,0.073638916015625
1782986384855719700,6.1317197265625,-0.7896728515625,-0.606414794921875,0.0760040283203125
1782986384865793500,6.14179345703125,-0.7824554443359375,-0.6035919189453125,0.08197021484375
1782986384875867600,6.15186767578125,-0.7798004150390625,-0.6018218994140625,0.076202392578125
1782986384885942500,6.161942626953125,-0.7843170166015625,-0.6008148193359375,0.0723724365234375
1782986384896016600,6.1720166015625,-0.792388916015625,-0.5987701416015625,0.070556640625
1782986384906090500,6.182090576171875,-0.7987823486328125,-0.59716796875,0.07098388671875
1782986384916165600,6.19216552734375,-0.8027801513671875,-0.5963134765625,0.072601318359375
1782986384926239500,6.202239501953125,-0.80364990234375,-0.59576416015625,0.07196044921875
1782986384936313600,6.212313720703125,-0.7991485595703125,-0.5962371826171875,0.0733642578125
1782986384946388500,6.222388427734375,-0.793243408203125,-0.5945587158203125,0.0741424560546875
1782986384956462600,6.232462646484375,-0.7854461669921875,-0.5937957763671875,0.0675811767578125
1782986384966536400,6.242536376953125,-0.78350830078125,-0.5941925048828125,0.05914306640625
1782986384976610600,6.252610595703125,-0.786773681640625,-0.59197998046875,0.0532989501953125
1782986384986685400,6.262685546875,-0.7881011962890625,-0.593719482421875,0.0528564453125
1782986384996759600,6.272759521484375,-0.7909698486328125,-0.59765625,0.055328369140625
1782986385006833700,6.282833740234375,-0.789764404296875,-0.59765625,0.064453125
1782986385016908500,6.292908447265625,-0.7874755859375,-0.5965423583984375,0.077880859375
1782986385026982700,6.302982666015625,-0.7805938720703125,-0.5921173095703125,0.0883941650390625
1782986385037056500,6.313056396484375,-0.7723236083984375,-0.592987060546875,0.0900115966796875
1782986385047131600,6.323131591796875,-0.768890380859375,-0.591888427734375,0.0803680419921875
1782986385057205500,6.33320556640625,-0.7654876708984375,-0.592041015625,0.067962646484375
1782986385067279600,6.343279541015625,-0.7659149169921875,-0.596160888671875,0.0623931884765625
1782986385077354800,6.353354736328125,-0.769775390625,-0.6010894775390625,0.0624542236328125
1782986385087428600,6.3634287109375,-0.782135009765625,-0.6008758544921875,0.0668792724609375
1782986385097502500,6.37350244140625,-0.790496826171875,-0.5982818603515625,0.0714111328125
1782986385107577600,6.38357763671875,-0.7965087890625,-0.599517822265625,0.0736083984375
1782986385117651500,6.3936513671875,-0.804351806640625,-0.6053619384765625,0.0751495361328125
1782986385127725600,6.4037255859375,-0.8089599609375,-0.6083221435546875,0.0762939453125
1782986385137800400,6.413800537109375,-0.8090057373046875,-0.6099700927734375,0.074798583984375
1782986385147874600,6.42387451171875,-0.7992095947265625,-0.614166259765625,0.07373046875
1782986385157948400,6.433948486328125,-0.7930450439453125,-0.614654541015625,0.0731048583984375
1782986385168022500,6.4440224609375,-0.79766845703125,-0.61773681640625,0.0743865966796875
1782986385178097400,6.454097412109375,-0.7998046875,-0.616180419921875,0.07696533203125
1782986385188171500,6.464171630859375,-0.8026580810546875,-0.6110687255859375,0.0794525146484375
1782986385198245600,6.47424560546875,-0.804779052734375,-0.6056060791015625,0.08062744140625
1782986385208320500,6.484320556640625,-0.803314208984375,-0.6042327880859375,0.0808868408203125
1782986385218394600,6.49439453125,-0.7983551025390625,-0.6064910888671875,0.0845184326171875
1782986385228468700,6.50446875,-0.793914794921875,-0.605712890625,0.08636474609375
1782986385238543600,6.514543701171875,-0.7871856689453125,-0.6029052734375,0.0883026123046875
1782986385248617700,6.52461767578125,-0.77899169921875,-0.6005859375,0.08538818359375
1782986385258691600,6.534691650390625,-0.775848388671875,-0.601348876953125,0.0815582275390625
1782986385268766700,6.5447666015625,-0.769989013671875,-0.598052978515625,0.0703582763671875
1782986385278840600,6.554840576171875,-0.7651519775390625,-0.591888427734375,0.06793212890625
1782986385288914400,6.56491455078125,-0.7709503173828125,-0.59283447265625,0.071929931640625
1782986385298989600,6.574989501953125,-0.7890625,-0.591766357421875,0.07769775390625
1782986385309063700,6.585063720703125,-0.805633544921875,-0.589691162109375,0.07891845703125
1782986385319137500,6.595137451171875,-0.8163299560546875,-0.5876312255859375,0.074554443359375
1782986385329212700,6.605212646484375,-0.8218994140625,-0.5829620361328125,0.072509765625
1782986385339286500,6.61528662109375,-0.8199005126953125,-0.5819091796875,0.0695343017578125
1782986385349360400,6.6253603515625,-0.81402587890625,-0.5836639404296875,0.0712432861328125
1782986385359434500,6.6354345703125,-0.8070068359375,-0.583160400390625,0.075958251953125
1782986385369509400,6.64550927734375,-0.80035400390625,-0.5801239013671875,0.0780487060546875
1782986385379583500,6.65558349609375,-0.7993316650390625,-0.5755767822265625,0.0803375244140625
1782986385389657600,6.66565771484375,-0.798065185546875,-0.5711669921875,0.0760498046875
1782986385399732500,6.675732421875,-0.794891357421875,-0.572296142578125,0.0712127685546875
1782986385409806600,6.685806640625,-0.7996063232421875,-0.5714874267578125,0.0732421875
1782986385419880700,6.695880615234375,-0.798065185546875,-0.5686798095703125,0.073150634765625
1782986385429955600,6.70595556640625,-0.792694091796875,-0.56988525390625,0.06890869140625
1782986385440029700,6.71602978515625,-0.7849884033203125,-0.5726318359375,0.0721893310546875
1782986385450103600,6.726103515625,-0.7840728759765625,-0.5755462646484375,0.071319580078125
1782986385460178700,6.7361787109375,-0.77838134765625,-0.581451416015625,0.0690765380859375
1782986385470252500,6.74625244140625,-0.77099609375,-0.5829620361328125,0.070770263671875
1782986385480326700,6.75632666015625,-0.7632904052734375,-0.5847015380859375,0.069122314453125
1782986385490401500,6.766401611328125,-0.757415771484375,-0.5838775634765625,0.0667877197265625
1782986385500475600,6.7764755859375,-0.759368896484375,-0.5821990966796875,0.0613861083984375
1782986385510549500,6.786549560546875,-0.7596435546875,-0.5831451416015625,0.0582122802734375
1782986385520624600,6.796624755859375,-0.761932373046875,-0.5850677490234375,0.0598907470703125
1782986385530698500,6.806698486328125,-0.7639617919921875,-0.5844268798828125,0.0670166015625
1782986385540772400,6.8167724609375,-0.7696685791015625,-0.5861358642578125,0.069915771484375
1782986385550847500,6.826847412109375,-0.7786865234375,-0.586029052734375,0.0677947998046875
1782986385560921600,6.836921630859375,-0.78900146484375,-0.5850372314453125,0.0686187744140625
1782986385570995500,6.846995361328125,-0.7979736328125,-0.583892822265625,0.065277099609375
1782986385581069600,6.857069580078125,-0.8011474609375,-0.581390380859375,0.060577392578125
1782986385591144400,6.86714453125,-0.80950927734375,-0.589874267578125,0.0574188232421875
1782986385601218600,6.877218505859375,-0.8283843994140625,-0.5999755859375,0.05938720703125
1782986385611292700,6.887292724609375,-0.84466552734375,-0.5976715087890625,0.0616912841796875
1782986385621367600,6.897367431640625,-0.85125732421875,-0.5964202880859375,0.0584259033203125
1782986385631441700,6.907441650390625,-0.852386474609375,-0.5948486328125,0.0598907470703125
1782986385641515500,6.917515625,-0.8462982177734375,-0.5948486328125,0.0677490234375
1782986385651590700,6.927590576171875,-0.8384552001953125,-0.5925140380859375,0.0724029541015625
1782986385661664500,6.93766455078125,-0.8318939208984375,-0.5869293212890625,0.073944091796875
1782986385671738600,6.947738525390625,-0.82830810546875,-0.5847015380859375,0.0767822265625
1782986385681813500,6.9578134765625,-0.8255615234375,-0.586151123046875,0.0732421875
1782986385691887600,6.9678876953125,-0.8226165771484375,-0.5886077880859375,0.06646728515625
1782986385701961500,6.97796142578125,-0.81829833984375,-0.590118408203125,0.06060791015625
1782986385712036600,6.98803662109375,-0.81298828125,-0.59649658203125,0.059417724609375
1782986385722110500,6.9981103515625,-0.8057098388671875,-0.60015869140625,0.061676025390625
1782986385732184600,7.0081845703125,-0.80078125,-0.6035614013671875,0.0706787109375
1782986385742259500,7.018259521484375,-0.794219970703125,-0.6024627685546875,0.077056884765625
1782986385752333600,7.02833349609375,-0.789581298828125,-0.5978240966796875,0.0812225341796875
1782986385762407400,7.038407470703125,-0.7846527099609375,-0.59246826171875,0.08270263671875
1782986385772483000,7.048483154296875,-0.78436279296875,-0.5893402099609375,0.0767974853515625
1782986385782557200,7.05855712890625,-0.7883758544921875,-0.5889129638671875,0.0678253173828125
1782986385792631000,7.068631103515625,-0.796875,-0.5911407470703125,0.060546875
1782986385802705200,7.078705078125,-0.8040924072265625,-0.590911865234375,0.05743408203125
1782986385812780000,7.088780029296875,-0.81011962890625,-0.591461181640625,0.0576019287109375
1782986385822854100,7.098854248046875,-0.81573486328125,-0.588897705078125,0.0645751953125
1782986385832928300,7.10892822265625,-0.81378173828125,-0.586700439453125,0.067413330078125
1782986385843003100,7.119003173828125,-0.808685302734375,-0.586334228515625,0.0655364990234375
1782986385853077200,7.1290771484375,-0.79681396484375,-0.58795166015625,0.06207275390625
1782986385863151000,7.139151123046875,-0.7905120849609375,-0.5888519287109375,0.05755615234375
1782986385873226200,7.149226318359375,-0.7839202880859375,-0.589874267578125,0.053192138671875
1782986385883300000,7.159300048828125,-0.781707763671875,-0.5915985107421875,0.05072021484375
1782986385893374200,7.169374267578125,-0.780731201171875,-0.5919189453125,0.0528564453125
1782986385903449000,7.179448974609375,-0.7853546142578125,-0.587310791015625,0.05743408203125
1782986385913523200,7.189523193359375,-0.7896881103515625,-0.5815887451171875,0.0601348876953125
1782986385923597000,7.19959716796875,-0.794403076171875,-0.5813446044921875,0.05926513671875
1782986385933672200,7.209672119140625,-0.8037567138671875,-0.5804595947265625,0.0637664794921875
1782986385943746000,7.21974609375,-0.806640625,-0.57989501953125,0.0626220703125
1782986385953820200,7.229820068359375,-0.8021697998046875,-0.58135986328125,0.058013916015625
1782986385963895000,7.23989501953125,-0.8005828857421875,-0.5802459716796875,0.053863525390625
1782986385973969200,7.24996923828125,-0.7952880859375,-0.5791778564453125,0.04833984375
1782986385984043000,7.26004296875,-0.7806549072265625,-0.581695556640625,0.0388946533203125
1782986385994118100,7.2701181640625,-0.774017333984375,-0.5771026611328125,0.045166015625
1782986386004192000,7.28019189453125,-0.778656005859375,-0.5678558349609375,0.0678558349609375
1782986386014266400,7.290266357421875,-0.7856903076171875,-0.5546875,0.0896148681640625
1782986386024340200,7.30034033203125,-0.7985382080078125,-0.549407958984375,0.0887451171875
1782986386034415400,7.310415283203125,-0.8132171630859375,-0.5582275390625,0.0757904052734375
1782986386044489200,7.3204892578125,-0.8289794921875,-0.5672149658203125,0.059814453125
1782986386054563000,7.33056298828125,-0.8424224853515625,-0.57293701171875,0.0523529052734375
1782986386064638200,7.34063818359375,-0.8452606201171875,-0.573455810546875,0.0577239990234375
1782986386074712000,7.350712158203125,-0.8385162353515625,-0.5699310302734375,0.0638885498046875
1782986386084786200,7.3607861328125,-0.828643798828125,-0.567779541015625,0.070953369140625
1782986386094861000,7.370861083984375,-0.8218231201171875,-0.568878173828125,0.0733489990234375
1782986386104935200,7.38093505859375,-0.817169189453125,-0.5733795166015625,0.071807861328125
1782986386115009000,7.391009033203125,-0.8134002685546875,-0.5771484375,0.066925048828125
1782986386125084200,7.401084228515625,-0.8097991943359375,-0.5778350830078125,0.05792236328125
1782986386135158000,7.411157958984375,-0.80792236328125,-0.5778961181640625,0.0523681640625
1782986386145232100,7.421232177734375,-0.8116607666015625,-0.5810089111328125,0.0490264892578125
1782986386155307000,7.43130712890625,-0.8139190673828125,-0.581085205078125,0.0491180419921875
1782986386165381000,7.441381103515625,-0.812042236328125,-0.57763671875,0.0457305908203125
1782986386175455000,7.451455078125,-0.8118743896484375,-0.576812744140625,0.0497589111328125
1782986386185530000,7.461530029296875,-0.8140106201171875,-0.5762786865234375,0.0556793212890625
1782986386195604000,7.47160400390625,-0.8170013427734375,-0.577545166015625,0.0553436279296875
1782986386205678300,7.48167822265625,-0.820465087890625,-0.574005126953125,0.0541534423828125
1782986386215753000,7.4917529296875,-0.82037353515625,-0.57098388671875,0.05560302734375
1782986386225827300,7.501827392578125,-0.823974609375,-0.5703277587890625,0.054595947265625
1782986386235901200,7.511901123046875,-0.82366943359375,-0.5726165771484375,0.049957275390625
1782986386245975300,7.521975341796875,-0.8213653564453125,-0.5748291015625,0.0474700927734375
1782986386256050200,7.53205029296875,-0.8211212158203125,-0.5773773193359375,0.0481414794921875
1782986386266124300,7.542124267578125,-0.81854248046875,-0.576751708984375,0.0500030517578125
1782986386276198100,7.5521982421875,-0.814910888671875,-0.57489013671875,0.04766845703125
1782986386286273300,7.562273193359375,-0.8152923583984375,-0.57586669921875,0.0456695556640625
1782986386296347100,7.57234716796875,-0.816497802734375,-0.575714111328125,0.0446014404296875
1782986386306421000,7.5824208984375,-0.820098876953125,-0.576202392578125,0.046630859375
1782986386316496100,7.59249609375,-0.8187255859375,-0.574676513671875,0.05035400390625
1782986386326570000,7.602570068359375,-0.816009521484375,-0.574920654296875,0.0571136474609375
1782986386336644000,7.61264404296875,-0.8133392333984375,-0.57244873046875,0.057373046875
1782986386346719000,7.622718994140625,-0.811859130859375,-0.5716552734375,0.059539794921875
1782986386356793000,7.63279296875,-0.808135986328125,-0.5717926025390625,0.060546875
1782986386366867000,7.642866943359375,-0.8022003173828125,-0.5716552734375,0.06201171875
1782986386376942000,7.652942138671875,-0.796173095703125,-0.57110595703125,0.06439208984375
1782986386387016000,7.663015869140625,-0.78875732421875,-0.574493408203125,0.0560302734375
1782986386397090300,7.67309033203125,-0.787384033203125,-0.5764617919921875,0.0528106689453125
1782986386407165000,7.6831650390625,-0.79083251953125,-0.576812744140625,0.0555572509765625
1782986386417239300,7.6932392578125,-0.7954254150390625,-0.575286865234375,0.0551910400390625
1782986386427313200,7.703313232421875,-0.7967681884765625,-0.57305908203125,0.0534515380859375
1782986386437388300,7.71338818359375,-0.795440673828125,-0.573455810546875,0.0546112060546875
1782986386447462100,7.723462158203125,-0.795440673828125,-0.570892333984375,0.0543975830078125
1782986386457536300,7.733536376953125,-0.800048828125,-0.5756683349609375,0.0528717041015625
1782986386467611100,7.743611083984375,-0.8040771484375,-0.579132080078125,0.049224853515625
1782986386477685200,7.753685302734375,-0.800201416015625,-0.5859527587890625,0.0503997802734375
1782986386487759000,7.763759033203125,-0.802459716796875,-0.587615966796875,0.056549072265625
1782986386497833200,7.773833251953125,-0.8048248291015625,-0.5847930908203125,0.0662841796875
1782986386507908000,7.783908203125,-0.8037261962890625,-0.5720977783203125,0.0782012939453125
1782986386517982200,7.793982177734375,-0.8050384521484375,-0.5653533935546875,0.0848236083984375
1782986386528056000,7.80405615234375,-0.8091278076171875,-0.564453125,0.08349609375
1782986386538131200,7.814131103515625,-0.81512451171875,-0.5661163330078125,0.0717620849609375
1782986386548205000,7.824205078125,-0.8242950439453125,-0.57147216796875,0.058807373046875
1782986386558279000,7.83427880859375,-0.834381103515625,-0.575042724609375,0.0557861328125
1782986386568354000,7.84435400390625,-0.8386688232421875,-0.5777587890625,0.050689697265625
1782986386578428000,7.854427978515625,-0.835662841796875,-0.5772857666015625,0.055694580078125
1782986386588502300,7.864502197265625,-0.825958251953125,-0.5763397216796875,0.0592498779296875
1782986386598577000,7.874576904296875,-0.8168792724609375,-0.5783538818359375,0.0648956298828125
1782986386608651300,7.8846513671875,-0.805877685546875,-0.5792694091796875,0.0657501220703125
1782986386618725000,7.89472509765625,-0.8019866943359375,-0.58123779296875,0.06341552734375
1782986386628800300,7.90480029296875,-0.8022003173828125,-0.583709716796875,0.0606842041015625
1782986386638874000,7.9148740234375,-0.8017425537109375,-0.5820770263671875,0.063201904296875
1782986386648948200,7.9249482421875,-0.805572509765625,-0.580322265625,0.065155029296875
1782986386659023000,7.935023193359375,-0.8057861328125,-0.5771942138671875,0.065826416015625
1782986386669097200,7.94509716796875,-0.805511474609375,-0.5756072998046875,0.07440185546875
1782986386679171000,7.955171142578125,-0.81109619140625,-0.572784423828125,0.07891845703125
1782986386689246200,7.96524609375,-0.8123626708984375,-0.5714263916015625,0.075164794921875
1782986386699320000,7.975320068359375,-0.8085784912109375,-0.570343017578125,0.07470703125
1782986386709394200,7.985394287109375,-0.8032684326171875,-0.57012939453125,0.073883056640625
1782986386719469000,7.995468994140625,-0.79217529296875,-0.5694122314453125,0.07000732421875
1782986386729543200,8.005543212890625,-0.787384033203125,-0.569976806640625,0.0692138671875
1782986386739617000,8.015616943359374,-0.7805328369140625,-0.5730743408203125,0.063690185546875
1782986386749692200,8.025692138671875,-0.7784576416015625,-0.57415771484375,0.060791015625
1782986386759766000,8.03576611328125,-0.7837066650390625,-0.5750732421875,0.0642242431640625
1782986386769840000,8.045840087890625,-0.790863037109375,-0.575775146484375,0.0661468505859375
1782986386779913200,8.055913330078125,-0.801239013671875,-0.573822021484375,0.06707763671875
1782986386789988000,8.065988037109374,-0.8093109130859375,-0.57379150390625,0.065338134765625
1782986386800062200,8.076062255859375,-0.814361572265625,-0.5748443603515625,0.0675048828125
1782986386810136000,8.086135986328125,-0.81689453125,-0.577850341796875,0.0705718994140625
1782986386820211200,8.096211181640625,-0.82159423828125,-0.578094482421875,0.072113037109375
1782986386830285000,8.10628515625,-0.8246002197265625,-0.5777587890625,0.0722503662109375
1782986386840359200,8.116359130859376,-0.825408935546875,-0.5771331787109375,0.0716400146484375
1782986386850434000,8.12643408203125,-0.824005126953125,-0.579925537109375,0.073028564453125
1782986386860508200,8.136508056640626,-0.821075439453125,-0.5812530517578125,0.070709228515625
1782986386870582000,8.14658203125,-0.826202392578125,-0.5830078125,0.0714874267578125
1782986386880657200,8.1566572265625,-0.8321075439453125,-0.58245849609375,0.073150634765625
1782986386890731000,8.16673095703125,-0.8366241455078125,-0.5804443359375,0.0705108642578125
1782986386900805000,8.17680517578125,-0.8349151611328125,-0.5828857421875,0.0685577392578125
1782986386910880000,8.1868798828125,-0.8300018310546875,-0.5843353271484375,0.067840576171875
1782986386920954000,8.1969541015625,-0.8230743408203125,-0.581451416015625,0.0691375732421875
1782986386931028200,8.2070283203125,-0.8209686279296875,-0.581329345703125,0.07281494140625
1782986386941103000,8.21710302734375,-0.819580078125,-0.5814056396484375,0.0723114013671875
1782986386951177200,8.22717724609375,-0.817596435546875,-0.5799560546875,0.067413330078125
1782986386961251000,8.2372509765625,-0.8159637451171875,-0.57928466796875,0.065887451171875
1782986386971326200,8.247326171875,-0.810791015625,-0.57659912109375,0.0709228515625
1782986386981400300,8.257400390625,-0.8073883056640625,-0.574005126953125,0.076019287109375
1782986386991474200,8.26747412109375,-0.80767822265625,-0.577301025390625,0.0730133056640625
1782986387001549300,8.27754931640625,-0.8118743896484375,-0.576873779296875,0.0678863525390625
1782986387011623200,8.287623046875,-0.8098907470703125,-0.5750274658203125,0.0710601806640625
1782986387021697000,8.297697021484375,-0.80780029296875,-0.5732879638671875,0.0718994140625
1782986387031771100,8.307771240234375,-0.806121826171875,-0.572998046875,0.0773773193359375
1782986387041846000,8.317845947265624,-0.8026275634765625,-0.572509765625,0.08184814453125
1782986387051920100,8.327920166015625,-0.7989654541015625,-0.56939697265625,0.0785369873046875
1782986387061994000,8.337993896484376,-0.8018951416015625,-0.5678558349609375,0.0747528076171875
1782986387072069000,8.348069091796875,-0.806182861328125,-0.5674591064453125,0.0721282958984375
1782986387082143000,8.35814306640625,-0.8090362548828125,-0.5700225830078125,0.0713958740234375
1782986387092217000,8.368217041015624,-0.803131103515625,-0.5663299560546875,0.0694580078125
1782986387102292000,8.3782919921875,-0.7926483154296875,-0.5633544921875,0.0682220458984375
1782986387112366000,8.388365966796876,-0.77789306640625,-0.5626068115234375,0.0659332275390625
1782986387122440200,8.398440185546875,-0.77197265625,-0.5659942626953125,0.0650482177734375
1782986387132515000,8.40851513671875,-0.7677459716796875,-0.56585693359375,0.06170654296875
1782986387142589200,8.418589111328124,-0.7682647705078125,-0.561553955078125,0.0622406005859375
1782986387152663300,8.428663330078125,-0.7714080810546875,-0.5540771484375,0.06719970703125
1782986387162738200,8.43873828125,-0.774261474609375,-0.5522918701171875,0.0746002197265625
1782986387172812300,8.448812255859375,-0.7848968505859375,-0.55291748046875,0.083099365234375
1782986387182886100,8.45888623046875,-0.811065673828125,-0.5540008544921875,0.084320068359375
1782986387192961300,8.468961181640625,-0.8448486328125,-0.5589599609375,0.068939208984375
1782986387203035100,8.47903515625,-0.8712615966796875,-0.5701141357421875,0.040313720703125
1782986387213109200,8.489109130859376,-0.876190185546875,-0.5775604248046875,0.028839111328125
1782986387223184100,8.49918408203125,-0.8560638427734375,-0.5770721435546875,0.041961669921875
1782986387233258200,8.50925830078125,-0.8285980224609375,-0.570526123046875,0.05401611328125
1782986387243332000,8.51933203125,-0.808563232421875,-0.565277099609375,0.061065673828125
1782986387253407200,8.5294072265625,-0.7978057861328125,-0.5670166015625,0.0608978271484375
1782986387263481000,8.539481201171874,-0.799713134765625,-0.5699615478515625,0.0540618896484375
1782986387273555000,8.549554931640625,-0.8084564208984375,-0.5714263916015625,0.0505828857421875
1782986387283630000,8.559630126953126,-0.8150482177734375,-0.5700225830078125,0.0502471923828125
1782986387293704000,8.569703857421874,-0.820556640625,-0.57208251953125,0.0460205078125
1782986387303778000,8.579778076171875,-0.819091796875,-0.5808563232421875,0.041778564453125
1782986387313853000,8.58985302734375,-0.818328857421875,-0.5846405029296875,0.0483551025390625
1782986387323927000,8.599927001953125,-0.8134918212890625,-0.58465576171875,0.05364990234375
1782986387334001200,8.610001220703126,-0.80780029296875,-0.579681396484375,0.0544281005859375
1782986387344075300,8.6200751953125,-0.8052215576171875,-0.58087158203125,0.052947998046875
1782986387354150100,8.630150146484375,-0.8019256591796875,-0.581451416015625,0.0537109375
1782986387364224300,8.640224365234374,-0.8063507080078125,-0.5807037353515625,0.0572052001953125
1782986387374298000,8.650298095703125,-0.8109588623046875,-0.5776824951171875,0.0614776611328125
1782986387384373200,8.660373291015626,-0.8143768310546875,-0.5766448974609375,0.0614471435546875
1782986387394447000,8.670447021484375,-0.815521240234375,-0.57513427734375,0.0596466064453125
1782986387404521200,8.680521240234375,-0.8121185302734375,-0.5747222900390625,0.0594482421875
1782986387414596000,8.69059619140625,-0.81414794921875,-0.570556640625,0.0555572509765625
1782986387424670200,8.700670166015625,-0.8152618408203125,-0.5666961669921875,0.054840087890625
1782986387434744000,8.710744140625,-0.8194122314453125,-0.5644989013671875,0.0545654296875
1782986387444819200,8.720819091796875,-0.820159912109375,-0.5674285888671875,0.048980712890625
1782986387454893000,8.73089306640625,-0.81854248046875,-0.5699920654296875,0.0505218505859375
1782986387464967200,8.74096728515625,-0.818328857421875,-0.571319580078125,0.0532379150390625
1782986387475042000,8.7510419921875,-0.8161468505859375,-0.570343017578125,0.05255126953125
1782986387485116200,8.7611162109375,-0.8177642822265625,-0.569610595703125,0.0543060302734375
1782986387495190000,8.77118994140625,-0.8188323974609375,-0.568756103515625,0.0578155517578125
1782986387505265200,8.78126513671875,-0.8156890869140625,-0.5708465576171875,0.0626373291015625
1782986387515339300,8.79133935546875,-0.8152313232421875,-0.571563720703125,0.0644378662109375
1782986387525413000,8.8014130859375,-0.8150177001953125,-0.5719451904296875,0.0635986328125
1782986387535488300,8.81148828125,-0.8145599365234375,-0.5692291259765625,0.062652587890625
1782986387545562000,8.82156201171875,-0.8111572265625,-0.5708770751953125,0.0615386962890625
1782986387555636200,8.83163623046875,-0.8079376220703125,-0.5690460205078125,0.061370849609375
1782986387565711000,8.841711181640624,-0.807220458984375,-0.56890869140625,0.0596160888671875
1782986387575785200,8.85178515625,-0.8106689453125,-0.569244384765625,0.05523681640625
1782986387585859000,8.861859130859376,-0.816925048828125,-0.5724334716796875,0.051910400390625
1782986387595934200,8.871934326171875,-0.8203125,-0.5699462890625,0.05322265625
1782986387606008000,8.882008056640625,-0.8184967041015625,-0.5651397705078125,0.0492401123046875
1782986387616082200,8.892082275390624,-0.8162841796875,-0.5648651123046875,0.046142578125
1782986387626157000,8.902156982421875,-0.8122100830078125,-0.5631103515625,0.0495452880859375
1782986387636231200,8.912231201171876,-0.8102264404296875,-0.564605712890625,0.0586700439453125
1782986387646305000,8.922304931640625,-0.810760498046875,-0.56695556640625,0.0601348876953125
1782986387656379100,8.932379150390625,-0.8157806396484375,-0.56317138671875,0.0583648681640625
1782986387666454000,8.9424541015625,-0.82061767578125,-0.560302734375,0.0573577880859375
1782986387676528000,8.952528076171875,-0.829132080078125,-0.5680694580078125,0.0673675537109375
1782986387686602200,8.962602294921876,-0.8350982666015625,-0.576202392578125,0.06231689453125
1782986387696677000,8.972677001953125,-0.83074951171875,-0.57403564453125,0.0540008544921875
1782986387706751200,8.982751220703125,-0.8228302001953125,-0.5615081787109375,0.0477294921875
1782986387716825300,8.992825439453124,-0.8157501220703125,-0.5599365234375,0.0547637939453125
1782986387726900200,9.002900146484375,-0.8093414306640625,-0.5641326904296875,0.0728607177734375
1782986387736974300,9.012974365234374,-0.8079833984375,-0.572601318359375,0.0728759765625
1782986387747048200,9.023048095703125,-0.80670166015625,-0.5783843994140625,0.059661865234375
1782986387757123300,9.033123291015626,-0.8029327392578125,-0.58123779296875,0.0505523681640625
1782986387767197200,9.043197265625,-0.79412841796875,-0.5724334716796875,0.054779052734375
1782986387777272000,9.05327197265625,-0.7926483154296875,-0.565277099609375,0.0675048828125
1782986387787347200,9.06334716796875,-0.7989501953125,-0.5680999755859375,0.06719970703125
1782986387797421000,9.073421142578125,-0.8078460693359375,-0.5725555419921875,0.0580902099609375
1782986387807495200,9.0834951171875,-0.812896728515625,-0.571197509765625,0.0493316650390625
1782986387817570000,9.093570068359375,-0.8159942626953125,-0.57000732421875,0.0465850830078125
1782986387827644200,9.10364404296875,-0.8243865966796875,-0.572479248046875,0.052001953125
1782986387837718000,9.113718017578124,-0.8304443359375,-0.5738067626953125,0.06451416015625
1782986387847793200,9.123793212890625,-0.833984375,-0.5700836181640625,0.077392578125
1782986387857867000,9.133866943359376,-0.83306884765625,-0.5700836181640625,0.082794189453125
1782986387867940900,9.14394091796875,-0.828521728515625,-0.5725860595703125,0.0786895751953125
1782986387878016000,9.15401611328125,-0.8170623779296875,-0.5699310302734375,0.0743408203125
1782986387888089900,9.16408984375,-0.803009033203125,-0.56494140625,0.0679473876953125
1782986387898164000,9.1741640625,-0.7961883544921875,-0.5667877197265625,0.0627288818359375
1782986387908239000,9.184239013671874,-0.79876708984375,-0.5709228515625,0.06817626953125
1782986387918313000,9.19431298828125,-0.7951812744140625,-0.570587158203125,0.0682525634765625
1782986387928386800,9.20438671875,-0.800384521484375,-0.5703887939453125,0.06683349609375
1782986387938461200,9.214461181640624,-0.8104705810546875,-0.56829833984375,0.0694580078125
1782986387948535800,9.224535888671875,-0.8256988525390625,-0.570343017578125,0.0699615478515625
1782986387958610200,9.234610107421876,-0.8406219482421875,-0.5679473876953125,0.0693206787109375
1782986387968684000,9.24468408203125,-0.8495025634765625,-0.5608367919921875,0.064544677734375
1782986387978759200,9.25475927734375,-0.8562164306640625,-0.5584259033203125,0.0587158203125
1782986387988833000,9.2648330078125,-0.8556671142578125,-0.5523223876953125,0.055206298828125
1782986387998907100,9.2749072265625,-0.8614501953125,-0.5449981689453125,0.064361572265625
1782986388008982000,9.28498193359375,-0.86761474609375,-0.5451507568359375,0.06781005859375
1782986388019056000,9.29505615234375,-0.857330322265625,-0.553924560546875,0.058746337890625
1782986388029130000,9.3051298828125,-0.835296630859375,-0.552398681640625,0.0546112060546875
1782986388039205000,9.315205078125,-0.818023681640625,-0.5470733642578125,0.0582122802734375
1782986388049279000,9.325279052734375,-0.81121826171875,-0.549896240234375,0.067962646484375
1782986388059353000,9.33535302734375,-0.8043060302734375,-0.5453948974609375,0.0764312744140625
1782986388069428000,9.345427978515625,-0.800048828125,-0.5380401611328125,0.07452392578125
1782986388079502000,9.355502197265626,-0.7945404052734375,-0.5371551513671875,0.07110595703125
1782986388089576000,9.365575927734374,-0.786163330078125,-0.5330352783203125,0.0673828125
1782986388099651000,9.375651123046875,-0.7779541015625,-0.5362091064453125,0.0675506591796875
1782986388109725000,9.385724853515624,-0.7749481201171875,-0.5412139892578125,0.0718994140625
1782986388119798800,9.395798828125,-0.78369140625,-0.5452117919921875,0.0792694091796875
1782986388129874000,9.4058740234375,-0.7977142333984375,-0.540771484375,0.07928466796875
1782986388139948000,9.415947998046875,-0.809356689453125,-0.531097412109375,0.0790863037109375
1782986388150022100,9.426022216796875,-0.8220367431640625,-0.5257110595703125,0.0763092041015625
1782986388160097000,9.436096923828124,-0.8339080810546875,-0.5256195068359375,0.0762786865234375
1782986388170171100,9.446171142578125,-0.841094970703125,-0.5266876220703125,0.0777435302734375
1782986388180245000,9.456244873046876,-0.8511810302734375,-0.52740478515625,0.074981689453125
1782986388190320000,9.466320068359375,-0.8566741943359375,-0.524566650390625,0.0685272216796875
1782986388200394000,9.47639404296875,-0.860687255859375,-0.524871826171875,0.066436767578125
1782986388210468000,9.486468017578124,-0.863128662109375,-0.5254364013671875,0.0721282958984375
1782986388220543000,9.49654296875,-0.8615264892578125,-0.5283660888671875,0.069244384765625
1782986388230617000,9.5066171875,-0.8585968017578125,-0.5337371826171875,0.06695556640625
1782986388240691000,9.51669091796875,-0.8533935546875,-0.537628173828125,0.0650787353515625
1782986388250766000,9.52676611328125,-0.846588134765625,-0.532379150390625,0.0673370361328125
1782986388260840000,9.53683984375,-0.842926025390625,-0.5358734130859375,0.062255859375
1782986388270914000,9.5469140625,-0.843505859375,-0.53729248046875,0.05706787109375
1782986388280988000,9.55698779296875,-0.8378753662109375,-0.5385894775390625,0.053741455078125
1782986388291063000,9.56706298828125,-0.8314056396484375,-0.5404510498046875,0.057220458984375
1782986388301137000,9.577136962890625,-0.830322265625,-0.5443267822265625,0.0602264404296875
1782986388311211000,9.5872109375,-0.83221435546875,-0.54559326171875,0.057830810546875
1782986388321286000,9.597285888671875,-0.836669921875,-0.5446319580078125,0.0561676025390625
1782986388331360000,9.607360107421876,-0.8366851806640625,-0.5404205322265625,0.0593414306640625
1782986388341434000,9.61743408203125,-0.837188720703125,-0.5415191650390625,0.06103515625
1782986388351509000,9.627509033203125,-0.8411407470703125,-0.54217529296875,0.0632781982421875
1782986388361583000,9.6375830078125,-0.841796875,-0.542755126953125,0.0630950927734375
1782986388371657200,9.6476572265625,-0.8411865234375,-0.5387420654296875,0.0603485107421875
1782986388381732000,9.657732177734376,-0.8416748046875,-0.53851318359375,0.059112548828125
1782986388391806200,9.66780615234375,-0.8389739990234375,-0.54052734375,0.0596466064453125
1782986388401880000,9.677880126953125,-0.8267059326171875,-0.5448455810546875,0.060333251953125
1782986388411955200,9.687955078125,-0.81854248046875,-0.5447540283203125,0.064178466796875
1782986388422029000,9.698029052734375,-0.8179473876953125,-0.5479736328125,0.06640625
1782986388432103000,9.70810302734375,-0.8231048583984375,-0.54595947265625,0.0641021728515625
1782986388442178000,9.718177978515625,-0.83343505859375,-0.5441131591796875,0.05926513671875
1782986388452252000,9.728251953125,-0.8414459228515625,-0.543487548828125,0.0546112060546875
1782986388462326000,9.738325927734374,-0.847412109375,-0.5438232421875,0.05352783203125
1782986388472401000,9.74840087890625,-0.84710693359375,-0.5452728271484375,0.0577545166015625
1782986388482475000,9.75847509765625,-0.842254638671875,-0.5441436767578125,0.067047119140625
1782986388492548900,9.768548828125,-0.8351898193359375,-0.5435028076171875,0.0793609619140625
1782986388502624000,9.7786240234375,-0.8292694091796875,-0.5370635986328125,0.0856170654296875
1782986388512697900,9.78869775390625,-0.81744384765625,-0.535614013671875,0.081390380859375
1782986388522772000,9.79877197265625,-0.80859375,-0.53955078125,0.071319580078125
1782986388532846800,9.808846923828124,-0.8025665283203125,-0.5389556884765625,0.06317138671875
1782986388542921000,9.8189208984375,-0.8017120361328125,-0.5415496826171875,0.0546112060546875
1782986388552995000,9.8289951171875,-0.80914306640625,-0.54718017578125,0.0478515625
1782986388563070000,9.839070068359375,-0.820587158203125,-0.5507659912109375,0.0487213134765625
1782986388573144000,9.84914404296875,-0.8253326416015625,-0.5522308349609375,0.05419921875
1782986388583218200,9.85921826171875,-0.82464599609375,-0.5541229248046875,0.054656982421875
1782986388593293000,9.86929296875,-0.8218841552734375,-0.55255126953125,0.0570831298828125
1782986388603367200,9.8793671875,-0.8174896240234375,-0.55426025390625,0.0601043701171875
1782986388613441000,9.88944091796875,-0.8137664794921875,-0.5558319091796875,0.0594024658203125
1782986388623516200,9.89951611328125,-0.814453125,-0.5583343505859375,0.060028076171875
1782986388633590000,9.909590087890624,-0.821075439453125,-0.5589447021484375,0.0662689208984375
1782986388643664100,9.9196640625,-0.82806396484375,-0.5531463623046875,0.0676727294921875
1782986388653739000,9.929739013671876,-0.8310699462890625,-0.5482635498046875,0.0656585693359375
1782986388663813000,9.939813232421875,-0.8284149169921875,-0.54986572265625,0.0638885498046875
1782986388673887000,9.949886962890625,-0.82647705078125,-0.55230712890625,0.066497802734375
1782986388683960800,9.9599609375,-0.825897216796875,-0.554046630859375,0.0695037841796875
1782986388694036000,9.970035888671875,-0.8231353759765625,-0.5533599853515625,0.072296142578125
1782986388704109800,9.98010986328125,-0.81964111328125,-0.553436279296875,0.0713958740234375
1782986388714185000,9.99018505859375,-0.8176422119140625,-0.555511474609375,0.0708770751953125
1782986388724258800,10.0002587890625,-0.8137054443359375,-0.55572509765625,0.068023681640625
1782986388734333000,10.0103330078125,-0.8159027099609375,-0.5562591552734375,0.06475830078125
1782986388744407000,10.020406982421875,-0.8201446533203125,-0.5571136474609375,0.0612335205078125
1782986388754482000,10.03048193359375,-0.8251800537109375,-0.55548095703125,0.0610198974609375
1782986388764556000,10.04055615234375,-0.825897216796875,-0.5535125732421875,0.0622100830078125
1782986388774629400,10.05062939453125,-0.8273162841796875,-0.5535736083984375,0.0656890869140625
1782986388784704500,10.06070458984375,-0.8270263671875,-0.5556182861328125,0.064239501953125
1782986388794778400,10.0707783203125,-0.8230743408203125,-0.5569000244140625,0.05987548828125
1782986388804852500,10.0808525390625,-0.821075439453125,-0.5572052001953125,0.0596771240234375
1782986388814927400,10.09092724609375,-0.8239898681640625,-0.5576019287109375,0.060577392578125
1782986388825001500,10.10100146484375,-0.82379150390625,-0.555877685546875,0.0671844482421875
1782986388835075300,10.111075439453124,-0.829559326171875,-0.555999755859375,0.068939208984375
1782986388845150500,10.121150390625,-0.833953857421875,-0.552947998046875,0.0733489990234375
1782986388855224300,10.131224365234376,-0.8343658447265625,-0.5515899658203125,0.068206787109375
1782986388865298400,10.14129833984375,-0.8342437744140625,-0.5550994873046875,0.061004638671875
1782986388875373300,10.151373291015625,-0.8315582275390625,-0.55657958984375,0.0576934814453125
1782986388885447400,10.161447509765624,-0.8243255615234375,-0.558074951171875,0.0582733154296875
1782986388895521300,10.171521240234375,-0.818267822265625,-0.5567626953125,0.0597991943359375
1782986388905596400,10.181596435546876,-0.81280517578125,-0.5554656982421875,0.0582275390625
1782986388915670300,10.191670166015625,-0.8174591064453125,-0.5565185546875,0.0551910400390625
1782986388925744600,10.20174462890625,-0.8270263671875,-0.5564422607421875,0.05657958984375
1782986388935819300,10.2118193359375,-0.8327178955078125,-0.5551910400390625,0.057525634765625
1782986388945893600,10.2218935546875,-0.834930419921875,-0.552459716796875,0.055755615234375
1782986388955967500,10.231967529296876,-0.8295745849609375,-0.5526123046875,0.0529327392578125
1782986388966042600,10.242042724609375,-0.821868896484375,-0.5543975830078125,0.0562591552734375
1782986388976116500,10.252116455078125,-0.81231689453125,-0.554107666015625,0.058990478515625
1782986388986190300,10.2621904296875,-0.8060302734375,-0.55487060546875,0.0601959228515625
1782986388996265500,10.272265380859375,-0.80657958984375,-0.5531158447265625,0.0629119873046875
1782986389006339600,10.282339599609376,-0.8126373291015625,-0.553314208984375,0.0648956298828125
1782986389016413400,10.292413330078125,-0.8170623779296875,-0.552276611328125,0.0644683837890625
1782986389026488600,10.302488525390626,-0.8218231201171875,-0.5552825927734375,0.06658935546875
1782986389036562400,10.3125625,-0.8256683349609375,-0.5600738525390625,0.06549072265625
1782986389046636300,10.32263623046875,-0.8264312744140625,-0.559326171875,0.0643768310546875
1782986389056711400,10.33271142578125,-0.8253173828125,-0.55474853515625,0.06524658203125
1782986389066785300,10.342785400390625,-0.8209228515625,-0.55548095703125,0.0655670166015625
1782986389076859400,10.352859375,-0.8227691650390625,-0.5531158447265625,0.0729827880859375
1782986389086934300,10.362934326171874,-0.8185882568359375,-0.54974365234375,0.068817138671875
1782986389097008400,10.37300830078125,-0.82135009765625,-0.5379180908203125,0.060699462890625
1782986389107082200,10.383082275390626,-0.82293701171875,-0.5449981689453125,0.048095703125
1782986389117156600,10.393156494140625,-0.806121826171875,-0.5556182861328125,0.0789642333984375
1782986389127231200,10.403231201171875,-0.80194091796875,-0.55889892578125,0.1024017333984375
1782986389137305600,10.4133056640625,-0.798431396484375,-0.563812255859375,0.065460205078125
1782986389147379500,10.42337939453125,-0.7967681884765625,-0.553985595703125,0.0275115966796875
1782986389157454600,10.43345458984375,-0.8008270263671875,-0.557403564453125,0.0282135009765625
1782986389167528400,10.443528564453125,-0.83013916015625,-0.5556182861328125,0.056671142578125
1782986389177602600,10.4536025390625,-0.86309814453125,-0.5091094970703125,0.069976806640625
1782986389187677400,10.463677490234375,-0.864715576171875,-0.457000732421875,0.073974609375
