time,seconds_elapsed,z,y,x
1782986378785947400,0.061947509765625,0.4883861839771271,-0.1568218320608139,0.0894172340631485
1782986378796022300,0.072022216796875,0.5024764537811279,-0.0897703692317009,0.04976116493344307
1782986378806096400,0.082096435546875,0.5084698796272278,-0.01739869825541973,-0.00029827404068782926
1782986378816170200,0.092170166015625,0.5056197643280029,0.03510632365942001,-0.05402461811900139
1782986378826244400,0.102244384765625,0.4943854808807373,0.07723300158977509,-0.11423416435718536
1782986378836319200,0.1123193359375,0.47270816564559937,0.09854254871606827,-0.15448224544525146
1782986378846393300,0.122393310546875,0.4346555769443512,0.08716525882482529,-0.17677663266658783
1782986378856467200,0.13246728515625,0.39840757846832275,0.07008614391088486,-0.18844421207904816
1782986378866542300,0.142542236328125,0.3531569838523865,0.06783497333526611,-0.1981186717748642
1782986378876616200,0.1526162109375,0.3048941195011139,0.1103518083691597,-0.2015906423330307
1782986378886690300,0.162690185546875,0.2631293535232544,0.1515631526708603,-0.2190663069486618
1782986378896765200,0.17276513671875,0.2346431314945221,0.178500235080719,-0.22692422568798065
1782986378906839300,0.18283935546875,0.21882981061935425,0.20941448211669922,-0.22571568191051483
1782986378916913200,0.1929130859375,0.21381987631320953,0.2223004400730133,-0.21003712713718414
1782986378926988300,0.20298828125,0.22498518228530884,0.2205968201160431,-0.180816650390625
1782986378937062100,0.213062255859375,0.2512250244617462,0.2064189463853836,-0.1404777467250824
1782986378947136300,0.22313623046875,0.2797570824623108,0.17487940192222595,-0.08826088905334473
1782986378957211100,0.233211181640625,0.2992681860923767,0.1321985125541687,-0.044124849140644073
1782986378967285200,0.24328515625,0.3013068437576294,0.06573613733053207,-0.013059609569609165
1782986378977359400,0.253359375,0.2938063144683838,0.0018042916199192405,0.00777696305885911
1782986378987433200,0.26343310546875,0.28462159633636475,-0.04915343225002289,0.016262326389551163
1782986378997508400,0.27350830078125,0.26637816429138184,-0.09148836880922318,0.011977300979197025
1782986379007582200,0.283582275390625,0.2494543045759201,-0.090425506234169,-0.0071127708069980145
1782986379017656300,0.29365625,0.238291397690773,-0.04869643226265907,-0.027716582641005516
1782986379027731200,0.303731201171875,0.22241470217704773,0.0015877765836194158,-0.0455392561852932
1782986379037805300,0.313805419921875,0.19650453329086304,0.03635747358202934,-0.05578869581222534
1782986379047879200,0.323879150390625,0.18117031455039978,0.06966616213321686,-0.05216679722070694
1782986379057954300,0.333954345703125,0.18055060505867004,0.07693179696798325,-0.03881504014134407
1782986379068028200,0.344028076171875,0.18455493450164795,0.06749941408634186,-0.02352290228009224
1782986379078102300,0.354102294921875,0.206817626953125,0.04453151673078537,-0.0035246936604380608
1782986379088176000,0.364176025390625,0.231454536318779,0.03128388524055481,0.019596071913838387
1782986379098251300,0.374251220703125,0.2501573860645294,0.034178476780653,0.05089540407061577
1782986379108325000,0.3843251953125,0.2668977379798889,0.03888241946697235,0.0911799743771553
1782986379118399500,0.3943994140625,0.26898300647735596,0.08251431584358215,0.1306520253419876
1782986379128474000,0.40447412109375,0.25313904881477356,0.15449929237365723,0.15643487870693207
1782986379138548500,0.414548583984375,0.24856267869472504,0.19776980578899384,0.17517846822738647
1782986379148622300,0.424622314453125,0.25395530462265015,0.20243513584136963,0.1797870695590973
1782986379158697500,0.434697509765625,0.2450486421585083,0.21657252311706543,0.18781863152980804
1782986379168771300,0.444771240234375,0.22569836676120758,0.23405563831329346,0.20928478240966797
1782986379178845200,0.45484521484375,0.19349676370620728,0.24053111672401428,0.25274890661239624
1782986379188920300,0.46492041015625,0.14706134796142578,0.2979121208190918,0.3275456428527832
1782986379198994200,0.474994140625,0.11413908749818802,0.30249515175819397,0.3804839551448822
1782986379209068300,0.485068359375,0.09065453708171844,0.18785405158996582,0.3870331943035126
1782986379219143200,0.49514306640625,0.09013255685567856,0.12774810194969177,0.39218801259994507
1782986379229217300,0.50521728515625,0.1034851148724556,0.14566345512866974,0.41930004954338074
1782986379239291100,0.515291015625,0.11595136672258377,0.2065798044204712,0.4573747515678406
1782986379249365200,0.525365234375,0.12791216373443604,0.2603897750377655,0.49558019638061523
1782986379259440000,0.535440185546875,0.1257648468017578,0.322819322347641,0.5282390713691711
1782986379269514200,0.54551416015625,0.10977150499820709,0.358907014131546,0.5409013032913208
1782986379279588000,0.555588134765625,0.07546546310186386,0.35173672437667847,0.5225849151611328
1782986379289663200,0.565663330078125,0.04385986551642418,0.3085399866104126,0.4968917965888977
1782986379299737000,0.575737060546875,0.033373937010765076,0.2626579999923706,0.47066551446914673
1782986379309811500,0.5858115234375,0.036074914038181305,0.24013057351112366,0.4423640966415405
1782986379319886000,0.595885986328125,0.03725522756576538,0.21575945615768433,0.41339078545570374
1782986379329960400,0.60596044921875,0.03579874336719513,0.22510315477848053,0.3874635696411133
1782986379340034300,0.616034423828125,0.027967985719442368,0.305666983127594,0.3720009922981262
1782986379350109400,0.626109375,0.01906796731054783,0.41088899970054626,0.35346752405166626
1782986379360183300,0.636183349609375,0.010612696409225464,0.4902855455875397,0.3322775363922119
1782986379370257400,0.64625732421875,0.010757839307188988,0.49665769934654236,0.31308016180992126
1782986379380331300,0.656331298828125,0.025682726874947548,0.4493841826915741,0.2967640161514282
1782986379390406400,0.666406494140625,0.03671460598707199,0.410010427236557,0.30822548270225525
1782986379400480300,0.676480224609375,0.029710225760936737,0.11837378144264221,0.26742079854011536
1782986379410554000,0.68655419921875,0.0019688750617206097,-0.14733672142028809,0.22099922597408295
1782986379420629200,0.696629150390625,0.008154332637786865,-0.26190832257270813,0.17874391376972198
1782986379430703000,0.706703125,0.040837712585926056,-0.2788931429386139,0.13596342504024506
1782986379440777200,0.716777099609375,0.05968383699655533,-0.23579707741737366,0.08122428506612778
1782986379450852000,0.72685205078125,0.045757632702589035,-0.17073924839496613,0.02008955553174019
1782986379460926200,0.73692626953125,-0.0049734534695744514,-0.06336059421300888,-0.037589721381664276
1782986379471000300,0.747000244140625,-0.09722082316875458,0.0538637638092041,-0.07870040088891983
1782986379481075200,0.7570751953125,-0.19592289626598358,0.12159886956214905,-0.0995713323354721
1782986379491149300,0.7671494140625,-0.24147440493106842,0.06594599038362503,-0.12370596081018448
1782986379501223400,0.777223388671875,-0.19922681152820587,-0.08215931802988052,-0.15044623613357544
1782986379511297300,0.78729736328125,-0.10943222045898438,-0.25231292843818665,-0.18254664540290833
1782986379521372400,0.797372314453125,-0.02214977703988552,-0.39819931983947754,-0.2011890411376953
1782986379531446300,0.8074462890625,0.021750036627054214,-0.45269930362701416,-0.1925279051065445
1782986379541520400,0.817520263671875,0.02593332901597023,-0.44236651062965393,-0.15922081470489502
1782986379551595300,0.82759521484375,0.008637962862849236,-0.428168922662735,-0.12849272787570953
1782986379561669400,0.83766943359375,0.003841609926894307,-0.42536699771881104,-0.10478633642196655
1782986379571743200,0.8477431640625,0.011946408078074455,-0.40674272179603577,-0.07777895033359528
1782986379581818400,0.857818359375,0.023031016811728477,-0.37350887060165405,-0.04724074900150299
1782986379591892200,0.867892333984375,0.023195866495370865,-0.3174525201320648,-0.016560867428779602
1782986379601966300,0.87796630859375,0.02431679144501686,-0.27246907353401184,0.007722634356468916
1782986379612041200,0.888041259765625,0.01834838092327118,-0.24194206297397614,0.023564448580145836
1782986379622115300,0.898115234375,0.016932111233472824,-0.2296355962753296,0.020543890073895454
1782986379632189200,0.908189208984375,0.018626414239406586,-0.25417208671569824,0.00159470085054636
1782986379642264300,0.918264404296875,0.014003166928887367,-0.27259957790374756,-0.021558821201324463
1782986379652338200,0.928338134765625,0.006261890754103661,-0.25242879986763,-0.03712259978055954
1782986379662412300,0.938412353515625,-0.0008375641773454845,-0.2201576679944992,-0.057071540504693985
1782986379672486400,0.948486328125,0.004253068007528782,-0.21899466216564178,-0.085664302110672
1782986379682561300,0.958561279296875,0.0068243504501879215,-0.2651802599430084,-0.11583685129880905
1782986379692635400,0.968635498046875,0.007988950237631798,-0.3263307213783264,-0.12851376831531525
1782986379702709200,0.978709228515625,0.014273211359977722,-0.35877519845962524,-0.12173868715763092
1782986379712784400,0.988784423828125,0.03714204207062721,-0.3526376783847809,-0.09853669255971909
1782986379722858200,0.998858154296875,0.05389705300331116,-0.3881823718547821,-0.08525124937295914
1782986379732932400,1.008932373046875,0.06922993808984756,-0.4103667438030243,-0.07986367493867874
1782986379743007200,1.01900732421875,0.07488862425088882,-0.3874364197254181,-0.07309844344854355
1782986379753081300,1.029081298828125,0.07302626967430115,-0.32805511355400085,-0.05680922046303749
1782986379763155200,1.0391552734375,0.07564336061477661,-0.2906496822834015,-0.035906869918107986
1782986379773229300,1.049229248046875,0.08755301684141159,-0.27188876271247864,-0.019769176840782166
1782986379783304200,1.05930419921875,0.09558697789907455,-0.19519026577472687,0.0037228327710181475
1782986379793378300,1.06937841796875,0.09789034724235535,-0.10893820226192474,0.031131288036704063
1782986379803452200,1.0794521484375,0.08756100386381149,-0.06908506155014038,0.044853489845991135
1782986379813527300,1.08952734375,0.07493389397859573,-0.057975150644779205,0.04755207151174545
1782986379823601200,1.09960107421875,0.06093418970704079,-0.04845301806926727,0.027843348681926727
1782986379833675300,1.10967529296875,0.06737398356199265,-0.04482206702232361,-0.015133945271372795
1782986379843750100,1.119750244140625,0.09126253426074982,-0.04050401598215103,-0.06708981841802597
1782986379853824300,1.12982421875,0.1018238365650177,-0.02634931541979313,-0.1150813177227974
1782986379863898400,1.1398984375,0.09965575486421585,-0.0065194182097911835,-0.14408206939697266
1782986379873973200,1.14997314453125,0.08339635282754898,-0.004826713353395462,-0.14323359727859497
1782986379884047400,1.16004736328125,0.05399026349186897,-0.03575852885842323,-0.12160766124725342
1782986379894121500,1.17012158203125,0.03759557753801346,-0.009632919915020466,-0.07612592726945877
1782986379904196400,1.1801962890625,0.03863474354147911,0.027819113805890083,-0.03573962301015854
1782986379914270500,1.1902705078125,0.0441187247633934,0.03972530737519264,-0.00043569316039793193
1782986379924344300,1.20034423828125,0.05283072218298912,0.0303800106048584,0.016090020537376404
1782986379934418200,1.210418212890625,0.05584808439016342,-0.00421232171356678,0.028985312208533287
1782986379944493300,1.220493408203125,0.05032255873084068,-0.05307547003030777,0.041314151138067245
1782986379954567200,1.230567138671875,0.0439983494579792,-0.08666165918111801,0.05402328819036484
1782986379964641300,1.240641357421875,0.03774444758892059,-0.07461697608232498,0.0796399712562561
1782986379974716400,1.25071630859375,0.028419123962521553,-0.04807431995868683,0.09765651822090149
1782986379984790300,1.260790283203125,0.025713618844747543,-0.037284255027770996,0.11012224107980728
1782986379994864000,1.270864013671875,0.02171621471643448,-0.04244599491357803,0.11297715455293655
1782986380004939300,1.280939208984375,0.020771324634552002,-0.05482569709420204,0.12503620982170105
1782986380015013000,1.29101318359375,0.011444934643805027,-0.07169628888368607,0.12982377409934998
1782986380025087200,1.301087158203125,0.0017310547409579158,-0.07840719074010849,0.13346537947654724
1782986380035162000,1.311162109375,0.0007632619817741215,-0.09617286920547485,0.12559174001216888
1782986380045236200,1.321236328125,0.0036157737486064434,-0.10407526791095734,0.11603526026010513
1782986380055310300,1.331310302734375,0.012525911442935467,-0.09569882601499557,0.09932498633861542
1782986380065385200,1.34138525390625,0.01630067639052868,-0.07811584323644638,0.08453911542892456
1782986380075459300,1.351459228515625,0.02238147146999836,-0.05813920125365257,0.07773926854133606
1782986380085533400,1.361533447265625,0.041796449571847916,-0.0429069884121418,0.08238968253135681
1782986380095607300,1.371607177734375,0.05387548357248306,-0.04134371131658554,0.09848529100418091
1782986380105682400,1.381682373046875,0.061884406954050064,-0.03371242433786392,0.12707512080669403
1782986380115756300,1.39175634765625,0.06444929540157318,-0.04132320359349251,0.14384931325912476
1782986380125830400,1.401830322265625,0.06100529804825783,-0.05638977140188217,0.1535237729549408
1782986380135905300,1.4119052734375,0.05703585594892502,-0.06945044547319412,0.1527852863073349
1782986380145979400,1.4219794921875,0.04526308551430702,-0.0798594132065773,0.13664387166500092
1782986380156053200,1.43205322265625,0.029217805713415146,-0.09823761880397797,0.10488992929458618
1782986380166128400,1.44212841796875,0.018432270735502243,-0.10189148038625717,0.07121079415082932
1782986380176202200,1.4522021484375,0.01025849673897028,-0.10084246098995209,0.03442162275314331
1782986380186276000,1.462276123046875,0.007524229120463133,-0.10572722554206848,0.0012535499408841133
1782986380196351200,1.472351318359375,0.007066431455314159,-0.10678982734680176,-0.02166987583041191
1782986380206425000,1.482425048828125,0.007568437606096268,-0.09878596663475037,-0.038538604974746704
1782986380216499500,1.49249951171875,-0.0010657970560714602,-0.08647444099187851,-0.043418847024440765
1782986380226573300,1.5025732421875,-0.012084092944860458,-0.06391853094100952,-0.027161579579114914
1782986380236648400,1.5126484375,-0.01937396451830864,-0.036922063678503036,-0.0008082693675532937
1782986380246722300,1.522722412109375,-0.025139441713690758,-0.025432389229536057,0.02726091630756855
1782986380256796400,1.53279638671875,-0.027232419699430466,-0.03278058394789696,0.05789472535252571
1782986380266871300,1.542871337890625,-0.02785666473209858,-0.02322169952094555,0.08766806870698929
1782986380276945400,1.5529453125,-0.03473268076777458,-0.009316802956163883,0.1081903874874115
1782986380287019300,1.563019287109375,-0.03516517952084541,-0.004229099955409765,0.11409807950258255
1782986380297094400,1.573094482421875,-0.031385086476802826,-0.004150270018726587,0.11659399420022964
1782986380307168300,1.583168212890625,-0.031435687094926834,0.00043276368523947895,0.1170794814825058
1782986380317242400,1.593242431640625,-0.03822914510965347,0.009906692430377007,0.10789850354194641
1782986380327317200,1.603317138671875,-0.04095888510346413,0.013709420338273048,0.09009899944067001
1782986380337391400,1.613391357421875,-0.04268408194184303,0.008381500840187073,0.0767941102385521
1782986380347465200,1.62346533203125,-0.04459197074174881,0.013034575618803501,0.07232373207807541
1782986380357539300,1.633539306640625,-0.05002481862902641,0.028437767177820206,0.07631341367959976
1782986380367614200,1.6436142578125,-0.04922720044851303,0.03289856016635895,0.08654634654521942
1782986380377688300,1.653688232421875,-0.049426138401031494,0.027272900566458702,0.09334219992160797
1782986380387762400,1.663762451171875,-0.049371808767318726,0.016210129484534264,0.08885370939970016
1782986380397837300,1.67383740234375,-0.05043574422597885,0.022372150793671608,0.07594882696866989
1782986380407911400,1.683911376953125,-0.05516524985432625,0.04150030389428139,0.06471002101898193
1782986380417985300,1.6939853515625,-0.05895785987377167,0.046291597187519073,0.054553255438804626
1782986380428060400,1.704060302734375,-0.056950900703668594,0.04165423661470413,0.04037325456738472
1782986380438134300,1.71413427734375,-0.05041683465242386,0.018074873834848404,0.017971010878682137
1782986380448208400,1.72420849609375,-0.04608946293592453,0.004829908721148968,-0.015155782923102379
1782986380458283500,1.734283447265625,-0.027538683265447617,0.005789179354906082,-0.0388677716255188
1782986380468357400,1.744357421875,-0.017134778201580048,0.016230635344982147,-0.06190624460577965
1782986380478431200,1.75443115234375,-0.006773483939468861,0.013514743186533451,-0.06765734404325485
1782986380488505300,1.76450537109375,-0.0028631645254790783,0.021614747121930122,-0.05458761006593704
1782986380498580200,1.774580322265625,-0.004485029727220535,0.033433590084314346,-0.02197054587304592
1782986380508654300,1.784654296875,-0.0035334820859134197,0.043728306889534,0.018699917942285538
1782986380518728200,1.794728271484375,0.007750065065920353,0.04999419301748276,0.05789126455783844
1782986380528803300,1.80480322265625,0.012831908650696278,0.039080824702978134,0.09056025743484497
1782986380538877200,1.814877197265625,0.013670005835592747,0.023086410015821457,0.11093024909496307
1782986380548951300,1.824951416015625,0.010340522043406963,0.024541562423110008,0.11594977229833603
1782986380559026200,1.835026123046875,0.007647799793630838,0.029283853247761726,0.10299216210842133
1782986380569100300,1.845100341796875,0.0016021577175706625,0.04216822609305382,0.08220884948968887
1782986380579174400,1.85517431640625,-0.004174771253019571,0.04942480847239494,0.05066024884581566
1782986380589249300,1.865249267578125,-0.001115864492021501,0.05952644348144531,0.025619076564908028
1782986380599323400,1.875323486328125,0.0034349451307207346,0.06509431451559067,0.0051505533047020435
1782986380609397500,1.8853974609375,0.008767925202846527,0.041666753590106964,-0.008787632919847965
1782986380619472400,1.895472412109375,0.016337428241968155,0.03249109908938408,-0.01324203610420227
1782986380629546500,1.90554638671875,0.024045681580901146,0.048772864043712616,-0.004284759983420372
1782986380639620400,1.915620361328125,0.026757044717669487,0.06325700134038925,0.013383449986577034
1782986380649694200,1.925694091796875,0.023081351071596146,0.06159971281886101,0.03393799439072609
1782986380659769300,1.935769287109375,0.02105441875755787,0.05576153099536896,0.05950567126274109
1782986380669843200,1.94584326171875,0.02105575054883957,0.04574165493249893,0.07378047704696655
1782986380679917300,1.955917236328125,0.024950889870524406,0.023558055981993675,0.08035209774971008
1782986380689992200,1.9659921875,0.026383936405181885,0.0029558425303548574,0.06667516380548477
1782986380700066300,1.97606640625,0.02959704026579857,0.007049920037388802,0.04560450464487076
1782986380710140200,1.98614013671875,0.026255838572978973,0.0150428656488657,0.022530876100063324
1782986380720215300,1.99621533203125,0.019521502777934074,0.021382786333560944,0.0032461269292980433
1782986380730289200,2.0062890625,0.014974421821534634,0.04541515186429024,-0.005696235224604607
1782986380740363300,2.01636328125,0.019330820068717003,0.0646948367357254,-0.014070545323193073
1782986380750438100,2.026438232421875,0.01841336116194725,0.057747986167669296,-0.012774118222296238
1782986380760512300,2.03651220703125,0.014799452386796474,0.0526680052280426,-0.009957825765013695
1782986380770586400,2.04658642578125,0.014817828312516212,0.05793760344386101,-0.0023462448734790087
1782986380780660500,2.056660400390625,0.014367487281560898,0.06226443871855736,0.005287972744554281
1782986380790735400,2.0667353515625,0.013994112610816956,0.05257532745599747,0.011409248225390911
1782986380800809500,2.0768095703125,0.01594594307243824,0.037452831864356995,0.014778945595026016
1782986380810883300,2.08688330078125,0.019688216969370842,0.035898610949516296,0.018005898222327232
1782986380820958500,2.09695849609375,0.02046825736761093,0.03706108033657074,0.01960725709795952
1782986380831032300,2.1070322265625,0.02178545668721199,0.03561578318476677,0.020191553980112076
1782986380841106400,2.1171064453125,0.01926397532224655,0.04362151399254799,0.018061824142932892
1782986380851181600,2.127181640625,0.016468722373247147,0.05091964080929756,0.020560136064887047
1782986380861255400,2.13725537109375,0.01287718303501606,0.05078701302409172,0.014405038207769394
1782986380871329300,2.147329345703125,0.009336509741842747,0.04168885573744774,0.010143980383872986
1782986380881404400,2.157404296875,0.00794154591858387,0.04343056306242943,0.009095760062336922
1782986380891478300,2.167478271484375,0.0028767467010766268,0.04544178396463394,0.011570636183023453
1782986380901552400,2.177552490234375,0.007656854577362537,0.0467509925365448,0.02322595939040184
1782986380911626200,2.187626220703125,0.01209581084549427,0.03716840595006943,0.04000706970691681
1782986380921701400,2.197701416015625,0.018736669793725014,0.022935941815376282,0.05126531794667244
1782986380931775200,2.207775146484375,0.020298346877098083,0.013026852160692215,0.062185078859329224
1782986380941849300,2.217849365234375,0.021438978612422943,0.004664526786655188,0.06895376741886139
1782986380951924200,2.22792431640625,0.021218735724687576,0.00492098880931735,0.07116605341434479
1782986380961998300,2.237998291015625,0.018790198490023613,0.013218866661190987,0.06349002569913864
1782986380972072400,2.248072509765625,0.01642664335668087,0.008014250546693802,0.05357587710022926
1782986380982147300,2.258147216796875,0.021192103624343872,0.00044288369826972485,0.0387660376727581
1782986380992221400,2.268221435546875,0.023669643327593803,0.0044197821989655495,0.03792208060622215
1782986381002295600,2.278295654296875,0.022368954494595528,0.02449548989534378,0.04362870380282402
1782986381012370400,2.288370361328125,0.012896357104182243,0.03666400536894798,0.05321022495627403
1782986381022444500,2.298444580078125,0.006852579768747091,0.042507514357566833,0.05740470439195633
1782986381032518400,2.308518310546875,0.005230448208749294,0.05703026428818703,0.06291558593511581
1782986381042593500,2.318593505859375,0.002273540711030364,0.061960574239492416,0.06993434578180313
1782986381052667400,2.32866748046875,-0.0030892668291926384,0.050808317959308624,0.07152558118104935
1782986381062741200,2.3387412109375,-0.003412574529647827,0.025495240464806557,0.06789223104715347
1782986381072815400,2.3488154296875,0.0009499495499767363,-0.004347610287368298,0.051838964223861694
1782986381082890200,2.35889013671875,0.017539579421281815,-0.028655612841248512,0.02762443758547306
1782986381092964400,2.36896435546875,0.03478940576314926,-0.0391753651201725,-0.0013278521364554763
1782986381103038200,2.3790380859375,0.041366614401340485,-0.03483840823173523,-0.024593492969870567
1782986381113113300,2.38911328125,0.03994022682309151,-0.011593539267778397,-0.042997799813747406
1782986381123187200,2.399187255859375,0.031732361763715744,0.014781609177589417,-0.05155640095472336
1782986381133261600,2.409261474609375,0.025428393855690956,0.021568674594163895,-0.04802664741873741
1782986381143336200,2.419336181640625,0.022958578541874886,0.01236159447580576,-0.04339061677455902
1782986381153410600,2.42941064453125,0.025971146300435066,0.008422779850661755,-0.01793878711760044
1782986381163484400,2.439484375,0.03152676671743393,0.013081713579595089,0.014932343736290932
1782986381173559600,2.4495595703125,0.029996247962117195,0.005228584166616201,0.046052977442741394
1782986381183633400,2.45963330078125,0.024534104391932487,-0.007565508130937815,0.06630631536245346
1782986381193707500,2.46970751953125,0.021578527987003326,-0.01709616184234619,0.07552485167980194
1782986381203781400,2.479781494140625,0.015606390312314034,-0.014525679871439934,0.07042782753705978
1782986381213856500,2.4898564453125,0.011113903485238552,0.0018932411912828684,0.04357624053955078
1782986381223930400,2.499930419921875,0.013032977469265461,0.015483885072171688,0.014681207947432995
1782986381234004500,2.51000439453125,0.01005183532834053,0.019061308354139328,-0.012487296015024185
1782986381244079400,2.520079345703125,0.009793775156140327,0.02377403900027275,-0.026805780827999115
1782986381254153500,2.530153564453125,0.009002549573779106,0.040292829275131226,-0.01937689445912838
1782986381264227300,2.540227294921875,0.0103141563013196,0.04934224858880043,0.0033907366450875998
1782986381274302500,2.550302490234375,0.009630789048969746,0.031198931857943535,0.027937890961766243
1782986381284376300,2.560376220703125,0.013073990121483803,0.01104386243969202,0.042823631316423416
1782986381294450200,2.5704501953125,0.018396051600575447,0.010003365576267242,0.0519111342728138
1782986381304525300,2.580525390625,0.025057682767510414,0.014028467237949371,0.045458029955625534
1782986381314599200,2.59059912109375,0.025487249717116356,0.007139136083424091,0.029408488422632217
1782986381324673500,2.600673583984375,0.023807061836123466,-0.008414790034294128,-0.0039023298304528
1782986381334747400,2.610747314453125,0.018613630905747414,-0.019207783043384552,-0.03521417826414108
1782986381344822500,2.620822509765625,0.007539409212768078,0.010602043941617012,-0.0531281977891922
1782986381354896400,2.630896484375,-0.00042504051816649735,0.04506707563996315,-0.06564425677061081
1782986381364970500,2.640970458984375,-0.004825914278626442,0.04620610922574997,-0.0735623687505722
1782986381375045400,2.65104541015625,-0.0038599856197834015,0.030417826026678085,-0.0709490105509758
1782986381385119500,2.661119384765625,0.0041223070584237576,0.019351594150066376,-0.06246976926922798
1782986381395193300,2.671193359375,0.011707521975040436,0.009208411909639835,-0.045040711760520935
1782986381405268500,2.6812685546875,0.012172776274383068,-0.0032764871139079332,-0.023024626076221466
1782986381415342300,2.69134228515625,0.014733405783772469,-0.020373981446027756,-0.011442271992564201
1782986381425416400,2.70141650390625,0.012438826262950897,-0.03542749956250191,-0.007954062893986702
1782986381435491300,2.7114912109375,0.010261958464980125,-0.03626053407788277,-0.011539743281900883
1782986381445565400,2.7215654296875,0.005644037388265133,-0.022955117747187614,-0.02419002540409565
1782986381455639300,2.731639404296875,0.0012152004055678844,-0.0024469124618917704,-0.026922693476080894
1782986381465713400,2.74171337890625,-0.0003707120195031166,0.014602378010749817,-0.026140257716178894
1782986381475788300,2.751788330078125,-0.00018801917030941695,0.01149659976363182,-0.02725452370941639
1782986381485862400,2.7618623046875,-0.00037523938226513565,-0.0027478495612740517,-0.02069143019616604
1782986381495936500,2.7719365234375,-0.00039521310827694833,-0.009335710667073727,-0.008526642806828022
1782986381506011400,2.782011474609375,0.0025630262680351734,-0.00836525484919548,0.004707669839262962
1782986381516085500,2.79208544921875,0.001496430253610015,-0.002115348819643259,0.01871296763420105
1782986381526159400,2.802159423828125,0.0022189458832144737,0.002796585438773036,0.03211958706378937
1782986381536234500,2.812234375,0.0010391654213890433,0.006676278542727232,0.04188380017876625
1782986381546308400,2.822308349609375,0.0006452839006669819,0.007570834364742041,0.03892156481742859
1782986381556382500,2.832382568359375,-0.0029079054947942495,0.009488842450082302,0.040523990988731384
1782986381566457300,2.842457275390625,-0.0006245112745091319,0.015372565016150475,0.04400128126144409
1782986381576531500,2.852531494140625,-0.006707703694701195,0.017942780628800392,0.04053251072764397
1782986381586605300,2.862605224609375,-0.007574562914669514,0.005372661165893078,0.03479153662919998
1782986381596680400,2.872680419921875,-0.007198257837444544,-0.004483165219426155,0.02327789179980755
1782986381606754300,2.88275439453125,-0.008961004205048084,-0.006434197071939707,0.011728561483323574
1782986381616828400,2.892828369140625,-0.006712763570249081,-0.010281932540237904,-0.005066131241619587
1782986381626902300,2.90290234375,0.0023097596131265163,0.008927715010941029,-0.021344969049096107
1782986381636977400,2.912977294921875,0.00833596009761095,0.03189774602651596,-0.03886457532644272
1782986381647051300,2.92305126953125,0.011138937436044216,0.028624188154935837,-0.061946991831064224
1782986381657125400,2.93312548828125,0.008251804858446121,0.02137053571641445,-0.07003527879714966
1782986381667200300,2.9432001953125,0.008890963159501553,0.015180550515651703,-0.06742510944604874
1782986381677274400,2.9532744140625,0.013683321885764599,0.008271511644124985,-0.06383703649044037
1782986381687348500,2.963348388671875,0.011550928466022015,-0.0015283881220966578,-0.055991098284721375
1782986381697423400,2.97342333984375,0.006395847536623478,-0.013512879610061646,-0.055571917444467545
1782986381707497500,2.98349755859375,0.004267183132469654,-0.0231106448918581,-0.05698898434638977
1782986381717571600,2.993571533203125,0.0037585191894322634,-0.026849990710616112,-0.06933379918336868
1782986381727646500,3.003646484375,-0.001466869143769145,-0.03291160985827446,-0.07929961383342743
1782986381737720600,3.013720458984375,-0.007852597162127495,-0.04126647859811783,-0.09044867008924484
1782986381747794400,3.02379443359375,-0.015213840641081333,-0.0330202691257,-0.09133470803499222
1782986381757868300,3.033868408203125,-0.01601491868495941,-0.023670708760619164,-0.08402379602193832
1782986381767943700,3.043943603515625,-0.01341647282242775,-0.020903684198856354,-0.0656658262014389
1782986381778017500,3.054017578125,-0.011665178462862968,-0.024891501292586327,-0.05128449201583862
1782986381788091600,3.064091552734375,-0.010958375409245491,-0.025142904371023178,-0.03061862848699093
1782986381798166500,3.07416650390625,-0.01019484642893076,-0.021632324904203415,-0.007507983595132828
1782986381808240600,3.08424072265625,-0.010701912455260754,-0.013763216324150562,0.006642456166446209
1782986381818314500,3.094314453125,-0.007330883294343948,-0.005563609767705202,0.0161864273250103
1782986381828389600,3.1043896484375,-0.002892459277063608,-0.002561428351327777,0.01998808979988098
1782986381838463500,3.11446337890625,-0.004572913981974125,-0.0029971215408295393,0.010219614021480083
1782986381848537300,3.124537353515625,-0.004225105047225952,-0.000520647969096899,0.002918824553489685
1782986381858612500,3.134612548828125,-0.0025244103744626045,0.003123621689155698,-0.005311941262334585
1782986381868686300,3.144686279296875,-0.0031273500062525272,0.004063983913511038,-0.010567156597971916
1782986381878760700,3.1547607421875,-0.00549197057262063,0.012223909609019756,-0.006301837973296642
1782986381888834600,3.16483447265625,-0.0058094197884202,0.014269483275711536,0.00033875409280881286
1782986381898909700,3.17490966796875,-0.003597131697461009,0.002719353651627898,0.004560929723083973
1782986381908983600,3.184983642578125,-0.0012237224727869034,-0.011171162128448486,0.010436927899718285
1782986381919057700,3.1950576171875,0.0012689962750300765,-0.017437845468521118,0.013176788575947285
1782986381929132500,3.205132568359375,0.006735400762408972,-0.005636846646666527,0.008125037886202335
1782986381939206700,3.21520654296875,0.009534915909171104,0.003619768423959613,-0.0024341291282325983
1782986381949280500,3.225280517578125,0.01641705632209778,0.00020666129421442747,-0.015183214098215103
1782986381959355600,3.235355712890625,0.013526993803679943,0.007561779581010342,-0.019412845373153687
1782986381969429500,3.245429443359375,0.013431120663881302,0.01955852098762989,-0.015918778255581856
1782986381979503600,3.255503662109375,0.009273659437894821,0.01900405064225197,-0.013026585802435875
1782986381989578500,3.26557861328125,0.009579923003911972,0.010750648565590382,-0.00515854312106967
1782986381999652600,3.275652587890625,0.01040576957166195,0.00968378596007824,0.0008103998843580484
1782986382009726500,3.2857265625,0.010641459375619888,-0.00010359696898376569,0.009945308789610863
1782986382019801600,3.295801513671875,0.009951700456440449,-0.012462262064218521,0.015787219628691673
1782986382029875500,3.30587548828125,0.005939381662756205,-0.002275937469676137,0.021944979205727577
1782986382039949600,3.315949462890625,0.00043356261448934674,0.02255910448729992,0.03170493245124817
1782986382050023700,3.326023681640625,-0.005172657780349255,0.038053374737501144,0.03736814484000206
1782986382060098600,3.3360986328125,-0.007364172954112291,0.03596385940909386,0.0438244454562664
1782986382070172700,3.346172607421875,-0.0018618159228935838,0.017657024785876274,0.043048400431871414
1782986382080246500,3.35624658203125,0.008297078311443329,-0.008564193733036518,0.024118119850754738
1782986382090321700,3.36632177734375,0.0154340835288167,-0.033541981130838394,0.004549211822450161
1782986382100395500,3.3763955078125,0.01829272136092186,-0.05326481908559799,-0.028000742197036743
1782986382110469600,3.3864697265625,0.018015751615166664,-0.06304900348186493,-0.06527461111545563
1782986382120544800,3.396544677734375,0.012356534600257874,-0.05037608742713928,-0.09420479834079742
1782986382130618600,3.40661865234375,0.0054669370874762535,-0.025501631200313568,-0.11705657839775085
1782986382140692500,3.4166923828125,0.003820837242528796,-0.0030189594253897667,-0.1257033348083496
1782986382150767600,3.426767578125,0.008385228924453259,0.004378503188490868,-0.11629705131053925
1782986382160841500,3.436841552734375,0.013741911388933659,0.005526858381927013,-0.09333447366952896
1782986382170915600,3.44691552734375,0.02141900546848774,-0.00367143377661705,-0.05907849967479706
1782986382180989400,3.456989501953125,0.018872223794460297,-0.02991155907511711,-0.027109649032354355
1782986382191064600,3.467064697265625,0.018561167642474174,-0.041308559477329254,0.00023302659974433482
1782986382201138400,3.477138427734375,0.01781574822962284,-0.040117327123880386,0.019165439531207085
1782986382211212500,3.487212646484375,0.012991432100534439,-0.04466387256979942,0.01882881484925747
1782986382221287400,3.497287353515625,0.006069077644497156,-0.04652142897248268,0.003861317178234458
1782986382231361500,3.507361572265625,0.0020897823851555586,-0.034872230142354965,-0.010188455693423748
1782986382241435600,3.517435546875,0.0023931164760142565,-0.020778514444828033,-0.024512533098459244
1782986382251510500,3.527510498046875,-0.0002681803307496011,-0.017107613384723663,-0.036134302616119385
1782986382261584600,3.537584716796875,0.0007480819476768374,-0.005520733073353767,-0.03609728440642357
1782986382271658800,3.54765869140625,0.0017483652336522937,0.009433449245989323,-0.028493959456682205
1782986382281733600,3.557733642578125,0.002213353058323264,0.007552458439022303,-0.00971680972725153
1782986382291807700,3.567807861328125,0.0035537220537662506,0.006729275453835726,0.01025902945548296
1782986382301881600,3.577881591796875,0.006463491823524237,0.007867510430514812,0.033548373728990555
1782986382311956700,3.587956787109375,0.010743724182248116,0.005136705003678799,0.04880349338054657
1782986382322030600,3.598030517578125,0.01312325894832611,-0.004209658596664667,0.05287919193506241
1782986382332104400,3.6081044921875,0.019886622205376625,-0.011343734338879585,0.04723036289215088
1782986382342179600,3.6181796875,0.026440395042300224,-0.017833059653639793,0.03292998671531677
1782986382352253400,3.62825341796875,0.03358618915081024,-0.026910176500678062,0.015838617458939552
1782986382362327600,3.63832763671875,0.034803252667188644,-0.02617807500064373,-0.009031045250594616
1782986382372401400,3.6484013671875,0.04033757001161575,-0.02528165467083454,-0.029646841809153557
1782986382382476500,3.6584765625,0.04313415288925171,-0.02245257794857025,-0.04055248573422432
1782986382392550400,3.66855029296875,0.042512573301792145,-0.00863343570381403,-0.0459645614027977
1782986382402624500,3.67862451171875,0.03975353762507439,0.00726510351523757,-0.045574676245450974
1782986382412699400,3.688699462890625,0.03862409293651581,0.027221767231822014,-0.03845125064253807
1782986382422773500,3.6987734375,0.034518562257289886,0.04027072340250015,-0.024164458736777306
1782986382432847600,3.70884765625,0.03382933512330055,0.03807467967271805,-0.012688631191849709
1782986382442922500,3.718922607421875,0.031802404671907425,0.020773988217115402,-0.004489823244512081
1782986382452996600,3.72899658203125,0.032941438257694244,0.008190019056200981,-0.00015100123709999025
1782986382463070700,3.73907080078125,0.03322906047105789,-0.000046072687837295234,-0.003297259798273444
1782986382473145600,3.7491455078125,0.032638102769851685,0.0028541097417473793,-0.002490588231012225
1782986382483219700,3.7592197265625,0.02713867649435997,0.014259629882872105,-0.008673649281263351
1782986382493293600,3.76929345703125,0.021815016865730286,0.020008062943816185,-0.01804877445101738
1782986382503367700,3.77936767578125,0.02159344218671322,0.016466058790683746,-0.031202927231788635
1782986382513442600,3.789442626953125,0.02310771681368351,0.020925788208842278,-0.042826827615499496
1782986382523516700,3.7995166015625,0.023456323891878128,0.01979527622461319,-0.052124984562397
1782986382533590500,3.809590576171875,0.022121014073491096,0.015540876425802708,-0.056172460317611694
1782986382543665700,3.819665771484375,0.0214815903455019,0.015025288797914982,-0.05678312107920647
1782986382553739500,3.829739501953125,0.025176992639899254,0.021953769028186798,-0.05690482631325722
1782986382563813400,3.8398134765625,0.022582806646823883,0.01846262998878956,-0.0663507953286171
1782986382573888500,3.849888427734375,0.012015117332339287,0.005275722127407789,-0.07705483585596085
1782986382583962400,3.85996240234375,0.008664860390126705,0.0007480819476768374,-0.08773943781852722
1782986382594036500,3.870036376953125,0.011404721066355705,0.015516375191509724,-0.09863549470901489
1782986382604111600,3.880111572265625,0.013622335158288479,0.027108317241072655,-0.11216036230325699
1782986382614185500,3.890185546875,0.016103336587548256,0.032342758029699326,-0.11978259682655334
1782986382624259600,3.900259521484375,0.017185112461447716,0.036130309104919434,-0.1187807098031044
1782986382634333700,3.910333740234375,0.019222697243094444,0.040778856724500656,-0.11635670065879822
1782986382644408600,3.92040869140625,0.017348363995552063,0.037410490214824677,-0.11277235299348831
1782986382654482700,3.930482666015625,0.012648151256144047,0.038594529032707214,-0.0984669178724289
1782986382664556500,3.940556640625,0.009156214073300362,0.040945567190647125,-0.08669547736644745
1782986382674631700,3.950631591796875,0.0057162088342010975,0.04187874123454094,-0.07199402898550034
1782986382684705500,3.96070556640625,0.006754841655492783,0.030436735600233078,-0.06669114530086517
1782986382694779600,3.970779541015625,0.009362609125673771,0.02574584260582924,-0.05498974770307541
1782986382704854500,3.9808544921875,0.012673450633883476,0.024501880630850792,-0.04441859573125839
1782986382714928600,3.9909287109375,0.010587663389742374,0.028414331376552582,-0.027094202116131783
1782986382725002500,4.00100244140625,0.010032926686108112,0.031552597880363464,-0.00884728692471981
1782986382735077600,4.01107763671875,0.018546519801020622,0.027641747146844864,0.0016889767721295357
1782986382745151500,4.0211513671875,0.028058532625436783,0.018005898222327232,0.004703674931079149
1782986382755225600,4.0312255859375,0.03633537143468857,0.009392969310283661,0.0022421153262257576
1782986382765300200,4.04130029296875,0.04097459837794304,0.012973588891327381,-0.005572664551436901
1782986382775374300,4.051374267578125,0.0380706861615181,0.02130662091076374,-0.014454040676355362
1782986382785448200,4.0614482421875,0.036978524178266525,0.0279149878770113,-0.021080784499645233
1782986382795522300,4.071522216796875,0.0338120274245739,0.03419232368469238,-0.02996455691754818
1782986382805597200,4.08159716796875,0.02841273322701454,0.028425516560673714,-0.038291461765766144
1782986382815671300,4.09167138671875,0.02996455691754818,0.019094599410891533,-0.04158606007695198
1782986382825745400,4.101745361328125,0.030176544561982155,0.0027361316606402397,-0.039914924651384354
1782986382835820300,4.1118203125,0.039510924369096756,-0.027173297479748726,-0.04212774708867073
1782986382845894400,4.121894287109375,0.04128698632121086,-0.05134068429470062,-0.04481567442417145
1782986382855968300,4.13196826171875,0.04376585781574249,-0.055271778255701065,-0.04777337983250618
1782986382866043400,4.14204345703125,0.04193013906478882,-0.05226879566907883,-0.041613757610321045
1782986382876117200,4.1521171875,0.031506527215242386,-0.03501737117767334,-0.04127686470746994
1782986382886191400,4.16219140625,0.013177587650716305,-0.006359362509101629,-0.03566878288984299
1782986382896266200,4.172266357421875,0.0006258428329601884,0.01732546091079712,-0.02636662684381008
1782986382906340400,4.18234033203125,-0.010665161535143852,0.022701317444443703,-0.004240551497787237
1782986382916414200,4.192414306640625,-0.012635101564228535,0.014661500230431557,0.012591425329446793
1782986382926489300,4.2024892578125,-0.006420881487429142,-0.011510182172060013,0.021266672760248184
1782986382936563200,4.212563232421875,0.0037678403314203024,-0.04318981617689133,0.015623434446752071
1782986382946637300,4.22263720703125,0.012911804020404816,-0.05931685119867325,0.003620567498728633
1782986382956711200,4.232711181640625,0.017597636207938194,-0.05197451636195183,-0.015982961282134056
1782986382966786300,4.242786376953125,0.013139504007995129,-0.03002074919641018,-0.03717373311519623
1782986382976860200,4.252860107421875,0.009796704165637493,-0.006485596299171448,-0.04384947940707207
1782986382986934500,4.2629345703125,0.008163654245436192,0.017013071104884148,-0.04355600103735924
1782986382997009200,4.273009033203125,0.011904862709343433,0.02196255698800087,-0.03502349928021431
1782986383007083500,4.28308349609375,0.014480405487120152,0.01830177567899227,-0.017660751938819885
1782986383017157400,4.293157470703125,0.020445354282855988,0.0027545075863599777,0.00020959076937288046
1782986383027232500,4.303232421875,0.0255141481757164,-0.0014056164072826505,0.009729060344398022
1782986383037306400,4.313306396484375,0.031674571335315704,-0.00475400872528553,0.012654541991651058
1782986383047380200,4.323380126953125,0.03400404006242752,0.004050667863339186,0.007743939757347107
1782986383057455400,4.333455322265625,0.03389351814985275,0.006464290898293257,-0.0008495483780279756
1782986383067529200,4.343529296875,0.035776372998952866,0.015456720255315304,-0.01552223414182663
1782986383077603300,4.353603271484375,0.03997031971812248,0.024280838668346405,-0.030541397631168365
1782986383087677200,4.36367724609375,0.04092133417725563,0.03051290102303028,-0.04464336857199669
1782986383097752300,4.37375244140625,0.042627885937690735,0.041437454521656036,-0.054553788155317307
1782986383107826200,4.383826171875,0.04435015469789505,0.061939798295497894,-0.054975368082523346
1782986383117900300,4.393900390625,0.04312483221292496,0.07708093523979187,-0.048835184425115585
1782986383127975200,4.40397509765625,0.04904717206954956,0.08044743537902832,-0.023983363062143326
1782986383138049300,4.41404931640625,0.055032093077898026,0.0729953795671463,0.0018897791160270572
1782986383148123400,4.424123291015625,0.056162070482969284,0.06208467483520508,0.03586026281118393
1782986383158198300,4.4341982421875,0.054729823023080826,0.04601143300533295,0.05633118376135826
1782986383168272400,4.4442724609375,0.055453404784202576,0.0374794639647007,0.07104142010211945
1782986383178346500,4.454346435546875,0.0535561703145504,0.03399658203125,0.07215888053178787
1782986383188421400,4.46442138671875,0.046669501811265945,0.03750716149806976,0.05931605398654938
1782986383198495500,4.47449560546875,0.04222335293889046,0.0419439896941185,0.04585670307278633
1782986383208569300,4.4845693359375,0.03749491274356842,0.05142990127205849,0.031445808708667755
1782986383218644500,4.49464453125,0.03558169677853584,0.06283595412969589,0.016378439962863922
1782986383228718300,4.50471826171875,0.030119553208351135,0.06889065355062485,0.006846987176686525
1782986383238792400,4.51479248046875,0.027878768742084503,0.06620698422193527,0.00430180411785841
1782986383248866300,4.5248662109375,0.027004985138773918,0.06517021358013153,0.008360994048416615
1782986383258941400,4.53494140625,0.022885074838995934,0.07278099656105042,0.023069366812705994
1782986383269015300,4.545015380859375,0.023138342425227165,0.0725940391421318,0.033483922481536865
1782986383279089200,4.555089111328125,0.021015802398324013,0.057799115777015686,0.04541408643126488
1782986383289164300,4.565164306640625,0.018818961456418037,0.04415920376777649,0.045830871909856796
1782986383299238100,4.575238037109375,0.012280368246138096,0.034820832312107086,0.04549771174788475
1782986383309312300,4.585312255859375,0.0038655782118439674,0.027278492227196693,0.03815963491797447
1782986383319387100,4.59538720703125,0.0014397049089893699,0.017496168613433838,0.020865334197878838
1782986383329461200,4.605461181640625,-0.009893910028040409,0.020491959527134895,0.0026522420812398195
1782986383339535400,4.615535400390625,-0.01410596538335085,0.03516038507223129,-0.011225223541259766
1782986383349610200,4.6256103515625,-0.017642643302679062,0.052325520664453506,-0.02237508073449135
1782986383359684400,4.635684326171875,-0.01203695498406887,0.05414845794439316,-0.030430875718593597
1782986383369758500,4.645758544921875,-0.00615190202370286,0.0434287004172802,-0.028003405779600143
1782986383379833300,4.655833251953125,-0.0035273567773401737,0.03266606852412224,-0.024595091119408607
1782986383389907500,4.665907470703125,-0.0024892566725611687,0.028148813173174858,-0.010981012135744095
1782986383399981300,4.675981201171875,-0.0006199838826432824,0.028787972405552864,-0.008115983568131924
1782986383410055400,4.686055419921875,0.0018937737913802266,0.03419791907072067,-0.009100288152694702
1782986383420130300,4.69613037109375,0.0029142971616238356,0.035650406032800674,-0.020771590992808342
1782986383430204400,4.706204345703125,0.005210208240896463,0.03981851786375046,-0.04130110144615173
1782986383440278300,4.7162783203125,0.012324843555688858,0.046182941645383835,-0.07178737223148346
1782986383450353400,4.726353515625,0.015147527679800987,0.05630828067660332,-0.09592732787132263
1782986383460427300,4.73642724609375,0.016380837187170982,0.06028943881392479,-0.11837217956781387
1782986383470501400,4.74650146484375,0.017899105325341225,0.05946172773838043,-0.13925163447856903
1782986383480576300,4.756576171875,0.017372332513332367,0.05518868565559387,-0.15060842037200928
1782986383490650400,4.766650390625,0.02040434069931507,0.05014466121792793,-0.13552294671535492
1782986383500724200,4.77672412109375,0.028271319344639778,0.04237249121069908,-0.11448770016431808
1782986383510798300,4.78679833984375,0.03641127049922943,0.03104260377585888,-0.08377106487751007
1782986383520872400,4.79687255859375,0.042096320539712906,0.019769176840782166,-0.04417784884572029
1782986383530946300,4.8069462890625,0.04391605779528618,0.013946441933512688,-0.005633384454995394
1782986383541021400,4.817021484375,0.04055967554450035,0.0041031320579349995,0.025794578716158867
1782986383551095300,4.82709521484375,0.03888854384422302,-0.00666402792558074,0.045403968542814255
1782986383561169400,4.83716943359375,0.03392334654927254,-0.012354138307273388,0.05746062844991684
1782986383571244300,4.847244384765625,0.030540065839886665,-0.019104719161987305,0.06606131047010422
1782986383581318400,4.857318359375,0.021342307329177856,-0.01896357163786888,0.06432706117630005
1782986383591392300,4.867392333984375,0.011959990486502647,-0.014424479566514492,0.05613410845398903
1782986383601467400,4.87746728515625,0.0016666061710566282,0.011651063337922096,0.047034621238708496
1782986383611541200,4.887541259765625,-0.00472391489893198,0.03694044053554535,0.05462969094514847
1782986383621615400,4.897615478515625,-0.012180499732494354,0.04168326407670975,0.06968666613101959
1782986383631689200,4.907689208984375,-0.015724368393421173,0.02281077392399311,0.10528780519962311
1782986383641764400,4.917764404296875,-0.016165386885404587,-0.0002969424531329423,0.14842195808887482
1782986383651838200,4.927838134765625,-0.003456783015280962,-0.025667013600468636,0.18161959946155548
1782986383661912300,4.937912353515625,0.007816644385457039,-0.05436044558882713,0.189933180809021
1782986383671987200,4.9479873046875,0.01630387268960476,-0.07873263210058212,0.17569352686405182
1782986383682061300,4.958061279296875,0.023779630661010742,-0.07699012011289597,0.14659076929092407
1782986383692135400,4.968135498046875,0.025080852210521698,-0.055518653243780136,0.12430517375469208
1782986383702210300,4.978210205078125,0.018436796963214874,-0.0357220433652401,0.1197224035859108
1782986383712284400,4.988284423828125,0.016634104773402214,-0.00803289283066988,0.13153405487537384
1782986383722358300,4.998358154296875,0.018748920410871506,-0.0006372944335453212,0.14967897534370422
1782986383732433400,5.008433349609375,0.01834838092327118,-0.02009541355073452,0.16876371204853058
1782986383742507300,5.01850732421875,0.018611501902341843,-0.04435308277606964,0.1666526347398758
1782986383752581400,5.028581298828125,0.008293882943689823,-0.047679103910923004,0.1519269496202469
1782986383762656300,5.03865625,0.00036139096482656896,-0.033600836992263794,0.13097825646400452
1782986383772730000,5.048730224609375,-0.0013512879377231002,-0.006345780100673437,0.10591897368431091
1782986383782804000,5.058803955078125,-0.0025209481827914715,0.006916229147464037,0.07634377479553223
1782986383792878000,5.068878173828125,0.005659749731421471,0.006885869428515434,0.049311090260744095
1782986383802953000,5.078952880859375,0.011468370445072651,0.001555552356876433,0.02678554132580757
1782986383813027000,5.089027099609375,0.015780560672283173,0.0007627293234691024,0.01762320287525654
1782986383823101000,5.099100830078125,0.014396782033145428,-0.00017097493400797248,0.013350958935916424
1782986383833176000,5.109176025390625,0.012533102184534073,-0.0005560680292546749,0.016862336546182632
1782986383843250000,5.11925,0.007328486535698175,0.0016761935548856854,0.026126142591238022
1782986383853324300,5.12932421875,0.007048321887850761,-0.00433109886944294,0.037625670433044434
1782986383863399000,5.13939892578125,0.009459547698497772,-0.009437177330255508,0.04598906263709068
1782986383873473300,5.149473388671875,0.006986004300415516,-0.02281290479004383,0.04820028692483902
1782986383883547100,5.159547119140625,0.0032796829473227262,-0.03346634656190872,0.04675418883562088
1782986383893622300,5.169622314453125,0.0037494644057005644,-0.03346661478281021,0.0382017157971859
1782986383903696100,5.179696044921875,-0.004493019077926874,-0.029106220230460167,0.02491067536175251
1782986383913770000,5.18977001953125,-0.0064981128089129925,-0.02009754441678524,0.00746111199259758
1782986383923845000,5.19984521484375,-0.01068060752004385,0.0013555489713326097,-0.002694852650165558
1782986383933919000,5.2099189453125,-0.01065131276845932,0.012625513598322868,-0.004113784991204739
1782986383943993000,5.2199931640625,-0.0073418025858700275,0.019467441365122795,-0.00010652644414221868
1782986383954067000,5.23006689453125,-0.004781705792993307,0.015245798043906689,-0.000031425301131093875
1782986383964142000,5.24014208984375,0.0014836470363661647,0.017246365547180176,0.011980496346950531
1782986383974216000,5.2502158203125,0.002116147894412279,0.011711783707141876,0.028375715017318726
1782986383984290000,5.2602900390625,0.0037534593138843775,0.0039113848470151424,0.03139414265751839
1782986383994365000,5.270364990234375,0.006741259712725878,-0.0023318638559430838,0.03266846388578415
1782986384004439000,5.28043896484375,0.00743314903229475,-0.004346811678260565,0.029354427009820938
1782986384014513000,5.290512939453125,0.005711948033422232,0.0018021611031144857,0.026443857699632645
1782986384024588000,5.300588134765625,0.003683684393763542,0.0005984122981317341,0.01846369542181492
1782986384034662000,5.310661865234375,0.006020075641572475,0.007470433134585619,0.0027414578944444656
1782986384044736300,5.320736328125,0.008259793743491173,0.004747350700199604,-0.005756688769906759
1782986384054811000,5.330810791015625,0.00902731716632843,-0.002294047037139535,-0.010324276052415371
1782986384064885200,5.34088525390625,0.007623564917594194,-0.008174306713044643,-0.012137622572481632
1782986384074959000,5.350958984375,0.006521548610180616,-0.002793922321870923,-0.003926032222807407
1782986384085034200,5.3610341796875,0.008979912847280502,0.0007022755453363061,0.011964784003794193
1782986384095108000,5.371108154296875,0.0038932752795517445,0.00043835630640387535,0.023986026644706726
1782986384105182200,5.38118212890625,-0.0008855010382831097,-0.002043177140876651,0.03500964865088463
1782986384115256000,5.391256103515625,-0.00040959418402053416,0.0005352954030968249,0.03079972416162491
1782986384125331200,5.401331298828125,-0.0012069445801898837,0.0018929748330265284,0.01623649336397648
1782986384135405000,5.411405029296875,0.004704207647591829,0.00009667274571256712,0.000669252360239625
1782986384145479000,5.42147900390625,-0.0013630058383569121,0.004026433452963829,-0.006854976527392864
1782986384155554000,5.431553955078125,-0.010641725733876228,0.015585883520543575,-0.0014716627774760127
1782986384165628000,5.4416279296875,-0.014794658869504929,0.019707923755049706,0.0060919807292521
1782986384175702000,5.451701904296875,-0.01818060129880905,0.018987540155649185,0.016705477610230446
1782986384185777000,5.46177685546875,-0.016091618686914444,0.02172819897532463,0.027485687285661697
1782986384195851000,5.47185107421875,-0.01515897922217846,0.011833223514258862,0.03241652995347977
1782986384205924900,5.4819248046875,-0.020351344719529152,0.012970926240086555,0.04327024146914482
1782986384216000000,5.492,-0.023021429777145386,0.019293004646897316,0.04770813509821892
1782986384226073900,5.502073974609375,-0.0267192292958498,0.028052939102053642,0.053158026188611984
1782986384236148200,5.512148193359375,-0.028872394934296608,0.020970262587070465,0.05270235985517502
1782986384246222800,5.522222900390625,-0.0320759117603302,0.008224373683333397,0.05336735025048256
1782986384256297200,5.532297119140625,-0.03376542031764984,-0.0029409287963062525,0.06562934070825577
1782986384266371000,5.54237109375,-0.03767840191721916,0.00141041015740484,0.06749621778726578
1782986384276446200,5.5524462890625,-0.04241829738020897,0.016993097960948944,0.07091278582811356
1782986384286520000,5.56252001953125,-0.04734088480472565,0.03407381474971771,0.07753021270036697
1782986384296594200,5.57259423828125,-0.057795654982328415,0.04983706399798393,0.08001147955656052
1782986384306668000,5.58266796875,-0.05392980948090553,0.056041963398456573,0.07663485407829285
1782986384316743200,5.5927431640625,-0.04298501834273338,0.045219942927360535,0.06880196928977966
1782986384326817000,5.602817138671875,-0.027579963207244873,0.02153458632528782,0.05950460582971573
1782986384336891100,5.61289111328125,-0.012196478433907032,-0.004318581894040108,0.041552238166332245
1782986384346966000,5.622966064453125,-0.004744953941553831,-0.032578982412815094,0.012791428714990616
1782986384357040000,5.6330400390625,-0.00589730404317379,-0.0438271090388298,-0.005393966566771269
1782986384367114000,5.643114013671875,-0.009734652936458588,-0.020603278651833534,-0.016470851376652718
1782986384377189000,5.653189208984375,-0.014121411368250847,0.007233145646750927,-0.012101669795811176
1782986384387263000,5.663262939453125,-0.014724884182214737,0.026770094409585,0.006594253238290548
1782986384397336800,5.6733369140625,-0.011714712716639042,0.023261645808815956,0.03555799275636673
1782986384407412000,5.683411865234375,-0.010654774494469166,0.0019374496769160032,0.061108093708753586
1782986384417486000,5.693486083984375,-0.00663606496527791,-0.027395671233534813,0.06968747079372406
1782986384427560200,5.703560302734375,-0.010963701643049717,-0.04832785204052925,0.06549938023090363
1782986384437635000,5.713635009765625,-0.016270317137241364,-0.04404495656490326,0.04457598924636841
1782986384447709200,5.723709228515625,-0.02088291198015213,-0.014869759790599346,0.012081430293619633
1782986384457783000,5.733782958984375,-0.03664855659008026,0.04490036144852638,-0.031863391399383545
1782986384467858200,5.743858154296875,-0.03211665898561478,0.06422825157642365,-0.05408826842904091
1782986384477932000,5.75393212890625,-0.024215590208768845,0.0436801016330719,-0.0679771900177002
1782986384488006100,5.764006103515625,-0.016755277290940285,0.013844176195561886,-0.05002188682556152
1782986384498080000,5.774080078125,-0.010890464298427105,0.011551461182534695,-0.013757890090346336
1782986384508155100,5.784155029296875,-0.010103766806423664,0.01104466151446104,0.027515247464179993
1782986384518229000,5.79422900390625,-0.012013252824544907,-0.006464557256549597,0.05711521580815315
1782986384528303000,5.80430322265625,-0.01064944826066494,-0.014176805503666401,0.07259457558393478
1782986384538378000,5.8143779296875,-0.006798517424613237,-0.011404721066355705,0.06801553815603256
1782986384548452000,5.8244521484375,-0.006770554464310408,-0.008435828611254692,0.05077050253748894
1782986384558526000,5.83452587890625,-0.0013800500892102718,-0.01101430132985115,0.019266905263066292
1782986384568601000,5.84460107421875,-0.004347610287368298,-0.01389850489795208,-0.015993613749742508
1782986384578675000,5.854675048828125,-0.005178516730666161,-0.008568720892071724,-0.04483618214726448
1782986384588749000,5.8647490234375,-0.009371130727231503,0.0036482643336057663,-0.06383517384529114
1782986384598824000,5.874823974609375,-0.017727598547935486,0.006491455249488354,-0.06492147594690323
1782986384608898000,5.88489794921875,-0.02364860475063324,0.01888500712811947,-0.05440358817577362
1782986384618972200,5.89497216796875,-0.018612300977110863,0.027407389134168625,-0.030975226312875748
1782986384629047000,5.905047119140625,-0.011774634011089802,0.0157129168510437,-0.010016148909926414
1782986384639121200,5.91512109375,-0.0034202977549284697,0.0021318604703992605,0.011032410897314548
1782986384649195000,5.925195068359375,0.004077832214534283,-0.007894407957792282,0.024534104391932487
1782986384659269000,5.93526904296875,0.008683502674102783,-0.014284662902355194,0.03381442278623581
1782986384669344000,5.945343994140625,0.015063904225826263,-0.011722436174750328,0.02917439676821232
1782986384679418000,5.955418212890625,0.017131315544247627,-0.005789978429675102,0.01788179576396942
1782986384689492000,5.965491943359375,0.01762746274471283,0.002267149044200778,0.009916813112795353
1782986384699567000,5.975567138671875,0.018139323219656944,0.02069436013698578,0.000996821210719645
1782986384709641000,5.985640869140625,0.0203353650867939,0.030486803501844406,0.004477039910852909
1782986384719715000,5.995715087890625,0.016277240589261055,0.023661121726036072,0.012849751859903336
1782986384729790000,6.0057900390625,0.011722169816493988,0.007433947641402483,0.02123844251036644
1782986384739864000,6.015864013671875,0.010151437483727932,0.006386792752891779,0.033065542578697205
1782986384749938000,6.02593798828125,0.010178601369261742,0.0076275598257780075,0.04651983082294464
1782986384760013000,6.036012939453125,0.007547398563474417,0.010482202284038067,0.05300036817789078
1782986384770087400,6.04608740234375,0.004230164922773838,0.013441506773233414,0.057557303458452225
1782986384780161500,6.05616162109375,0.004489556886255741,0.011685950681567192,0.0493430495262146
1782986384790236400,6.066236328125,0.0037997981999069452,0.00637827068567276,0.039452068507671356
1782986384800310500,6.076310546875,-0.003194994293153286,0.0062794676050543785,0.033719614148139954
1782986384810384400,6.08638427734375,-0.00729466462507844,0.013612215407192707,0.031569644808769226
1782986384820459500,6.09645947265625,-0.01273070927709341,0.019843745976686478,0.02953631989657879
1782986384830533600,6.10653369140625,-0.013371199369430542,0.016700949519872665,0.029468942433595657
1782986384840607700,6.116607666015625,-0.013612481765449047,0.01221671886742115,0.02365952357649803
1782986384850681600,6.126681640625,-0.017604559659957886,0.011798336170613766,0.01666686125099659
1782986384860756700,6.1367568359375,-0.01387054193764925,-0.011708321049809456,-0.0011965582380071282
1782986384870830600,6.14683056640625,-0.007272826507687569,-0.017060209065675735,-0.022232867777347565
1782986384880904700,6.15690478515625,-0.00905607920140028,-0.011979430913925171,-0.037938062101602554
1782986384890979600,6.1669794921875,-0.013037238270044327,-0.004827778320759535,-0.0446537546813488
1782986384901053700,6.1770537109375,-0.01571371592581272,0.003513242118060589,-0.041139181703329086
1782986384911127600,6.18712744140625,-0.014407968148589134,0.00717482203617692,-0.02413809299468994
1782986384921202700,6.19720263671875,-0.015447932295501232,0.0023933828342705965,-0.0038253646343946457
1782986384931276500,6.207276611328125,-0.01395522989332676,-0.013400227762758732,0.011640943586826324
1782986384941350400,6.217350341796875,-0.007511179428547621,-0.02959624119102955,0.017642909660935402
1782986384951425500,6.227425537109375,-0.004770786967128515,-0.03813167288899422,0.017362479120492935
1782986384961499400,6.23749951171875,-0.010815629735589027,-0.039752740412950516,0.007355384528636932
1782986384971573500,6.247573486328125,-0.019165704026818275,-0.02178598940372467,-0.000945954816415906
1782986384981648400,6.2576484375,-0.03110652044415474,0.013332316651940346,0.0028607675340026617
1782986384991722500,6.267722412109375,-0.042810846120119095,0.039447009563446045,0.007262174040079117
1782986385001796600,6.277796630859375,-0.04614991694688797,0.04117859527468681,0.01684449426829815
1782986385011871500,6.28787158203125,-0.04044675827026367,0.026344522833824158,0.025419339537620544
1782986385021945600,6.297945556640625,-0.026998594403266907,-0.007753527257591486,0.02268587052822113
1782986385032019700,6.308019775390625,-0.012865731492638588,-0.03993942588567734,0.008503207005560398
1782986385042094600,6.318094482421875,-0.0044197821989655495,-0.05245388671755791,-0.017914818599820137
1782986385052168700,6.328168701171875,-0.005714877508580685,-0.043002329766750336,-0.047327302396297455
1782986385062242600,6.33824267578125,-0.01420396938920021,-0.02893684245646,-0.07395625114440918
1782986385072316700,6.348316650390625,-0.02647474966943264,-0.015906793996691704,-0.09641361981630325
1782986385082391600,6.3583916015625,-0.02948039397597313,0.0037491980474442244,-0.09914682060480118
1782986385092465700,6.368465576171875,-0.025359418243169785,0.013124590739607811,-0.08070097118616104
1782986385102539500,6.37853955078125,-0.017176855355501175,-0.0033888723701238632,-0.05867369845509529
1782986385112614700,6.38861474609375,-0.013763482682406902,-0.02972806803882122,-0.03382107987999916
1782986385122688500,6.3986884765625,-0.007377754896879196,-0.03562270849943161,-0.011716843582689762
1782986385132762600,6.4087626953125,-0.0015427692560479045,-0.03297898918390274,0.001976331928744912
1782986385142837500,6.41883740234375,0.0007254450465552509,-0.03519953414797783,0.002974218223243952
1782986385152911600,6.42891162109375,0.0024144218768924475,-0.03699317201972008,-0.007997472770512104
1782986385162985500,6.4389853515625,0.0037092508282512426,-0.031208252534270287,-0.018504442647099495
1782986385173060600,6.449060546875,0.004067446105182171,-0.022396119311451912,-0.023201193660497665
1782986385183134500,6.459134521484375,-0.0005944175645709038,-0.004993160720914602,-0.028967736288905144
1782986385193208600,6.46920849609375,-0.0024730113800615072,0.008094944059848785,-0.025177791714668274
1782986385203283500,6.479283447265625,-0.007130081299692392,0.01387080829590559,-0.02111380733549595
1782986385213357600,6.489357666015625,-0.01197090931236744,0.0023401195649057627,-0.014133129268884659
1782986385223431700,6.499431640625,-0.01203908585011959,-0.009643838740885258,-0.007701328955590725
1782986385233505500,6.509505615234375,-0.013045228086411953,-0.021751102060079575,-0.009427590295672417
1782986385243580700,6.51958056640625,-0.016714265570044518,-0.03845897689461708,-0.02099875919520855
1782986385253654500,6.529654541015625,-0.020965470001101494,-0.023395869880914688,-0.04392138496041298
1782986385263728600,6.539728759765625,-0.03737959638237953,0.029100360348820686,-0.07633604854345322
1782986385273803500,6.549803466796875,-0.036612074822187424,0.003861849894747138,-0.1066601350903511
1782986385283877600,6.559877685546875,-0.03850478306412697,-0.02876533567905426,-0.12253470718860626
1782986385293951500,6.569951416015625,-0.03700701892375946,-0.04777045175433159,-0.11590716242790222
1782986385304026600,6.580026611328125,-0.035763856023550034,-0.04857952147722244,-0.0904766395688057
1782986385314100500,6.5901005859375,-0.033435456454753876,-0.04363109916448593,-0.06343702971935272
1782986385324174600,6.600174560546875,-0.025307754054665565,-0.034454114735126495,-0.02931341342628002
1782986385334249500,6.61024951171875,-0.02502492628991604,-0.024804947897791862,-0.005364938173443079
1782986385344323600,6.620323486328125,-0.026638802140951157,-0.01878460682928562,0.01254269015043974
1782986385354397400,6.6303974609375,-0.02274499274790287,-0.02503717690706253,0.017317738384008408
1782986385364472600,6.64047265625,-0.01991511881351471,-0.03111157938838005,0.010835337452590466
1782986385374546400,6.65054638671875,-0.014672951772809029,-0.028670260682702065,-0.002457564929500222
1782986385384620500,6.66062060546875,-0.010748251341283321,-0.018428541719913483,-0.013744041323661804
1782986385394695400,6.6706953125,-0.007679757662117481,-0.01715874671936035,-0.017850635573267937
1782986385404769500,6.68076953125,-0.010105897672474384,-0.018017882481217384,-0.012003932148218155
1782986385414843600,6.69084375,-0.01357279997318983,-0.007310110609978437,0.009240902960300446
1782986385424918500,6.70091845703125,-0.021221399307250977,-0.007531153038144112,0.030119553208351135
1782986385434992600,6.71099267578125,-0.016084693372249603,-0.014582937583327293,0.04448464512825012
1782986385445066500,6.72106640625,-0.011452658101916313,-0.02750006690621376,0.05817915126681328
1782986385455140600,6.731140625,-0.011476626619696617,-0.04338023066520691,0.05805398151278496
1782986385465215500,6.741215576171875,-0.010324010625481606,-0.06578247249126434,0.043106723576784134
1782986385475289600,6.75128955078125,-0.011689146980643272,-0.08592715859413147,0.011544270440936089
1782986385485363500,6.761363525390625,-0.012142150662839413,-0.08937781304121017,-0.023751135915517807
1782986385495438600,6.7714384765625,-0.01483567152172327,-0.07093462347984314,-0.05992032587528229
1782986385505512400,6.781512451171875,-0.024019315838813782,-0.05835358798503876,-0.0813332051038742
1782986385515586600,6.791586669921875,-0.03225674107670784,-0.061354171484708786,-0.09557285904884338
1782986385525661400,6.801661376953125,-0.02954564243555069,-0.07760877162218094,-0.10336153954267502
1782986385535735600,6.811735595703125,-0.03038320504128933,-0.10638609528541565,-0.1019468680024147
1782986385545809400,6.821809326171875,-0.02785693109035492,-0.12719790637493134,-0.0957382470369339
1782986385555884500,6.831884521484375,-0.026812706142663956,-0.11734100431203842,-0.09563571214675903
1782986385565958400,6.84195849609375,-0.024224912747740746,-0.10079691559076309,-0.0697718933224678
1782986385576032500,6.852032470703125,-0.024265658110380173,-0.09813109040260315,-0.04855022579431534
1782986385586107400,6.862107421875,-0.03261067345738411,-0.1269686073064804,-0.037511955946683884
1782986385596181500,6.872181396484375,-0.03883235156536102,-0.13392238318920135,-0.030133135616779327
1782986385606255600,6.882255615234375,-0.04303668439388275,-0.11705391854047775,-0.01721440628170967
1782986385616330500,6.89233056640625,-0.049612827599048615,-0.09331689774990082,-0.01894253119826317
1782986385626404600,6.902404541015625,-0.05433567613363266,-0.06609273701906204,-0.02335352636873722
1782986385636478700,6.912478759765625,-0.053712230175733566,-0.04445561394095421,-0.028907814994454384
1782986385646553600,6.9225537109375,-0.048717204481363297,-0.03013739548623562,-0.02442704513669014
1782986385656627700,6.932627685546875,-0.04139750823378563,-0.02869422920048237,-0.018248245120048523
1782986385666701600,6.94270166015625,-0.032935045659542084,-0.04090642184019089,-0.00467651104554534
1782986385676775400,6.952775390625,-0.030170951038599014,-0.05607418715953827,0.016435964033007622
1782986385686850600,6.9628505859375,-0.03178482875227928,-0.05072203278541565,0.03623736649751663
1782986385696924400,6.97292431640625,-0.03808506578207016,-0.03821156919002533,0.05251886695623398
1782986385706998500,6.98299853515625,-0.0471174456179142,-0.01392966415733099,0.06968400627374649
1782986385717073400,6.993073486328125,-0.05343153327703476,-0.0014122743159532547,0.07826045155525208
1782986385727147500,7.0031474609375,-0.05393300577998161,-0.007880826480686665,0.08112947642803192
1782986385737221400,7.013221435546875,-0.052327387034893036,-0.02304406650364399,0.0702376738190651
1782986385747296500,7.023296630859375,-0.041908036917448044,-0.04344254732131958,0.04412059113383293
1782986385757370400,7.033370361328125,-0.03454679250717163,-0.06029875949025154,0.008228901773691177
1782986385767444700,7.04344482421875,-0.028331506997346878,-0.0646037608385086,-0.026700319722294807
1782986385777520000,7.05352001953125,-0.026730680838227272,-0.054422494024038315,-0.050503920763731
1782986385787594000,7.063593994140625,-0.03429911658167839,-0.03670927882194519,-0.06223141774535179
1782986385797668000,7.073668212890625,-0.042389001697301865,-0.025919482111930847,-0.049314286559820175
1782986385807743000,7.083742919921875,-0.04946688562631607,-0.018278339877724648,-0.024596422910690308
1782986385817817000,7.093817138671875,-0.04556775093078613,-0.020503144711256027,0.009473130106925964
1782986385827891200,7.10389111328125,-0.038591332733631134,-0.030644461512565613,0.04312589764595032
1782986385837966000,7.113966064453125,-0.0296082254499197,-0.042032938450574875,0.06456860899925232
1782986385848040200,7.124040283203125,-0.02647128887474537,-0.05157957226037979,0.07010398805141449
1782986385858114300,7.1341142578125,-0.026921363547444344,-0.056830793619155884,0.06405621767044067
1782986385868189200,7.144189208984375,-0.03500139340758324,-0.05071431025862694,0.0441908985376358
1782986385878263300,7.15426318359375,-0.04507986083626747,-0.03471563756465912,0.00923238042742014
1782986385888337200,7.164337158203125,-0.049732670187950134,-0.037218473851680756,-0.026557307690382004
1782986385898412300,7.174412353515625,-0.05497829616069794,-0.04661783576011658,-0.047994956374168396
1782986385908486100,7.184486083984375,-0.05913948640227318,-0.05957651138305664,-0.05770111456513405
1782986385918560000,7.19456005859375,-0.0659867376089096,-0.0840429738163948,-0.05788327381014824
1782986385928634000,7.204634033203125,-0.06444583833217621,-0.08170098811388016,-0.05341688543558121
1782986385938709000,7.214708984375,-0.05668618157505989,-0.07599622756242752,-0.04958832636475563
1782986385948783000,7.224783203125,-0.04909590631723404,-0.08014862984418869,-0.045636460185050964
1782986385958857000,7.23485693359375,-0.05142883583903313,-0.09096692502498627,-0.041788991540670395
1782986385968932000,7.24493212890625,-0.06345727294683456,-0.10240866243839264,-0.047558996826410294
1782986385979006000,7.255005859375,-0.08765555173158646,-0.12175572663545609,-0.06794150173664093
1782986385989080000,7.265080078125,-0.0927152931690216,-0.11242987215518951,-0.09954603016376495
1782986385999155000,7.275155029296875,-0.07004113495349884,-0.08279182016849518,-0.14122982323169708
1782986386009229000,7.28522900390625,-0.02208692580461502,-0.05186213180422783,-0.1819642037153244
1782986386019303200,7.29530322265625,0.01721467263996601,-0.0410933755338192,-0.19659188389778137
1782986386029378000,7.3053779296875,0.022424615919589996,-0.04391472786664963,-0.19043439626693726
1782986386039452200,7.3154521484375,0.011372762732207775,-0.04614565894007683,-0.156086266040802
1782986386049526300,7.3255263671875,-0.009402289986610413,-0.04800853878259659,-0.10529260337352753
1782986386059601200,7.33560107421875,-0.019847474992275238,-0.038600657135248184,-0.05385657399892807
1782986386069675300,7.34567529296875,-0.014996260404586792,-0.03640913963317871,-0.022046979516744614
1782986386079749000,7.3557490234375,-0.0032692966051399708,-0.03954607620835304,-0.008896822109818459
1782986386089824300,7.36582421875,0.009940248914062977,-0.04616403207182884,-0.007494135294109583
1782986386099898000,7.375898193359375,0.01818033494055271,-0.05463528260588646,-0.011944809928536415
1782986386109972200,7.38597216796875,0.019058646634221077,-0.049790460616350174,-0.01643143780529499
1782986386120046000,7.396046142578125,0.019631491973996162,-0.04356025904417038,-0.023804398253560066
1782986386130121200,7.406121337890625,0.012990899384021759,-0.04103957861661911,-0.032173383980989456
1782986386140195000,7.416195068359375,0.009650496765971184,-0.033545974642038345,-0.03249961882829666
1782986386150269000,7.42626904296875,0.0033633061684668064,-0.021681860089302063,-0.03719956800341606
1782986386160344000,7.436343994140625,-0.0059785302728414536,-0.014218350872397423,-0.03720462694764137
1782986386170418000,7.44641796875,-0.012336826883256435,-0.011298727244138718,-0.04532646760344505
1782986386180492300,7.4564921875,-0.014505705796182156,-0.010306965559720993,-0.04625244811177254
1782986386190567200,7.466567138671875,-0.015225025825202465,-0.005769205745309591,-0.04134450852870941
1782986386200641300,7.476641357421875,-0.01643063873052597,-0.013739247806370258,-0.027272900566458702
1782986386210715100,7.486715087890625,-0.009634251706302166,-0.013080381788313389,-0.009463276714086533
1782986386220790300,7.496790283203125,0.0010101370280608535,-0.009499495849013329,0.0020655477419495583
1782986386230864100,7.506864013671875,-0.000910268456209451,0.008922388777136803,0.011906727217137814
1782986386240938200,7.516938232421875,-0.004266650415956974,0.016292421147227287,0.017112141475081444
1782986386251013000,7.52701318359375,-0.005986253265291452,0.02666330151259899,0.022733274847269058
1782986386261087200,7.537087158203125,0.000300404557492584,0.03310229256749153,0.027943218126893044
1782986386271161000,7.5471611328125,0.005684783682227135,0.03501071408390999,0.03347806632518768
1782986386281236200,7.557236328125,0.006106095854192972,0.04397092014551163,0.0362434908747673
1782986386291310000,7.56731005859375,0.005393966566771269,0.057433996349573135,0.05095266178250313
1782986386301384200,7.57738427734375,0.003939880523830652,0.06838838011026382,0.05446430668234825
1782986386311459000,7.587458984375,-0.0015632755821570754,0.071700818836689,0.06292197108268738
1782986386321533200,7.597533203125,0.001017061178572476,0.0693146288394928,0.06602029502391815
1782986386331607000,7.60760693359375,0.008009989745914936,0.056288573890924454,0.06736013293266296
1782986386341682200,7.61768212890625,0.009785785339772701,0.045816756784915924,0.06518646329641342
1782986386351756000,7.627756103515625,0.013362676836550236,0.03579394891858101,0.060570403933525085
1782986386361830100,7.637830078125,0.011319499462842941,0.03605520725250244,0.05067995563149452
1782986386371905000,7.647905029296875,0.01133894082158804,0.03393053635954857,0.029447903856635094
1782986386381979100,7.657979248046875,0.008786034770309925,0.03405490517616272,0.0064962487667799
1782986386392053200,7.66805322265625,0.005960687063634396,0.02894802764058113,-0.01822507567703724
1782986386402127000,7.678127197265625,0.0013310478534549475,0.026457173749804497,-0.030735807493329048
1782986386412202200,7.6882021484375,0.000577107013668865,0.026764769107103348,-0.03597983717918396
1782986386422276000,7.698276123046875,0.003195260651409626,0.024701351299881935,-0.03563149645924568
1782986386432350200,7.70835009765625,0.0029489181470125914,0.020484767854213715,-0.029621008783578873
1782986386442425300,7.71842529296875,0.004415787290781736,0.03798866271972656,-0.014338725246489048
1782986386452499200,7.728499267578125,0.0004122573300264776,0.05668218806385994,0.0036770266015082598
1782986386462573000,7.738572998046875,-0.010430536232888699,0.0700182318687439,0.0129349734634161
1782986386472648200,7.748648193359375,-0.03329324349761009,0.06523039937019348,0.01170246209949255
1782986386482722000,7.75872216796875,-0.049799513071775436,0.07077670097351074,-0.0036786242853850126
1782986386492796200,7.768796142578125,-0.061157628893852234,0.06978840380907059,-0.025668878108263016
1782986386502871000,7.77887109375,-0.048834916204214096,0.0584995299577713,-0.053281597793102264
1782986386512945200,7.788945068359375,-0.027412982657551765,0.03838760405778885,-0.0813414603471756
1782986386523019000,7.79901904296875,-0.01125292107462883,0.02021818608045578,-0.09776543825864792
1782986386533094100,7.80909423828125,-0.004703941289335489,0.007133809383958578,-0.09335072338581085
1782986386543168000,7.81916796875,-0.010000701993703842,0.010496849194169044,-0.07709105312824249
1782986386553242000,7.8292421875,-0.015279619954526424,0.03822541609406471,-0.04722343757748604
1782986386563317000,7.83931689453125,-0.023976439610123634,0.05627099424600601,-0.006959904916584492
1782986386573391000,7.84939111328125,-0.029323799535632133,0.05927637219429016,0.0317550003528595
1782986386583465200,7.85946533203125,-0.029019400477409363,0.04153545945882797,0.06482773274183273
1782986386593540000,7.8695400390625,-0.020595023408532143,0.02454342693090439,0.08181550353765488
1782986386603614200,7.8796142578125,-0.010518421418964863,0.012435630895197392,0.0830746442079544
1782986386613688300,7.889688232421875,-0.00430047232657671,0.01239275373518467,0.06672629714012146
1782986386623762200,7.89976220703125,-0.005587578285485506,0.01287292130291462,0.04115116596221924
1782986386633837300,7.90983740234375,-0.008481635712087154,0.017283381894230843,0.013498231768608093
1782986386643911200,7.9199111328125,-0.012314722873270512,0.027483023703098297,-0.003966245800256729
1782986386653985000,7.929985107421875,-0.013479056768119335,0.03304077312350273,-0.017953168600797653
1782986386664060200,7.94006005859375,-0.014345649629831314,0.027288878336548805,-0.02394847571849823
1782986386674134300,7.95013427734375,-0.004564658273011446,0.021095698699355125,-0.013772537931799889
1782986386684208000,7.9602080078125,0.001967277145013213,0.00797057431191206,0.001701759872958064
1782986386694283300,7.970283203125,0.0038211036007851362,0.0012306467397138476,0.016814399510622025
1782986386704357000,7.980357177734375,0.007154315710067749,-0.005921804811805487,0.023499732837080956
1782986386714431000,7.990430908203125,0.0038397456519305706,-0.013658021576702595,0.026684341952204704
1782986386724506000,8.000506103515624,0.0073468624614179134,-0.010084325447678566,0.017017066478729248
1782986386734580000,8.010580078125,0.001698564155958593,-0.009131180122494698,0.0007174555794335902
1782986386744654000,8.020654052734375,0.0014538196846842766,-0.004290352575480938,-0.022118352353572845
1782986386754729000,8.03072900390625,-0.002650644164532423,0.004699147772043943,-0.03865152224898338
1782986386764803000,8.040802978515625,-0.002171541564166546,0.015061507001519203,-0.05529601126909256
1782986386774876200,8.050876220703126,-0.004804076161235571,0.022709306329488754,-0.059902749955654144
1782986386784951300,8.060951416015625,-0.004162786994129419,0.021405423060059547,-0.05435831472277641
1782986386795025200,8.071025146484375,-0.0052027516067028046,0.016277773305773735,-0.04409821704030037
1782986386805099300,8.081099365234374,-0.004517253953963518,0.007016896735876799,-0.030972296372056007
1782986386815174100,8.091174072265625,-0.005986253265291452,0.005702094174921513,-0.020566526800394058
1782986386825248300,8.101248291015626,-0.004546282347291708,0.0032687638886272907,-0.013105948455631733
1782986386835322000,8.111322021484375,-0.0017752632265910506,0.004612594842910767,-0.01565193012356758
1782986386845397200,8.121397216796876,-0.00043223105603829026,0.007740211207419634,-0.016758207231760025
1782986386855471000,8.13147119140625,0.004220045171678066,0.011097658425569534,-0.02135935053229332
1782986386865545000,8.141544921875,0.003375822911038995,0.01883067935705185,-0.021640580147504807
1782986386875620000,8.1516201171875,0.009587646462023258,0.022767096757888794,-0.01709696091711521
1782986386885694000,8.16169384765625,0.012941098771989346,0.026186596602201462,-0.009967945516109467
1782986386895768000,8.17176806640625,0.013792511075735092,0.0319448821246624,0.0028636970091611147
1782986386905842200,8.18184228515625,0.012632970698177814,0.03942224010825157,0.017423732206225395
1782986386915917000,8.1919169921875,0.013856160454452038,0.03973063454031944,0.02137160114943981
1782986386925991200,8.2019912109375,0.01696140691637993,0.037029389292001724,0.021736986935138702
1782986386936065300,8.212065185546875,0.021555092185735703,0.04001213237643242,0.026693662628531456
1782986386946140200,8.22214013671875,0.018690597265958786,0.03879240155220032,0.029386384412646294
1782986386956214300,8.23221435546875,0.014536065980792046,0.04237115755677223,0.03518808260560036
1782986386966288100,8.2422880859375,0.012622584588825703,0.047498010098934174,0.0351468026638031
1782986386976363300,8.25236328125,0.0160607248544693,0.04868817701935768,0.034028273075819016
1782986386986437000,8.26243701171875,0.015066834166646004,0.048171255737543106,0.03086976520717144
1782986386996511200,8.27251123046875,0.012494220398366451,0.05686993896961212,0.03411482647061348
1782986387006586000,8.282586181640625,0.011861186474561691,0.05974429100751877,0.037164945155382156
1782986387016660200,8.29266015625,0.01230220589786768,0.05390424281358719,0.03939534351229668
1782986387026734000,8.302734130859376,0.016284430399537086,0.04472086578607559,0.03670768067240715
1782986387036809200,8.312809326171875,0.02430587261915207,0.03421735763549805,0.03670741245150566
1782986387046883000,8.322883056640626,0.030493194237351418,0.0242595337331295,0.03218856081366539
1782986387056957200,8.332957275390624,0.032285768538713455,0.012064386159181595,0.030584273859858513
1782986387067032000,8.343031982421875,0.03247645124793053,0.003940146882086992,0.03244981914758682
1782986387077106200,8.353106201171874,0.02731071598827839,0.0008884305134415627,0.03341015428304672
1782986387087180000,8.363179931640625,0.02328747883439064,0.005800630897283554,0.03765390068292618
1782986387097255200,8.373255126953126,0.020849620923399925,0.0035382758360356092,0.03373399376869202
1782986387107329000,8.3833291015625,0.015488944947719574,-0.010600446723401546,0.01775449514389038
1782986387117403100,8.393403076171875,0.01447215024381876,-0.031252194195985794,-0.008188953623175621
1782986387127478000,8.40347802734375,0.004364122170954943,-0.055144745856523514,-0.035103924572467804
1782986387137552100,8.41355224609375,-0.00031904669594950974,-0.07868842035531998,-0.061416756361722946
1782986387147626200,8.423626220703126,0.007012369576841593,-0.0735170915722847,-0.07670889049768448
1782986387157701400,8.433701416015625,0.010185525752604008,-0.06256164610385895,-0.08110177516937256
1782986387167775200,8.443775146484375,0.026555445045232773,-0.07121319323778152,-0.07919681817293167
1782986387177849000,8.45384912109375,0.04739974066615105,-0.09372223168611526,-0.07092130929231644
1782986387187923200,8.463923095703125,0.05632985010743141,-0.11373908072710037,-0.04110589250922203
1782986387197998000,8.473998046875,0.035052791237831116,-0.1173575222492218,0.0019920445047318935
1782986387208072200,8.484072265625,0.013846573419868946,-0.1086718887090683,0.04722130671143532
1782986387218146000,8.49414599609375,0.007890413515269756,-0.09641148895025253,0.07383028417825699
1782986387228221200,8.50422119140625,0.02539137750864029,-0.08611943572759628,0.0693468526005745
1782986387238295000,8.514294921875,0.04801679402589798,-0.07206620275974274,0.04731291905045509
1782986387248369200,8.524369140625,0.06607355922460556,-0.05160779878497124,0.012826848775148392
1782986387258444000,8.534444091796875,0.07487184554338455,-0.025886191055178642,-0.01062414888292551
1782986387268518100,8.54451806640625,0.07151786237955093,-0.00017896443023346364,-0.02682868391275406
1782986387278592000,8.554592041015624,0.06647809594869614,0.007285609841346741,-0.027186879888176918
1782986387288667100,8.564667236328125,0.05896957591176033,-0.0022660838440060616,-0.01595286652445793
1782986387298741000,8.574740966796876,0.04123638570308685,-0.011770639568567276,-0.0006881608278490603
1782986387308815400,8.5848154296875,0.03461363539099693,-0.012837767601013184,0.015743542462587357
1782986387318890000,8.594889892578125,0.031861793249845505,-0.014058827422559261,0.020363861694931984
1782986387328964400,8.60496435546875,0.030893467366695404,-0.00999351218342781,0.011124556884169579
1782986387339038200,8.6150380859375,0.02930569089949131,-0.011098990216851234,-0.003506850451231003
1782986387349113300,8.62511328125,0.02918371744453907,0.0001203748834086582,-0.017726266756653786
1782986387359187200,8.635187255859375,0.024466993287205696,0.0024383901618421078,-0.0318833626806736
1782986387369261000,8.645260986328125,0.027575967833399773,-0.00478383619338274,-0.042820435017347336
1782986387379336200,8.655336181640624,0.03002714179456234,-0.01423193234950304,-0.05287865921854973
1782986387389410300,8.665410400390625,0.027166906744241714,-0.01870923861861229,-0.048109471797943115
1782986387399484200,8.675484130859376,0.0209452286362648,-0.015536881983280182,-0.05043387785553932
1782986387409559300,8.685559326171875,0.020012324675917625,-0.012298477813601494,-0.04665432125329971
1782986387419633200,8.695633056640625,0.016988039016723633,-0.01335948146879673,-0.038599323481321335
1782986387429707000,8.70570703125,0.015505190007388592,-0.008266451768577099,-0.03057894855737686
1782986387439781000,8.715781005859375,0.009166866540908813,-0.0032229574862867594,-0.011488078162074089
1782986387449856000,8.72585595703125,0.006622482556849718,0.005087170284241438,0.0027856663800776005
1782986387459930000,8.73593017578125,0.0026232136879116297,0.007128483150154352,0.014210893772542477
1782986387470004000,8.74600390625,0.003290868131443858,0.01727858930826187,0.022161761298775673
1782986387480079000,8.7560791015625,0.005995041690766811,0.02028742805123329,0.02991395629942417
1782986387490153000,8.766153076171875,0.006625145673751831,0.015056979842483997,0.02918957732617855
1782986387500227300,8.776227294921876,0.01737925596535206,0.006393184419721365,0.028862807899713516
1782986387510302000,8.786302001953125,0.019724169746041298,0.00570023013278842,0.02305232174694538
1782986387520376300,8.796376220703126,0.02533092349767685,0.006628341507166624,0.010910172015428543
1782986387530450200,8.8064501953125,0.03015124425292015,0.00920281931757927,0.002261822810396552
1782986387540525300,8.816525390625,0.029141373932361603,0.010302438400685787,-0.004479703027755022
1782986387550599200,8.82659912109375,0.03080558218061924,0.011944010853767395,-0.008764995262026787
1782986387560673300,8.83667333984375,0.03195660188794136,0.005407015793025494,-0.008216384798288345
1782986387570748200,8.846748046875,0.03399285301566124,-0.010165019892156124,-0.0016021577175706625
1782986387580822300,8.856822265625,0.027287812903523445,-0.013729128055274487,0.006667223758995533
1782986387590896000,8.866896240234375,0.021260015666484833,-0.00986514799296856,0.009033708833158016
1782986387600971300,8.87697119140625,0.014160294085741043,0.008519452065229416,0.00589677132666111
1782986387611045000,8.887045166015625,0.01720801554620266,0.04140070453286171,-0.005275189410895109
1782986387621119000,8.897118896484375,0.026154106482863426,0.0755608007311821,-0.019957728683948517
1782986387631194000,8.907194091796875,0.038236603140830994,0.10279322415590286,-0.04157700389623642
1782986387641268200,8.917268310546875,0.040458209812641144,0.11885342001914978,-0.05468028783798218
1782986387651342000,8.927342041015624,0.045108355581760406,0.13656742870807648,-0.06852766126394272
1782986387661417200,8.937417236328125,0.047809332609176636,0.14431403577327728,-0.08792585879564285
1782986387671491000,8.947490966796876,0.050391003489494324,0.1540825068950653,-0.10096310079097748
1782986387681565000,8.95756494140625,0.0382123664021492,0.14463627338409424,-0.10766920447349548
1782986387691640000,8.96764013671875,0.01768791675567627,0.15514297783374786,-0.09871245920658112
1782986387701714000,8.9777138671875,0.0010894992155954242,0.16914987564086914,-0.07858775556087494
1782986387711788300,8.987788330078125,0.008289088495075703,0.16134467720985413,-0.058349594473838806
1782986387721863000,8.99786279296875,0.02538285404443741,0.11218592524528503,-0.03916231542825699
1782986387731937300,9.007937255859375,0.032533176243305206,0.06832872331142426,-0.016704145818948746
1782986387742011100,9.01801123046875,0.019084744155406952,0.059833772480487823,-0.004436027258634567
1782986387752086300,9.028086181640624,0.003397660795599222,0.06417366117238998,-0.005646700505167246
1782986387762160000,9.03816015625,0.004701810888946056,0.05392608046531677,-0.01266945619136095
1782986387772235000,9.048235107421876,0.018850918859243393,0.03145406395196915,-0.017103353515267372
1782986387782309000,9.05830908203125,0.03074619546532631,0.013970943167805672,-0.020176108926534653
1782986387792384000,9.068384033203126,0.027587153017520905,0.011871040798723698,-0.02365819178521633
1782986387802458000,9.0784580078125,0.013254020363092422,0.02449176087975502,-0.02046692557632923
1782986387812532000,9.088531982421875,-0.0033633061684668064,0.04084090515971184,-0.011165834963321686
1782986387822607000,9.098607177734374,-0.015912387520074844,0.0509694404900074,0.006777478381991386
1782986387832681000,9.108680908203125,-0.024281105026602745,0.05218091234564781,0.03248683735728264
1782986387842755000,9.118755126953126,-0.024523984640836716,0.035115644335746765,0.06830022484064102
1782986387852830000,9.128829833984375,-0.03002474457025528,-0.016759272664785385,0.084198497235775
1782986387862904000,9.138904052734375,-0.04975264146924019,-0.07388380914926529,0.08550984412431717
1782986387872978000,9.14897802734375,-0.07453495264053345,-0.11487305909395218,0.06358989328145981
1782986387883053000,9.159052978515625,-0.09331449866294861,-0.12853240966796875,0.02166827768087387
1782986387893127000,9.169126953125,-0.12107954919338226,-0.13923299312591553,-0.033118803054094315
1782986387903201000,9.179200927734374,-0.1413014680147171,-0.12492915242910385,-0.09551187604665756
1782986387913276000,9.18927587890625,-0.15293069183826447,-0.1201905906200409,-0.15898911654949188
1782986387923350000,9.19935009765625,-0.16229116916656494,-0.1144661232829094,-0.21703164279460907
1782986387933423900,9.209423828125,-0.17313449084758759,-0.1264229118824005,-0.25766244530677795
1782986387943499000,9.2194990234375,-0.18464148044586182,-0.1499282419681549,-0.28545865416526794
1782986387953572900,9.22957275390625,-0.19504672288894653,-0.17309561371803284,-0.2955078184604645
1782986387963647200,9.239647216796875,-0.20267614722251892,-0.17121408879756927,-0.27918529510498047
1782986387973721900,9.249721923828124,-0.20217999815940857,-0.13056813180446625,-0.26222923398017883
1782986387983796200,9.259796142578125,-0.20275869965553284,-0.07068748772144318,-0.23952098190784454
1782986387993870000,9.2698701171875,-0.1659916341304779,-0.04626389965415001,-0.19869472086429596
1782986388003945200,9.2799453125,-0.13140276074409485,-0.04394135996699333,-0.14406636357307434
1782986388014019000,9.29001904296875,-0.1273220032453537,-0.008738896809518337,-0.101840078830719
1782986388024093000,9.300093017578124,-0.12821708619594574,0.030824758112430573,-0.06794016808271408
1782986388034168000,9.31016796875,-0.11940522491931915,0.049319081008434296,-0.04873291775584221
1782986388044242000,9.320241943359376,-0.10532642155885696,0.0482649989426136,-0.04309740290045738
1782986388054316000,9.33031591796875,-0.08441847562789917,0.04411765933036804,-0.03874393180012703
1782986388064391000,9.340390869140625,-0.06847253441810608,0.04283721372485161,-0.0419306717813015
1782986388074465000,9.350465087890624,-0.052447494119405746,0.06125802919268608,-0.04753156751394272
1782986388084539000,9.360538818359375,-0.03879666328430176,0.07976433634757996,-0.0625174418091774
1782986388094614000,9.370614013671876,-0.023498933762311935,0.07871665060520172,-0.08147435635328293
1782986388104687900,9.38068798828125,-0.0179358571767807,0.04687030240893364,-0.10736454278230667
1782986388114762000,9.390761962890625,-0.017002152279019356,-0.00589517317712307,-0.13172127306461334
1782986388124836900,9.4008369140625,-0.019136942923069,-0.035869050770998,-0.1410660445690155
1782986388134911000,9.410910888671875,-0.023058181628584862,-0.03242957964539528,-0.146017387509346
1782986388144985000,9.420985107421876,-0.024871794506907463,-0.04008030891418457,-0.13878583908081055
1782986388155059200,9.43105908203125,-0.022360166534781456,-0.06072273477911949,-0.13060061633586884
1782986388165134000,9.441134033203125,-0.02454821951687336,-0.07956673204898834,-0.11062664538621902
1782986388175208200,9.451208251953124,-0.021203288808465004,-0.0707162469625473,-0.07954835146665573
1782986388185282000,9.461281982421875,-0.019595272839069366,-0.05765024572610855,-0.04238021373748779
1782986388195357200,9.471357177734374,-0.017611218616366386,-0.046176549047231674,-0.005495432764291763
1782986388205431000,9.48143115234375,-0.013485714793205261,-0.050218161195516586,0.03394624963402748
1782986388215505200,9.491505126953125,-0.008114119060337543,-0.05542410910129547,0.061576277017593384
1782986388225580000,9.501580078125,-0.010598315857350826,-0.05802974849939346,0.0746084600687027
1782986388235654100,9.511654052734375,-0.004829376470297575,-0.06715080887079239,0.0769168883562088
1782986388245728000,9.52172802734375,0.0023699470330029726,-0.0632932186126709,0.07290855795145035
1782986388255803100,9.53180322265625,0.004996356554329395,-0.05650348961353302,0.06751512736082077
1782986388265877000,9.541876953125,0.0021550299134105444,-0.04061586782336235,0.07009253650903702
1782986388275950800,9.551950927734374,-0.0015640745405107737,-0.02821272984147072,0.06502826511859894
1782986388286026000,9.56202587890625,-0.000550475378986448,-0.024695759639143944,0.06036826968193054
1782986388296099800,9.572099853515626,0.000969923275988549,-0.0243117306381464,0.05501824617385864
1782986388306174000,9.582174072265625,0.002177933230996132,-0.026611370965838432,0.04520289972424507
1782986388316249000,9.5922490234375,-0.002252501668408513,-0.02508830837905407,0.04176022857427597
1782986388326323000,9.602322998046875,-0.0027515781112015247,-0.02064509131014347,0.03791169449687004
1782986388336397000,9.61239697265625,-0.0046964846551418304,-0.03418033942580223,0.031040474772453308
1782986388346472000,9.622471923828124,-0.010149572975933552,-0.04177753999829292,0.022974558174610138
1782986388356546000,9.632546142578125,-0.013507818803191185,-0.04157167673110962,0.025558888912200928
1782986388366620200,9.6426201171875,-0.019238941371440887,-0.029384253546595573,0.041196439415216446
1782986388376695000,9.652695068359375,-0.021761488169431686,-0.014943529851734638,0.05717487260699272
1782986388386769200,9.66276904296875,-0.024034496396780014,-0.0089365029707551,0.07660636305809021
1782986388396843000,9.672843017578124,-0.020297814160585403,-0.011412444524466991,0.08830057084560394
1782986388406918100,9.682918212890625,-0.017538247630000114,-0.026563167572021484,0.0857820138335228
1782986388416992000,9.692991943359376,-0.012433766387403011,-0.048530250787734985,0.07323373109102249
1782986388427066000,9.703066162109375,-0.006371346767991781,-0.06149744987487793,0.0502418652176857
1782986388437141000,9.71314111328125,-0.0035425368696451187,-0.060258813202381134,0.03465651348233223
1782986388447215000,9.723215087890624,-0.007947138510644436,-0.029137911275029182,0.03280801326036453
1782986388457289000,9.7332890625,-0.008447546511888504,0.011214571073651314,0.045106224715709686
1782986388467364000,9.743364013671876,-0.012034292332828045,0.04006033390760422,0.0787225067615509
1782986388477438000,9.75343798828125,-0.010370349511504173,0.04080735146999359,0.10973448306322098
1782986388487512000,9.763511962890625,-0.002965163439512253,0.017552362754940987,0.12482502311468124
1782986388497586000,9.7735859375,0.01332778949290514,-0.017902834340929985,0.13140995800495148
1782986388507661000,9.7836611328125,0.02112952060997486,-0.04885143041610718,0.12340875715017319
1782986388517735000,9.79373486328125,0.01709136925637722,-0.06999719142913818,0.1003178134560585
1782986388527809000,9.80380908203125,0.01865970343351364,-0.07201161235570908,0.07835206389427185
1782986388537884000,9.8138837890625,0.01744849793612957,-0.0447688028216362,0.05944867804646492
1782986388547958000,9.8239580078125,0.011451592668890953,-0.02280198596417904,0.047810666263103485
1782986388558032100,9.8340322265625,0.006552175153046846,-0.0059961071237921715,0.040860615670681
1782986388568107000,9.84410693359375,0.005368399899452925,0.017772072926163673,0.04557414352893829
1782986388578181000,9.85418115234375,0.008123972453176975,0.028923792764544487,0.0462239533662796
1782986388588255000,9.8642548828125,0.013964551500976086,0.026448119431734085,0.044858284294605255
1782986388598330000,9.874330078125,0.017366472631692886,0.020245617255568504,0.04074716195464134
1782986388608404000,9.884404052734375,0.020256536081433296,0.01979314535856247,0.041073400527238846
1782986388618478000,9.89447802734375,0.018810173496603966,0.00983398873358965,0.030909446999430656
1782986388628553000,9.904552978515625,0.016445552930235863,-0.002097239252179861,0.011504323221743107
1782986388638627000,9.914626953125,0.03117496334016323,0.002160090021789074,-0.0005129248020239174
1782986388648701000,9.924700927734374,0.03262105956673622,0.026498718187212944,-0.007441138383001089
1782986388658776000,9.934776123046875,0.03232225403189659,0.04430514574050903,-0.009818010032176971
1782986388668850000,9.944849853515626,0.03051476553082466,0.04675712063908577,-0.007753260899335146
1782986388678924000,9.954924072265625,0.02876453660428524,0.04195677116513252,-0.0007861651247367263
1782986388688999000,9.9649990234375,0.030120618641376495,0.03627678006887436,0.0006884271278977394
1782986388699073000,9.975072998046874,0.028293156996369362,0.019820576533675194,-0.006286924239248037
1782986388709147000,9.98514697265625,0.029574403539299965,0.010553840547800064,-0.015046327374875546
1782986388719222000,9.995221923828124,0.030218355357646942,0.01242444571107626,-0.027881165966391563
1782986388729296000,10.0052958984375,0.028837241232395172,0.018608838319778442,-0.03335209935903549
1782986388739370000,10.015369873046875,0.02177666872739792,0.022359900176525116,-0.03724031150341034
1782986388749444900,10.02544482421875,0.017009610310196877,0.025183649733662605,-0.03750503063201904
1782986388759519000,10.03551904296875,0.022489596158266068,0.02196362242102623,-0.03177976608276367
1782986388769593000,10.045593017578126,0.02401159331202507,0.016447415575385094,-0.03008466586470604
1782986388779667500,10.05566748046875,0.02798156626522541,0.023135945200920105,-0.02576182223856449
1782986388789741600,10.065741455078125,0.023859793320298195,0.03983582928776741,-0.02516341023147106
1782986388799815400,10.0758154296875,0.020685570314526558,0.05107756331562996,-0.027838289737701416
1782986388809890600,10.085890625,0.019933227449655533,0.05561719089746475,-0.02574530988931656
1782986388819964400,10.09596435546875,0.01876889355480671,0.05522090941667557,-0.016168316826224327
1782986388830038500,10.10603857421875,0.016386430710554123,0.030244987457990646,-0.016149409115314484
1782986388840113400,10.116113525390626,0.019110843539237976,0.022698121145367622,-0.006477074231952429
1782986388850187500,10.1261875,0.023600934073328972,0.023860326036810875,-0.0008021441171877086
1782986388860261400,10.136261474609375,0.022010494023561478,0.02528032287955284,0.0008809737046249211
1782986388870336500,10.14633642578125,0.01600373350083828,0.03280401974916458,0.0024402544368058443
1782986388880410400,10.156410400390625,0.013345099985599518,0.03299310430884361,0.00026791400159709156
1782986388890484200,10.166484130859375,0.01512861903756857,0.03509753197431564,-0.010142115876078606
1782986388900558600,10.17655859375,0.010552776046097279,0.030838074162602425,-0.024160996079444885
1782986388910633200,10.18663330078125,0.0034059167373925447,0.026806579902768135,-0.03551085665822029
1782986388920707600,10.19670751953125,0.0005597964627668262,0.031853802502155304,-0.03247245401144028
1782986388930781400,10.206781494140625,0.0006796387024223804,0.04351045936346054,-0.01750096306204796
1782986388940856600,10.216856689453126,0.0003936151915695518,0.04548972100019455,0.005330316722393036
1782986388950930400,10.226930419921874,-0.0057340520434081554,0.048778459429740906,0.027954403311014175
1782986388961004500,10.237004638671875,-0.004606203176081181,0.04958432912826538,0.04446360468864441
1782986388971079400,10.247079345703124,-0.0015789881581440568,0.05541691929101944,0.04730599746108055
1782986388981153500,10.257153564453125,0.0038048583082854748,0.06435475498437881,0.03503335267305374
1782986388991227400,10.267227294921875,0.013731258921325207,0.06267057359218597,0.015807192772626877
1782986389001302500,10.277302490234375,0.031614918261766434,0.06943899393081665,-0.0008383630774915218
1782986389011376400,10.28737646484375,0.043652936816215515,0.0870712548494339,-0.02075774222612381
1782986389021450500,10.297450439453126,0.04421220347285271,0.09055333584547043,-0.04042092710733414
1782986389031525400,10.307525390625,0.044201549142599106,0.09525328129529953,-0.06208281219005585
1782986389041599500,10.317599609375,0.04366705194115639,0.106406070291996,-0.07917391508817673
1782986389051673300,10.32767333984375,0.03628610074520111,0.10241558402776718,-0.09977559745311737
1782986389061748500,10.33774853515625,0.026758110150694847,0.08515883982181549,-0.1322597712278366
1782986389071822300,10.347822265625,0.02696024440228939,0.06873059272766113,-0.16571971774101257
1782986389081896400,10.357896484375,0.03153768554329872,0.08140750974416733,-0.21002860367298126
1782986389091971300,10.367971435546876,0.008796154521405697,0.12963442504405975,-0.1452258974313736
1782986389102045400,10.37804541015625,-0.0999167412519455,0.09798941016197205,-0.031735826283693314
1782986389112119600,10.38811962890625,-0.14410178363323212,-0.05934588238596916,0.016772855073213577
1782986389122194400,10.3981943359375,-0.08713330328464508,-0.15546895563602448,-0.04747377708554268
1782986389132268500,10.4082685546875,-0.07721489667892456,-0.0197428110986948,-0.19002239406108856
1782986389142342400,10.41834228515625,-0.12575872242450714,0.17746692895889282,-0.3599507212638855
1782986389152417500,10.42841748046875,-0.197479248046875,0.28265273571014404,-0.5803099870681763
1782986389162491400,10.438491455078125,-0.25774258375167847,0.3619536757469177,-0.742621123790741
1782986389172565500,10.4485654296875,-0.32570940256118774,0.44376200437545776,-0.7529574036598206
1782986389182640400,10.458640380859375,-0.3296293020248413,0.5757930278778076,-0.6199423670768738
1782986389192714500,10.468714599609376,-0.2709313631057739,0.6269395351409912,-0.4619330167770386
