time,seconds_elapsed,z,y,x
1782987227996510200,0.07351025390625,0.06670037735402584,-0.005392086568195373,0.012556005114503204
1782987228006585000,0.083585205078125,0.06939619230926036,0.010568557624332606,0.015830588072072712
1782987228016659200,0.0936591796875,0.05892272908985614,-0.01298593923067674,0.00861839167093858
1782987228026734000,0.103734130859375,0.0634077655494213,-0.0012983875137753784,0.009330284533649683
1782987228036808200,0.11380810546875,0.06236147136688232,0.006855564983189105,0.0027737116301897913
1782987228046883000,0.123883056640625,0.06220949567556381,0.0036438546613790095,0.019908724231179804
1782987228056957200,0.133957275390625,0.06490414158701896,-0.011089878084696829,0.029855898554157465
1782987228067031000,0.144031005859375,0.059817047581076616,-0.011194945894367992,0.019406766058411448
1782987228077106200,0.154106201171875,0.055476388028264045,0.009446494791842997,0.005226429411396384
1782987228087180000,0.164179931640625,0.06026420682668686,-0.002459229720383882,-0.005746160702873021
1782987228097255200,0.174255126953125,0.04889233346283436,-0.006541768059972673,0.007037871880689635
1782987228107329000,0.1843291015625,0.061460138612985604,0.005524535575136542,0.0014635240807663649
1782987228117404200,0.194404052734375,0.05802314990162849,-0.008450798285380005,0.008203289797715842
1782987228127478000,0.20447802734375,0.06626490854620933,0.0034225765935145314,-4.2925826273858543e-7
1782987228137552400,0.214552490234375,0.07988719118535519,-0.0032868213846348224,0.026413585213711482
1782987228147627000,0.224626953125,0.0504068296790123,0.0010705518409609793,-0.017248866505315527
1782987228157701400,0.234701416015625,0.050557636326551435,-0.004068053156509995,-0.0028327574742026624
1782987228167776000,0.24477587890625,0.06118015262782573,-0.008289397178590297,0.02828797338400036
1782987228177850400,0.254850341796875,0.06596504881680011,-0.012017404725775121,-0.0036165784953860565
1782987228187925000,0.264925048828125,0.06312251886725426,-0.016016374701447785,0.014546178851299918
1782987228197999400,0.274999267578125,0.061468906441330906,-0.01915118386214599,0.01968603052436374
1782987228208073200,0.2850732421875,0.05337444731295109,0.003562861847039312,0.0014132277987897396
1782987228218148400,0.2951484375,0.07148118188977241,-0.004241710956674069,-0.006669824019586667
1782987228228222200,0.30522216796875,0.08195990580618381,-0.0066006038414314384,0.03459215156212449
1782987228238297300,0.31529736328125,0.06519231087863445,0.010926997406873851,0.014754072281206025
1782987228248371200,0.32537109375,0.05306406618952751,-0.0075546348969452075,0.0036845519979484377
1782987228258446300,0.3354462890625,0.0683358696013689,-0.004713474920578301,0.01927416178784333
1782987228268520200,0.345520263671875,0.059518356895446774,0.0019919958011247216,0.022190606356970965
1782987228278594300,0.35559423828125,0.06341185720264911,-0.012727891082689166,0.00441359692486003
1782987228288669200,0.365669189453125,0.05008300455212593,-0.0034124022593721745,0.004312291974853724
1782987228298743300,0.375743408203125,0.05127659825086593,-0.0043285672562196845,0.0008526895728893577
1782987228308818200,0.385818115234375,0.06892974384129047,0.003101162619423121,0.019556750722043215
1782987228318892300,0.395892333984375,0.06384323435723781,-0.010993431972898543,0.02304117703801021
1782987228328967200,0.40596728515625,0.05845744966566562,-0.00593275104984641,0.014581227331794797
1782987228339041300,0.416041259765625,0.04738251342177391,-0.011175364411063492,0.02125807474721223
1782987228349115600,0.42611572265625,0.07521393867731094,-0.004231353959441185,0.006578602072177454
1782987228359190500,0.4361904296875,0.07102642385959625,0.0032812684266827997,0.006492704753857105
1782987228369264600,0.4462646484375,0.05411737463474273,0.005841784830763936,0.01036029430166818
1782987228379339500,0.456339599609375,0.048130701440572736,-0.011074132526293396,0.01694496992160566
1782987228389413600,0.46641357421875,0.06982406233251094,-0.014870492601953446,0.021734231758443637
1782987228399488500,0.476488525390625,0.07296645201146602,0.00844104407634586,0.008613742895284666
1782987228409562600,0.486562744140625,0.05545592976212501,0.01566253802878782,-0.010689690652815624
1782987228419636500,0.496636474609375,0.06128945822119713,-0.011444737670663743,-0.021018210709886624
1782987228429711600,0.506711669921875,0.06503215188086033,-0.0034650640283711252,-0.004864272434962913
1782987228439785500,0.516785400390625,0.06742927615046501,-0.008623871563654392,0.015657341263862326
1782987228449860600,0.526860595703125,0.06832768629491329,-0.0019069478661753235,0.019219965648883952
1782987228459934500,0.5369345703125,0.062194882628321645,0.010408508224412798,0.020998455696646122
1782987228470009600,0.547009521484375,0.056658291289210315,0.013457465732563286,0.002216397407837212
1782987228480083500,0.55708349609375,0.0644365240752697,-0.00656902139307931,-0.0012833360751159488
1782987228490157600,0.567157470703125,0.0569552284091711,-0.019033768027555197,0.01193935278719291
1782987228500232400,0.577232421875,0.05232113886773586,-0.0072266998505219815,0.000256358514400199
1782987228510306600,0.587306640625,0.06264379543960094,0.004530190775543451,0.021896838441630824
1782987228520381400,0.59738134765625,0.07491174086034298,-0.005548044314887374,0.03190517750047147
1782987228530455600,0.60745556640625,0.06204407598078251,-0.004332805039919912,-0.0010939235833939164
1782987228540530400,0.617530517578125,0.06488426784276961,-0.014464414285402745,-0.006935023427568376
1782987228550604500,0.6276044921875,0.07056640513241291,0.0006306808526627719,0.004048590404214337
1782987228560678400,0.637678466796875,0.053954293027520174,-0.0030143245861865577,0.0007813687691930681
1782987228570753500,0.64775341796875,0.06667758100032806,0.002063307471666485,0.008203298930870368
1782987228580827400,0.657827392578125,0.04977262342870235,-0.0017159370724111795,0.003675427976576611
1782987228590902500,0.667902587890625,0.05426642771661281,0.004723302194848657,-0.006710950614418834
1782987228600976400,0.677976318359375,0.06399404100477694,-0.000750306910648942,0.024810186871374023
1782987228611051500,0.688051513671875,0.07282733580172061,-0.0016549276001751423,-0.014029758328339085
1782987228621125400,0.69812548828125,0.06908990283906459,-0.0006691314332187175,0.012264054696913808
1782987228631199500,0.708199462890625,0.05786182186007499,0.0014042042421177029,0.017905074524879456
1782987228641274400,0.7182744140625,0.06758592801690101,0.010347078627068549,0.009693985013198106
1782987228651348500,0.728348388671875,0.05187222605645656,-0.021268029885645953,-0.0046302170839160675
1782987228661423400,0.73842333984375,0.06354454367160797,0.004048672602605074,0.004965787447523325
1782987228671497500,0.74849755859375,0.07595861956477165,0.007055471469461917,0.016825033336365595
1782987228681572400,0.758572265625,0.06907119813859462,-0.012952511885110289,0.00843638616753742
1782987228691646500,0.768646484375,0.06039397068619728,-0.013639580833818762,0.00891697275871411
1782987228701720600,0.778720458984375,0.07745441108047962,-0.0023612127060070633,0.013596435811836272
1782987228711795500,0.78879541015625,0.06533610326349736,-0.00974180621029809,-0.0074349814394954585
1782987228721869600,0.79886962890625,0.06354103654026985,-0.009994100470934063,0.004638656118698418
1782987228731944400,0.8089443359375,0.05426818128228187,-0.0071419259102083734,0.03189200749164447
1782987228742018600,0.8190185546875,0.05741057096123695,-0.01264994874196127,0.013403881514957174
1782987228752093400,0.829093505859375,0.06848258459568023,-0.02227232982367277,0.01851277636075392
1782987228762167600,0.83916748046875,0.05561258162856102,-0.016266988461650908,0.0015531111935153602
1782987228772241700,0.84924169921875,0.05456394935846329,-0.007910955787636339,-0.004064491226244717
1782987228782316500,0.859316650390625,0.0623404285788536,0.0055767954853363335,-0.005242421564972028
1782987228792390700,0.869390625,0.055903089007735246,0.007842055269889533,-0.003240096166078001
1782987228802465500,0.879465576171875,0.05545125358700752,-0.002577412739954889,0.0077236895872279995
1782987228812539600,0.88953955078125,0.05888999586403369,-0.008307864417042583,0.011716969607630743
1782987228822614500,0.899614501953125,0.06472586241066455,0.005497665834520012,0.026303128842869773
1782987228832688600,0.909688720703125,0.049015083059668535,-0.002101977247931063,0.00431317789084278
1782987228842762500,0.919762451171875,0.0657826779872179,0.000869129251036793,0.010379711388191208
1782987228852837600,0.929837646484375,0.07670563853979111,0.005771569138765335,0.019120962253818288
1782987228862911500,0.939911376953125,0.06353811393082141,0.004578651293460279,0.004784247735003009
1782987228872986600,0.949986572265625,0.052910921454429626,-0.0041583069895394145,-0.0017717954454943537
1782987228883060500,0.960060546875,0.05440495940446853,-0.00933567309482023,0.01718998505808413
1782987228893135600,0.970135498046875,0.053504211172461506,0.00017601415403187273,0.0008980082856491207
1782987228903209500,0.98020947265625,0.07505319515764713,0.005212145157717168,-0.004330302555579692
1782987228913283600,0.99028369140625,0.06382745226621628,-0.004336896693147719,0.009611969285551457
1782987228923358500,1.0003583984375,0.06756196261942386,-0.003755187815055251,0.012335941756190731
1782987228933432600,1.0104326171875,0.058280339533090586,-0.00880505508314818,0.00006370375282131135
1782987228943507500,1.020507568359375,0.052589434415102,-0.01611620008042082,0.005514324708376079
1782987228953581600,1.03058154296875,0.04540741395652294,0.005279675702285021,0.011375225231563672
1782987228963656400,1.040656494140625,0.054689037042856214,-0.00033706820094957945,0.0040300501005258406
1782987228973730600,1.05073046875,0.05888590421080589,-0.011455478260386735,0.010284050727682188
1782987228983804400,1.060804443359375,0.0527507624566555,-0.0021799195886589586,0.011979840061208233
1782987228993879600,1.070879638671875,0.05439969870746136,-0.0013889701403677463,0.0046706404258497055
1782987229003953400,1.080953369140625,0.04646539857685566,-0.007439977275021374,0.008097400004137306
1782987229014028500,1.091028564453125,0.05829086092710495,-0.0017203575192019343,0.017892479904787612
1782987229024102400,1.101102294921875,0.0591904401153326,0.012992405504081397,0.00969029521876946
1782987229034177500,1.111177490234375,0.05395137041807174,-0.01117076130118221,0.011939215789875016
1782987229044251400,1.12125146484375,0.06158113464415073,-0.013624565927777438,0.01774448626884259
1782987229054325500,1.131325439453125,0.06337853945493697,-0.005599628371652216,0.00538488050927408
1782987229064400400,1.141400390625,0.061439095824956894,-0.0052265207429416476,-0.0005699545082170516
1782987229074474500,1.151474609375,0.07042027465999126,0.006517419070005416,0.011486530985776334
1782987229084549400,1.16154931640625,0.049472179177403444,-0.0012143442258238791,0.009407477955706418
1782987229094623500,1.17162353515625,0.04692658634781837,-0.01356510909181088,0.017698875295137986
1782987229104698400,1.181698486328125,0.07400690097510815,0.003621569764334708,0.02699031652258709
1782987229114772500,1.1917724609375,0.06563070229589939,-0.004041128616966307,-0.0009090868020895868
1782987229124846300,1.201846435546875,0.06309037016332149,-0.013778386516310274,0.023590600214852018
1782987229134921500,1.21192138671875,0.06010054069757461,-0.010675762592162937,0.01636699650371447
1782987229144995300,1.221995361328125,0.05606149443984031,-0.003126443191152066,0.010491446400666609
1782987229155070500,1.232070556640625,0.06623685149550437,-0.007878094697650521,0.00783828327707015
1782987229165144300,1.242144287109375,0.06055471420586109,0.00047602001391351223,0.002387607522588223
1782987229175219500,1.252219482421875,0.06968260803520679,0.0001866999448277056,0.0125043297261931
1782987229185293300,1.262293212890625,0.06055939038097858,-0.010099698003567754,0.014965185148082673
1782987229195367700,1.27236767578125,0.05921265194714069,0.001854523559194058,-0.0033497214198578147
1782987229205442300,1.2824423828125,0.06161445239186287,-0.0015883103710599242,0.00022933351015672087
1782987229215516700,1.2925166015625,0.06161328334808349,-0.003124890554882586,0.012161489371582864
1782987229225591300,1.30259130859375,0.05413023411631584,0.0032811040299013253,0.008967022445518523
1782987229235665700,1.312665771484375,0.07298457219004631,-0.004547616834379732,0.017639756385888904
1782987229245740300,1.322740234375,0.05083996039927006,-0.00568789117699489,-0.0047981209967285395
1782987229255814700,1.332814697265625,0.06475801111459732,-0.009827822259627281,0.01936739302924834
1782987229265888500,1.342888427734375,0.06610708763599395,0.010301814713235944,-0.0005288279133848846
1782987229275963600,1.352963623046875,0.053985272687673565,-0.004247172583080828,0.0031813060503918674
1782987229286037500,1.36303759765625,0.058174541071057316,-0.010731858427263796,-0.0037461916578467934
1782987229296112600,1.373112548828125,0.04665361462533474,-0.003967223130539059,0.007218014220567419
1782987229306186500,1.3831865234375,0.06625672523975372,0.000702065588440746,0.004959211576264351
1782987229316261600,1.39326171875,0.06506546962857246,0.0008881992776878177,0.007743024475360289
1782987229326335500,1.40333544921875,0.06294657777845859,0.02119960429193452,0.003539069979498163
1782987229336409600,1.41340966796875,0.07746200986504555,-0.003916113997809589,-0.02235431815185584
1782987229346484200,1.423484130859375,0.058463879406452174,0.007978029674477874,0.0184851120356936
1782987229356558000,1.43355810546875,0.07058218722343444,-0.015868600261211393,0.020330557239288463
1782987229366633200,1.44363330078125,0.041539048090577124,-0.019419497675821185,-0.002578663982124999
1782987229376707000,1.45370703125,0.06098842944800854,0.0002583038763143122,-0.0071321443017106495
1782987229386782200,1.4637822265625,0.06144844817519188,-0.011292268789000809,0.02582330030351877
1782987229396856000,1.47385595703125,0.06610767215788364,0.013558588019479066,0.03155599873661995
1782987229406930000,1.483929931640625,0.07660276268720627,-0.010255564418714494,0.037084004910476503
1782987229417005000,1.494005126953125,0.06223346107304096,-0.00012002791678532957,0.012584756284952163
1782987229427079200,1.5040791015625,0.04785188449919223,0.006877648950833827,-0.02295660402709618
1782987229437154000,1.514154052734375,0.04919862293303012,-0.0037227833827957507,-0.0022264986767433583
1782987229447228200,1.524228271484375,0.08183072646856307,0.0019595183036290108,0.043285480765951796
1782987229457303000,1.534302978515625,0.0933586671769619,-0.0021005890084430574,0.029670066259009763
1782987229467377200,1.544377197265625,0.05475041184127331,-0.008589037712290883,-0.00021580730830319224
1782987229477451000,1.554450927734375,0.05384323386847972,-0.019759360622055827,-0.0055238414553925395
1782987229487526100,1.564526123046875,0.06118190619349479,-0.0031800730745308097,-0.006018785365484654
1782987229497600000,1.57460009765625,0.0822831464111805,0.0035568887639790773,0.00509769759834744
1782987229507675100,1.584675048828125,0.062528060105443,0.007169234042242169,-0.010711719821533188
1782987229517749000,1.5947490234375,0.05473930592536926,0.016542517467401922,0.0028407763838768003
1782987229527824100,1.60482421875,0.05294365468025207,0.0023895620176568625,0.011533986856695265
1782987229537898000,1.61489794921875,0.06477087059617043,0.0010809819034300744,0.01909074977864511
1782987229547972000,1.62497216796875,0.06193243229985237,0.006415967989526689,0.018177900116890668
1782987229558047000,1.635046875,0.053704702180624,-0.006547795941960066,-0.0032889950754120944
1782987229568121000,1.64512109375,0.059091071394085884,0.006999740960542112,0.010630690474575384
1782987229578196000,1.655196044921875,0.05984101297855377,0.005690886851679533,0.004135391904832795
1782987229588270000,1.66527001953125,0.06269231075644492,-0.009535013325512409,0.010332374248281121
1782987229598345000,1.675344970703125,0.06344166781902313,-0.0007091529163531959,0.01599046394205652
1782987229608419000,1.685419189453125,0.05939677634239197,-0.004664082820899784,0.00023881372455507516
1782987229618493200,1.6954931640625,0.06762801359295845,-0.0004066080395132303,-0.0028533070718869567
1782987229628568000,1.705568115234375,0.062092006775736806,0.007645272322464734,0.004544283232977613
1782987229638642200,1.71564208984375,0.06717968530356884,-0.007812317718751728,0.013963122832914813
1782987229648717000,1.725717041015625,0.05924363160729408,-0.010498652459587901,0.012121677951002493
1782987229658791200,1.735791259765625,0.060738254079222675,-0.013030381160601973,0.0003242087193764746
1782987229668866000,1.745865966796875,0.07301262924075126,-0.0009116349522024392,0.0043921066122595215
1782987229678940200,1.755940185546875,0.05805120695233345,-0.01362065693764016,0.005255445443326607
1782987229689014300,1.76601416015625,0.05700257468223571,0.0017579678495414554,0.008637479963898659
1782987229699089200,1.776089111328125,0.05834697502851486,-0.009621997489221393,0.013657472683535888
1782987229709163300,1.786163330078125,0.058195583859086034,-0.002625818458944559,0.0032375388828106222
1782987229719238100,1.796238037109375,0.06283434957563877,0.0023086240022443232,-0.005715820363536477
1782987229729312300,1.806312255859375,0.061785717305541034,0.006420114441681653,0.0031761732175480573
1782987229739387100,1.81638720703125,0.07151449963748455,0.008918982052709907,0.0190054552485235
1782987229749461200,1.826461181640625,0.0719610743612051,0.0001844349225051701,-0.009689975558361038
1782987229759535000,1.83653515625,0.06747486885786057,-0.001613408279698342,0.018172447623638434
1782987229769610200,1.8466103515625,0.06074117668867111,-0.004645414653047919,0.015280689971195534
1782987229779684000,1.85668408203125,0.05340250436365604,-0.002474957012478262,0.007161416061967611
1782987229789759200,1.86675927734375,0.054144262641668314,0.0034320202752947805,-0.002124189079739153
1782987229799833000,1.8768330078125,0.06147533618211746,-0.002784936277102679,-0.0027834293066058306
1782987229809908200,1.886908203125,0.08137947556972504,-0.014310520631633699,0.018012480422109366
1782987229819982000,1.896982177734375,0.05355155744552612,0.0008121748994104564,0.01026901755533181
1782987229830056200,1.90705615234375,0.04756780686080456,-0.017681878494564443,0.003398072339920327
1782987229840131000,1.917131103515625,0.05788987891077995,-0.012810637462697923,0.010883085199911147
1782987229850205200,1.927205078125,0.06911094562709331,-0.0005803754375316203,0.019326896622078493
1782987229860280000,1.937280029296875,0.05594108293056488,-0.0007449731484055519,0.008559537623170762
1782987229870354200,1.947354248046875,0.06072714816331863,0.0029425197253003716,0.007550643708417191
1782987229880429000,1.957428955078125,0.04157236583828926,0.005192874201666564,0.0021593882572837173
1782987229890503200,1.967503173828125,0.0683621730864048,0.0001343304367735982,0.0003676094696857035
1782987229900577000,1.977576904296875,0.06851356425583362,0.006764817959815263,0.016729774534655732
1782987229910652200,1.987652099609375,0.05399988573491573,0.010830971420183777,0.015565589593490584
1782987229920726000,1.99772607421875,0.048159927535057066,-0.01580620254948735,0.01778889166614972
1782987229930801200,2.00780126953125,0.06042319678068161,-0.02107216025367379,0.02682306106374599
1782987229940875000,2.017875,0.0580272415548563,-0.008407580198161303,0.008687730580102651
1782987229950950100,2.0279501953125,0.05997545301318168,-0.003988028456550091,0.01325837209704332
1782987229961024000,2.03802392578125,0.0619178192526102,-0.017562416833359747,0.018921886884607372
1782987229971098000,2.04809814453125,0.052183776223659516,0.003548833321686834,0.01337206160458736
1782987229981173000,2.058173095703125,0.06265490135550499,-0.008842026092670858,0.0075197371135000135
1782987229991247000,2.0682470703125,0.051878071275353425,-0.009685052788071333,0.018582243134081362
1782987230001322000,2.078322021484375,0.06908873379528523,0.001911697106529027,0.012277014643186703
1782987230011396000,2.08839599609375,0.0614560469597578,0.01233987814579159,0.0004911719172727316
1782987230021470000,2.098469970703125,0.0613122545748949,0.0045941411235369736,0.011374047054629773
1782987230031545000,2.108545166015625,0.07762626051604747,-0.003954491513129324,0.007632851232308894
1782987230041619000,2.118618896484375,0.07373626734018325,-0.004826945232413709,0.03228760094679892
1782987230051694000,2.128694091796875,0.06176584356129169,-0.0034571729828603566,0.014924935336085035
1782987230061768000,2.138767822265625,0.053685997480154034,-0.009555307194869965,0.0014400701399426906
1782987230071843000,2.148843017578125,0.06834639099538325,-0.009960563527513296,0.015671086661424485
1782987230081917000,2.1589169921875,0.07642623707652091,0.0025787461805157363,0.00025907106129452587
1782987230091991300,2.1689912109375,0.07971767983734607,0.007005659244675189,0.01922981118946336
1782987230102066000,2.17906591796875,0.06400690048635005,-0.016924027598276735,0.021704539873078466
1782987230112140300,2.189140380859375,0.06610182693898678,-0.005057648715749383,-0.0024645634826272723
1782987230122215000,2.19921484375,0.05921557455658912,-0.008323335980810224,0.01892737591047771
1782987230132289300,2.209289306640625,0.05696925693452358,0.010326620360929519,0.01711922137681395
1782987230142364000,2.219364013671875,0.054428340280056,-0.008906834957189858,0.019599493885226547
1782987230152438300,2.229438232421875,0.0512824434697628,-0.0028230215314775705,0.011321796277584508
1782987230162512100,2.23951220703125,0.05293021067678928,0.002589578101783991,0.0030227088220417496
1782987230172587300,2.249587158203125,0.06295417656302452,-0.007476783887762576,0.0000869932968635112
1782987230182661000,2.2596611328125,0.06669920831024646,0.0015034085665829478,0.006847628271905705
1782987230192736300,2.269736328125,0.07238309916555881,-0.0015616780924610793,0.006358721376955509
1782987230202810000,2.27981005859375,0.06310030703544617,-0.0031972799376584586,0.010966662696981802
1782987230212885200,2.28988525390625,0.07177987257540226,0.012265388137474655,0.011077685323404148
1782987230222959000,2.299958984375,0.04978022221326828,0.003687328476924449,0.014630765561945735
1782987230233033200,2.310033203125,0.05845628062188625,-0.005116301834117621,0.005693033142993226
1782987230243108000,2.320108154296875,0.060848144194483755,0.004059431458637118,0.01620394229595549
1782987230253182200,2.33018212890625,0.07087269460260867,0.009706004244554787,0.010652683110674842
1782987230263257000,2.340257080078125,0.06923077261447906,-0.014408848173264413,0.011441102675162256
1782987230273331200,2.350331298828125,0.07910860802829266,-0.015984700921550393,0.01236779819917865
1782987230283406000,2.360406005859375,0.0707277331739664,-0.012414569083508104,-0.0037590694057289507
1782987230293480200,2.370480224609375,0.07102467029392719,-0.004381850079726427,0.015415641462476924
1782987230303554000,2.380553955078125,0.06249649592339992,-0.0030674612792208787,-0.003342022170592099
1782987230313629200,2.390629150390625,0.06115034201145172,-0.011428151862043887,0.009112988521158695
1782987230323703000,2.400703125,0.059953241181373594,-0.003694141810201108,0.001435211301734671
1782987230333778200,2.410778076171875,0.05186988796889782,-0.007958375125937164,-0.01298941896255128
1782987230343852000,2.42085205078125,0.06519114183485508,-0.023085637234244494,0.012145195823907851
1782987230353927200,2.43092724609375,0.05816285063326358,-0.0069399553310126065,0.005046780261863022
1782987230364001000,2.4410009765625,0.049337154620885844,-0.004587638317514211,-0.000635859351279214
1782987230374075100,2.4510751953125,0.06923837139904498,-0.006502897354308515,0.014172326870495452
1782987230384150000,2.46114990234375,0.055021045476198197,-0.006606302929855883,0.004097872906038537
1782987230394224000,2.47122412109375,0.06025719256401062,-0.01214640140030533,0.010009087977511807
1782987230404299000,2.481299072265625,0.049182256320118904,-0.005053684926684946,-0.00643281865962781
1782987230414373000,2.491373046875,0.056665305551886556,0.015620397653803228,0.015471801229659467
1782987230424448000,2.501447998046875,0.05995908640027046,-0.004642747771926224,0.0029001327551435676
1782987230434522000,2.511522216796875,0.060252516388893125,-0.00019037147294729946,0.011721125192940234
1782987230444596000,2.521595947265625,0.05905424651503562,-0.0011104454599320888,0.00688840780686587
1782987230454671000,2.531671142578125,0.061602177432179446,-0.020228804764710364,-0.002959598724264651
1782987230464745000,2.541744873046875,0.052477790734171866,-0.010665515192784369,-0.01236897637611255
1782987230474820000,2.551820068359375,0.057120648103952405,-0.00425380325326696,0.00446686148205772
1782987230484894000,2.56189404296875,0.06923544878959656,0.00015385712115094065,-0.0017587441676761954
1782987230494968000,2.571968017578125,0.06294833134412765,0.005438574324734509,0.0038053562328685072
1782987230505043000,2.58204296875,0.05591127231419086,-0.004124715247191489,-0.005996537001058459
1782987230515117000,2.592116943359375,0.07162146714329719,0.0012164448513649403,-0.00995391459101811
1782987230525192000,2.60219189453125,0.08135024947524071,-0.003219857095647603,0.0012293865313287825
1782987230535266000,2.61226611328125,0.05755787047743797,0.006337788186781108,0.008051122310152276
1782987230545341000,2.6223408203125,0.07027823584079743,-0.010703490849304944,0.0043517198029439895
1782987230555415000,2.6324150390625,0.06773498109877109,-0.000932823870703578,0.01716736223432235
1782987230565489200,2.6424892578125,0.06578969224989414,-0.0015295111222192643,-0.011095120515394956
1782987230575564000,2.65256396484375,0.07566518957614898,-0.005756590765342116,-0.000288242356851697
1782987230585638100,2.66263818359375,0.05352116230726242,-0.0009124934687279164,-0.005592477111658081
1782987230595713000,2.672713134765625,0.07446984231173992,0.0019012305114418267,0.0035516372001264244
1782987230605787100,2.682787109375,0.06878419789075851,-0.01635194506505504,0.012596044863946734
1782987230615862000,2.692862060546875,0.05531447546482086,-0.008465301734767854,0.0015507365733385084
1782987230625936100,2.70293603515625,0.06384323435723781,0.00649016573689878,0.00673968351855874
1782987230636010200,2.71301025390625,0.05665595320165157,0.01549936509002,0.0116348168826662
1782987230646085000,2.723085205078125,0.062490650704503055,0.005579042241349816,-0.005867494660755619
1782987230656159200,2.7331591796875,0.0647328766733408,0.0024718334736302493,0.00781496633356437
1782987230666234000,2.743234130859375,0.06233750596940517,-0.010630316015239805,0.014735815105307847
1782987230676308200,2.75330810546875,0.06563187133967877,-0.006667568130418658,0.02220772188855335
1782987230686383000,2.763383056640625,0.05875087965428829,-0.00041236192686483264,0.0034483868882060047
1782987230696457200,2.773457275390625,0.06323942324519156,-0.007754084725491702,0.003382518577761948
1782987230706531000,2.783531005859375,0.05500818599462509,-0.0019801044339314102,0.008955505537660792
1782987230716606200,2.793606201171875,0.05335282000303268,0.0004040507562458515,0.021249818375520407
1782987230726680000,2.80368017578125,0.041081951972842215,-0.0017505699943751096,0.007804033947596326
1782987230736755200,2.813755126953125,0.06143325060606002,0.0036772272080183026,-0.004538986003352329
1782987230746829000,2.8238291015625,0.07010989353656769,-0.007894972767215222,0.02751292475773953
1782987230756904200,2.833904296875,0.06038286477029323,-0.005062343157175928,0.005196344800386578
1782987230766978000,2.84397802734375,0.05110767142474651,-0.0018757672766223548,-0.0011654270501807332
1782987230777052200,2.85405224609375,0.05155424614846706,-0.0007297755792737006,0.023600948078930376
1782987230787127000,2.864126953125,0.0692114833921194,-0.00210303669385612,-0.0020775917253457008
1782987230797201200,2.874201171875,0.05724047509133815,-0.0019304383396171031,0.01210037030149251
1782987230807276000,2.884276123046875,0.05888415064513683,-0.00004751066984608769,0.016491965457098558
1782987230817350100,2.89435009765625,0.06501753883361816,0.0033585714465938507,0.0087796923130285
1782987230827425300,2.90442529296875,0.06711421885192394,0.012522449904773384,0.006440883235074579
1782987230837499100,2.9144990234375,0.06741524762511253,0.0001771831978112459,0.012577605024958029
1782987230847573000,2.924572998046875,0.07624445076882838,-0.004454750919155776,0.009764812626549973
1782987230857648000,2.934648193359375,0.06472001719176769,-0.012891374548710881,0.022227148108230902
1782987230867722000,2.944721923828125,0.05783318028748035,-0.005093377616256475,0.024485658491589127
1782987230877797000,2.954797119140625,0.06591594897806644,-0.010642700572777539,0.00491063232733868
1782987230887871000,2.96487109375,0.05873334399759769,0.008992631810810416,0.004176034442475066
1782987230897946000,2.974946044921875,0.06591828706562519,-0.003906999109592289,0.020877751926425842
1782987230908020000,2.98502001953125,0.07190671382546425,0.0002272511509247124,0.00835520155695267
1782987230918094000,2.995093994140625,0.05200315895974636,0.006628606093209237,0.0007669292518869042
1782987230928169000,3.0051689453125,0.055142626029253,-0.000799534613545984,-0.0020014394829049706
1782987230938243000,3.0152431640625,0.0644236645936966,-0.019415040696412325,0.005758426529401913
1782987230948318200,3.025318115234375,0.06023147360086441,-0.008092303703911601,0.021934348307270556
1782987230958392000,3.03539208984375,0.04541851987242698,0.008882394635677337,0.005147792950924486
1782987230968466000,3.0454658203125,0.0725011725872755,0.0009910203313454986,0.008717669060640037
1782987230978541000,3.055541015625,0.07175298456847667,0.0047800921496935185,0.009608352556359022
1782987230988615000,3.065614990234375,0.06082710140645504,0.0016930128545500336,0.002462271060841158
1782987230998690000,3.07568994140625,0.047961190092563624,-0.005696385010704397,0.004000805739732459
1782987231008764000,3.085763916015625,0.05499298842549324,0.0056520892112515864,0.005596303903404623
1782987231018839000,3.095839111328125,0.07190379121601581,-0.001939443629980087,-0.0018444131571333853
1782987231028913000,3.105912841796875,0.06427461151182651,0.003710179629549384,0.005903287493344396
1782987231038987300,3.1159873046875,0.05858955161273479,-0.004362506058439612,0.004788567717093974
1782987231049062000,3.126061767578125,0.05469605130553245,-0.013951112734712659,0.011063364537106827
1782987231059136300,3.13613623046875,0.07489420520365238,-0.011790884227212518,0.006241926596872508
1782987231069211000,3.1462109375,0.05125146380960941,0.0015122677264735101,0.00027161088245920834
1782987231079285200,3.15628515625,0.052447395595908164,0.0065641808211803435,0.009119555259263142
1782987231089360100,3.166360107421875,0.05513736533224582,0.0044756841093301775,0.006424982413044199
1782987231099434200,3.176434326171875,0.05034603940248489,-0.003385678649228066,0.01664309176504612
1782987231109508000,3.186508056640625,0.07084405303001404,-0.004432831348292529,0.015370952937379478
1782987231119583200,3.196583251953125,0.06112111591696739,-0.001888188366778195,0.018135942404996604
1782987231129657000,3.206656982421875,0.06351531757712364,0.0031984124488197265,0.003197179472958669
1782987231139732200,3.216732177734375,0.04346387867331505,0.0018319098685868084,0.007274265319295227
1782987231149806000,3.22680615234375,0.06860474967062473,-0.01442037421427667,0.014593803685577585
1782987231159881200,3.236881103515625,0.0696516283750534,-0.008128270066436379,0.013057314833300188
1782987231169955000,3.246955078125,0.06860474967062473,-0.003330423064343631,0.015623329396406187
1782987231180029200,3.257029296875,0.047805707269906995,-0.01840692309979349,0.014988849151460454
1782987231190104000,3.26710400390625,0.051100072640180585,0.009513934004865587,0.0219751552416943
1782987231200178200,3.27717822265625,0.06681377460062503,0.004684468021802604,-0.013418257100181654
1782987231210253300,3.28725341796875,0.0722007283359766,0.004073788777552545,-0.024899737451504915
1782987231220327200,3.2973271484375,0.06307575711607932,-0.0027112682526931166,0.02015819634706713
1782987231230402300,3.30740234375,0.056942368927598,0.0021725582661107183,0.006159271548409014
1782987231240476200,3.31747607421875,0.06592413228452206,0.010513009778503328,-0.0008222487688530236
1782987231250550000,3.327550048828125,0.06577332563698292,0.0012360080683603881,-0.003983507545059547
1782987231260625200,3.337625244140625,0.06712240215837956,0.0070768613173626356,0.013668322871113196
1782987231270699000,3.347698974609375,0.05575052879452705,0.006363982073962688,-0.004202073066029697
1782987231280774100,3.357774169921875,0.06861702463030815,0.0037489042047411203,0.008934481015941128
1782987231290848000,3.367847900390625,0.054255906322598454,0.006077164489217102,0.012992186308372766
1782987231300923100,3.377923095703125,0.06877426101863383,0.0017461678138934074,0.003543600024143234
1782987231310997000,3.3879970703125,0.062489481660723684,-0.0004792348843067884,0.014541470710141583
1782987231321071000,3.398071044921875,0.06397942795753479,-0.003985069314483553,0.004569280676916241
1782987231331146200,3.408146240234375,0.06966624142229556,-0.008631251152511685,-0.004769735152460634
1782987231341220000,3.41822021484375,0.07565057652890682,-0.010028331534098833,-0.005074398921150714
1782987231351295500,3.42829541015625,0.05963584579527378,0.0021621099373325702,0.021603892510198057
1782987231361369600,3.43836962890625,0.05664776989519596,0.0023200952443294225,-0.0014451207743957637
1782987231371444500,3.448444580078125,0.04662205044329166,-0.007370583566930144,0.01045783639200963
1782987231381518600,3.4585185546875,0.06592763941586018,-0.004949256437830627,0.021087147760251536
1782987231391592400,3.468592529296875,0.060840545409917825,-0.008372965542506427,-0.004470213349768892
1782987231401667600,3.47866748046875,0.05485387221574783,0.004906202747393399,-0.00897932480466552
1782987231411741400,3.488741455078125,0.054551674398779865,-0.00522586315581575,-0.00885429191919975
1782987231421816600,3.498816650390625,0.05948445462584495,-0.01080797413708642,0.0034133338411338624
1782987231431890400,3.508890380859375,0.07055471469461917,0.005859101291745901,-0.006334007060807198
1782987231441964300,3.51896435546875,0.05124912572205066,-0.015192016173899172,0.0002982248947490007
1782987231452039400,3.529039306640625,0.068309566116333,-0.007479980491846799,0.005908630388742312
1782987231462113500,3.539113525390625,0.0528945548415184,-0.011784874611534178,0.0017870112809352575
1782987231472188400,3.5491884765625,0.06665946082174777,0.003862904239539057,-0.002372720480710268
1782987231482262500,3.559262451171875,0.07190086860656737,-0.0058714310503564775,0.008703019480779766
1782987231492337400,3.56933740234375,0.057086161312460894,-0.015889752647094427,0.012555247062677516
1782987231502411500,3.57941162109375,0.08236848660707473,-0.009081186877097934,-0.006231615265412256
1782987231512485600,3.589485595703125,0.05243921228945255,-0.006291793620586395,-0.0011941964869387448
1782987231522560500,3.599560546875,0.057523968207836146,0.0029013839973136783,-0.018604774626297876
1782987231532634600,3.609634521484375,0.06799743142724037,0.008405589170474558,-0.00145299355359748
1782987231542709500,3.61970947265625,0.05857026239037513,-0.00322935557635501,0.00009890293036587536
1782987231552783600,3.62978369140625,0.06231295605003834,-0.0028445027109235523,-0.007291079456778243
1782987231562858500,3.6398583984375,0.06470715771019458,-0.0020758016270585357,-0.01398675030367449
1782987231572932600,3.6499326171875,0.05932078849673271,0.000059255906566977495,-0.0032627555224578825
1782987231583006500,3.66000634765625,0.06590308949649333,-0.0025496114175766705,-0.0014767762879841029
1782987231593081600,3.67008154296875,0.05408054975569248,-0.007319492700509727,-0.0037089831863064316
1782987231603155700,3.68015576171875,0.06904489465355873,-0.014941548544168471,-0.00791308381264098
1782987231613230600,3.690230712890625,0.06141513042747974,0.008181370226852596,0.010159054374834522
1782987231623304700,3.7003046875,0.07847381725609302,0.00829893219191581,0.012383297162409872
1782987231633379600,3.710379638671875,0.05602817669212818,0.006164477446489036,-0.00009969751480966806
1782987231643453700,3.72045361328125,0.05543137984275818,0.007553191858530044,-0.005240567534603178
1782987231653527600,3.730527587890625,0.05288637153506279,-0.001757565990742296,-0.00842652236064896
1782987231663602700,3.740602783203125,0.060818333578109736,0.0016053528374060987,0.00017634294759482144
1782987231673676500,3.750676513671875,0.06306757380962372,-0.0003146737060509622,-0.0071670877509284765
1782987231683751700,3.760751708984375,0.06202127962708473,0.006598813743144274,-0.010991166950576007
1782987231693825500,3.770825439453125,0.06785363904237747,0.01218143618106842,-0.00851216395064257
1782987231703900700,3.780900634765625,0.05124094241559505,-0.0005265080921351909,-0.00948061625715345
1782987231713974500,3.790974609375,0.061712652069330215,0.011004062964767218,0.015279402196407317
1782987231724048600,3.801048583984375,0.07533259662091732,0.003402319256775081,0.012818592440290376
1782987231734123500,3.81112353515625,0.06501052457094192,0.0018318185370415447,0.011433668287377803
1782987231744197600,3.82119775390625,0.0648585488796234,0.0015302417745813727,-0.007191884265467524
1782987231754272500,3.8312724609375,0.05962357083559036,0.004288892832957208,-0.007583614396257325
1782987231764346600,3.8413466796875,0.062166241055727,-0.000576850039884448,-0.0027239998701028526
1782987231774420500,3.85142041015625,0.06126899995505809,0.004376224056538194,-0.0022461532252840695
1782987231784495600,3.86149560546875,0.06725508862733841,0.0012560279430821537,-0.0016509546779561787
1782987231794569500,3.871569580078125,0.0681482380747795,0.01202171557471156,0.010138066385732962
1782987231804644600,3.88164453125,0.07113923658430577,0.0027994762591086325,0.00259939624289982
1782987231814718500,3.891718505859375,0.06815174520611762,-0.012141633893642574,0.006830320944078266
1782987231824793600,3.901793701171875,0.0792243433624506,-0.019939977885968983,0.010914119658991694
1782987231834867500,3.911867431640625,0.06171732824444771,-0.002430569881480187,0.008561227256758138
1782987231844941600,3.921941650390625,0.0677040014386177,-0.006913195188250392,-0.00046044798544608054
1782987231855016400,3.932016357421875,0.06246610078513622,-0.015812522692419586,-0.0006057108081877231
1782987231865090600,3.942090576171875,0.06291501359641552,0.001212992518953979,0.0003877937411889434
1782987231875165400,3.95216552734375,0.05438216305077076,0.005109251038823277,0.0013230835636146366
1782987231885239600,3.962239501953125,0.04301028968691826,-0.005054214649647474,0.0032997630645986644
1782987231895314400,3.972314453125,0.07024608713686466,0.007464581993315369,0.0015531842587515712
1782987231905388500,3.982388427734375,0.06650631608664989,-0.008786514779459685,0.00617358320155181
1782987231915462400,3.99246240234375,0.054985389640927314,0.000206043966114521,-0.016363270176667718
1782987231925537500,4.00253759765625,0.05992810674011707,-0.004279102091304957,0.00393566808165051
1782987231935611400,4.012611328125,0.0714507867515087,-0.011465049806330353,0.004714881426375359
1782987231945686500,4.0226865234375,0.06396715299785137,-0.01092948162490502,0.005645979130873456
1782987231955760400,4.032760498046875,0.07458966929912567,-0.015049794691614805,0.004146890546381473
1782987231965835500,4.04283544921875,0.07069792255759239,-0.00637945363773033,0.010535194210847839
1782987231975909400,4.052909423828125,0.0551338582009077,0.006533968346007168,0.004481264466745779
1782987231985983500,4.0629833984375,0.06021744507551193,-0.005116137437336146,-0.007233047392917797
1782987231996058400,4.073058349609375,0.06126783091127872,-0.012098507137969136,-0.006940256725111976
1782987232006132500,4.083132568359375,0.07158931843936443,-0.01776873479411006,-0.007542414736188947
1782987232016207400,4.093207275390625,0.048994040271639824,0.0000560958351008594,0.003026179420761764
1782987232026281500,4.103281494140625,0.06994038218855858,-0.004947740334179252,0.014255465976148842
1782987232036356400,4.1133564453125,0.06560498333275318,-0.0047772974044084544,-0.0005636069658212364
1782987232046430500,4.123430419921875,0.07981880212426185,-0.011579543031472713,-0.005082381298206746
1782987232056504600,4.133504638671875,0.07592296372950076,-0.002910023961495608,0.01892810656283982
1782987232066579500,4.143579345703125,0.047939562782645224,-0.008346132334508002,-0.0018925905472598969
1782987232076653600,4.153653564453125,0.062303603699803346,-0.009142159816715865,0.01922202974180691
1782987232086728400,4.163728515625,0.056769350448250766,-0.00421984618473798,-0.004277905648062005
1782987232096802600,4.173802490234375,0.034918753167986864,-0.0046008265926502645,-0.0020314418955240396
1782987232106876700,4.183876708984375,0.06499357343614101,-0.007339859635103494,0.005185732074826956
1782987232116951600,4.19395166015625,0.0522714545071125,-0.008499222270678728,0.0034290063343010843
1782987232127025700,4.204025634765625,0.06528700342476368,0.00020018048090860246,0.0073267626915127036
1782987232137100500,4.2141005859375,0.05151917483508586,-0.012104498487338423,0.0028368399942759422
1782987232147174700,4.224174560546875,0.053912207451462746,0.005130823549814522,0.010279502416728065
1782987232157249500,4.23424951171875,0.07037175934314728,-0.011623820564616472,0.009851577594550326
1782987232167323600,4.24432373046875,0.04957213242053985,-0.0006783193866722286,0.007588728962792083
1782987232177397500,4.2543974609375,0.04403495655953884,-0.009189213828835635,-0.00405684677590616
1782987232187472600,4.26447265625,0.06962474036812782,-0.00102910558572039,-0.007438041046261787
1782987232197546500,4.27454638671875,0.06499123534858227,-0.005719290962256491,0.015936715327668934
1782987232207621600,4.28462158203125,0.06798515646755694,0.0007423975988291204,0.002034656765917316
1782987232217695500,4.294695556640625,0.07620996397733688,-0.011278221997339279,0.007746449408307671
1782987232227770600,4.3047705078125,0.04508066622018814,-0.006016447277925908,0.023181663220934567
1782987232237844500,4.314844482421875,0.055256607797741886,0.001295994627289474,0.01893622593721375
1782987232247918600,4.324918701171875,0.0603448708474636,-0.005267619938310235,0.009661818042956292
1782987232257993500,4.334993408203125,0.05900163954496383,-0.014871771243587135,0.011217395188193768
1782987232268067600,4.345067626953125,0.04957973120510578,-0.013368435742240399,0.009984985582716762
1782987232278142500,4.355142578125,0.054520694738626474,0.004081296230573207,0.011194872829131782
1782987232288216600,4.365216552734375,0.06215396609604358,-0.002749791898485273,0.01872758815521374
1782987232298291500,4.37529150390625,0.06829319950342178,0.0005200966176576912,0.007145442174701019
1782987232308365600,4.385365478515625,0.055873278391361234,0.013410484785679726,0.01007050844170153
1782987232318439400,4.395439453125,0.052878188228607174,-0.015531367663480341,0.0032543164876755325
1782987232328514600,4.4055146484375,0.06664367873072624,0.003300813377369195,0.0030814258724916723
1782987232338588400,4.41558837890625,0.05691898805201053,0.0051582412797026335,-0.016246740258065984
1782987232348663300,4.425663330078125,0.06500351030826568,0.005351407497934997,0.0029138416200876235
1782987232358737200,4.435737060546875,0.065002925786376,0.010905150901246816,-0.001195575593272224
1782987232368812300,4.445812255859375,0.06605038901269436,-0.00032870223140344024,0.006282788330223411
1782987232378886100,4.45588623046875,0.05392448241114616,-0.006601718086283653,0.01212007964896038
1782987232388960300,4.465960205078125,0.06169979258775711,-0.008465173870604486,-0.0013470489610917864
1782987232399035100,4.47603515625,0.06737959178984165,-0.018859525705501437,0.007111329842545091
1782987232409109200,4.486109130859375,0.07187222703397274,-0.010837382894661277,0.017516303536156193
1782987232419184000,4.49618408203125,0.05616261672675609,-0.025779607292264698,0.004540666503785178
1782987232429258200,4.50625830078125,0.06005436346828937,-0.01090463944459334,-0.00802977812802419
1782987232439332400,4.516332275390625,0.04868365914821624,-0.007883812052384018,-0.006135032156296074
1782987232449407200,4.5264072265625,0.05915829141139984,-0.016724322041403502,0.001072999526374042
1782987232459481300,4.5364814453125,0.07247545362412929,-0.0011636004192754625,0.008336515122791752
1782987232469556200,4.54655615234375,0.06050502984523773,0.0005311660009436309,-0.0008523516461718827
1782987232479630300,4.55663037109375,0.0652946022093296,-0.0012426204722374677,-0.0006333842664025724
1782987232489705200,4.566705322265625,0.0525718987584114,-0.017085172976739702,0.017132939374912528
1782987232499779300,4.576779296875,0.05870762503445148,0.008126132908277213,0.006517574333632365
1782987232509853400,4.586853515625,0.0643926849335432,0.00000491363713517785,-0.007675375199783593
1782987232519928300,4.59692822265625,0.06350012000799178,-0.0043058257014490665,-0.004174098213715479
1782987232530002400,4.60700244140625,0.055875031957030294,-0.005143957026023417,-0.007977198557415976
1782987232540077300,4.617077392578125,0.06080956574976444,0.009577372896205633,-0.005296480706613511
1782987232550151400,4.6271513671875,0.07577507969141006,0.004899645142443478,0.015853722352487967
1782987232560226300,4.637226318359375,0.05587210934758186,0.00139128996161744,0.005567223939392715
1782987232570300400,4.647300537109375,0.06080722766220569,-0.012899338659457861,0.017035689545515924
1782987232580374300,4.657374267578125,0.05556406631171703,0.009923957844171672,0.006412150330934673
1782987232590449400,4.667449462890625,0.06020341655015945,-0.0006805661426857113,-0.00514768335307017
1782987232600523300,4.677523193359375,0.06678396398425102,-0.010697755228262395,0.012387863739673047
1782987232610598400,4.687598388671875,0.05645896932482719,-0.01053253646288067,0.006192881557065993
1782987232620672300,4.69767236328125,0.05675941357612609,-0.009299651933368295,-0.01545879561761394
1782987232630747400,4.707747314453125,0.061844169494509695,-0.01105073338439688,0.003263723636837676
1782987232640821200,4.7178212890625,0.0780085378319025,-0.00434500693436712,0.014520500987349078
1782987232650895400,4.727895263671875,0.06529401768743992,-0.009278919672593474,0.0031739538609981536
1782987232660970200,4.73797021484375,0.06633855830430985,-0.004870071988087147,-0.0024299670932814476
1782987232671044400,4.74804443359375,0.06648878042995929,0.003561930265277624,0.014231336181890219
1782987232681119200,4.758119140625,0.06140227094590663,-0.0052186296974308785,0.0013782660832628608
1782987232691193300,4.768193359375,0.06035597676336765,-0.009960417397040873,-0.004971650932729244
1782987232701268200,4.778268310546875,0.05841127243638038,-0.014557298466935754,0.021774097977951167
1782987232711342300,4.78834228515625,0.0626017098635435,-0.0034695758067071437,0.017489424662385136
1782987232721416200,4.798416259765625,0.049584407380223273,-0.01669730617031455,-0.00839699487206526
1782987232731491300,4.8084912109375,0.05796469771265983,0.0011064451382495463,-0.012810957123106344
1782987232741565200,4.818565185546875,0.0747276164650917,0.0004876739190891385,-0.004718744750740006
1782987232751640300,4.828640380859375,0.07054302425682545,0.010510141967982053,0.006646781070716679
1782987232761714200,4.838714111328125,0.06441255867779254,-0.000705664051324129,-0.010942359372787177
1782987232771788300,4.848788330078125,0.05454232204854488,-0.003952500485442579,-0.0030826953809708355
1782987232781863200,4.85886328125,0.06456862602233886,-0.006156020145397633,-0.0018350242742802946
1782987232791937300,4.868937255859375,0.0632207185447216,-0.00021448300089687108,0.009996374626411125
1782987232802012200,4.87901220703125,0.0687543872743845,0.0026862616755999624,0.010423815391398967
1782987232812086300,4.889086181640625,0.05813070192933082,0.0075326787934638555,0.0047647941158618775
1782987232822161200,4.8991611328125,0.06336801806092261,0.0032380138068459925,0.006894508754089475
1782987232832235300,4.9092353515625,0.0747404759466648,0.004582468952052295,0.009723631232790648
1782987232842309000,4.91930908203125,0.06441548128724098,0.0045419725448824465,0.0010161730389110744
1782987232852384300,4.92938427734375,0.054394438010454176,-0.006821333920024335,0.0037743765727151182
1782987232862458000,4.9394580078125,0.05948153201639652,0.003801127582322806,-0.006335358767677098
1782987232872533200,4.949533203125,0.05588672239482403,-0.010391136964503675,-0.0046949802826624365
1782987232882607000,4.959607177734375,0.04316694155335426,-0.004115235032793135,-0.0027675924166571347
1782987232892682200,4.96968212890625,0.04436228881776333,-0.006562646451219916,-0.004359218122810125
1782987232902756000,4.979756103515625,0.06875088014304638,0.002307710686791688,0.015048981840861961
1782987232912830500,4.98983056640625,0.06201660345196724,0.0007727927370928228,-0.0016615126045886426
1782987232922905000,4.999905029296875,0.059924015086889264,-0.007560900240950286,0.008791675011767074
1782987232932979500,5.0099794921875,0.05483750560283661,-0.00018428879203274845,0.016705325079988686
1782987232943054000,5.02005419921875,0.05259294154644012,-0.004383384449686855,0.0003058145461603999
1782987232953128400,5.03012841796875,0.07069850707948207,-0.010388597947545349,0.00023197299181483685
1782987232963203000,5.040203125,0.06201718797385692,0.004065806400496513,-0.004491137406788766
1782987232973277400,5.05027734375,0.05348959812521934,0.00027594913085922596,0.0005487199239432812
1782987232983351300,5.060351318359375,0.05947451775372028,0.0022165435383096335,0.002237467595329508
1782987232993426400,5.070426513671875,0.048699441239237785,-0.005168123352900147,0.015289375601150094
1782987233003500300,5.080500244140625,0.06066986501812935,-0.005191321565397084,0.00829347056550905
1782987233013575400,5.090575439453125,0.06949731459617614,-0.01331005661850795,-0.012683586150081827
1782987233023649300,5.100649169921875,0.062169163665175435,-0.0001642141183838248,-0.00601288534766063
1782987233033723400,5.110723388671875,0.04316869511902332,0.0031340967746451495,0.0011024904823396355
1782987233043798300,5.12079833984375,0.05020107797384262,0.008777144162915647,0.009101964803645387
1782987233053872400,5.130872314453125,0.05229658894836902,0.001290715663973242,-0.001331065940670669
1782987233063947300,5.140947265625,0.058280339533090586,-0.011576930949278174,0.019749378084158525
1782987233074021400,5.151021484375,0.07294365565776824,-0.0032645364875905215,0.000918229089770466
1782987233084096300,5.16109619140625,0.0651642538279295,-0.001689578788448125,-0.006752195940259844
1782987233094170400,5.17117041015625,0.06980769571959972,-0.002033898714091629,0.004119810743210837
1782987233104244200,5.181244140625,0.05948445462584495,0.010448310511838645,0.01593685232498683
1782987233114319400,5.1913193359375,0.0644236645936966,-0.003415726727619767,0.00860028975866735
1782987233124393200,5.201393310546875,0.07086509581804275,-0.012155644152686,0.005237562726764008
1782987233134468400,5.21146826171875,0.05440788201391697,0.005181476024817675,0.012799485881021245
1782987233144542200,5.221542236328125,0.04722527703344822,0.001477013750001788,-0.004328046666411683
1782987233154617300,5.231617431640625,0.0488730442404747,-0.0004055851262062788,0.01124833831572905
1782987233164691200,5.241691162109375,0.07401333071589469,0.007367825354263186,-0.0011872370231896638
1782987233174765300,5.251765380859375,0.07072247247695923,0.02041590656833723,-0.012684399000834673
1782987233184840200,5.261840087890625,0.0659352382004261,0.010123444205336273,0.0153555727051571
1782987233194914300,5.271914306640625,0.06832943986058235,-0.0031952523773536084,0.0066747559230308975
1782987233204989200,5.2819892578125,0.06727496237158775,-0.008511771224997937,0.0010330511084757745
1782987233215063300,5.292063232421875,0.052907998844981194,0.0033387159686535596,0.014064363850839435
1782987233225138200,5.30213818359375,0.055308045724034305,-0.003949943202175199,-0.0058835781458765266
1782987233235212300,5.31221240234375,0.06459083785414696,-0.011217121193557977,0.01018665476781316
1782987233245286100,5.3222861328125,0.061445525565743446,0.0006381152404472232,0.002296522572496906
1782987233255361300,5.332361328125,0.0626408728301525,0.011489508394151925,0.0004895644820760935
1782987233265435100,5.34243505859375,0.06398235056698322,-0.004109992602095007,0.017827086518378926
1782987233275510300,5.35251025390625,0.05874678800106048,0.0043250601248815655,0.003794451246364042
1782987233285584100,5.362584228515625,0.06129179630875587,-0.001930018214508891,0.0026344949557445944
1782987233295659300,5.3726591796875,0.07041969013810158,0.00021251023951917886,0.01851944356355816
1782987233305733000,5.382733154296875,0.05246668481826782,-0.0026296361175365745,0.0021731884537730364
1782987233315807200,5.39280712890625,0.0421370139837265,0.002015979464910924,0.0002533080407883972
1782987233325882000,5.402882080078125,0.044378070908784865,0.0028255057495087384,0.002059581144619733
1782987233335956200,5.412956298828125,0.06771919900774956,0.0014486644383519887,-0.002479459657659754
1782987233346031000,5.423031005859375,0.04557575626075268,-0.01739838537806645,-0.009183615205110981
1782987233356105000,5.43310498046875,0.05066051217913627,-0.0026726715416647492,-0.004007947866572067
1782987233366179000,5.443178955078125,0.056795069411396976,0.0013394319102168083,0.013531088091200218
1782987233376254000,5.45325390625,0.05619534995257854,-0.0018280739436857402,-0.007337092289282009
1782987233386328000,5.463328125,0.07280512396991252,0.014631149154435842,-0.004225435675308108
1782987233396403200,5.4734033203125,0.062174424362182616,0.005484514092002063,0.006479068954149261
1782987233406477000,5.48347705078125,0.06935586029887199,-0.0008244133264757692,0.005830843311641365
1782987233416552200,5.49355224609375,0.06516542287170887,-0.008312010869197547,-0.004692861390812322
1782987233426626000,5.5036259765625,0.05738309843242168,-0.009115217010863125,-0.000002173690777271986
1782987233436700000,5.513699951171875,0.05394084902405739,-0.003284592894930392,-0.0006409465183503925
1782987233446775000,5.523775146484375,0.05978022270202636,0.004957713738922029,0.011478941334364934
1782987233456849000,5.533848876953125,0.06591828706562519,0.005369491143897175,0.021363096891110763
1782987233466924000,5.543924072265625,0.06562076542377472,-0.013112908344902098,0.01535554530569352
1782987233476998000,5.553997802734375,0.05440086775124073,-0.002799604123272002,-0.0059239284225739534
1782987233487073000,5.564072998046875,0.0675689768821001,-0.004428904091846197,0.010285064507834613
1782987233497147000,5.57414697265625,0.05694178440570831,-0.0009752930392511189,0.009768438488896936
1782987233507221000,5.584220947265625,0.06622048488259315,-0.009281915347278118,0.004633441087463871
1782987233517296000,5.594296142578125,0.05574877522885799,0.019788659781776366,-0.007910015072720124
1782987233527370000,5.604369873046875,0.07325286773741245,0.006637246057391166,0.00571776572545059
1782987233537445000,5.614445068359375,0.06995967141091823,0.007932382168155163,-0.011921031679213046
1782987233547519000,5.62451904296875,0.05918751750588417,0.006173829796724021,0.020033903247117995
1782987233557594000,5.634593994140625,0.07639701098203659,-0.004416848327871412,0.0026900976005010306
1782987233567668000,5.64466796875,0.0530558828830719,0.008208842755667864,0.007153853810019791
1782987233577741800,5.654741943359375,0.04722060085833072,0.0059965004684403534,-0.0006560436227824539
1782987233587817000,5.66481689453125,0.0722094961643219,0.0010755202770233153,0.00010730543253012001
1782987233597890800,5.674890869140625,0.08582301097512245,0.008894669595360755,0.012200771069200709
1782987233607966000,5.684966064453125,0.06756780783832073,-0.004994100226555019,0.00243737408160232
1782987233618039800,5.695039794921875,0.06248655905127525,-0.0038907420945353804,0.004324850062327459
1782987233628115000,5.705114990234375,0.0674251844972372,-0.0025002558505162597,-0.004266397873358801
1782987233638189000,5.71518896484375,0.050667526441812515,-0.0006229359376244246,0.007513544834731147
1782987233648263000,5.725262939453125,0.06069032328426838,0.008842848076578229,0.005408827640442177
1782987233658338000,5.735338134765625,0.06667758100032806,0.003631689299549907,-0.003553628227813169
1782987233668412000,5.745411865234375,0.06518295852839946,-0.006655950757861137,0.010868106826487927
1782987233678487000,5.755487060546875,0.06233984405696392,0.0048306898257695135,0.00981265208995901
1782987233688561000,5.765560791015625,0.08179448611140251,-0.00545464867670089,0.006603014994226396
1782987233698634800,5.775634765625,0.055306292158365244,-0.017958466946240512,0.005493501116055995
1782987233708710000,5.7857099609375,0.06473404571712017,0.0024497860386036335,-0.00011059336815960705
1782987233718783700,5.79578369140625,0.06533201161026954,0.008868968898523599,-0.01031913117421791
1782987233728859000,5.80585888671875,0.06951718834042549,-0.0046188737059943375,-0.014532849012268706
1782987233738932700,5.8159326171875,0.06173311033546924,0.0014173194520175456,0.003541152338730171
1782987233749008000,5.8260078125,0.0530558828830719,-0.0002992204085923731,0.01100598092721775
1782987233759081700,5.836081787109375,0.062335167881846426,0.0015808394506573677,0.002669036546163261
1782987233769156000,5.846156005859375,0.0572515810072422,-0.00004077040180563926,-0.004845796063356101
1782987233779231000,5.85623095703125,0.05306231262385845,-0.007058576742000878,0.005639777718950063
1782987233789305000,5.86630517578125,0.05800210711359977,0.0004757094866596162,0.01347238017390482
1782987233799380000,5.8763798828125,0.049768531775474543,-0.013528229413833468,0.007389297400554642
1782987233809454000,5.8864541015625,0.062485390007495874,-0.0210904630953446,-0.01794947992218658
1782987233819529000,5.896529052734375,0.07175999883115292,-0.0015586093525402247,-0.0029826964720617976
1782987233829603000,5.90660302734375,0.041831309035420414,-0.0006904116832651198,0.009695318453758954
1782987233839677000,5.916677001953125,0.06023673429787159,0.004123619268648326,0.0014055924816057084
1782987233849752000,5.926751953125,0.06323123993873596,0.011256448556948453,0.0007203318974934518
1782987233859826000,5.936825927734375,0.060387540945410725,-0.0035781507477164265,0.0063837370872031896
1782987233869901000,5.946901123046875,0.0695166038185358,-0.0071270388683304185,-0.004954763730010018
1782987233879975000,5.956974853515625,0.06951835738420487,0.01087513935547322,-0.010575590153317898
1782987233890050000,5.967050048828125,0.04707739299535751,-0.010035912052355706,-0.0016658508529886601
1782987233900124200,5.977124267578125,0.06174187816381454,-0.01094257856849581,-0.004461381589341908
1782987233910198000,5.987197998046875,0.0580009380698204,-0.00455495989061892,0.0014737349475268274
1782987233920273200,5.997273193359375,0.06518354305028914,0.009372479707561433,-0.0033405425995588303
1782987233930347000,6.007346923828125,0.049316696354746815,0.001408789085689932,-0.0074232362027745686
1782987233940422100,6.017422119140625,0.05216039534807205,-0.0002066284880042076,0.008284675337700173
1782987233950496000,6.02749609375,0.06787175922095776,0.0050130789216607805,-0.009103188646351918
1782987233960569900,6.03756982421875,0.06577917085587978,-0.009424319492653013,0.015917398705845697
1782987233970645000,6.04764501953125,0.07984685917496681,-0.010117781649529933,-0.006464656836306676
1782987233980718800,6.05771875,0.08179390158951282,-0.007241550359781831,0.0037603845799807456
1782987233990794000,6.0677939453125,0.052766544547677034,-0.005197879170347005,-0.0017705898690968751
1782987234000867800,6.077867919921875,0.06144961721897125,-0.0026832112019881606,-0.0043823341369163245
1782987234010943000,6.08794287109375,0.05920622220635414,-0.010001699255499989,-0.0066367254675831645
1782987234021017000,6.09801708984375,0.07162438975274563,-0.0034645525717176494,0.003013813129533082
1782987234031091000,6.108091064453125,0.056660044854879375,-0.010724990295059978,-0.0028371231220662594
1782987234041166000,6.118166015625,0.03915069164931774,-0.01601250224392861,0.00790627047936432
1782987234051240000,6.128239990234375,0.0645844081133604,0.0030886501977220177,0.0032291363806463778
1782987234061315000,6.138315185546875,0.06922434287369252,-0.002540076404251158,0.0014962573065888136
1782987234071389000,6.148388916015625,0.06817454155981541,-0.0006525638909079134,0.01143755901120603
1782987234081464000,6.158464111328125,0.0632335780262947,0.009878493000939488,0.007041844802908599
1782987234091538000,6.168537841796875,0.06398235056698322,-0.0058176550365053115,0.008151267349533736
1782987234101611800,6.17861181640625,0.06727203976213932,0.0024443792111240327,-0.004500626754341647
1782987234111687000,6.18868701171875,0.05170680636167526,0.0024027320264838636,0.011910409820498898
1782987234121760800,6.1987607421875,0.06083586923480033,0.0011113953080028295,0.011584465801762416
1782987234131836000,6.2088359375,0.06128653561174869,0.013558113095443695,-0.011499490932049229
1782987234141910000,6.218909912109375,0.04497603680193424,0.009191168323904274,-0.004084474568348377
1782987234151985000,6.22898486328125,0.05694119988381862,-0.007928089585527777,0.00561464327769354
1782987234162059000,6.23905908203125,0.0681616820782423,-0.003985854765772819,0.0012790069598704575
1782987234172132900,6.2491328125,0.04392272835671902,-0.008282620377931744,0.019962217117240652
1782987234182208000,6.2592080078125,0.06756546975076198,-0.02174994991738349,-0.0006795706288423389
1782987234192281900,6.26928173828125,0.07055646826028823,-0.024653489339165387,0.0087361636985559
1782987234202357000,6.27935693359375,0.053197921702265734,-0.01839273017765954,0.012055846173176541
1782987234212430800,6.289430908203125,0.0678612378269434,-0.00691703111315146,-0.001998215479357168
1782987234222506000,6.299506103515625,0.04900397714376449,-0.009424008965399116,-0.0038164438824634995
1782987234232579800,6.309579833984375,0.05244096585512161,0.0020762217521667478,0.014405587637098505
1782987234242654000,6.319654052734375,0.06919920843243599,0.0017561777512542902,-0.007787028013868257
1782987234252728800,6.329728759765625,0.06919511677920819,0.00417657329859212,0.001859254533238709
1782987234262803000,6.339802978515625,0.06186228967308998,0.0046164990858174855,0.0010719857462216167
1782987234272877800,6.3498779296875,0.0648591334015131,0.0038286549100652336,0.00463947810260579
1782987234282952200,6.3599521484375,0.0579746345847845,-0.00940999870635569,0.008305133603839204
1782987234293026800,6.37002685546875,0.04944178403913974,0.005591792125068605,-0.00429910369971767
1782987234303101200,6.38010107421875,0.05048983178734779,0.010539788187574594,0.003775481684412807
1782987234313175000,6.390175048828125,0.04689969834089279,0.0002778670933097601,0.011054934635479003
1782987234323250200,6.400250244140625,0.07053951712548732,-0.022002024982310832,0.0060695109057240185
1782987234333324000,6.410323974609375,0.0739782594025135,-0.006544489740021526,0.009941813161270692
1782987234343399200,6.420399169921875,0.07218085459172725,-0.00454922426957637,0.016175565584842115
1782987234353473500,6.4304736328125,0.07068973925113678,-0.004986757170315831,0.01793080262118019
1782987234363547400,6.44054736328125,0.061712652069330215,-0.003125694272480905,0.006205567508703097
1782987234373622500,6.45062255859375,0.05721943230330944,0.0007356755970977247,-0.0019386855781544
1782987234383696400,6.4606962890625,0.061111763566732404,-0.005343059794697911,0.01064409794542007
1782987234393771500,6.470771484375,0.06350713427066802,-0.007255304890498518,0.019156636355398222
1782987234403845400,6.480845458984375,0.045103462573885915,-0.005975366348866373,0.010289731549797579
1782987234413920500,6.49092041015625,0.06036123746037483,-0.013590882853884248,0.008618939660210162
1782987234423994400,6.500994384765625,0.06350012000799178,0.007566727193538099,0.005203888786025345
1782987234434068500,6.511068359375,0.06799041716456412,0.002382949613779783,-0.0023393844666890797
1782987234444143400,6.521143310546875,0.06379471904039383,-0.0026038258228451012,-0.014466039986908435
1782987234454217500,6.531217529296875,0.0709761549770832,0.0018484043456614017,0.002862896884139627
1782987234464292400,6.541292236328125,0.055258945885300635,-0.005568484314717352,0.012798051975760609
1782987234474366500,6.551366455078125,0.04358429018259048,-0.016844240360334516,0.010245846742298453
1782987234484441300,6.56144140625,0.06198971544504165,-0.00829873126251623,-0.008181361093698068
1782987234494515500,6.571515380859375,0.05764554876089096,-0.0020499365334399043,0.0062283638624008745
1782987234504589300,6.58158935546875,0.06347732365429401,-0.0041183037727139885,0.0007252455346286297
1782987234514664400,6.59166455078125,0.05599895059764385,0.001558901613485068,-0.0050095626571681345
1782987234524738300,6.60173828125,0.050012861925363535,0.004701437422912568,0.00031277400990948077
1782987234534813400,6.6118134765625,0.06288052680492401,-0.004024433210492134,-0.005658418487338349
1782987234544887300,6.62188720703125,0.06482581565380097,-0.011349953792989254,0.00644210707778111
1782987234554962400,6.63196240234375,0.068867199999094,-0.002790763229690492,0.014147311160247773
1782987234565036300,6.642036376953125,0.059739306169748305,-0.001044814611505717,0.0019763050416484475
1782987234575110400,6.6521103515625,0.0744049603819847,-0.014612955910619348,0.004563618121109903
1782987234585185300,6.662185302734375,0.0715641839981079,0.001947334675490856,-0.0056787945550866425
1782987234595259400,6.67225927734375,0.05764671780467033,-0.008107921398151665,-0.008424440001416952
1782987234605334300,6.682334228515625,0.04522679669260978,0.00970521879326552,-0.008254837321862578
1782987234615408400,6.692408447265625,0.045676878547668456,-0.0015074088882654905,0.0025890575119759886
1782987234625483300,6.702483154296875,0.07141279282867909,0.0030623832453042267,-0.015067394280387088
1782987234635557400,6.712557373046875,0.060334349453449246,-0.015401768200751393,0.003837851996673271
1782987234645631200,6.72263134765625,0.051204117536544795,-0.005937536822818219,0.0015455306752584874
1782987234655706400,6.732706298828125,0.0761959354519844,-0.011706713075097649,0.00412836850900203
1782987234665780200,6.7427802734375,0.06168050336539745,-0.01198903714781627,-0.008250289010908454
1782987234675855400,6.75285546875,0.07484802797436714,-0.02022721559582278,-0.005320966693898662
1782987234685929200,6.76292919921875,0.08008475958406924,-0.007851170158106833,0.006864141015289351
1782987234696004400,6.77300439453125,0.054199207699298854,-0.003494198791310191,0.0002852284158580005
1782987234706078200,6.783078125,0.06661737524569034,0.0012320625456050038,0.002512329880800098
1782987234716152300,6.79315234375,0.07529635626375675,-0.01114429341936484,0.015081605468830092
1782987234726227200,6.803227294921875,0.06137421389520168,-0.006571743073128164,0.00419608171666041
1782987234736301300,6.81330126953125,0.06496551638543606,-0.009609174540266394,0.00413127285214141
1782987234746376200,6.823376220703125,0.06586275748610496,-0.0058937342137098305,-0.008284227813128382
1782987234756450300,6.8334501953125,0.06167348910272121,-0.004942223908845335,-0.009679481563810259
1782987234766524400,6.8435244140625,0.05583820707798004,-0.014619769243896007,0.0016262129623442888
1782987234776599300,6.853599365234375,0.06900456264317036,-0.0020052023425698277,0.00752848667553626
1782987234786673400,6.86367333984375,0.06317044966220856,0.003289396934211254,-0.000187668059207499
1782987234796748300,6.873748291015625,0.0769365246862173,0.010161949584819375,-0.012636422540107741
1782987234806822400,6.883822509765625,0.07917758161127567,0.01119574961196631,-0.005559716486372053
1782987234816897300,6.893897216796875,0.07304477794468403,0.0015287439372390509,-0.001388056824915111
1782987234826971400,6.903971435546875,0.0553822800040245,0.0022289646284654736,0.002778753131488338
1782987234837045500,6.91404541015625,0.05193769250810146,0.012461623095627873,0.003905044614523649
1782987234847120400,6.924120361328125,0.07094751340448856,-0.0022349925104528665,-0.004415030830120668
1782987234857194500,6.934194580078125,0.07543488795161246,-0.008406867812108247,-0.0018158720492385326
1782987234867269400,6.944269287109375,0.05732464624345302,-0.006138356624543666,0.013200760158291086
1782987234877343500,6.954343505859375,0.07692951042354107,0.0008159742916934192,0.013114104788145049
1782987234887418400,6.96441845703125,0.06525836185216903,-0.012173764331266284,-0.00013210194706916807
1782987234897492500,6.974492431640625,0.056581134399771686,-0.001022840241715312,0.009870181830320507
1782987234907566300,6.98456640625,0.052992754518985746,0.0016298296915367245,-0.0013630411146674304
1782987234917641500,6.994641357421875,0.06541326015293598,-0.004592003965377807,-0.0023483258249703794
1782987234927715300,7.00471533203125,0.06376666198968887,-0.008058328369073569,0.0018157898508477956
1782987234937790500,7.01479052734375,0.07738485297560692,-0.007316241297498345,-0.011492010878492146
1782987234947864300,7.0248642578125,0.06840425866246223,-0.0021998663981445134,0.0007563073931727558
1782987234957938400,7.0349384765625,0.06496084021031856,-0.0024336386214010414,-0.0014208083170466125
1782987234968013300,7.045013427734375,0.04371113143265247,0.0005453223904594779,-0.011371955562243238
1782987234978087400,7.05508740234375,0.05507891314327717,0.0036983065286651253,-0.007618274717684835
1782987234988162300,7.065162353515625,0.06480418834388256,0.00008265504846349358,0.010113078074948862
1782987234998236400,7.075236328125,0.06330488969683647,-0.01228688758322969,0.010661633602110669
1782987235008311300,7.085311279296875,0.05896539918780327,-0.011845281295571476,-0.017878999368706718
1782987235018385400,7.095385498046875,0.06539981614947318,-0.004307049544155598,-0.007543236720096319
1782987235028459300,7.105459228515625,0.06524725593626499,-0.007986852301750332,-0.006271581949619576
1782987235038534400,7.115534423828125,0.07317571084797382,0.005062708483356982,-0.0006376677158754318
1782987235048608300,7.125608154296875,0.05521744483113288,0.00919180764472112,0.01804825498838909
1782987235058683400,7.135683349609375,0.05103109905719757,-0.010316263363696634,0.0020155776061117647
1782987235068757200,7.14575732421875,0.0647983431249857,-0.01732681797919795,-0.00951059127030894
1782987235078832400,7.155832275390625,0.060310968577861786,-0.011721289589721708,0.002294613743200898
1782987235088906200,7.16590625,0.06420271531939506,-0.01726007288591936,-0.0017501590024214238
1782987235098980400,7.17598046875,0.06300210735797881,-0.01623535121437162,0.0060067296015098685
1782987235109055200,7.18605517578125,0.07093465392291545,-0.005545596629474312,0.005105816972721368
1782987235119129300,7.19612939453125,0.05821838021278381,-0.010372687992360442,0.0035832013821695
1782987235129204200,7.206204345703125,0.06195639769732952,-0.0005555880561470986,-0.01854859659280628
1782987235139278300,7.2162783203125,0.06704173813760281,-0.005250285211019217,-0.020322145603969693
1782987235149353200,7.226353271484375,0.06285305427610874,-0.010326620360929519,-0.0027201000131200997
1782987235159427300,7.23642724609375,0.05926116726398468,-0.00174793964587152,0.010423157804273069
1782987235169501200,7.246501220703125,0.05716565628945827,-0.008777089363988489,0.012749600590998306
1782987235179576300,7.256576416015625,0.05267711269855499,-0.01553149552764371,-0.001844093496724963
1782987235189650200,7.266650146484375,0.06315349852740765,-0.009936178004927933,0.001027936541941017
1782987235199725300,7.276725341796875,0.06480477286577224,0.002483322982024401,0.005103953809197992
1782987235209799200,7.286799072265625,0.0706406394124031,-0.000532901300303638,0.0037960130157880484
1782987235219874300,7.296874267578125,0.0547767153263092,-0.0010626607954502105,0.004718141962541267
1782987235229948200,7.3069482421875,0.05402794278562069,-0.01007103816466406,-0.001288752035750076
1782987235240022500,7.3170224609375,0.05956219603717327,0.00007902005296200513,-0.004873917046142742
1782987235250097200,7.32709716796875,0.0573170474588871,-0.0037763219346292317,0.0015097378426697104
1782987235260171500,7.337171630859375,0.058366848772764206,0.0010556465327739716,-0.0035932935179211196
1782987235270246100,7.34724609375,0.0642015462756157,-0.006165555158723145,-0.004672649719845504
1782987235280320500,7.357320556640625,0.06419920818805694,-0.00550062497658655,0.0035359281743410974
1782987235290394400,7.367394287109375,0.0640524931937456,0.012569869243074207,0.015335123572172597
1782987235300469500,7.377469482421875,0.050884968584775925,-0.00880903713852167,0.009866446370119228
1782987235310543400,7.38754345703125,0.06914660146236419,-0.00035060353595763445,0.01041183269266039
1782987235320618500,7.397618408203125,0.06899988646805286,0.005460092036798596,0.0009389156847726553
1782987235330692400,7.4076923828125,0.05507891314327717,0.005457772215548902,0.005655495877889916
1782987235340767500,7.417767578125,0.04954465989172458,-0.01750951760234311,0.011644050501892343
1782987235350841300,7.42784130859375,0.055983753028511996,0.0071721749179996545,-0.011433668287377803
1782987235360915700,7.437915771484375,0.0526940638333559,-0.011882928158529102,-0.006797688182955608
1782987235370990800,7.447990966796875,0.06780512372553348,-0.003551536735426634,0.012839763092482461
1782987235381064700,7.458064697265625,0.05523381144404411,-0.0028769619421102105,0.00833208554284647
1782987235391139800,7.468139892578125,0.055231473356485365,0.011439294310566037,-0.0016449907280504702
1782987235401213700,7.478213623046875,0.05313187072873115,-0.003684332802239805,-0.0069011302911210805
1782987235411288800,7.488288818359375,0.05208791463375091,-0.003979151030350477,-0.004306638552201912
1782987235421362700,7.49836279296875,0.05119418066442012,0.005567333537247031,0.0028229119336232542
1782987235431436800,7.508436767578125,0.06331307300329209,-0.010363098180107772,0.005672794072562828
1782987235441511700,7.51851171875,0.0576262595385313,-0.007220288376044481,-0.011900472948374227
1782987235451585800,7.528585693359375,0.07558452555537223,-0.01052955905450508,0.006150366722745821
1782987235461660700,7.53866064453125,0.06271159997880459,-0.011273417958058416,0.009871159077854826
1782987235471734800,7.54873486328125,0.05613046802282333,-0.002700673793442547,0.0027706337571144104
1782987235481809700,7.5588095703125,0.05388590396642685,0.00120064449403435,0.0053841772563755505
1782987235491883800,7.5688837890625,0.0748410137116909,-0.006171656105946749,0.004245437283720821
1782987235501957600,7.57895751953125,0.06870236482620239,-0.005079458688758314,-0.002396101356297731
1782987235512032800,7.58903271484375,0.07139525717198848,0.0018004187517799437,-0.003825102112954482
1782987235522106600,7.599106689453125,0.05418401013016701,0.010686704111285507,0.010779350830800831
1782987235532181800,7.609181640625,0.05897416701614856,0.0038857005932368335,0.00038017669031396503
1782987235542255600,7.619255615234375,0.05538403356969356,-0.0032903102496638892,0.01610262821279466
1782987235552330800,7.629330810546875,0.05672843391597271,0.0014106157165952025,0.011118236529501155
1782987235562404600,7.639404541015625,0.05927110413610935,-0.004472724967263639,-0.003967780252965167
1782987235572478700,7.649478759765625,0.05388590396642685,-0.009485602959524839,-0.016377435699338094
1782987235582553600,7.6595537109375,0.07947627229690551,0.013051387416012585,-0.0008345419948454946
1782987235592627700,7.669627685546875,0.0541927779585123,0.0011258622247725723,0.021443331653624772
1782987235602702600,7.67970263671875,0.042077977272868154,-0.005850552659109234,0.0008678962751757353
1782987235612776700,7.689776611328125,0.06587094079256058,-0.0008844181517139077,0.0015777615775819866
1782987235622851600,7.6998515625,0.07125847904980183,-0.0036845702642574903,0.0031623364884406325
1782987235632925700,7.70992578125,0.06542085893750191,-0.004505257263686508,0.013018297997163608
1782987235642999600,7.71999951171875,0.07290390816926956,0.006000683453213423,0.009191168323904274
1782987235653074700,7.73007470703125,0.06526829872429371,-0.004290043610427528,-0.0016814411477651446
1782987235663148500,7.7401484375,0.05778408044874668,0.0029228286441415545,-0.00522275788327679
1782987235673223700,7.7502236328125,0.0722965899258852,-0.018186576613690702,-0.0009138817082159221
1782987235683297500,7.760297607421875,0.054340077474713325,-0.0007988587601110338,-0.01432225673520006
1782987235693371600,7.77037158203125,0.0568856703042984,0.006137607705872505,-0.0033799612944945693
1782987235703446500,7.780446533203125,0.07244798109531402,0.0006330737391486763,0.0006940466787666082
1782987235713520600,7.790520751953125,0.06481354069411754,0.0020504114574752745,-0.0014580533212050794
1782987235723595500,7.800595458984375,0.06765782420933246,0.0023992614277638493,0.0010198080344125627
1782987235733669600,7.810669677734375,0.047754853865504265,0.004309807756822556,0.01492364756129682
1782987235743744500,7.82074462890625,0.061520928889513014,-0.008870174474921076,-0.01306621965896338
1782987235753818600,7.830818603515625,0.05778115783929824,-0.001183437630906701,-0.014928816926758735
1782987235763892700,7.840892822265625,0.057931379964947696,-0.006359214567299932,-0.00633928602412343
1782987235773967600,7.850967529296875,0.05972527764439582,-0.020343243190925567,-0.011249708288908004
1782987235784041700,7.861041748046875,0.06166647484004497,-0.0035897498539648946,0.003978146383352577
1782987235794116600,7.87111669921875,0.05837094042599201,-0.004302921358309686,0.006764516565715893
1782987235804190700,7.881190673828125,0.06779927850663661,-0.0032093539679422974,0.0022860194447916
1782987235814265600,7.891265625,0.07468202375769614,-0.010966635297518222,0.014600443488918244
1782987235824339700,7.901339599609375,0.05268003530800342,0.004403203395009041,0.00466411935351789
1782987235834413800,7.911413818359375,0.05597264711260795,-0.0035012861192226406,0.0052578748624306166
1782987235844488700,7.92148876953125,0.06690086836218834,-0.006199658357724547,0.003424841615837067
1782987235854562800,7.931562744140625,0.06839899796545505,0.0011836750929243862,0.010187376287020742
1782987235864637700,7.9416376953125,0.06076981826126575,-0.003666596216149628,0.009715365727944299
1782987235874711800,7.9517119140625,0.06197042622268199,-0.0110363577991724,0.008021978414058686
1782987235884786700,7.96178662109375,0.058979427713155744,-0.005603902687970549,0.009143959048157558
1782987235894860800,7.97186083984375,0.05449029960036277,-0.003047587534971535,-0.002304888542043045
1782987235904934700,7.9819345703125,0.07259469608962535,-0.011585205587279051,-0.0006584913081955164
1782987235915009800,7.992009765625,0.0597264466881752,0.0010317907331511378,0.002216370008373633
1782987235925083600,8.002083740234376,0.06960194401443004,0.0002682407484389841,-0.004516134850727394
1782987235935158800,8.01215869140625,0.06945347545444965,-0.01404752231389284,0.010135061577893793
1782987235945232600,8.022232666015626,0.05030278478264808,0.00453430069508031,0.00035528884422965346
1782987235955307800,8.032307861328125,0.053746203234791755,0.008364599572960287,-0.007911869103088975
1782987235965381600,8.042381591796875,0.06302256562411784,-0.002301262679696083,-0.003918726080004126
1782987235975455700,8.052455810546874,0.04656067564487457,-0.0132897992817685,0.007284987642709165
1782987235985530600,8.062530517578125,0.04955401224195957,-0.013417645178828388,-0.014973688114946707
1782987235995604700,8.072604736328126,0.06137713650465011,-0.002417345073726028,-0.0010728899285197258
1782987236005679600,8.0826796875,0.0666150371581316,-0.0030107991885393857,-0.008670925575774162
1782987236015753700,8.092753662109375,0.06362403864860534,-0.00519676492549479,-0.002236508614104241
1782987236025828600,8.10282861328125,0.05240063384473324,-0.005368943154625595,-0.009832690230989828
1782987236035902700,8.11290283203125,0.0625759909003973,-0.009677545335050672,-0.005160862495051696
1782987236045976600,8.1229765625,0.06960662018954754,0.004198803396709263,0.006244410814903676
1782987236056051700,8.1330517578125,0.06063128657341003,0.0023584727596491573,0.017902635972620918
1782987236066125600,8.14312548828125,0.05883797341585159,0.015612744070310144,0.004883452059468254
1782987236076200700,8.15320068359375,0.0685626640945673,0.00974301178669557,0.013900533324945718
1782987236086274600,8.163274658203125,0.05195405912101268,-0.012903430312685668,0.011041408433625473
1782987236096349700,8.173349609375,0.051202948492765424,-0.005953300647530704,-0.02027835212801583
1782987236106423600,8.183423583984375,0.06676467476189137,-0.00582108910260722,0.0016701617019250989
1782987236116497700,8.19349755859375,0.05793897874951362,-0.00418433647993952,-0.012614731298107654
1782987236126572500,8.203572509765625,0.06976736370921134,-0.005889642560482025,0.00915920228306204
1782987236136646700,8.213646728515625,0.07006897700428963,-0.005653641847521066,-0.002203483127336949
1782987236146721500,8.223721435546874,0.054657472860813135,-0.019210768562275916,0.011348675151355564
1782987236156795600,8.233795654296875,0.05510580115020275,-0.012188614840526133,-0.0016876151602249591
1782987236166869800,8.243869873046876,0.08608312321603298,-0.003596234393678605,-0.006258037481456994
1782987236176944600,8.253944580078125,0.05241232428252697,-0.006508377247024327,-0.001959774031955749
1782987236187018800,8.264018798828126,0.06258826586008072,-0.013505688788462429,0.01610949634499848
1782987236197093600,8.27409375,0.07306172907948494,0.004456741946842521,0.007745590891782194
1782987236207167700,8.284167724609375,0.06782382842600346,0.003709375911951065,-0.005063804461900145
1782987236217242600,8.29424267578125,0.06213409235179424,0.017687906376551835,-0.0008429810296278447
1782987236227316700,8.304316650390625,0.05659574744701385,0.006089001057483255,-0.012673283951776101
1782987236237390800,8.314390869140626,0.06183364810049533,-0.0023998824822716413,-0.00283476676819846
1782987236247465700,8.3244658203125,0.07590542807281017,0.0034609723751433193,0.0010224109834525734
1782987236257539800,8.334539794921875,0.07515665553212166,-0.002101465791277587,0.01137886022706516
1782987236267614700,8.34461474609375,0.05929039335846901,-0.007322561440430581,0.0064943487216718495
1782987236277688800,8.354688720703125,0.05210077411532402,-0.01192024622792378,0.0033264501421246674
1782987236287763700,8.364763671875,0.06512216825187206,-0.000005370294861495495,-0.003796917198086157
1782987236297837800,8.374837890625,0.05988602116405964,-0.008386446078587323,-0.007427994576282799
1782987236307911700,8.38491162109375,0.055098202365636825,0.00794606363363564,-0.008051578967878595
1782987236317986800,8.39498681640625,0.060334349453449246,-0.003625186493527144,-0.006657585592521354
1782987236328060700,8.405060791015625,0.06616787791252136,-0.0008823540587909519,-0.0018140910841058938
1782987236338135800,8.4151357421875,0.06706862614452838,-0.0028645408519543704,0.011892910696426406
1782987236348209700,8.425209716796875,0.06332476344108581,0.001999284058436751,0.009732161599118262
1782987236358283800,8.43528369140625,0.07170563829541206,0.008705138372629881,0.003788816090021282
1782987236368357600,8.445357666015624,0.06661854428946971,0.0032262868364341555,-0.013341109343897551
1782987236378431700,8.455431640625,0.06529401768743992,-0.01468594808159396,-0.008237411263026297
1782987236388506600,8.465506591796874,0.1521563085824251,-0.032194113977067174,0.02037871179652866
1782987236398580700,8.475580810546875,-0.0006938274830579757,0.015616671326756476,0.05610509611954912
1782987236408655600,8.485655517578126,0.005010521638393402,-0.023487094174604862,-0.17172281351350246
1782987236418729700,8.495729736328125,0.12298749724328517,0.001567157985176891,0.1749482235671021
1782987236428804600,8.5058046875,0.07838029375374317,-0.01475338729461655,0.015248148541618137
1782987236438878700,8.515878662109374,0.003267477363348007,-0.0209544338918291,-0.09384024928198195
1782987236448952600,8.52595263671875,0.07137538342773914,-0.0038646030062809583,0.05082650726265274
1782987236459027700,8.53602783203125,0.08874912755489349,0.006156787330377847,0.03584847176615148
1782987236469101600,8.5461015625,0.061522682455182075,-0.004275722824130207,-0.017492283339751884
1782987236479176700,8.5561767578125,0.056739539831876754,-0.015527769200596958,0.002196601295401342
1782987236489250600,8.56625048828125,0.06212766261100769,-0.010476477160397917,-0.021654987943195737
1782987236499325700,8.57632568359375,0.055395724007487296,-0.014767068760097027,-0.010058251748327165
1782987236509399600,8.586399658203124,0.07155833877921104,0.0002577193544246256,-0.00814660030757077
1782987236519473700,8.5964736328125,0.061384150767326354,0.0036733912831172343,-0.00024567272360436615
1782987236529548500,8.606548583984376,0.06527940464019776,0.009124459763243794,0.0034188091672724113
1782987236539622700,8.61662255859375,0.05361293224394321,0.010743347935657947,-0.013173159765312447
1782987236549697500,8.626697509765625,0.06603636048734188,0.0018544139613397418,-0.005184398634266108
1782987236559772000,8.63677197265625,0.057955929884314535,-0.013097582911606877,-0.0023825797210214657
1782987236569845800,8.646845703125,0.05391688362658024,-0.009570175970438867,-0.0015253738032188265
1782987236579921000,8.6569208984375,0.055120414197444914,0.003311937559582293,-0.0033417207764927298
1782987236589994800,8.666994873046875,0.05631634598374367,-0.005787351229786872,-0.004739769272459671
1782987236600070000,8.67706982421875,0.05571954913437366,0.009603329321369529,-0.011932548587070777
1782987236610143700,8.687143798828124,0.05137538245022297,0.0005649952053092419,-0.0026567661530571057
1782987236620219000,8.697218994140625,0.04763678044378757,0.0009489895542152226,0.002230736460443586
1782987236630292700,8.707292724609376,0.06110358026027679,-0.009860409354977308,-0.01002354119454976
1782987236640366800,8.717366943359375,0.04673252508044243,0.006462638409156352,-0.02649545481088571
1782987236650441700,8.727441650390626,0.059283963617682456,0.01927521210061386,-0.0710092306962004
1782987236660515800,8.737515869140625,0.04639233334064483,-0.016665303596854208,-0.06558429673775099
1782987236670590700,8.7475908203125,0.08784136506021022,0.004425287362653762,0.0700041955392342
1782987236680664800,8.757664794921874,0.08634089736938476,0.0006561623537912965,-0.027071921258280052
1782987236690739700,8.76773974609375,0.06254618028402328,-0.023230909190140665,-0.13530547408452256
1782987236700813800,8.777813720703126,0.05102291575074196,-0.011660681976284832,-0.10221950756795704
1782987236710887700,8.7878876953125,0.07345920396447181,-0.029079562153108415,-0.13535344141209496
1782987236720962800,8.797962890625,0.05281096821129322,-0.013340963213425129,-0.12916118090953677
1782987236731036700,8.80803662109375,0.06087853933274746,-0.024945458023063836,-0.1890755513852462
1782987236741111800,8.81811181640625,0.03483224392831325,-0.031937015677150335,-0.08982479396238922
1782987236751185700,8.828185546875,0.05189093075692653,-0.013595559029001742,-0.06817555533996783
1782987236761260800,8.8382607421875,0.07762684503793715,0.0014589849029667675,-0.1044945946267806
1782987236771334700,8.848334716796876,0.07641045498549938,0.0020761852195486426,-0.05211313127339817
1782987236781408800,8.85840869140625,0.07551146031916141,-0.02921979260770604,-0.08957397927278653
1782987236791483600,8.868483642578125,0.04303425508439541,0.043042895048577334,0.07695853558862581
1782987236801557800,8.878557861328124,0.1103688386887312,-0.03405051896609366,-0.046479344903817395
1782987236811632600,8.888632568359375,0.0472130020737648,0.012166092481464146,-0.01884556111223064
1782987236821706800,8.898706787109376,0.05602876121401786,0.009802048497553914,0.01683810744707007
1782987236831780600,8.908780517578125,0.0792243433624506,-0.0063978295446373516,0.10347494185599498
1782987236841855700,8.918855712890625,-0.0023345804274082184,0.0928199571903795,0.3192683403648436
1782987236851929600,8.9289296875,0.1327805769830942,0.0035232604890130456,0.22763183907167986
1782987236862004700,8.939004638671875,0.032683541461825366,0.047741629057750104,0.3506331273782998
1782987236872078600,8.94907861328125,0.07623860554993152,0.049300421073380854,0.31564496223591265
1782987236882153700,8.95915380859375,0.053044776967167855,-0.013818243602663278,-0.12229653757074847
1782987236892227600,8.9692275390625,0.06621288609802722,0.006966368413902819,0.018267861688975245
1782987236902301700,8.9793017578125,0.06741583214700221,0.0010064188298769294,-0.0004591830435441807
1782987236912376600,8.98937646484375,0.06128419752418995,-0.008747169149760156,0.0011175282212672753
1782987236922450700,8.99945068359375,0.058147068542242046,0.004195789455715567,0.01743073501139879
1782987236932525600,9.009525634765625,0.0587502951323986,-0.004544822089094669,-0.003315773484483361
1782987236942599700,9.019599609375,0.0792594146758318,-0.0015814057062380016,-0.008683250767807476
1782987236952674600,9.029674560546875,0.06474924328625202,-0.011746076971106231,-0.017314364923001264
1782987236962748700,9.039748779296875,0.07073942361176014,-0.0035116613827645775,0.011710288705094716
1782987236972822800,9.04982275390625,0.06849953573048115,-0.006024648850690573,0.014375585224479437
1782987236982897700,9.059897705078125,0.065512044352293,-0.002464600015245378,0.011166235823114401
1782987236992971800,9.0699716796875,0.0574345363587141,-0.0043466143695637584,0.01191035502157174
1782987237003046700,9.080046630859375,0.053093292284011835,-0.02101226502628997,0.0057454528833972285
1782987237013120800,9.090120849609375,0.05234802687466144,-0.018248645531851796,-0.0023257851995993404
1782987237023195600,9.100195556640625,0.07300152332484722,0.0006257854818366468,-0.005353814084152691
1782987237033269800,9.110269775390625,0.0761480046570301,-0.0002561119192279875,-0.012225809612334704
1782987237043344000,9.12034375,0.06987023956179618,0.01410402000779286,-0.0038818829346448183
1782987237053418800,9.130418701171875,0.05834872859418392,0.010777560732513666,0.002300961285596713
1782987237063492900,9.140492919921876,0.056849429947137826,-0.006533091563172638,0.006495878525055013
1782987237073567700,9.150567626953125,0.06148702661991119,-0.002923559296503663,0.011813776479032822
1782987237083641900,9.160641845703125,0.07435644506514072,-0.0147179506550543,0.008623195710219442
1782987237093716700,9.170716796875,0.06508300528526306,-0.008331446222029627,0.02188091935329139
1782987237103790800,9.180790771484375,0.056257893794775006,-0.0060906815579161045,-0.022519801778718828
1782987237113864700,9.19086474609375,0.061193596631288524,-0.001571870692912489,0.018262400062568483
1782987237123939800,9.20093994140625,0.06492927602827549,-0.02123310470273718,-0.02264055121471174
1782987237134013700,9.211013671875,0.06836743378341198,-0.012589158465433865,-0.02877149400106864
1782987237144088800,9.2210888671875,0.07345277422368526,-0.029319343992043286,-0.06686841369757894
1782987237154162700,9.23116259765625,0.040219782185554505,-0.040841896139271555,-0.1103496773305349
1782987237164237800,9.24123779296875,0.05503098234832286,-0.03807707106843591,-0.06974103282471188
1782987237174311700,9.251311767578125,0.05802314990162849,0.0008964739156886934,-0.03566426517250947
1782987237184385800,9.2613857421875,0.06220306593477726,-0.014408482847083359,-0.016378157218545675
1782987237194460700,9.271460693359375,0.05966156475841999,-0.02286052324147895,0.029287186154955996
1782987237204534800,9.28153466796875,0.046184828069806096,-0.010438903362676501,-0.007158121276472229
1782987237214609700,9.291609619140624,0.08119418213069439,0.015097908149659632,0.009890987156331538
1782987237224683800,9.301683837890625,0.07445873639583588,0.01341954487496987,0.04610800454050768
1782987237234757600,9.311757568359376,0.07026362279355526,0.03923844299800694,0.08072013487815856
1782987237244832800,9.321832763671875,0.08193477136492729,-0.027181729175150392,0.000053342189011164005
1782987237254906600,9.33190673828125,0.031200609427690505,0.0011327486232854426,-0.011965204181079752
1782987237264981800,9.341981689453124,0.08238134608864783,0.024364333666861054,0.09439205621215514
1782987237275055600,9.3520556640625,0.05993336743712425,0.010715217819716781,0.015090174651064443
1782987237285130800,9.362130859375,0.07654197241067887,0.010380999162979423,0.06568061041880864
1782987237295204600,9.37220458984375,0.07325228321552277,0.006403199839498847,0.03299873119110707
1782987237305278700,9.38227880859375,0.05724339770078659,0.013227931293006985,0.042121615485195066
1782987237315353600,9.392353515625,0.06741933927834033,-0.02726577246310189,-0.04549461731594056
1782987237325427700,9.402427734375,0.05918810202777385,0.004323598820157349,-0.007563384458981454
1782987237335502600,9.412502685546874,0.04482289206683635,0.0011121624929830431,0.009272958005976398
1782987237345576700,9.42257666015625,0.058734513041377064,-0.00045008185505867004,-0.02165774158928543
1782987237355652400,9.43265234375,0.05140577758848667,-0.00040244332104921336,0.0005048762156395242
1782987237365726200,9.442726318359375,0.06128595108985901,0.004651132007781416,0.002214817372104153
1782987237375800300,9.45280029296875,0.060682139977812764,0.0027473259467631576,-0.0026207038924098013
1782987237385875200,9.462875244140625,0.05125263285338878,-0.013175159926153718,-0.032666640559374356
1782987237395949300,9.47294921875,0.050047348716855046,0.005010448573157191,-0.0056528563962318
1782987237406024200,9.483024169921874,0.06156769064068794,0.005794274160917848,-0.01517887356453575
1782987237416098300,9.493098388671875,0.07397884392440318,-0.004569956530351192,0.00556495891707018
1782987237426173400,9.50317333984375,0.07022972052395343,-0.015366075832862406,-0.0034333628490101544
1782987237436247300,9.513247314453125,0.06169686997830867,-0.007886478933505714,-0.00534751677410677
1782987237446321200,9.523321044921875,0.06273965702950954,-0.01214612740566954,-0.010996984770009294
1782987237456396300,9.533396240234374,0.057940147793293,-0.0006751045162789524,-0.01818779132324271
1782987237466470100,9.54347021484375,0.04565817384719848,-0.003002268822211772,-0.01498191708717495
1782987237476545300,9.553545166015626,0.06973872213661671,-0.0035908275661990043,-0.0020820350050227716
1782987237486619100,9.563619140625,0.059411389389634126,0.008592855370882897,0.022669078622874803
1782987237496693200,9.573693359375,0.05866203232705593,0.0005399886282160878,0.011485393908037803
1782987237506768100,9.58376806640625,0.06868716725707054,-0.008670797711610794,0.008760435056709684
1782987237516842200,9.59384228515625,0.04713409161865711,0.006486220214143395,0.002078084915690124
1782987237526917000,9.603917236328124,0.0478752653747797,0.0000011142448522150516,0.0023403662808006626
1782987237536991200,9.6139912109375,0.06987608478069306,-0.0039055926037952302,0.011017443036148324
1782987237547066400,9.62406640625,0.05626432353556156,0.008272427777480334,0.010196029950934462
1782987237557140200,9.63414013671875,0.06643968059122562,-0.0024874511678703126,-0.0030312346217921003
1782987237567214300,9.64421435546875,0.07152209842205047,-0.0014439699969254433,-0.00639913558573462
1782987237577289200,9.654289306640624,0.05191898780763149,-0.0055567938769236205,-0.022430319697246886
1782987237587363300,9.66436328125,0.07676701333820819,-0.0003900770298205316,0.001783581781410612
1782987237597438200,9.674438232421876,0.05821136595010757,0.006433375782053917,0.0038571731850737703
1782987237607512300,9.68451220703125,0.06808218710124492,-0.0016357845082879065,-0.01146025946678128
1782987237617587200,9.694587158203126,0.06852583921551704,-0.0018193061153404413,0.006279938786011189
1782987237627661300,9.704661376953124,0.06972294004559516,0.0019103271333500741,0.009051143365283496
1782987237637735400,9.7147353515625,0.06209317581951618,-0.011256923480983822,0.0132923291655723
1782987237647810300,9.724810302734374,0.06927344271242618,0.00020818112427368758,-0.015520398744894191
1782987237657884400,9.734884521484375,0.06074468382000923,-0.0020113032897934317,-0.009155813882732764
1782987237667959600,9.74495947265625,0.07645955482423306,-0.008935330399312078,-0.0025846005325671282
1782987237678033400,9.755033447265625,0.06104629711508751,-0.00866409397618845,-0.01901166122702416
1782987237688108500,9.765108642578125,0.046235681474208826,0.002963854774273932,-0.0039680862136418
1782987237698182400,9.775182373046874,0.05686112038493156,-0.0025319844293408096,-0.009731773440050892
1782987237708256300,9.78525634765625,0.0673427669107914,-0.001244154842197895,0.00016166140169370918
1782987237718331400,9.795331298828126,0.060310968577861786,-0.006102719055581837,0.009913235520757735
1782987237728405200,9.8054052734375,0.07497720731198787,-0.0011184095706790686,0.011489417062606661
1782987237738480400,9.81548046875,0.061063832771778105,-0.013466964213270692,0.006204946454195306
1782987237748554200,9.82555419921875,0.06330722778439521,-0.01033473060214892,-0.005733072892436757
1782987237758629400,9.83562939453125,0.0562754294514656,0.0016722988600842653,-0.004633655716595239
1782987237768703200,9.845703125,0.05762333692908287,-0.008908972115349025,0.008717235235800034
1782987237778777300,9.85577734375,0.07258943539261818,-0.008834573438577353,-0.0027754286632407457
1782987237788852200,9.865852294921876,0.07244213587641715,-0.010691690813656896,-0.0065649617058923465
1782987237798927400,9.87592724609375,0.045211014601588245,0.002882131307572126,-0.0013331072007073089
1782987237809001500,9.88600146484375,0.05418810178339481,-0.0011983794717118144,0.001544667592155747
1782987237819076400,9.896076416015624,0.06107143155634403,0.0020956388386897742,-0.016128438507486135
1782987237829150500,9.906150390625,0.062414078336954115,0.00015124503895640372,-0.008241836276394314
1782987237839225300,9.916225341796874,0.07184300093948841,0.005003379511553794,0.005999550942052155
1782987237849299500,9.926299560546875,0.07453297067582607,-0.005450301295146346,0.0004480086289811879
1782987237859373300,9.936373291015625,0.05777414357662201,-0.00031423531463369725,-0.026375938350753858
1782987237869448400,9.946448486328125,0.06465279717445373,-0.00813873666152358,0.0025045849657617508
1782987237879522300,9.956522216796875,0.07243921326696873,0.0055818917855620384,-0.005555985592748038
1782987237889597400,9.966597412109374,0.0645195261836052,0.0011456446374766528,0.01162481151188258
1782987237899671300,9.97667138671875,0.06197334883213043,0.009791746299248187,-0.008331450788606889
1782987237909746400,9.986746337890626,0.0634597879976034,0.0035106202031485734,-0.021446962082548995
1782987237919820300,9.9968203125,0.07752689179480075,-0.00464420907665044,0.015538925348850898
1782987237929894400,10.006894287109375,0.06601005700230599,-0.0069944985298439856,0.0030669087233720347
1782987237939969300,10.01696923828125,0.05238777436316013,-0.012626823594700545,0.001439691114029847
1782987237950043400,10.02704345703125,0.0567243422627449,0.002179280267842114,-0.0018935951942577957
1782987237960118300,10.0371181640625,0.07408522690832614,-0.007119385284837335,0.01091365386811085
1782987237970192400,10.0471923828125,0.06810322988927364,0.009135255151893944,-0.008872562794829718
1782987237980267300,10.057267333984376,0.06675356884598732,0.007257515113893896,0.010199112390587106
1782987237990341400,10.06734130859375,0.05807458782792091,-0.004031301342695952,0.007428469500318169
1782987238000415200,10.077415283203125,0.05971943242549896,0.0026696028017438945,0.00803150429422967
1782987238010490400,10.087490478515624,0.06974164474606513,-0.008703804932069032,0.00019732180354185402
1782987238020564200,10.097564208984375,0.06225918003618717,-0.00796995596587658,-0.004837224597833119
1782987238030639400,10.107639404296876,0.05971650981605053,-0.004499485110025852,-0.0005607071892591193
1782987238040713200,10.117713134765625,0.07228548400998115,0.0014541991299949586,-0.009194072667043656
1782987238050787300,10.127787353515625,0.051934769898653026,0.0018805895822122693,0.009869569908967242
1782987238060862200,10.1378623046875,0.07153904955685138,-0.0004763853400945663,-0.00771126849707216
1782987238070936300,10.147936279296875,0.0716951169013977,0.009888594269845634,-0.0006299958660732954
1782987238081011200,10.15801123046875,0.04805354455113411,0.013676643174886703,0.006863195733795874
1782987238091085300,10.168085205078125,0.07244388944208621,-0.0049915429432876406,0.0035030716509325426
1782987238101160200,10.17816015625,0.05643032775223255,-0.005412416970171034,0.011682418884057551
1782987238111234300,10.188234375,0.07453530876338481,0.003924991424009204,0.017899334337259643
1782987238121308400,10.198308349609375,0.06734919665157794,-0.015182974350918083,-0.006789463777304627
1782987238131383300,10.20838330078125,0.05627309136390686,-0.0018946363738737999,-0.003927055516932159
1782987238141457400,10.21845751953125,0.0679436554133892,-0.011950349105242638,0.006376202234718948
1782987238151532300,10.2285322265625,0.06270926189124584,-0.00811051521403715,-0.006609161607222631
1782987238161606400,10.2386064453125,0.06031272214353084,0.00022578984620049593,-0.020720853464817626
1782987238171681300,10.248681396484375,0.06689268505573272,-0.01292781583527103,-0.00013738547696266323
1782987238181755400,10.25875537109375,0.06764087307453155,0.000562949378695339,0.0014172829193994402
1782987238191829500,10.26882958984375,0.06584288374185562,0.0033442506602965293,-0.00014404354661237448
1782987238201904400,10.278904296875,0.04938450089395046,-0.0037569413807243108,-0.004830475196638144
1782987238211978500,10.288978515625,0.06779226424396037,-0.0015794146785512565,-0.010928358246898279
1782987238222053400,10.299053466796876,0.060307461446523665,0.0017648542480543255,0.003379340239986777
1782987238232127500,10.30912744140625,0.04863806644082069,-0.0021848880247212943,-0.0029265184385702013
1782987238242202400,10.319202392578125,0.061958735784888266,-0.012260383168794214,-0.00421528874062933
1782987238252276500,10.3292763671875,0.06630465603470802,-0.01969699944294989,-0.002328100454271771
1782987238262350300,10.339350341796875,0.07319207746088505,-0.004465345378406345,-0.012642482388135977
1782987238272425500,10.349425537109376,0.05882862106561661,0.003019895810447633,0.002702578056161292
1782987238282499300,10.359499267578125,0.0592775338768959,-0.003609166940487921,0.001961102905939333
1782987238292574500,10.369574462890625,0.06107786129713058,0.004472250043228269,0.015502726090885698
1782987238302648300,10.3796484375,0.026226912668347358,0.01214079364342615,-0.014861724773608148
1782987238312723500,10.389723388671875,0.046727848905324935,-0.012818309312500059,-0.01647424257074017
1782987238322797300,10.39979736328125,0.048965398699045176,0.006303136998508125,-0.032229176157293836
1782987238332871400,10.409871337890625,0.05899579432606697,-0.0018716756233945488,-0.013259038817323744
1782987238342946300,10.4199462890625,0.05750467898547649,-0.014680997911840677,0.008623013047128916
1782987238353020400,10.4300205078125,0.06933481751084328,-0.009590141046233475,-0.0005964315231889486
1782987238363095600,10.440095458984375,0.08984802870750427,0.006550207094755023,0.02200453659980558
1782987238373169400,10.45016943359375,0.0877595319956541,-0.007967654410935937,-0.006443129991088062
1782987238383244500,10.46024462890625,0.09524141218364238,-0.016079229070898145,0.0020623667567502705
1782987238393318400,10.470318359375,0.09149521139264107,0.006920501711871475,-0.008777938747359439
1782987238403392500,10.480392578125,0.06753507461249827,-0.04990293527748436,-0.11933545014229602
1782987238413467400,10.49046728515625,0.019039046990871427,0.06406120622316375,0.24323011622522026
1782987238423541500,10.50054150390625,0.027559038054943082,-0.038983646253030746,-0.15477511277869344
