time,seconds_elapsed,z,y,x
1782987227996510200,0.07351025390625,0.0005304340738803148,0.0003610835410654545,0.0015764248091727495
1782987228006585000,0.083585205078125,-0.00019170367158949375,-0.00011495128273963928,0.0012657339684665203
1782987228016659200,0.0936591796875,0.00024478835985064507,0.0003926472272723913,-0.00037876798887737095
1782987228026734000,0.103734130859375,0.00005603930912911892,-0.001854781643487513,-0.0016796768177300692
1782987228036808200,0.11380810546875,0.00046456814743578434,0.0007939983624964952,0.000920899910852313
1782987228046883000,0.123883056640625,-0.0014479425735771656,-0.00010245689190924168,-0.0005827455315738916
1782987228056957200,0.133957275390625,0.0006924399640411139,0.0001055360771715641,-0.0008264247444458306
1782987228067031000,0.144031005859375,0.0006245467811822891,0.003241512458771467,0.001145188114605844
1782987228077106200,0.154106201171875,-0.0013176965294405818,-0.0024046553298830986,0.00013079009659122676
1782987228087180000,0.164179931640625,-0.0014437854988500476,-0.005079060792922974,-0.0009725604322738945
1782987228097255200,0.174255126953125,0.0004883378278464079,-0.0007399728056043386,0.00047513394383713603
1782987228107329000,0.1843291015625,-0.0028428202494978905,0.001851353794336319,0.0007417654851451516
1782987228117404200,0.194404052734375,-0.002213781699538231,-0.01829386316239834,-0.002276661340147257
1782987228127478000,0.20447802734375,-0.00005917262751609087,-0.014106168411672115,0.0001583664707140997
1782987228137552400,0.214552490234375,-0.0007180387037806213,0.0059490324929356575,0.001117903389967978
1782987228147627000,0.224626953125,-0.00034121854696422815,-0.003120200475677848,0.0013777529820799828
1782987228157701400,0.234701416015625,-0.0022099586203694344,-0.003469340968877077,0.0000368513647117652
1782987228167776000,0.24477587890625,0.0017666727071627975,0.004508377984166145,-0.0003297496004961431
1782987228177850400,0.254850341796875,-0.0003777046222239733,0.001444145105779171,0.0010532299056649208
1782987228187925000,0.264925048828125,0.0036680158227682114,0.0022429635282605886,0.000803755596280098
1782987228197999400,0.274999267578125,0.0005598408170044422,0.02334904856979847,0.0006993596907705069
1782987228208073200,0.2850732421875,-0.0001555446069687605,0.007089301012456417,0.0006212065927684307
1782987228218148400,0.2951484375,0.00021889584604650736,-0.007423595525324345,-0.0005865369457751513
1782987228228222200,0.30522216796875,0.0008276369189843535,-0.0024353782646358013,-0.0028520426712930202
1782987228238297300,0.31529736328125,0.000653466209769249,0.012139836326241493,0.0011131376959383488
1782987228248371200,0.32537109375,-0.0010703422594815493,0.004389601293951273,0.0026523061096668243
1782987228258446300,0.3354462890625,-0.0009161452762782574,-0.01430126279592514,0.000020836727344430983
1782987228268520200,0.345520263671875,0.0014389054849743843,-0.010421350598335266,0.0006881345761939883
1782987228278594300,0.35559423828125,0.0001656480599194765,0.0077232979238033295,-0.001127608702518046
1782987228288669200,0.365669189453125,0.00010386318899691105,0.010510309599339962,-0.0009328204905614257
1782987228298743300,0.375743408203125,0.0018405105220153928,-0.0030129561200737953,-0.001382894697599113
1782987228308818200,0.385818115234375,0.0024716462939977646,-0.003225271822884679,0.0002044030698016286
1782987228318892300,0.395892333984375,-0.00009031477384269238,-0.00026863045059144497,0.00032025057589635253
1782987228328967200,0.40596728515625,-0.0012705848785117269,0.0016080799978226423,0.0009103537304326892
1782987228339041300,0.416041259765625,0.0012586191296577454,0.00063149887137115,-0.0004177647060714662
1782987228349115600,0.42611572265625,0.002357765333727002,-0.004277147818356752,-0.0016067239921540022
1782987228359190500,0.4361904296875,0.0003489428199827671,-0.002476318506523967,0.002108918270096183
1782987228369264600,0.4462646484375,0.001879794173873961,0.0017951333429664373,-0.0005741681670770049
1782987228379339500,0.456339599609375,-0.0001814924762584269,0.0010510461870580912,-0.00019306980539113283
1782987228389413600,0.46641357421875,-0.0025462228804826736,0.00043559237383306026,-0.0024118637666106224
1782987228399488500,0.476488525390625,-0.00007081474177539349,-0.0027117314748466015,0.000029455972253344953
1782987228409562600,0.486562744140625,-0.000897750782314688,0.0004278481937944889,-0.00359721714630723
1782987228419636500,0.496636474609375,0.0014948331518098712,-0.0005548582412302494,-0.00007705084863118827
1782987228429711600,0.506711669921875,0.0012033849488943815,-0.00307657103985548,-0.0016892775893211365
1782987228439785500,0.516785400390625,0.0002449133899062872,-0.001813966315239668,0.0002801299560815096
1782987228449860600,0.526860595703125,0.0009958213195204735,-0.0018102377653121948,-0.0006673460593447089
1782987228459934500,0.5369345703125,-0.0017392451409250498,0.00170806422829628,-0.0005051596090197563
1782987228470009600,0.547009521484375,0.00007721048314124346,0.00013844342902302742,-0.0012541672913357615
1782987228480083500,0.55708349609375,-0.0001432992867194116,-0.002177175134420395,0.0009978017769753933
1782987228490157600,0.567157470703125,-0.0013182469410821795,-0.0012161212507635355,0.0009939237497746944
1782987228500232400,0.577232421875,-0.0016338315326720476,-0.0003785570152103901,-0.0014521896373480558
1782987228510306600,0.587306640625,-0.0012918927241116762,0.0025257705710828304,0.00003300167009001598
1782987228520381400,0.59738134765625,0.0009206614922732115,-0.0007493847515434027,0.000041790102841332555
1782987228530455600,0.60745556640625,0.0008286796510219574,-0.0009508357616141438,-0.0010116752237081528
1782987228540530400,0.617530517578125,0.00066356360912323,-0.000766811310313642,-0.0001594636996742338
1782987228550604500,0.6276044921875,0.0007886664243414998,0.0005337607581168413,-0.0036648879759013653
1782987228560678400,0.637678466796875,0.00208083214238286,-0.001650830265134573,0.0008792635635472834
1782987228570753500,0.64775341796875,0.0005722998175770044,-0.0004010433331131935,-0.0014221282908692956
1782987228580827400,0.657827392578125,0.0005035902140662074,-0.002871924079954624,0.002435460453853011
1782987228590902500,0.667902587890625,0.0013550460571423173,-0.0009315924253314734,-0.0002088199253194034
1782987228600976400,0.677976318359375,0.0005054976791143417,-0.0012948475778102875,0.00047854194417595863
1782987228611051500,0.688051513671875,0.00020630902145057917,-0.0019803226459771395,0.0007818519370630383
1782987228621125400,0.69812548828125,-0.0007212699856609106,0.000151005107909441,-0.0013481442583724856
1782987228631199500,0.708199462890625,0.00016544770915061235,0.000016376608982682228,-0.000506832089740783
1782987228641274400,0.7182744140625,0.0008592010708525777,0.0020963053684681654,-0.00117954658344388
1782987228651348500,0.728348388671875,0.0010061883367598057,0.00023646419867873192,-0.0011077827075496316
1782987228661423400,0.73842333984375,-0.0008321916684508324,-0.0005076229572296143,-0.0018377553205937147
1782987228671497500,0.74849755859375,0.0002773161977529526,-0.001984583679586649,-0.0015187219250947237
1782987228681572400,0.758572265625,-0.00008087896276265383,0.0007249163463711739,-0.0022337804548442364
1782987228691646500,0.768646484375,-0.0006071956013329327,-0.0015090582892298698,0.0025430000387132168
1782987228701720600,0.778720458984375,0.0023212162777781487,-0.0006331446347758174,0.001281993230804801
1782987228711795500,0.78879541015625,-0.001557726296596229,0.0007657562382519245,0.000002207074430771172
1782987228721869600,0.79886962890625,0.0018585767829790711,0.0006222117226570845,-0.0012361628469079733
1782987228731944400,0.8089443359375,0.00045822723768651485,0.0005973407533019781,0.0022396096028387547
1782987228742018600,0.8190185546875,-0.00029251788510009646,0.0012399617116898298,-0.00017880687664728612
1782987228752093400,0.829093505859375,-0.0021530729718506336,0.0006585586816072464,-0.0011474312050268054
1782987228762167600,0.83916748046875,-0.0006680942606180906,0.00011101271957159042,0.0006190435960888863
1782987228772241700,0.84924169921875,-0.00010584690608084202,0.0005084723234176636,-0.0021566683426499367
1782987228782316500,0.859316650390625,-0.000894142605829984,0.0009774549398571253,-0.0021220468915998936
1782987228792390700,0.869390625,0.00024722039233893156,-0.0015539606101810932,-0.0003124962095171213
1782987228802465500,0.879465576171875,-0.0016385640483349562,0.0011273098643869162,-0.00019664870342239738
1782987228812539600,0.88953955078125,-0.0013915402814745903,-0.0004945551045238972,-0.00017270803800784051
1782987228822614500,0.899614501953125,0.0011869323207065463,-0.002832544269040227,0.0008099984261207283
1782987228832688600,0.909688720703125,-0.00032260915031656623,-0.0009466224582865834,0.001967082731425762
1782987228842762500,0.919762451171875,0.000059554469771683216,-0.0012877733679488301,0.002745791105553508
1782987228852837600,0.929837646484375,0.0022092508152127266,0.001055120024830103,-0.00004636596713680774
1782987228862911500,0.939911376953125,0.0007772688986733556,-0.001280472381040454,0.0013573862379416823
1782987228872986600,0.949986572265625,-0.0005423150141723454,0.0009801187552511692,-0.0027501005679368973
1782987228883060500,0.960060546875,-0.00011141551658511162,-0.0006462737219408154,-0.0016994834877550602
1782987228893135600,0.970135498046875,0.0005998953711241484,0.0013112998567521572,-0.0003627693804446608
1782987228903209500,0.98020947265625,0.0010374528355896473,-0.0006623688386753201,0.0007903793593868613
1782987228913283600,0.99028369140625,-0.00005587446503341198,-0.0003918812144547701,-0.0003889533691108227
1782987228923358500,1.0003583984375,0.00003973301500082016,0.0009799129329621792,0.000039549224311485887
1782987228933432600,1.0104326171875,0.0005445851711556315,0.00014739669859409332,-0.0008042640401981771
1782987228943507500,1.020507568359375,0.0006971842376515269,-0.004046549554914236,-0.0006551270489580929
1782987228953581600,1.03058154296875,0.002497625770047307,0.001252159709110856,0.0007071126601658762
1782987228963656400,1.040656494140625,0.0008547217585146427,-0.00008980720303952694,0.00486350804567337
1782987228973730600,1.05073046875,-0.0000694680493324995,0.00008057872764766216,0.0007357787108048797
1782987228983804400,1.060804443359375,0.0011353460140526295,-0.002790841506794095,0.001281460514292121
1782987228993879600,1.070879638671875,0.00041974650230258703,-0.0013070551212877035,-0.00021568404918070883
1782987229003953400,1.080953369140625,0.001115630497224629,-0.0009091788670048118,0.001644267700612545
1782987229014028500,1.091028564453125,-0.00038278952706605196,-0.0006273703183978796,0.0006378669058904052
1782987229024102400,1.101102294921875,-0.00031700945692136884,-0.0005677154986187816,-0.0001296561094932258
1782987229034177500,1.111177490234375,0.00221917312592268,-0.0003465625923126936,0.0009698896901682019
1782987229044251400,1.12125146484375,-0.000331070099491626,0.00009845150634646416,-0.001162769622169435
1782987229054325500,1.131325439453125,-0.0001930368598550558,-0.00011670216917991638,0.003111820202320814
1782987229064400400,1.141400390625,0.001558524090796709,-0.0011819667415693402,0.001944290241226554
1782987229074474500,1.151474609375,-0.000615486700553447,-0.0011639944277703762,0.0034720704425126314
1782987229084549400,1.16154931640625,-0.000856236438266933,-0.0020806544926017523,-0.0011405246332287788
1782987229094623500,1.17162353515625,0.00033457321114838123,0.000830724835395813,-0.0002885430585592985
1782987229104698400,1.181698486328125,0.0000892961397767067,-0.0012518670409917831,0.00047844735672697425
1782987229114772500,1.1917724609375,-0.000006166170351207256,-0.00025492068380117416,0.002610292285680771
1782987229124846300,1.201846435546875,0.0003834543749690056,0.001794914249330759,0.0014731223927810788
1782987229134921500,1.21192138671875,-0.00098757806699723,0.00017963582649827003,-0.002489587292075157
1782987229144995300,1.221995361328125,-0.0004839742905460298,0.0016768649220466614,0.002485730219632387
1782987229155070500,1.232070556640625,0.0007762752939015627,-0.0013661733828485012,-0.00006258681241888553
1782987229165144300,1.242144287109375,0.0006154204020276666,-0.0006519135786220431,-0.0009081404423341155
1782987229175219500,1.252219482421875,0.0007993282051756978,0.000017186161130666733,0.0023700904566794634
1782987229185293300,1.262293212890625,-0.00008164544124156237,-0.002021996071562171,-0.0008520680130459368
1782987229195367700,1.27236767578125,0.0005572716472670436,-0.0023890186566859484,0.0029692710377275944
1782987229205442300,1.2824423828125,-0.00036498106783255935,0.0009346064180135727,0.0011343531077727675
1782987229215516700,1.2925166015625,0.0006601862842217088,0.001940375193953514,-0.00015981317847035825
1782987229225591300,1.30259130859375,0.00012489082291722298,-0.0005044067511335015,7.754133548587561e-7
1782987229235665700,1.312665771484375,-0.0012801712146028876,-0.0012431229697540402,0.002247391501441598
1782987229245740300,1.322740234375,0.0015076259151101112,-0.0018860100535675883,0.0017222161404788494
1782987229255814700,1.332814697265625,-0.001806747168302536,-0.0018799200188368559,-0.00018128201190847903
1782987229265888500,1.342888427734375,-0.0014948910102248192,0.002350511262193322,-0.0008699754253029823
1782987229275963600,1.352963623046875,-0.00045883236452937126,0.0009567062370479107,-0.0004523281822912395
1782987229286037500,1.36303759765625,-0.0008162285666912794,0.0006043701432645321,-0.0005585883045569062
1782987229296112600,1.373112548828125,-0.000741158495657146,-0.0006151084089651704,0.0012156072771176696
1782987229306186500,1.3831865234375,0.00037257547955960035,-0.0004518565256148577,-0.0004470041603781283
1782987229316261600,1.39326171875,0.0027814945206046104,0.027567008510231972,0.008817949332296848
1782987229326335500,1.40333544921875,0.0003478981088846922,0.021695535629987717,0.004833327606320381
1782987229336409600,1.41340966796875,-0.00098697398789227,-0.002116552321240306,-0.0038136164657771587
1782987229346484200,1.423484130859375,-0.0014759303303435445,-0.00996861606836319,-0.0003118261229246855
1782987229356558000,1.43355810546875,-0.0006665310356765985,0.00994100235402584,0.002778164576739073
1782987229366633200,1.44363330078125,-0.0024668278638273478,0.00879318080842495,-0.001622709329240024
1782987229376707000,1.45370703125,0.0023375803139060736,-0.008366677910089493,0.001518390141427517
1782987229386782200,1.4637822265625,0.00045978534035384655,-0.029140133410692215,-0.0013181427493691444
1782987229396856000,1.47385595703125,0.0012091926764696836,-0.030320579186081886,-0.0022562770172953606
1782987229406930000,1.483929931640625,-0.0003841766156256199,-0.011071516200900078,0.0010881206253543496
1782987229417005000,1.494005126953125,-0.0006236910121515393,0.01846309006214142,-0.0009588878601789474
1782987229427079200,1.5040791015625,-0.0005509867332875729,0.014188716188073158,-0.001216681906953454
1782987229437154000,1.514154052734375,-0.0007008796674199402,-0.011261487379670143,-0.00033785737468861043
1782987229447228200,1.524228271484375,-0.002208761405199766,-0.01479630172252655,-0.00184014649130404
1782987229457303000,1.534302978515625,-0.000009311363101005554,0.0028548864647746086,-0.0006685489206574857
1782987229467377200,1.544377197265625,0.0003664606483653188,0.012655319646000862,0.002418587449938059
1782987229477451000,1.554450927734375,-0.0002489715116098523,-0.0002964662853628397,-0.0008583191083744168
1782987229487526100,1.564526123046875,-0.00016454921569675207,-0.009993035346269608,0.001000567339360714
1782987229497600000,1.57460009765625,-0.0009717252105474472,-0.006548632867634296,-0.0014600638533011079
1782987229507675100,1.584675048828125,-0.0011219274019822478,0.005023067817091942,-0.0007231670897454023
1782987229517749000,1.5947490234375,-0.002542858710512519,0.00842332374304533,-0.0008642345783300698
1782987229527824100,1.60482421875,0.0007285682950168848,-0.004874637816101313,-0.0008746209205128253
1782987229537898000,1.61489794921875,-0.0012065768241882324,-0.007695862092077732,0.00023787576355971396
1782987229547972000,1.62497216796875,0.001133276498876512,0.0009165345691144466,0.002586783841252327
1782987229558047000,1.635046875,0.00016209459863603115,0.0054330588318407536,0.00045209008385427296
1782987229568121000,1.64512109375,-0.000314078526571393,0.00033789873123168945,-0.0017905578715726733
1782987229578196000,1.655196044921875,0.00024661736097186804,-0.0035500801168382168,0.0021056453697383404
1782987229588270000,1.66527001953125,-0.0006711079622618854,-0.003407068317756057,0.0014611604856327176
1782987229598345000,1.675344970703125,0.00011711101979017258,0.0009344581048935652,0.0016425607027485967
1782987229608419000,1.685419189453125,0.0013789167860522866,0.0022860122844576836,0.0013275088276714087
1782987229618493200,1.6954931640625,-0.0011889728484675288,-0.001867014216259122,0.0003512711264193058
1782987229628568000,1.705568115234375,-0.0009072103421203792,-0.003553860355168581,-0.0011603391030803323
1782987229638642200,1.71564208984375,-0.00046265748096629977,-0.0013035231968387961,0.0012343705166131258
1782987229648717000,1.725717041015625,0.00006358313839882612,0.0017087783198803663,-0.002438394818454981
1782987229658791200,1.735791259765625,0.0013822581386193633,0.0012396103702485561,0.0012734464835375547
1782987229668866000,1.745865966796875,-0.0007120516966097057,-0.0041586169973015785,0.00138476665597409
1782987229678940200,1.755940185546875,0.0002813794417306781,-0.0015206527896225452,-0.001001472701318562
1782987229689014300,1.76601416015625,0.00016206980217248201,0.0031396124977618456,-0.0014392964076250792
1782987229699089200,1.776089111328125,0.0007156450301408768,0.0017432249151170254,-0.000057232500694226474
1782987229709163300,1.786163330078125,-0.0006180659984238446,-0.0005827802233397961,0.001541196834295988
1782987229719238100,1.796238037109375,0.00047589896712452173,-0.001860254444181919,-0.0010574721964076161
1782987229729312300,1.806312255859375,0.0004743010504171252,0.00008917949162423611,-0.0003205755492672324
1782987229739387100,1.81638720703125,-0.0016939687775447965,-0.0006227726116776466,0.001500351121649146
1782987229749461200,1.826461181640625,0.0006831688806414604,0.0018270693253725767,-0.00041819008765742183
1782987229759535000,1.83653515625,0.0005156494444236159,-0.00013979128561913967,0.0005493268836289644
1782987229769610200,1.8466103515625,-0.002800518646836281,-0.0004545769188553095,-0.004075785167515278
1782987229779684000,1.85668408203125,-0.0001655637752264738,0.0031125866807997227,-0.0021479311399161816
1782987229789759200,1.86675927734375,-0.0002664975472725928,-0.0020523478742688894,-0.001390794524922967
1782987229799833000,1.8768330078125,0.0013731010258197784,0.0018603589851409197,0.0015004710294306278
1782987229809908200,1.886908203125,0.0013645789586007595,0.0015841887798160315,0.00364910950884223
1782987229819982000,1.896982177734375,0.0005726105300709605,-0.002811023034155369,0.0012915224069729447
1782987229830056200,1.90705615234375,-0.001755791250616312,0.0016234065406024456,0.0002102790749631822
1782987229840131000,1.917131103515625,-0.0015987791121006012,0.0010136337950825691,-0.0011693475535139441
1782987229850205200,1.927205078125,0.0007429384859278798,0.0007861999329179525,-0.0007629492902196944
1782987229860280000,1.937280029296875,0.0011758083710446954,0.003361535957083106,-0.0008387095294892788
1782987229870354200,1.947354248046875,0.0003909748047590256,0.0007596276700496674,-0.0009276591590605676
1782987229880429000,1.957428955078125,0.001239353441633284,0.00015019206330180168,0.0014240159653127193
1782987229890503200,1.967503173828125,-0.000024316483177244663,0.0009518035221844912,0.001125741982832551
1782987229900577000,1.977576904296875,-0.002125696511939168,-0.002804841846227646,0.00023026247799862176
1782987229910652200,1.987652099609375,-0.0003557597519829869,-0.0009824407752603292,-0.002775647444650531
1782987229920726000,1.99772607421875,0.0005658227019011974,0.0010742463637143373,-0.003114513121545315
1782987229930801200,2.00780126953125,-0.0007620294345542789,0.0007277692202478647,-0.0007943672244437039
1782987229940875000,2.017875,-0.00028260209364816546,0.0005974750965833664,-0.0005247790832072496
1782987229950950100,2.0279501953125,-0.00010177341755479574,-0.00028589554131031036,0.00008668267400935292
1782987229961024000,2.03802392578125,-0.0021931955125182867,-0.001504974439740181,-0.002509978599846363
1782987229971098000,2.04809814453125,-0.000002212938852608204,-0.002459717681631446,-0.0021459246054291725
1782987229981173000,2.058173095703125,-0.0005150453071109951,-0.0000080806203186512,0.000912252115085721
1782987229991247000,2.0682470703125,0.002293257974088192,-0.0016070425044745207,-0.00014928390737622976
1782987230001322000,2.078322021484375,-0.0010515861213207245,-0.0009046512423083186,-0.003212218638509512
1782987230011396000,2.08839599609375,-0.001109643024392426,-0.0013320886064320803,0.0019010505639016628
1782987230021470000,2.098469970703125,0.0011353956069797277,-0.0008234597044065595,-0.000602436251938343
1782987230031545000,2.108545166015625,-0.0008776879403740168,-0.0009869778295978904,0.0005049061146564782
1782987230041619000,2.118618896484375,0.0003909460501745343,-0.0012878451962023973,-0.00022661263938061893
1782987230051694000,2.128694091796875,0.0003374165389686823,0.0007710445206612349,-0.0003773475473280996
1782987230061768000,2.138767822265625,-0.00028915342409163713,-0.00014632334932684898,0.0004246330645401031
1782987230071843000,2.148843017578125,-0.00017224065959453583,0.00017831590957939625,-0.0007508862181566656
1782987230081917000,2.1589169921875,-0.001742950757034123,-0.00048127840273082256,-0.00028226900030858815
1782987230091991300,2.1689912109375,-0.001177827944047749,-0.0014152489602565765,0.0003734012716449797
1782987230102066000,2.17906591796875,-0.0003156724851578474,-0.0015660116914659739,0.00042247824603691697
1782987230112140300,2.189140380859375,-0.0014025085838511586,0.0012268454302102327,-0.00015888980124145746
1782987230122215000,2.19921484375,0.0010166548890993,-0.0015537147410213947,-0.00040529377292841673
1782987230132289300,2.209289306640625,-0.001344769960269332,-0.001034132088534534,0.0005475852522067726
1782987230142364000,2.219364013671875,-0.0016198784578591585,0.0008512686472386122,0.00020719677559100091
1782987230152438300,2.229438232421875,-0.0002757810871116817,0.0015048084314912558,-0.0011669943341985345
1782987230162512100,2.23951220703125,-0.00046332302736118436,-0.0023084392305463552,0.0022823617327958345
1782987230172587300,2.249587158203125,-0.0005669200327247381,-0.0010516935726627707,0.0011182940797880292
1782987230182661000,2.2596611328125,0.0009152563288807869,-0.00183185376226902,0.0009837821125984192
1782987230192736300,2.269736328125,-0.00035294092958793044,0.001509348163381219,-0.0005392796592786908
1782987230202810000,2.27981005859375,-0.00012511026579886675,0.0011617508716881275,-0.0012600908521562815
1782987230212885200,2.28988525390625,0.0008283013012260199,0.0009843844454735518,0.0009729696903377771
1782987230222959000,2.299958984375,0.0013688286999240518,-0.00019780872389674187,0.0006599589833058417
1782987230233033200,2.310033203125,-0.00019098480697721243,-0.001343234209343791,-0.0008252859697677195
1782987230243108000,2.320108154296875,0.0013655287912115455,0.00015952624380588531,-0.0015852878568693995
1782987230253182200,2.33018212890625,0.00022090214770287275,0.0010498210322111845,0.0011897259391844273
1782987230263257000,2.340257080078125,-0.00015274074394255877,-0.0008647630456835032,0.001147962175309658
1782987230273331200,2.350331298828125,-0.00017777446191757917,-0.0015127100050449371,0.0006648647831752896
1782987230283406000,2.360406005859375,0.00037296395748853683,-0.00030496111139655113,-0.00034915548167191446
1782987230293480200,2.370480224609375,-0.0001277102855965495,0.0016870833933353424,0.0017179901478812099
1782987230303554000,2.380553955078125,0.0004597047809511423,0.0016263569705188274,0.00026972717023454607
1782987230313629200,2.390629150390625,-0.0005565574974752963,-0.00348877627402544,-0.0003483925247564912
1782987230323703000,2.400703125,-0.0018036486580967903,-0.0002984851598739624,-0.0013888481771573424
1782987230333778200,2.410778076171875,-0.00032958900555968285,0.000681558158248663,0.001421053078956902
1782987230343852000,2.42085205078125,0.00152625422924757,-0.0012465239269658923,-0.002384479157626629
1782987230353927200,2.43092724609375,0.001162999076768756,-0.0018422730499878526,-0.0008451721514575183
1782987230364001000,2.4410009765625,-0.0015821573324501514,0.0017673852853477001,-0.0003786322777159512
1782987230374075100,2.4510751953125,0.0024743694812059402,-0.0004454351728782058,0.0009982220362871885
1782987230384150000,2.46114990234375,-0.003352668136358261,0.0012324901763349771,-0.0016441246261820197
1782987230394224000,2.47122412109375,-0.0008532913052476943,0.00047561991959810257,0.002252346370369196
1782987230404299000,2.481299072265625,-0.00018400989938527346,-0.0012004111194983125,-0.0024086879566311836
1782987230414373000,2.491373046875,0.0002857716754078865,0.0010784559417515993,-0.00032103608828037977
1782987230424448000,2.501447998046875,0.001801718259230256,-0.0005225525237619877,-0.002342433203011751
1782987230434522000,2.511522216796875,-0.0003778127720579505,0.0006814626976847649,0.00011726251250365749
1782987230444596000,2.521595947265625,0.0009287053253501654,0.0001315232366323471,0.001148678595200181
1782987230454671000,2.531671142578125,0.0006416166434064507,0.0009059703443199396,0.00015798272215761244
1782987230464745000,2.541744873046875,-0.001051274361088872,0.0005446362774819136,0.002406472573056817
1782987230474820000,2.551820068359375,0.00013276701793074608,-0.00113182351924479,-0.0005957090761512518
1782987230484894000,2.56189404296875,-0.0007171934703364968,-0.0008211109088733792,-0.002447543665766716
1782987230494968000,2.571968017578125,0.0001443391665816307,0.00046306545846164227,-0.0024131890386343002
1782987230505043000,2.58204296875,-0.0005195142002776265,0.00036639790050685406,-0.0013560598017647862
1782987230515117000,2.592116943359375,-0.0007301702862605453,-0.000294332392513752,-0.0012455385876819491
1782987230525192000,2.60219189453125,0.0023288088850677013,-0.0014631346566602588,0.0015125649515539408
1782987230535266000,2.61226611328125,0.0011871119495481253,0.000152072636410594,-0.00036309947608970106
1782987230545341000,2.6223408203125,0.0007126841228455305,0.00010163243860006332,-0.0008550536585971713
1782987230555415000,2.6324150390625,0.00004236644599586725,-0.0010661636479198933,0.0015487155178561807
1782987230565489200,2.6424892578125,-0.00036362698301672935,0.00040134252049028873,-0.0006050011143088341
1782987230575564000,2.65256396484375,-0.0010480594355612993,-0.0007776388665661216,-0.0005496073863469064
1782987230585638100,2.66263818359375,-0.0005145928589627147,0.0008472066838294268,-0.0005564319435507059
1782987230595713000,2.672713134765625,-0.002746321726590395,0.00015718163922429085,-0.0004259370325598866
1782987230605787100,2.682787109375,0.0003579050535336137,-0.0005737887695431709,0.0003772241179831326
1782987230615862000,2.692862060546875,0.00006549002137035131,-0.0003990854602307081,0.00008986902685137466
1782987230625936100,2.70293603515625,-0.00038862338988110423,0.0006216280162334442,-0.0011958456598222256
1782987230636010200,2.71301025390625,0.0006052682874724269,0.003063480369746685,-0.00212662061676383
1782987230646085000,2.723085205078125,0.001970435492694378,-0.0004969153087586164,-0.0008366897818632424
1782987230656159200,2.7331591796875,-0.0003273396869190037,-0.0017270294483751059,-0.0009528036462143064
1782987230666234000,2.743234130859375,-0.00013120588846504688,-0.001719574211165309,-0.0019468117970973253
1782987230676308200,2.75330810546875,-0.00029765343060716987,-0.00046868750359863043,0.0014417943311855197
1782987230686383000,2.763383056640625,-0.0009646409307606518,0.0021416128147393465,-0.0007538216887041926
1782987230696457200,2.773457275390625,0.00027878896798938513,-0.0026771107222884893,0.0002725605736486614
1782987230706531000,2.783531005859375,-0.00047810940304771066,0.0011269182432442904,-0.0010981102241203189
1782987230716606200,2.793606201171875,-0.001276525086723268,-0.0015522218309342861,-0.0011633577523753047
1782987230726680000,2.80368017578125,-0.0008570863865315914,-0.0011372085427865386,0.00020302037592045963
1782987230736755200,2.813755126953125,-0.0005321807111613452,0.00021487846970558167,0.0007654799846932292
1782987230746829000,2.8238291015625,-0.00014752720016986132,0.0003388070035725832,-0.0014093017671257257
1782987230756904200,2.833904296875,0.0004431619308888912,-0.0019552400335669518,-0.0009983760537579656
1782987230766978000,2.84397802734375,-0.0005671366234309971,-0.0005016997456550598,0.0016715085366740823
1782987230777052200,2.85405224609375,-0.00031972897704690695,0.00034598447382450104,0.0005122345755808055
1782987230787127000,2.864126953125,-0.0023155556991696358,-0.0005090134218335152,-0.00025742838624864817
1782987230797201200,2.874201171875,-0.0013866451336070895,-0.0018083697650581598,0.0004379229503683746
1782987230807276000,2.884276123046875,-0.0013235362712293863,0.002217972418293357,0.0024645766243338585
1782987230817350100,2.89435009765625,0.00019206875003874302,-0.0010641071712598205,-0.0025094093289226294
1782987230827425300,2.90442529296875,0.0021690898574888706,-0.0015067803906276822,0.00045498093822970986
1782987230837499100,2.9144990234375,0.0019674887880682945,0.00015156995505094528,0.00040171772707253695
1782987230847573000,2.924572998046875,0.00030124501790851355,0.0008880114182829857,0.0005744246300309896
1782987230857648000,2.934648193359375,0.00003998889587819576,0.000665903789922595,-0.0017872665775939822
1782987230867722000,2.944721923828125,0.0005385875701904297,0.0019719679839909077,-0.001660807989537716
1782987230877797000,2.954797119140625,-0.0026896963827311993,0.00004250789061188698,-0.00037050648825243115
1782987230887871000,2.96487109375,0.00013563537504523993,0.0021191525738686323,0.0006064461776986718
1782987230897946000,2.974946044921875,0.00168905733153224,-0.0008167159976437688,0.0013912796275690198
1782987230908020000,2.98502001953125,-0.0014107620809227228,0.001049271784722805,-0.0000025652407202869654
1782987230918094000,2.995093994140625,-0.0015471158549189568,-0.00043544056825339794,0.00040143629303202033
1782987230928169000,3.0051689453125,-0.0016067370306700468,-0.0012750370660796762,-0.002166204620152712
1782987230938243000,3.0152431640625,0.0001592050539329648,-0.0017786407843232155,-0.0008306294912472367
1782987230948318200,3.025318115234375,-0.0008039268432185054,0.00019372091628611088,0.0005826246924698353
1782987230958392000,3.03539208984375,-0.001236956799402833,-0.000713351764716208,-0.003764186752960086
1782987230968466000,3.0454658203125,-0.001268948195502162,-0.000007898546755313873,-0.0007415798609144986
1782987230978541000,3.055541015625,-7.508788257837296e-7,-0.000558107509277761,-0.0006497007561847568
1782987230988615000,3.065614990234375,-0.0006725761340931058,0.00034198001958429813,0.0013675227528437972
1782987230998690000,3.07568994140625,0.00027471024077385664,0.0022535971365869045,-0.0011909761233255267
1782987231008764000,3.085763916015625,0.0004997309297323227,-0.0018234256422147155,0.00028228186420165
1782987231018839000,3.095839111328125,-0.002569295931607485,0.0007792816031724215,0.0025880467146635056
1782987231028913000,3.105912841796875,0.0002276129089295864,-0.000519694178365171,0.0010444989893585443
1782987231038987300,3.1159873046875,-0.0031932173296809196,-0.0015511364908888936,-0.0010167876025661826
1782987231049062000,3.126061767578125,-0.0002774844178929925,-0.002068201545625925,-0.00008943518332671374
1782987231059136300,3.13613623046875,-0.000014097779057919979,0.0008431661408394575,0.000529217126313597
1782987231069211000,3.1462109375,0.002243951428681612,-0.0005811807932332158,-0.00017088836466427892
1782987231079285200,3.15628515625,0.0034554232843220234,-0.0005414996994659305,-0.00029872008599340916
1782987231089360100,3.166360107421875,0.001419923035427928,0.00023693847469985485,-0.0012606794480234385
1782987231099434200,3.176434326171875,0.0010159213561564684,0.003346178913488984,-0.001426061731763184
1782987231109508000,3.186508056640625,-0.0025987597182393074,0.00043321563862264156,0.0014693336561322212
1782987231119583200,3.196583251953125,0.0012921186862513423,-0.00036919477861374617,0.0011031490284949541
1782987231129657000,3.206656982421875,0.0020020888186991215,-0.0005402117967605591,0.0003889366635121405
1782987231139732200,3.216732177734375,0.0012428214540705085,0.0011967017780989408,-0.0012353253550827503
1782987231149806000,3.22680615234375,0.001161831198260188,0.0007960312068462372,0.0012606659438461065
1782987231159881200,3.236881103515625,-0.0007942605298012495,0.0003038791473954916,-0.001197697944007814
1782987231169955000,3.246955078125,-0.00036074325907975435,-0.00036947219632565975,-0.0004596284416038543
1782987231180029200,3.257029296875,-0.0022561149671673775,-0.000027522211894392967,0.0012040482833981514
1782987231190104000,3.26710400390625,0.00011416105553507805,-0.0000729814637452364,0.0024630981497466564
1782987231200178200,3.27717822265625,0.0003514486597850919,-0.0013374504633247852,0.0008694624993950129
1782987231210253300,3.28725341796875,-0.0002213103580288589,-0.000058112433180212975,-0.0006355018122121692
1782987231220327200,3.2973271484375,0.0005984106101095676,0.002088662004098296,0.0025525682140141726
1782987231230402300,3.30740234375,0.00003571889828890562,-0.0005171278025954962,-0.00040184136014431715
1782987231240476200,3.31747607421875,0.0006783396238461137,-0.0006492206593975425,0.0008208159124478698
1782987231250550000,3.327550048828125,0.0015921761514618993,-0.0005921964766457677,-0.0007347480859607458
1782987231260625200,3.337625244140625,-0.002216410357505083,0.0005002322141081095,0.001002165605314076
1782987231270699000,3.347698974609375,0.0013457630993798375,0.0006918841972947121,-0.0013954120222479105
1782987231280774100,3.357774169921875,-0.00125268311239779,0.000861793989315629,0.00038730789674445987
1782987231290848000,3.367847900390625,-0.00109496817458421,-0.0011249646777287126,0.0018433320801705122
1782987231300923100,3.377923095703125,0.0035573081113398075,0.0019246209412813187,0.003820728976279497
1782987231310997000,3.3879970703125,0.0005862315883859992,0.00026601552963256836,-0.0005966945318505168
1782987231321071000,3.398071044921875,0.0007912949658930302,-0.0018488006899133325,-0.0002456899092067033
1782987231331146200,3.408146240234375,0.001367892837151885,-0.0012435110984370112,-0.00109586538746953
1782987231341220000,3.41822021484375,-0.00008432898903265595,0.0012097929138690233,-0.0016085238894447684
1782987231351295500,3.42829541015625,0.0009951901156455278,-0.0017245984636247158,0.000326991721522063
1782987231361369600,3.43836962890625,0.0012620387133210897,0.0011020805686712265,0.0035523462574929
1782987231371444500,3.448444580078125,0.0006410733330994844,-0.00041257438715547323,0.002409690525382757
1782987231381518600,3.4585185546875,0.0014248416991904378,-0.0015364284627139568,0.0004986062995158136
1782987231391592400,3.468592529296875,0.0014622497837990522,0.00033437577076256275,-0.0005674523999914527
1782987231401667600,3.47866748046875,0.0022034074645489454,-0.0016297055408358574,-0.0005541365826502442
1782987231411741400,3.488741455078125,0.0018515287665650249,0.0012043425813317299,-0.0035876408219337463
1782987231421816600,3.498816650390625,0.0023676492273807526,-0.0003650583093985915,-0.001640603761188686
1782987231431890400,3.508890380859375,0.0004888260737061501,-0.0008836787892505527,-0.0014433335745707154
1782987231441964300,3.51896435546875,0.0030446616001427174,0.0010878592729568481,-0.0001490372815169394
1782987231452039400,3.529039306640625,-0.00015863910084590316,0.00047510233707726,0.0016128314891830087
1782987231462113500,3.539113525390625,-0.0023666659835726023,-0.00014088675379753113,-0.0007893397705629468
1782987231472188400,3.5491884765625,0.0005235277349129319,-0.0011680263560265303,0.0025245880242437124
1782987231482262500,3.559262451171875,-0.0014480104437097907,-0.0009861324215307832,0.00033254007576033473
1782987231492337400,3.56933740234375,-0.0006278584478422999,0.000510435551404953,-0.0010258120018988848
1782987231502411500,3.57941162109375,0.0009234329918399453,0.0006044451147317886,0.00001654928200878203
1782987231512485600,3.589485595703125,-0.0010136421769857407,-0.0010859298054128885,-0.0020621365401893854
1782987231522560500,3.599560546875,0.0002923719584941864,0.00037241727113723755,-0.002007008995860815
1782987231532634600,3.609634521484375,0.0012049890356138349,0.002282476518303156,0.0010443986393511295
1782987231542709500,3.61970947265625,0.0002835353370755911,0.00014662137255072594,0.00010989543807227165
1782987231552783600,3.62978369140625,-0.0009133480489253998,0.0012532540131360292,0.00027929965290240943
1782987231562858500,3.6398583984375,0.00020065228454768658,0.000027933623641729355,0.0014758579200133681
1782987231572932600,3.6499326171875,0.00014615536201745272,0.0024319165386259556,-0.00005625352787319571
1782987231583006500,3.66000634765625,0.0020881325472146273,0.0019709235057234764,-0.0006456110859289765
1782987231593081600,3.67008154296875,-0.00018525472842156887,-0.00003280583769083023,0.0006499763112515211
1782987231603155700,3.68015576171875,0.002010255353525281,-0.0003731577889993787,0.0011250842362642288
1782987231613230600,3.690230712890625,0.00046109443064779043,-0.000005907844752073288,0.0011716895969584584
1782987231623304700,3.7003046875,-0.0008891281904652715,-0.0020096702501177788,-0.0014350124401971698
1782987231633379600,3.710379638671875,0.0000607792753726244,-0.0019192150793969631,0.0005308426916599274
1782987231643453700,3.72045361328125,-0.0002707842504605651,-0.0021674218587577343,-0.00043189001735299826
1782987231653527600,3.730527587890625,-0.0005824928521178663,0.003425448667258024,0.0004205623990856111
1782987231663602700,3.740602783203125,0.000034295255318284035,-0.00030643888749182224,0.0007934049353934824
1782987231673676500,3.750676513671875,-0.0003818375407718122,-0.001500475686043501,0.0001538719079690054
1782987231683751700,3.760751708984375,-0.0024375314824283123,0.00010301358997821808,-0.002506093354895711
1782987231693825500,3.770825439453125,-0.0024496105033904314,-0.000931925605982542,0.0011879524681717157
1782987231703900700,3.780900634765625,-0.0032019536010921,0.0006952658295631409,-0.0006379106198437512
1782987231713974500,3.790974609375,0.00011980731505900621,-0.001083193114027381,-0.00003177518374286592
1782987231724048600,3.801048583984375,-0.00004078133497387171,-0.0025985317770391703,0.0010582567192614079
1782987231734123500,3.81112353515625,0.0003087877994403243,0.0008162183221429586,0.001203204388730228
1782987231744197600,3.82119775390625,0.0012962879845872521,0.0012143608182668686,0.0003232958843000233
1782987231754272500,3.8312724609375,0.0001177624799311161,-0.0008527137106284499,0.0019180458039045334
1782987231764346600,3.8413466796875,-0.001001297845505178,0.0010663601569831371,-0.0034823124296963215
1782987231774420500,3.85142041015625,0.0004558892687782645,0.000593879958614707,-0.002047425601631403
1782987231784495600,3.86149560546875,-0.0022347024641931057,-0.0010370399104431272,-0.0005177059210836887
1782987231794569500,3.871569580078125,-0.0013809786178171635,-0.00042675877921283245,0.00018897624977398664
1782987231804644600,3.88164453125,-0.0015231913421303034,0.0011975031811743975,-0.00030743697425350547
1782987231814718500,3.891718505859375,0.00003236101474612951,0.0005034832283854485,0.0018326792633160949
1782987231824793600,3.901793701171875,-0.0025796673726290464,-0.00038494716864079237,0.0002025583671638742
1782987231834867500,3.911867431640625,0.0009151735575869679,-0.0004108496941626072,-0.0012556209694594145
1782987231844941600,3.921941650390625,0.00035910552833229303,-0.003393856342881918,-0.0007291140500456095
1782987231855016400,3.932016357421875,0.0014149558264762163,-0.0017054455820471048,0.00046469434164464474
1782987231865090600,3.942090576171875,0.0005267916712909937,0.0001806051004678011,-0.0008807345875538886
1782987231875165400,3.95216552734375,0.003478910308331251,-0.002953181741759181,0.0006231507286429405
1782987231885239600,3.962239501953125,-0.00010490580461919308,0.0011379662901163101,0.0005571043584495783
1782987231895314400,3.972314453125,0.00008564058225601912,-0.0006070075323805213,0.0012585037620738149
1782987231905388500,3.982388427734375,0.0009386510355398059,-0.0024903949815779924,0.002776239300146699
1782987231915462400,3.99246240234375,0.001326899160631001,-0.001204412430524826,0.002456307876855135
1782987231925537500,4.00253759765625,0.00008639879524707794,-0.0017447678837925196,-0.0010678531834855676
1782987231935611400,4.012611328125,0.00014837190974503756,0.000614894786849618,-0.0013851320836693048
1782987231945686500,4.0226865234375,0.000034388620406389236,-0.0014956603990867734,-0.0019345420878380537
1782987231955760400,4.032760498046875,0.0012864775490015745,-0.00046985805965960026,-0.0001228314358741045
1782987231965835500,4.04283544921875,0.0014433376491069794,-0.0002046071458607912,0.0002886269357986748
1782987231975909400,4.052909423828125,0.0007725575705990195,-0.0013571742456406355,-0.00010629008465912193
1782987231985983500,4.0629833984375,-0.0019294857047498226,-0.0004250678466632962,-0.001194457639940083
1782987231996058400,4.073058349609375,0.00022807717323303223,0.00008456199429929256,-0.0014756080927327275
1782987232006132500,4.083132568359375,-0.0002688686363399029,0.000021445099264383316,0.0004178994568064809
1782987232016207400,4.093207275390625,-0.001127691357396543,0.0012572817504405975,-0.0012457972625270486
1782987232026281500,4.103281494140625,-0.002104538958519697,0.0011379721108824015,-0.0012165025109425187
1782987232036356400,4.1133564453125,0.000419137766584754,-0.0017339431215077639,0.0018030060455203056
1782987232046430500,4.123430419921875,0.000056947930715978146,0.0025090051349252462,-0.004403224214911461
1782987232056504600,4.133504638671875,0.0006107140798121691,0.0009498479776084423,-0.0010684782173484564
1782987232066579500,4.143579345703125,0.00009326182771474123,0.0016611781902611256,-0.0028027286753058434
1782987232076653600,4.153653564453125,-0.0007562752580270171,0.0003349054604768753,0.0002960453857667744
1782987232086728400,4.163728515625,0.0012709228321909904,0.0022486529778689146,0.0025514764711260796
1782987232096802600,4.173802490234375,0.0014553128276020288,-0.00044279464054852724,-0.001187081215903163
1782987232106876700,4.183876708984375,-0.00009837542893365026,0.001164689427241683,0.00017672358080744743
1782987232116951600,4.19395166015625,-0.0015683885430917144,-0.0018018707633018494,-0.002360408892855048
1782987232127025700,4.204025634765625,-0.0005105809541419148,0.0001451664138585329,0.00041726825293153524
1782987232137100500,4.2141005859375,0.0019898773171007633,-0.0003454778343439102,-0.0008703642524778843
1782987232147174700,4.224174560546875,0.0011254152050241828,-0.002469348721206188,-0.002348418813198805
1782987232157249500,4.23424951171875,-0.0023811571300029755,0.002278360538184643,0.00029584794538095593
1782987232167323600,4.24432373046875,0.0009744260460138321,0.0017095091752707958,0.002015450969338417
1782987232177397500,4.2543974609375,0.0009327488951385021,-0.0015793838538229465,0.0014126073801890016
1782987232187472600,4.26447265625,0.0018502078019082546,0.0005849672015756369,0.0014094115467742085
1782987232197546500,4.27454638671875,0.0015902920858934522,0.0011998103000223637,0.0016551255248486996
1782987232207621600,4.28462158203125,0.0009125174256041646,-0.0014854550827294588,-0.0020725009962916374
1782987232217695500,4.294695556640625,0.000027797766961157322,0.002342201303690672,-0.000033925563911907375
1782987232227770600,4.3047705078125,0.0010845401557162404,0.0003594779409468174,-0.0007990517187863588
1782987232237844500,4.314844482421875,-0.00007774418918415904,-0.0006529164966195822,-0.00019977014744654298
1782987232247918600,4.324918701171875,-0.0015312974574044347,0.0010030369739979506,0.0001552292233100161
1782987232257993500,4.334993408203125,0.0011301662307232618,-0.0010337810963392258,0.000785636599175632
1782987232268067600,4.345067626953125,-0.0007569495937786996,-0.0014939752873033285,0.00034381821751594543
1782987232278142500,4.355142578125,0.0015766583383083344,-0.0011785967508330941,0.0007886221865192056
1782987232288216600,4.365216552734375,0.0025684195570647717,-0.0013604905689135194,0.0024272650480270386
1782987232298291500,4.37529150390625,0.0009533436968922615,0.00014321599155664444,0.0014814820606261492
1782987232308365600,4.385365478515625,0.00008435430936515331,-0.0012027454795315862,0.0017342159990221262
1782987232318439400,4.395439453125,0.0001293383538722992,0.0010630683973431587,-0.0011570064816623926
1782987232328514600,4.4055146484375,0.0015258999774232507,-0.0009492160752415657,0.0009042802266776562
1782987232338588400,4.41558837890625,0.000289086252450943,-0.000016408506780862808,0.0020774947479367256
1782987232348663300,4.425663330078125,-0.0013911020942032337,0.0004451172426342964,-0.00032787234522402287
1782987232358737200,4.435737060546875,0.0014824249083176255,-0.0013359558070078492,-0.001149314339272678
1782987232368812300,4.445812255859375,0.0015631186543032527,-0.000858983607031405,-0.0010342658497393131
1782987232378886100,4.45588623046875,-0.0015346974832937121,0.0015936775598675013,-0.001995072467252612
1782987232388960300,4.465960205078125,0.0002022160915657878,-0.00073099578730762,-0.003018525429069996
1782987232399035100,4.47603515625,0.000038026715628802776,0.0006293915212154388,-0.001585716032423079
1782987232409109200,4.486109130859375,-0.0006389488698914647,-0.0010270947823300958,0.00242100958712399
1782987232419184000,4.49618408203125,0.0012114635901525617,-0.002808378543704748,0.00023147600586526096
1782987232429258200,4.50625830078125,0.00017789076082408428,0.000248131575062871,0.0007342807948589325
1782987232439332400,4.516332275390625,0.00038590270560234785,-0.0016200667014345527,0.0011153361992910504
1782987232449407200,4.5264072265625,-0.00046071625547483563,-0.0004866253584623337,0.00092678441433236
1782987232459481300,4.5364814453125,-0.0007804338820278645,0.00009430479258298874,-0.00048561679432168603
1782987232469556200,4.54655615234375,-0.00009999622125178576,0.0007920530624687672,-0.0011319660115987062
1782987232479630300,4.55663037109375,-0.0033649750985205173,-0.0008783244993537664,-0.0008527961908839643
1782987232489705200,4.566705322265625,-0.0004948864225298166,0.001526509877294302,-0.0026347171515226364
1782987232499779300,4.576779296875,0.0014442767715081573,0.0013374628033488989,0.0006069080554880202
1782987232509853400,4.586853515625,0.0003374670632183552,-0.0013272962532937527,0.0005355353350751102
1782987232519928300,4.59692822265625,0.0013230195036157966,-0.0014504999853670597,0.0017934705829247832
1782987232530002400,4.60700244140625,-0.0003345320583321154,0.000335948308929801,0.0010477853938937187
1782987232540077300,4.617077392578125,0.0000022104941308498383,-0.00014000688679516315,0.00023424722894560546
1782987232550151400,4.6271513671875,-0.0007754325051791966,-0.00025532161816954613,-0.0013583231484517455
1782987232560226300,4.637226318359375,-0.0021663710940629244,0.00013336725533008575,-0.00034924253122881055
1782987232570300400,4.647300537109375,0.0018299684161320329,0.0003440233413130045,-0.001513842842541635
1782987232580374300,4.657374267578125,-0.0009154410799965262,0.00037871510721743107,-0.00003069257945753634
1782987232590449400,4.667449462890625,-0.0002144970349036157,-0.0008860200177878141,0.00008116019307635725
1782987232600523300,4.677523193359375,0.0007976763881742954,0.0007914630696177483,-0.001232211128808558
1782987232610598400,4.687598388671875,-0.0007253855001181364,0.0019406173378229141,0.0005233446136116982
1782987232620672300,4.69767236328125,0.0014104822184890509,-0.0017135599628090858,-0.0005097511457279325
1782987232630747400,4.707747314453125,0.0011681346222758293,0.00030538253486156464,0.0006737576331943274
1782987232640821200,4.7178212890625,0.0009185858070850372,-0.0021345114801079035,0.002502655377611518
1782987232650895400,4.727895263671875,0.0011031429748982191,0.0023569094482809305,0.000365202286047861
1782987232660970200,4.73797021484375,0.00250119436532259,0.00023925071582198143,-0.0006440802244469523
1782987232671044400,4.74804443359375,-0.0022360365837812424,0.0017623126041144133,-0.00040785782039165497
1782987232681119200,4.758119140625,0.001583115546964109,-0.0005597093841060996,0.00155470275785774
1782987232691193300,4.768193359375,-0.00029947300208732486,0.0009737387299537659,-0.0009207054972648621
1782987232701268200,4.778268310546875,-0.0018758756341412663,0.0006566259544342756,0.002571814227849245
1782987232711342300,4.78834228515625,0.00007249298505485058,-0.00017241621389985085,0.0011297124437987804
1782987232721416200,4.798416259765625,-0.001231313101015985,0.002186276251450181,0.0004939656937494874
1782987232731491300,4.8084912109375,-0.000975383329205215,-0.0010984668042510748,0.00033364337286911905
1782987232741565200,4.818565185546875,0.0004563230322673917,-0.0006890578661113977,0.001297803595662117
1782987232751640300,4.828640380859375,-0.0007080109789967537,-0.0016238274984061718,0.0033132839016616344
1782987232761714200,4.838714111328125,-2.0256265997886658e-8,-0.0002208820078521967,0.0013346937485039234
1782987232771788300,4.848788330078125,0.0012929444201290607,-0.0008656333666294813,0.0015112613327801228
1782987232781863200,4.85886328125,0.0005963159492239356,0.001099536195397377,0.00021819662651978433
1782987232791937300,4.868937255859375,-0.00039651052793487906,-0.00021500024013221264,0.00004136272764299065
1782987232802012200,4.87901220703125,0.00045992573723196983,0.002282380824908614,-0.003344991011545062
1782987232812086300,4.889086181640625,0.000043141073547303677,0.0024669377598911524,0.0022606966085731983
1782987232822161200,4.8991611328125,-0.0005583954625762999,0.0011369329877197742,0.00020876660710200667
1782987232832235300,4.9092353515625,-0.0001346865901723504,-0.0010106400586664677,-0.0016274829395115376
1782987232842309000,4.91930908203125,0.000817490741610527,-0.001580915879458189,0.001309076091274619
1782987232852384300,4.92938427734375,-0.00022380519658327103,-0.002380663063377142,0.00161507329903543
1782987232862458000,4.9394580078125,-0.00000471784733235836,0.0033612882252782583,0.0008030413300730288
1782987232872533200,4.949533203125,-0.0004489331622608006,-0.0016137631610035896,-0.0014859456568956375
1782987232882607000,4.959607177734375,-0.002307174727320671,0.0012950936798006296,0.0011022955877706409
1782987232892682200,4.96968212890625,0.00009739352390170097,-0.0018900468712672591,-0.00031024502823129296
1782987232902756000,4.979756103515625,0.00035362772177904844,0.0013497562613338232,-0.0018303345423191786
1782987232912830500,4.98983056640625,0.001533674425445497,-0.002375473501160741,0.0005723693175241351
1782987232922905000,4.999905029296875,0.00007872376590967178,-0.0007072520675137639,0.0003437358536757529
1782987232932979500,5.0099794921875,0.0010955187026411295,0.00017505325376987457,0.000844143854919821
1782987232943054000,5.02005419921875,-0.0000849040225148201,0.0008543368894606829,-0.002706053201109171
1782987232953128400,5.03012841796875,0.0011390849249437451,0.000703335739672184,-0.0015824656002223492
1782987232963203000,5.040203125,0.0025550047867000103,0.0013536980841308832,0.0002832986938301474
1782987232973277400,5.05027734375,0.00015150185208767653,0.001430130796507001,-0.0018323163967579603
1782987232983351300,5.060351318359375,0.001234146999195218,-0.0004841851769015193,0.0007102176896296442
1782987232993426400,5.070426513671875,0.002141485922038555,-0.00021201022900640965,-0.0006107101798988879
1782987233003500300,5.080500244140625,-0.0004008453688584268,0.00018113409169018269,-0.0011025986168533564
1782987233013575400,5.090575439453125,-0.00043706432916224003,0.00040617119520902634,-0.0006187022081576288
1782987233023649300,5.100649169921875,0.0006336749065667391,0.0013876657467335463,0.0010078893974423409
1782987233033723400,5.110723388671875,0.00024219020269811153,-0.0005396639462560415,-0.0008800254436209798
1782987233043798300,5.12079833984375,0.0018325853161513805,-0.002370396861806512,-0.0032954325433820486
1782987233053872400,5.130872314453125,0.0008850325830280781,-0.00040711450856179,-0.0002889899187721312
1782987233063947300,5.140947265625,0.0007139922818168998,0.00043827551417052746,-0.00020071087055839598
1782987233074021400,5.151021484375,-0.00023941934341564775,-0.0014040993992239237,0.0023471354506909847
1782987233084096300,5.16109619140625,0.0006125958170741796,-0.0009694130858406425,0.0005243386258371174
1782987233094170400,5.17117041015625,-0.0007605300052091479,-0.0027662478387355804,0.001897730864584446
1782987233104244200,5.181244140625,0.000991410226561129,0.0008049341849982738,-0.0012429069029167295
1782987233114319400,5.1913193359375,-0.00046960002509877086,-0.0014443716499954462,0.0009965451899915934
1782987233124393200,5.201393310546875,-0.0023840079084038734,0.0010584346018731594,0.0005105033051222563
1782987233134468400,5.21146826171875,0.0015239145141094923,0.0002829220611602068,-0.00016034695727284998
1782987233144542200,5.221542236328125,-0.002579428954049945,-0.0006130912806838751,0.00006694554758723825
1782987233154617300,5.231617431640625,-0.00012665765825659037,0.00019331392832100391,0.0006411231006495655
1782987233164691200,5.241691162109375,-0.0006857767584733665,-0.00030007853638380766,-0.0018321620300412178
1782987233174765300,5.251765380859375,0.002095096046105027,-0.0011139404959976673,0.000717548537068069
1782987233184840200,5.261840087890625,0.002143372315913439,0.0003769409377127886,0.0014401674270629883
1782987233194914300,5.271914306640625,-0.0011570833157747984,-0.0006116244476288557,-0.0007204551948234439
1782987233204989200,5.2819892578125,-0.000021050916984677315,0.0002641109749674797,-0.0022689432371407747
1782987233215063300,5.292063232421875,0.0003906737547367811,-0.002487200777977705,-0.0013924968661740422
1782987233225138200,5.30213818359375,-0.0011126092867925763,0.0002797080669552088,0.003830364905297756
1782987233235212300,5.31221240234375,-0.00001751747913658619,-0.0000947325024753809,0.0009235245524905622
1782987233245286100,5.3222861328125,0.00015190697740763426,0.0006433806847780943,-0.000049931841203942895
1782987233255361300,5.332361328125,-0.0005415802006609738,0.00022712862119078636,-0.0005716450978070498
1782987233265435100,5.34243505859375,0.002608040813356638,-0.001560082659125328,0.0000013980461517348886
1782987233275510300,5.35251025390625,0.0001819009194150567,0.00036511640064418316,-0.00023802014766260982
1782987233285584100,5.362584228515625,0.0001908005215227604,0.0003315070644021034,0.00028421272872947156
1782987233295659300,5.3726591796875,-0.002659847028553486,0.00040367874316871166,0.0013036708114668727
1782987233305733000,5.382733154296875,-0.00045340857468545437,-0.000742607400752604,0.0011300994083285332
1782987233315807200,5.39280712890625,-0.0007170615717768669,-0.00011862884275615215,-0.00067339331144467
1782987233325882000,5.402882080078125,0.0001511309528723359,0.0007750522345304489,-0.00027869356563314795
1782987233335956200,5.412956298828125,-0.000006528222002089024,0.002324745524674654,0.003309383289888501
1782987233346031000,5.423031005859375,-0.00032960332464426756,0.0015380261465907097,-0.0005591764929704368
1782987233356105000,5.43310498046875,0.00032926269341260195,0.00005065067671239376,0.0010155506897717714
1782987233366179000,5.443178955078125,0.00003454904071986675,-0.0011187588097527623,-0.00004818619345314801
1782987233376254000,5.45325390625,0.0015512193785980344,0.0008490509353578091,-0.0020631339866667986
1782987233386328000,5.463328125,0.001491078524850309,-0.0007803138578310609,0.0009796699741855264
1782987233396403200,5.4734033203125,-0.0016035145381465554,0.004684492480009794,-0.003668877761811018
1782987233406477000,5.48347705078125,0.001463468768633902,0.0004967255517840385,0.0022766143083572388
1782987233416552200,5.49355224609375,0.0013058095937594771,-0.00013417727313935757,0.00249446090310812
1782987233426626000,5.5036259765625,-0.0010137627832591534,-0.0004745351616293192,-0.0035333363339304924
1782987233436700000,5.513699951171875,-0.0006952487165108323,0.0016573253087699413,-0.000806525640655309
1782987233446775000,5.523775146484375,0.00017398991622030735,-0.0013663445133715868,0.002296561375260353
1782987233456849000,5.533848876953125,0.0006440378492698073,0.001069382531568408,0.0014089297037571669
1782987233466924000,5.543924072265625,-0.0014141470892354846,0.0013805318158119917,0.00009777730156201869
1782987233476998000,5.553997802734375,0.0001009252155199647,0.001282793702557683,0.0012868787162005901
1782987233487073000,5.564072998046875,-0.0015280484221875668,-0.0008207471109926701,-0.0007502316730096936
1782987233497147000,5.57414697265625,0.0007681290153414011,0.00007514026947319508,-0.0007291926885955036
1782987233507221000,5.584220947265625,0.0010166490683332086,-0.0012914834078401327,0.00026130539481528103
1782987233517296000,5.594296142578125,0.001059792353771627,-0.000277884304523468,-0.0023954641073942184
1782987233527370000,5.604369873046875,0.0016284066950902343,-0.0007582313846796751,-0.0005822035600431263
1782987233537445000,5.614445068359375,0.00021240394562482834,0.00041169533506035805,0.00016907420649658889
1782987233547519000,5.62451904296875,0.0014502673875540495,0.0000607434194535017,0.0012456616386771202
1782987233557594000,5.634593994140625,0.0009458647109568119,-0.002675654599443078,0.0002696131414268166
1782987233567668000,5.64466796875,-0.0006660218932665884,0.0021523318719118834,0.001171035342849791
1782987233577741800,5.654741943359375,-0.0006274060579016805,0.00016721151769161224,0.001001392025500536
1782987233587817000,5.66481689453125,0.000049260095693171024,0.0006941473111510277,-0.0009181316709145904
1782987233597890800,5.674890869140625,0.00004047167021781206,0.0019050869159400463,-0.0021812687627971172
1782987233607966000,5.684966064453125,0.0013397489674389362,0.000034924596548080444,0.001578477444127202
1782987233618039800,5.695039794921875,0.00028593605384230614,-0.001718500629067421,-0.0000750792387407273
1782987233628115000,5.705114990234375,0.0017129003535956144,-0.00008259108290076256,0.0028060993645340204
1782987233638189000,5.71518896484375,0.0007312592351809144,-0.0002876543439924717,0.0008452138863503933
1782987233648263000,5.725262939453125,0.0013047857210040092,-0.0019990522414445877,0.002237673383206129
1782987233658338000,5.735338134765625,0.003508551511913538,-0.002617970807477832,-0.0008987314067780972
1782987233668412000,5.745411865234375,-0.000534878927282989,-0.0016459384933114052,-0.0011159670539200306
1782987233678487000,5.755487060546875,-0.0002957271062768996,-0.003527994267642498,0.0005567644257098436
1782987233688561000,5.765560791015625,-0.0008290607947856188,-0.00009271688759326935,-0.001152785844169557
1782987233698634800,5.775634765625,-0.00048125197645276785,-0.0016469376860186458,-0.0001538341020932421
1782987233708710000,5.7857099609375,0.0008454215712845325,0.002483770251274109,-0.0003643562668003142
1782987233718783700,5.79578369140625,0.001528256107121706,0.0011926696170121431,-0.0013337468262761831
1782987233728859000,5.80585888671875,-0.00012357195373624563,-0.0005207943031564355,-0.0020507685840129852
1782987233738932700,5.8159326171875,-0.000091880327090621,0.0014246448408812284,-0.0007964196847751737
1782987233749008000,5.8260078125,0.0011364049278199673,-0.00003065099008381367,0.0017638441640883684
1782987233759081700,5.836081787109375,0.00228183064609766,0.002115856856107712,0.0007923229713924229
1782987233769156000,5.846156005859375,0.00016118644271045923,0.0005726565141230822,0.0008034115890040994
1782987233779231000,5.85623095703125,-0.0000715737696737051,-0.00018607801757752895,0.00012217499897815287
1782987233789305000,5.86630517578125,0.0013757017441093922,0.0007315981201827526,-0.001250894507393241
1782987233799380000,5.8763798828125,-0.0014376617036759853,0.0012511808890849352,-0.0007757866405881941
1782987233809454000,5.8864541015625,0.00007658952381461859,0.0018512827809900045,-0.0005920486873947084
1782987233819529000,5.896529052734375,0.00023930869065225124,0.0008264982607215643,-0.0012114999117329717
1782987233829603000,5.90660302734375,-0.0006004890310578048,0.000752180814743042,-0.0010767746716737747
1782987233839677000,5.916677001953125,-0.00009475473780184984,0.0017956073861569166,0.000632974726613611
1782987233849752000,5.926751953125,-0.0012097557773813605,0.00008382182568311691,-0.0010949567658826709
1782987233859826000,5.936825927734375,0.0006991979898884892,-0.0006626623217016459,0.00013941842189524323
1782987233869901000,5.946901123046875,0.0003584190271794796,-0.0001422991044819355,0.0004393617855384946
1782987233879975000,5.956974853515625,0.0018900029826909304,-0.0002669350942596793,0.0014532271306961775
1782987233890050000,5.967050048828125,-0.0002540221903473139,0.0030755328480154276,0.00139799143653363
1782987233900124200,5.977124267578125,-0.0008995723910629749,-0.0036819721572101116,-0.0004952498129568994
1782987233910198000,5.987197998046875,-0.0012172110145911574,-0.0012436416000127792,-0.00033386252471245825
1782987233920273200,5.997273193359375,-0.0004648679750971496,-0.00038450583815574646,-0.00032587299938313663
1782987233930347000,6.007346923828125,0.0005410609301179647,-0.0005402065580710769,-0.0013423599302768707
1782987233940422100,6.017422119140625,0.0014204366598278284,0.0011596891563385725,0.0017663480248302221
1782987233950496000,6.02749609375,-0.0012071635574102402,0.00048451568000018597,-0.0011379759525880218
1782987233960569900,6.03756982421875,0.00033933413214981556,-0.001020170166157186,0.0028786035254597664
1782987233970645000,6.04764501953125,0.000416314578615129,-0.0007267346372827888,-0.000054409552831202745
1782987233980718800,6.05771875,-0.0007070067804306746,0.0011625117622315884,-0.0003071435494348407
1782987233990794000,6.0677939453125,-0.00017526675947010517,0.00003767362795770168,0.0011907306034117937
1782987234000867800,6.077867919921875,-0.000043706619180738926,-0.0030966007616370916,-0.0005373945459723473
1782987234010943000,6.08794287109375,0.00031313393265008926,0.0007295401301234961,0.0000334533688146621
1782987234021017000,6.09801708984375,-0.00069034518674016,-0.0007639606483280659,0.0013072432484477758
1782987234031091000,6.108091064453125,0.002243302296847105,-0.0010355244157835841,-0.0016621608519926667
1782987234041166000,6.118166015625,-0.00003343401476740837,0.0022204562555998564,-0.0003071444807574153
1782987234051240000,6.128239990234375,-0.0012267017737030983,0.0012529673986136913,-0.001391273457556963
1782987234061315000,6.138315185546875,-0.0006450674263760448,0.0014849286526441574,0.0020463347900658846
1782987234071389000,6.148388916015625,-0.0005604076432064176,-0.0012731216847896576,-0.0007681386778131127
1782987234081464000,6.158464111328125,0.0007882171776145697,0.00038602761924266815,-0.0009007641347125173
1782987234091538000,6.168537841796875,0.0002611844101920724,-0.0027301544323563576,0.0006557027227245271
1782987234101611800,6.17861181640625,-0.00043390062637627125,0.000838481355458498,-0.0009336718358099461
1782987234111687000,6.18868701171875,0.00001768232323229313,0.0022013226989656687,-0.00005604456237051636
1782987234121760800,6.1987607421875,0.000267486902885139,-0.0004173635970801115,0.002460642484948039
1782987234131836000,6.2088359375,0.00036076700780540705,0.00008543324656784534,0.0012432768708094954
1782987234141910000,6.218909912109375,0.0011064521968364716,-0.0012352282647043467,-0.0024191022384911776
1782987234151985000,6.22898486328125,0.0033886488527059555,-0.0012442234437912703,0.0009095182176679373
1782987234162059000,6.23905908203125,0.0006288153817877173,-0.00039201194886118174,-0.0013299338752403855
1782987234172132900,6.2491328125,-0.00006043538451194763,-0.0009615396847948432,0.001050880877301097
1782987234182208000,6.2592080078125,-0.000034602824598550797,0.0009812363423407078,0.0008724491344764829
1782987234192281900,6.26928173828125,0.0003717583604156971,-0.0010660589905455709,0.00035969968303106725
1782987234202357000,6.27935693359375,0.0021129329688847065,0.0003874942194670439,0.0023924903944134712
1782987234212430800,6.289430908203125,-0.0013619234086945653,-0.0005424151895567775,-0.0005762227810919285
1782987234222506000,6.299506103515625,0.004443501587957144,0.00044029136188328266,-0.002484910422936082
1782987234232579800,6.309579833984375,-0.0026149621699005365,0.001523599261417985,-0.0017533563077449799
1782987234242654000,6.319654052734375,0.00046018988359719515,-0.0016096096951514482,-0.0017187352059409022
1782987234252728800,6.329728759765625,0.0005183658795431256,0.0006482426542788744,0.0002615381090436131
1782987234262803000,6.339802978515625,0.0013836269499734044,-0.000027667731046676636,0.0005797858466394246
1782987234272877800,6.3498779296875,0.0010317843407392502,-0.0006244748365134001,0.0017653435934334993
1782987234282952200,6.3599521484375,0.0012080857995897532,0.0009744870476424694,-0.0008496142108924687
1782987234293026800,6.37002685546875,0.00040486501529812813,0.0000012672971934080124,-0.0016632785554975271
1782987234303101200,6.38010107421875,0.000222704722546041,0.0016489650588482618,0.0015578147722408175
1782987234313175000,6.390175048828125,0.0008794654859229922,-0.0015161498449742794,-0.0014437716454267502
1782987234323250200,6.400250244140625,0.0003787912428379059,0.00003993511199951172,-0.0018222066573798656
1782987234333324000,6.410323974609375,-0.000009051524102687836,-0.00036823912523686886,-0.00013391656102612615
1782987234343399200,6.420399169921875,0.0017246664501726627,-0.0013445538934320211,0.000041319450247101486
1782987234353473500,6.4304736328125,0.002400939352810383,-0.00026855303440243006,0.0014544075820595026
1782987234363547400,6.44054736328125,0.0007513773161917925,-0.0010989266447722912,-0.001043637515977025
1782987234373622500,6.45062255859375,-0.00028281472623348236,0.0008433789480477571,-0.0013395185815170407
1782987234383696400,6.4606962890625,-0.002145962091162801,0.0009230074938386679,0.0007651775376871228
1782987234393771500,6.470771484375,-0.00001553678885102272,-0.0008052455959841609,0.0020870035514235497
1782987234403845400,6.480845458984375,-0.0008419156074523926,0.0024715077597647905,-0.0011809613788500428
1782987234413920500,6.49092041015625,0.001153285731561482,0.0010217786766588688,-0.003073396161198616
1782987234423994400,6.500994384765625,-0.0018084156326949596,0.0006270981393754482,0.0005037618684582412
1782987234434068500,6.511068359375,0.000588251044973731,-0.0009481407469138503,-0.0021104454062879086
1782987234444143400,6.521143310546875,0.00003111769910901785,-0.002184380078688264,0.0010169045999646187
1782987234454217500,6.531217529296875,-0.0006123585044406354,0.0016490027774125338,-0.0010944888927042484
1782987234464292400,6.541292236328125,0.002224707044661045,0.000008761882781982422,-0.0008867622236721218
1782987234474366500,6.551366455078125,-0.0007474888698197901,0.000847493764013052,0.0006704421830363572
1782987234484441300,6.56144140625,0.001365196774713695,-0.0010252411011606455,-0.0012182716745883226
1782987234494515500,6.571515380859375,-0.0004101526574231684,-0.0005882252007722855,-0.0006516295252367854
1782987234504589300,6.58158935546875,0.001989355543628335,0.00017024297267198563,0.0019401588942855597
1782987234514664400,6.59166455078125,-0.0002640652237460017,0.0003658994100987911,0.0004995501949451864
1782987234524738300,6.60173828125,-0.0000816386891528964,0.001180560328066349,-0.001642962801270187
1782987234534813400,6.6118134765625,0.0003793484065681696,-0.00005819345824420452,0.0012083599576726556
1782987234544887300,6.62188720703125,0.0010576554341241717,-0.0019375862320885062,0.0015092971734702587
1782987234554962400,6.63196240234375,-0.00038746552309021354,0.0008876256179064512,-0.0018017785623669624
1782987234565036300,6.642036376953125,0.0022061869967728853,-0.0012985632056370378,0.001305331359617412
1782987234575110400,6.6521103515625,0.0007462278008460999,-0.00032483472023159266,0.0005736507591791451
1782987234585185300,6.662185302734375,0.00011585757602006197,0.0002024711575359106,-0.002170204184949398
1782987234595259400,6.67225927734375,-0.0010412059491500258,0.0014434061013162136,-0.0015756851062178612
1782987234605334300,6.682334228515625,0.00003417849075049162,-0.0016099081840366125,0.001438480569049716
1782987234615408400,6.692408447265625,0.00028152961749583483,-0.0006372011266648769,-0.000981473713181913
1782987234625483300,6.702483154296875,0.0007300057914108038,-0.0011306848609820008,-0.0008962525753304362
1782987234635557400,6.712557373046875,-0.0009015125688165426,-0.0025194736663252115,-0.0012089228257536888
1782987234645631200,6.72263134765625,0.0021858899854123592,-0.0009013370145112276,-0.0010179742239415646
1782987234655706400,6.732706298828125,-0.0018358682282269,0.0021904222667217255,-0.0005984168383292854
1782987234665780200,6.7427802734375,-0.00007125770207494497,-0.0002413101028650999,-0.0007704570307396352
1782987234675855400,6.75285546875,0.001910542487166822,0.00121258944272995,-0.0034860053565353155
1782987234685929200,6.76292919921875,-0.0004143972182646394,-0.003584030084311962,-0.0003514647833071649
1782987234696004400,6.77300439453125,0.0008848129073157907,-0.0010446244850754738,-0.00012481011799536645
1782987234706078200,6.783078125,-0.00037646008422598243,0.001156478188931942,-0.0017538657411932945
1782987234716152300,6.79315234375,0.00008903560228645802,0.0009022427257150412,0.00028204877162352204
1782987234726227200,6.803227294921875,-0.0017482792027294636,-0.0012498577125370502,-0.004402984399348497
1782987234736301300,6.81330126953125,-0.0013417820446193218,-0.0009131579427048564,0.00033105205511674285
1782987234746376200,6.823376220703125,-0.00015214807353913784,-0.00008331704884767532,-0.0012226360850036144
1782987234756450300,6.8334501953125,-0.0011551172938197851,0.0002517043612897396,0.001919531961902976
1782987234766524400,6.8435244140625,0.0004758024588227272,-0.0008186200866475701,-0.0013625477440655231
1782987234776599300,6.853599365234375,0.0010537771740928292,0.0007606742437928915,-0.00024508030037395656
1782987234786673400,6.86367333984375,0.0009943885961547494,-0.0007426802767440677,-0.00010180223034694791
1782987234796748300,6.873748291015625,-0.0003371794009581208,0.0009175387676805258,-0.0023715589195489883
1782987234806822400,6.883822509765625,0.00217711110599339,-0.0010763697791844606,-0.0008279907051473856
1782987234816897300,6.893897216796875,-0.001872373977676034,-0.0007064144592732191,-0.000024534296244382858
1782987234826971400,6.903971435546875,-0.0017131170025095344,0.00023527932353317738,-0.0028802419546991587
1782987234837045500,6.91404541015625,-0.0004982060054317117,-0.0016515135066583753,0.0025060102343559265
1782987234847120400,6.924120361328125,-0.0016106084221974015,0.0021072719246149063,0.002388831228017807
1782987234857194500,6.934194580078125,-0.001791453454643488,0.0001952804159373045,0.0007337313727475703
1782987234867269400,6.944269287109375,-0.00026066857390105724,0.00023309746757149696,-0.002161657437682152
1782987234877343500,6.954343505859375,-0.001699240179732442,-0.001677958876825869,0.0013004031497985125
1782987234887418400,6.96441845703125,-0.0016078937333077192,0.00022673397324979305,0.0004319463041611016
1782987234897492500,6.974492431640625,-0.00004875427111983299,0.001089615747332573,0.001763053354807198
1782987234907566300,6.98456640625,0.00011689437087625265,-0.00011892663314938545,0.003460818435996771
1782987234917641500,6.994641357421875,0.0005679958267137408,-0.000488951918669045,0.0001070927464752458
1782987234927715300,7.00471533203125,-0.0006179097690619528,0.0011928342282772064,0.0014738270547240973
1782987234937790500,7.01479052734375,0.00004739139694720507,-0.0030987230129539967,-0.00019532634178176522
1782987234947864300,7.0248642578125,0.0009286315180361271,-0.0006731158355250955,-0.0008217018330469728
1782987234957938400,7.0349384765625,-0.0013416728470474482,-0.0011890062596648932,0.0007326214690692723
1782987234968013300,7.045013427734375,0.0003422439331188798,0.0017505909781903028,0.0007440730696544051
1782987234978087400,7.05508740234375,-0.001185725093819201,0.0022745239548385143,-0.00016143856919370592
1782987234988162300,7.065162353515625,-0.0004999610828235745,0.0007208357565104961,0.0014548338949680328
1782987234998236400,7.075236328125,0.0006488941144198179,-0.0026410017162561417,-0.001040359027683735
1782987235008311300,7.085311279296875,0.001057689543813467,0.0004852830898016691,0.00023263193725142628
1782987235018385400,7.095385498046875,0.0008775467285886407,0.001056187553331256,-0.0011528145987540483
1782987235028459300,7.105459228515625,0.0009579741163179278,-0.0012767416192218661,0.002032059710472822
1782987235038534400,7.115534423828125,-0.0019162208773195744,0.0005980799905955791,-0.002218124456703663
1782987235048608300,7.125608154296875,-0.002930619055405259,0.0006992800626903772,0.0016629002057015896
1782987235058683400,7.135683349609375,0.000873965211212635,-0.0021412738133221865,-0.0003395105595700443
1782987235068757200,7.14575732421875,-0.0005497607635334134,0.0001844647340476513,0.0009907383937388659
1782987235078832400,7.155832275390625,0.0004018372856080532,0.0021086984779685736,0.0006481646560132504
1782987235088906200,7.16590625,0.0004902542568743229,-0.0025169458240270615,-0.003021138720214367
1782987235098980400,7.17598046875,-0.0009868306806311011,0.0003256492782384157,-0.0009829442715272307
1782987235109055200,7.18605517578125,-0.0003540635807439685,-0.0010855598375201225,0.003877324750646949
1782987235119129300,7.19612939453125,-0.0024087680503726006,-0.00025577645283192396,0.0016394131816923618
1782987235129204200,7.206204345703125,-0.0011823824606835842,0.001927216537296772,-0.0007973792962729931
1782987235139278300,7.2162783203125,-0.0004632142372429371,-0.00005258223973214626,0.0006623840890824795
1782987235149353200,7.226353271484375,-0.0010973128955811262,-0.0012145193759351969,-0.00010726944310590625
1782987235159427300,7.23642724609375,0.0006906463531777263,0.0011527501046657562,-0.0003852445515803993
1782987235169501200,7.246501220703125,-0.0027205967344343662,0.0006334336940199137,-0.0001492884912295267
1782987235179576300,7.256576416015625,-0.0008179130381904542,0.0006821388378739357,0.0005241992766968906
1782987235189650200,7.266650146484375,-0.0007907488034106791,-0.0024947458878159523,0.0011327315587550402
1782987235199725300,7.276725341796875,-0.000834082078654319,-0.0030517950654029846,0.0007202696288004518
1782987235209799200,7.286799072265625,-0.0011920109391212463,0.0012462805025279522,0.0010491700377315283
1782987235219874300,7.296874267578125,0.00013932667206972837,-0.000990319880656898,0.001169477473013103
1782987235229948200,7.3069482421875,-0.0001517568016424775,0.002213995670899749,-0.0021171297412365675
1782987235240022500,7.3170224609375,0.0004690950736403465,0.0004972862079739571,-0.0005377954803407192
1782987235250097200,7.32709716796875,-0.00016127515118569136,0.001669076969847083,0.0013240204425528646
1782987235260171500,7.337171630859375,0.0009505391353741288,-0.0005224921042099595,-0.0009544063359498978
1782987235270246100,7.34724609375,0.00017902127001434565,0.00031906692311167717,-0.0023645502515137196
1782987235280320500,7.357320556640625,-0.0006865038885734975,0.0004906018730252981,0.0017438562354072928
1782987235290394400,7.367394287109375,-0.0005442910478450358,-0.00030195480212569237,0.000097223739430774
1782987235300469500,7.377469482421875,-0.0009830603376030922,-0.00015931064262986183,0.0027135517448186874
1782987235310543400,7.38754345703125,0.0006878067506477237,0.0007024882361292839,0.0029508396983146667
1782987235320618500,7.397618408203125,-0.0002383948303759098,-0.0017222785390913486,-0.0012532570399343967
1782987235330692400,7.4076923828125,0.0010098287602886558,-0.0005526182940229774,0.0016780843725427985
1782987235340767500,7.417767578125,-0.0001075017498806119,0.0005274442955851555,-0.0006835365784354508
1782987235350841300,7.42784130859375,-0.0002925914013758302,0.00025793234817683697,0.0007369935628958046
1782987235360915700,7.437915771484375,-0.00016062590293586254,0.00024033919908106327,0.00035176813253201544
1782987235370990800,7.447990966796875,-0.0007313412497751415,-0.0007578135700896382,0.0022692440543323755
1782987235381064700,7.458064697265625,-0.0020660010632127523,-0.0009263347601518035,-0.0009425529860891402
1782987235391139800,7.468139892578125,-0.0004896760801784694,-0.0004895763704553246,0.0009152682032436132
1782987235401213700,7.478213623046875,0.0008782037766650319,0.000580118503421545,-0.0022804772015661
1782987235411288800,7.488288818359375,-0.0007303455495275557,0.0005265891086310148,0.0037617026828229427
1782987235421362700,7.49836279296875,0.0017540892586112022,-0.00031695852521806955,0.0005732181016355753
1782987235431436800,7.508436767578125,-0.0011077437084168196,-0.0009585140505805612,-0.0001223995495820418
1782987235441511700,7.51851171875,0.0011637343559414148,0.0013336539268493652,0.0022223712876439095
1782987235451585800,7.528585693359375,-0.0014999593840911984,0.0010505598038434982,-0.001765712397173047
1782987235461660700,7.53866064453125,-0.0002817522035911679,-0.0024421208072453737,-0.00246201129630208
1782987235471734800,7.54873486328125,0.002640268299728632,0.00033342582173645496,0.0016395231941714883
1782987235481809700,7.5588095703125,-0.0004424409125931561,0.001594512490555644,0.00020023551769554615
1782987235491883800,7.5688837890625,0.0009695669868960977,0.000529514392837882,0.00023432397574651986
1782987235501957600,7.57895751953125,-0.0007236505043692887,0.0015657134354114532,-0.0033876909874379635
1782987235512032800,7.58903271484375,-0.001738847466185689,0.0014155111275613308,0.0017567372415214777
1782987235522106600,7.599106689453125,-0.0005849514272995293,0.0013857188168913126,-0.0017549458425492048
1782987235532181800,7.609181640625,-0.0015554073033854365,0.0008051495533436537,0.0009135415311902761
1782987235542255600,7.619255615234375,0.00018921250011771917,-0.00044768990483134985,-0.0020848128478974104
1782987235552330800,7.629330810546875,0.0011743158102035522,0.0006838871631771326,-0.0011292705312371254
1782987235562404600,7.639404541015625,0.001200883649289608,-0.0005864502163603902,-0.0013447933597490191
1782987235572478700,7.649478759765625,0.0009311055764555931,0.0013195741921663284,0.0011183642782270908
1782987235582553600,7.6595537109375,-0.00043346668826416135,0.00001928047277033329,0.001535894931294024
1782987235592627700,7.669627685546875,-0.002408467000350356,-0.001552783534862101,0.0037393944803625345
1782987235602702600,7.67970263671875,-0.0008338873740285635,0.0010941987857222557,-0.002183889504522085
1782987235612776700,7.689776611328125,-0.0014317670138552785,-0.0008347288239747286,0.0013783546164631844
1782987235622851600,7.6998515625,0.00008534896187484264,0.000021365005522966385,-0.0006896585691720247
1782987235632925700,7.70992578125,-0.00005952699575573206,-0.0014154104283079505,0.001076549757272005
1782987235642999600,7.71999951171875,0.00007027853280305862,0.00015859282575547695,-0.0004266071773599833
1782987235653074700,7.73007470703125,0.0003376598469913006,-0.00027523620519787073,-0.002149139763787389
1782987235663148500,7.7401484375,-0.0017574651865288615,0.0015526630450040102,0.001109035685658455
1782987235673223700,7.7502236328125,0.0015280767111107707,0.0008996559772640467,-0.0005130957579240203
1782987235683297500,7.760297607421875,-0.0007828233647160232,-0.000033951131626963615,0.0005045922589488328
1782987235693371600,7.77037158203125,-0.0008326245006173849,0.00023822393268346786,-0.002948728622868657
1782987235703446500,7.780446533203125,0.0012664191890507936,0.00007550581358373165,-0.0008136753458529711
1782987235713520600,7.790520751953125,-0.0009392107021994889,0.0005261125043034554,-0.0022163623943924904
1782987235723595500,7.800595458984375,-0.0017421073280274868,-0.0005435491912066936,0.0023075274657458067
1782987235733669600,7.810669677734375,-0.002108291955664754,-0.0018106813076883554,-0.0033966973423957825
1782987235743744500,7.82074462890625,0.0016908040270209312,0.0012784290593117476,0.00018071189697366208
1782987235753818600,7.830818603515625,-0.00022613920737057924,0.002853422425687313,0.0010116181802004576
1782987235763892700,7.840892822265625,-0.0022214995697140694,0.0009922431781888008,0.0008048558374866843
1782987235773967600,7.850967529296875,0.00143102603033185,-0.0010847562225535512,-0.00010940732317976654
1782987235784041700,7.861041748046875,-0.00151777733117342,0.0018242050427943468,-0.004077430814504623
1782987235794116600,7.87111669921875,0.0005387156270444393,0.00001458730548620224,-0.001755687058903277
1782987235804190700,7.881190673828125,0.0020776279270648956,-0.0010455662850290537,0.0008559448760934174
1782987235814265600,7.891265625,-0.0016558575443923473,0.002534787403419614,-0.0005038651870563626
1782987235824339700,7.901339599609375,-0.0009342153207398951,0.001556182513013482,-0.0014335083542391658
1782987235834413800,7.911413818359375,0.0028480058535933495,-0.0023847632110118866,0.0024025088641792536
1782987235844488700,7.92148876953125,0.0020553860813379288,-0.0014003455871716142,-0.0001985139970201999
1782987235854562800,7.931562744140625,-0.0017420153599232435,0.0008111433126032352,0.00168620515614748
1782987235864637700,7.9416376953125,-0.0005335105233825743,0.0010878709144890308,0.0005054083303548396
1782987235874711800,7.9517119140625,-0.0006440316792577505,-0.003714074846357107,0.00041805661749094725
1782987235884786700,7.96178662109375,0.0007613806519657373,-0.00014012190513312817,0.0004915288300253451
1782987235894860800,7.97186083984375,0.0014199803117662668,0.0014830748550593853,-0.001198779558762908
1782987235904934700,7.9819345703125,-0.0009143626666627824,0.0012767615262418985,0.00015449045167770237
1782987235915009800,7.992009765625,-0.0011497860541567206,0.0005332068540155888,0.0008181501762010157
1782987235925083600,8.002083740234376,-0.0006607462419196963,-0.0004691935610026121,-0.002594629069790244
1782987235935158800,8.01215869140625,-0.000665806292090565,0.00007595540955662727,0.002660054014995694
1782987235945232600,8.022232666015626,-0.0009327890002168715,0.002353047253564,0.000557033927179873
1782987235955307800,8.032307861328125,-0.0012270683655515313,-0.0012123928172513843,0.001359976944513619
1782987235965381600,8.042381591796875,-0.00017539411783218384,-0.0014223014004528522,0.0003181642387062311
1782987235975455700,8.052455810546874,0.00047042244113981724,0.002498137764632702,0.0018161922926083207
1782987235985530600,8.062530517578125,0.0020128723699599504,0.00017728586681187153,0.0010360805317759514
1782987235995604700,8.072604736328126,0.0001856775488704443,0.000028681475669145584,0.000017155158275272697
1782987236005679600,8.0826796875,-0.0023289660457521677,0.0013533199671655893,0.0006194995949044824
1782987236015753700,8.092753662109375,0.0012873405357822776,0.0011935303919017315,0.0006237606285139918
1782987236025828600,8.10282861328125,0.0010142546379938722,-0.001660777721554041,0.0011829078430309892
1782987236035902700,8.11290283203125,0.00018414738588035107,0.002307332120835781,-0.0020477729849517345
1782987236045976600,8.1229765625,0.00041593622881919146,-0.0007485112873837352,-0.00014388478302862495
1782987236056051700,8.1330517578125,0.0008319220505654812,0.0014531239867210388,0.0006473403773270547
1782987236066125600,8.14312548828125,-0.00007573096081614494,-0.0002664154162630439,0.0010486773680895567
1782987236076200700,8.15320068359375,0.0001450449926778674,0.0005839318037033081,0.0003964692587032914
1782987236086274600,8.163274658203125,-0.0015003220178186893,0.0015861450228840113,-0.0002110163914039731
1782987236096349700,8.173349609375,-0.0013903334038332105,-0.0006114955758675933,0.0010451966663822532
1782987236106423600,8.183423583984375,-0.0004124135011807084,-0.0011784312082454562,-0.0002186903147958219
1782987236116497700,8.19349755859375,-0.0001540868543088436,0.000029312213882803917,0.00020421965746209025
1782987236126572500,8.203572509765625,0.000933150527998805,-0.00042302662041038275,0.0002609752700664103
1782987236136646700,8.213646728515625,0.001960065448656678,0.0014936504885554314,0.0027060233987867832
1782987236146721500,8.223721435546874,0.0012224013917148113,0.001069996040314436,0.001078608795069158
1782987236156795600,8.233795654296875,0.000745962024666369,-0.0000328191090375185,0.001367029151879251
1782987236166869800,8.243869873046876,-0.0016703455476090312,-0.0024937705602496862,-0.0023958650417625904
1782987236176944600,8.253944580078125,-0.0006793832872062922,0.0004551478195935488,-0.00008663810149300843
1782987236187018800,8.264018798828126,0.0003694469342008233,0.0013534727040678263,0.0012841501738876104
1782987236197093600,8.27409375,0.0014450977323576808,0.0006538601592183113,0.0012423385633155704
1782987236207167700,8.284167724609375,-0.0026447116397321224,0.002127670915797353,-0.002104532904922962
1782987236217242600,8.29424267578125,0.001045897020958364,-0.0001016613095998764,-0.0022512730211019516
1782987236227316700,8.304316650390625,0.001174346311017871,0.00023696408607065678,-0.0007366596255451441
1782987236237390800,8.314390869140626,0.0019445326179265976,-0.0016102043446153402,0.001227421686053276
1782987236247465700,8.3244658203125,-0.0015102116158232093,-0.00033337133936583996,0.0007043777732178569
1782987236257539800,8.334539794921875,0.0003779695834964514,-0.001252428162842989,-0.0006152185378596187
1782987236267614700,8.34461474609375,0.0011520023690536618,-0.0021598890889436007,-0.002158916788175702
1782987236277688800,8.354688720703125,-0.0011700077448040247,-0.0002016667276620865,-0.0006888519274070859
1782987236287763700,8.364763671875,-0.0006320216343738139,-0.0002861990360543132,-0.0004914090968668461
1782987236297837800,8.374837890625,-0.00012042839080095291,0.0003007615450769663,-0.0018456265097483993
1782987236307911700,8.38491162109375,-0.0002669077948667109,-0.000738079659640789,0.001285349135287106
1782987236317986800,8.39498681640625,0.0003078023437410593,-0.000040331389755010605,-0.0025900828186422586
1782987236328060700,8.405060791015625,0.00017568853218108416,0.00003855861723423004,-0.0012388969771564007
1782987236338135800,8.4151357421875,0.0001498558558523655,0.00112139992415905,0.0009358403040096164
1782987236348209700,8.425209716796875,-0.0003402160364203155,0.0013141839299350977,-0.002162215067073703
1782987236358283800,8.43528369140625,-0.00007389986421912909,0.002038563834503293,0.0013230637414380908
1782987236368357600,8.445357666015624,-0.0008193713147193193,0.00030659977346658707,-0.0010308438213542104
1782987236378431700,8.455431640625,-0.009610466659069061,-0.1099163144826889,-0.006983807776123285
1782987236388506600,8.465506591796874,-0.0036427457816898823,0.0023108432069420815,0.002651121001690626
1782987236398580700,8.475580810546875,0.0007461433997377753,0.07606469094753265,-0.008759991265833378
1782987236408655600,8.485655517578126,0.003205610904842615,-0.1090221256017685,0.0005465707508847117
1782987236418729700,8.495729736328125,0.0003206082619726658,-0.029858332127332687,-0.0017807657131925225
1782987236428804600,8.5058046875,-0.0004269155324436724,0.027727490290999413,0.00027490779757499695
1782987236438878700,8.515878662109374,0.0002710990374907851,-0.03344212472438812,0.0012738595250993967
1782987236448952600,8.52595263671875,-0.0019879143219441175,-0.033535659313201904,-0.004580305423587561
1782987236459027700,8.53602783203125,-0.0019815226551145315,-0.036474987864494324,-0.0019216714426875114
1782987236469101600,8.5461015625,-0.0022989464923739433,-0.024970877915620804,-0.00390182645060122
1782987236479176700,8.5561767578125,-0.0014941392000764608,-0.01767248474061489,-0.0013651654589921236
1782987236489250600,8.56625048828125,0.001403458183631301,-0.016739146783947945,-0.002911373507231474
1782987236499325700,8.57632568359375,-0.0016876728041097522,-0.009862333536148071,-0.0024346676655113697
1782987236509399600,8.586399658203124,0.0003059291047975421,-0.0022347737103700638,0.00037949474062770605
1782987236519473700,8.5964736328125,-0.00003921648021787405,-0.004241731949150562,-0.00021012914658058435
1782987236529548500,8.606548583984376,0.000033349962905049324,-0.004823400638997555,0.0027036103419959545
1782987236539622700,8.61662255859375,0.0001899439375847578,-0.0029938090592622757,-0.0005949810147285461
1782987236549697500,8.626697509765625,-0.0016259541735053062,-0.0013930180575698614,-0.001028035650961101
1782987236559772000,8.63677197265625,0.0012667713453993201,0.0022581759840250015,-0.0023649425711482763
1782987236569845800,8.646845703125,0.0011462924303486943,0.003032933920621872,0.0026794227305799723
1782987236579921000,8.6569208984375,0.0002639872254803777,0.004520842339843512,0.0006002928712405264
1782987236589994800,8.666994873046875,-0.0018696158658713102,0.005071909632533789,-0.0010093188611790538
1782987236600070000,8.67706982421875,-0.0010592159815132618,0.004275890998542309,0.0006258620996959507
1782987236610143700,8.687143798828124,-0.00040862325113266706,0.0067373462952673435,0.002590401330962777
1782987236620219000,8.697218994140625,-0.001952457707375288,0.007998086512088776,0.0024985221680253744
1782987236630292700,8.707292724609376,-0.0059975613839924335,0.021640900522470474,0.0014380750944837928
1782987236640366800,8.717366943359375,-0.024761393666267395,0.03947662562131882,0.005491139832884073
1782987236650441700,8.727441650390626,-0.02313311956822872,0.056934550404548645,0.003200095146894455
1782987236660515800,8.737515869140625,-0.017545009031891823,0.015314670279622078,0.0008008532458916306
1782987236670590700,8.7475908203125,-0.042024727910757065,-0.009236127138137817,-0.0037974813021719456
1782987236680664800,8.757664794921874,-0.06726803630590439,0.009723449125885963,0.0008750348351895809
1782987236690739700,8.76773974609375,-0.08693365007638931,0.004431234207004309,0.0005258228629827499
1782987236700813800,8.777813720703126,-0.1105649471282959,0.0020138826221227646,-0.0027085861656814814
1782987236710887700,8.7878876953125,-0.14371374249458313,-0.0016504523809999228,-0.002017738064751029
1782987236720962800,8.797962890625,-0.18276846408843994,-0.004492844454944134,-0.0013982865493744612
1782987236731036700,8.80803662109375,-0.1931583732366562,0.021185075864195824,-0.0019432678818702698
1782987236741111800,8.81811181640625,-0.21647994220256805,0.008923349902033806,0.003417142666876316
1782987236751185700,8.828185546875,-0.22754059731960297,-0.002771576400846243,0.002800451358780265
1782987236761260800,8.8382607421875,-0.24537232518196106,0.018271125853061676,-0.0022787293419241905
1782987236771334700,8.848334716796876,-0.253200888633728,0.012781556695699692,-0.004626789595931768
1782987236781408800,8.85840869140625,-0.238258957862854,-0.012147760018706322,0.0027538950089365244
1782987236791483600,8.868483642578125,-0.2505582869052887,0.005174949765205383,-0.0005379177746362984
1782987236801557800,8.878557861328124,-0.25455328822135925,0.00506469514220953,-0.0029323657508939505
1782987236811632600,8.888632568359375,-0.24279417097568512,-0.0018793228082358837,-0.0015402073040604591
1782987236821706800,8.898706787109376,-0.21678733825683594,0.00546753965318203,-0.00930838193744421
1782987236831780600,8.908780517578125,-0.13842736184597015,-0.00620947265997529,0.0069290571846067905
1782987236841855700,8.918855712890625,-0.10987482219934464,0.009318087249994278,-0.005342256743460894
1782987236851929600,8.9289296875,-0.02771678939461708,-0.0033463225699961185,0.0033341243397444487
1782987236862004700,8.939004638671875,0.0066952453926205635,-0.018708234652876854,-0.0008238689042627811
1782987236872078600,8.94907861328125,0.004531634971499443,-0.0024912706576287746,0.0015299551887437701
1782987236882153700,8.95915380859375,-0.0011800462380051613,0.00105739152058959,0.0010295473039150238
1782987236892227600,8.9692275390625,0.0007221458945423365,-0.005404723808169365,-0.002157918643206358
1782987236902301700,8.9793017578125,0.0019543906673789024,-0.007942982017993927,-0.001437799888662994
1782987236912376600,8.98937646484375,-0.00044185551814734936,-0.004150100983679295,-0.002134700771421194
1782987236922450700,8.99945068359375,-0.0012005900498479605,-0.006928310729563236,-0.0001863321231212467
1782987236932525600,9.009525634765625,0.0024571442045271397,-0.012405282817780972,0.00006718122313031927
1782987236942599700,9.019599609375,-0.0005205362103879452,-0.012872667983174324,-0.002188249956816435
1782987236952674600,9.029674560546875,-0.001701141009107232,-0.013314241543412209,-0.0007061801734380424
1782987236962748700,9.039748779296875,0.00039556564297527075,-0.013372299261391163,-0.000586071633733809
1782987236972822800,9.04982275390625,-0.00045853800838813186,-0.012968323193490505,-0.0001330449158558622
1782987236982897700,9.059897705078125,0.0009617258328944445,-0.007106439210474491,-0.0001093427708838135
1782987236992971800,9.0699716796875,-0.00008676073048263788,-0.01149666029959917,-0.003611399559304118
1782987237003046700,9.080046630859375,-0.000893165881279856,-0.01338750496506691,-0.0014968496980145574
1782987237013120800,9.090120849609375,-0.0002374101895838976,-0.013715757988393307,-0.002470912877470255
1782987237023195600,9.100195556640625,-0.0011969470651820302,-0.01304171234369278,-0.0010828732047230005
1782987237033269800,9.110269775390625,-0.0006304645794443786,-0.01472240500152111,-0.0018126029754057527
1782987237043344000,9.12034375,-0.0008610943332314491,-0.013063788414001465,-0.0006551931146532297
1782987237053418800,9.130418701171875,0.0023211936932057142,-0.00878895353525877,-0.0005606999038718641
1782987237063492900,9.140492919921876,-0.0014205477200448513,-0.007605977356433868,-0.001848604530096054
1782987237073567700,9.150567626953125,-0.0028789998032152653,-0.017876947298645973,-0.002583298133686185
1782987237083641900,9.160641845703125,-0.0017628688365221024,-0.01118042878806591,-0.0015723621472716331
1782987237093716700,9.170716796875,-0.00475502572953701,-0.01319008506834507,-0.001110061421059072
1782987237103790800,9.180790771484375,-0.014145332388579845,-0.0213079322129488,-0.003445120994001627
1782987237113864700,9.19086474609375,-0.028785014525055885,-0.01904914900660515,-0.004717383999377489
1782987237123939800,9.20093994140625,-0.05732584372162819,-0.017509842291474342,-0.005248152185231447
1782987237134013700,9.211013671875,-0.11514969915151596,-0.023152519017457962,-0.003516857512295246
1782987237144088800,9.2210888671875,-0.17345455288887024,0.008579046465456486,-0.004594904836267233
1782987237154162700,9.23116259765625,-0.2103043496608734,0.00211913138628006,-0.0030384324491024017
1782987237164237800,9.24123779296875,-0.23522275686264038,-0.0025616404600441456,0.0010953262681141496
1782987237174311700,9.251311767578125,-0.23934771120548248,0.007770733442157507,0.00011029561574105173
1782987237184385800,9.2613857421875,-0.22573283314704895,0.005812244024127722,-0.0036708603147417307
1782987237194460700,9.271460693359375,-0.21479658782482147,0.011096460744738579,0.0018648105906322598
1782987237204534800,9.28153466796875,-0.19624952971935272,0.0025479793548583984,0.0033580451272428036
1782987237214609700,9.291609619140624,-0.1581759750843048,0.006092373747378588,-0.002066596643999219
1782987237224683800,9.301683837890625,-0.12786707282066345,0.0008845620322972536,0.003151068463921547
1782987237234757600,9.311757568359376,-0.12208559364080429,0.006768227554857731,0.0007557038334198296
1782987237244832800,9.321832763671875,-0.11489053070545197,-0.00039301265496760607,-0.0011292814742773771
1782987237254906600,9.33190673828125,-0.08104322105646133,0.0001354580745100975,0.0017500523244962096
1782987237264981800,9.341981689453124,-0.05335140973329544,0.006943030282855034,-0.0030582852195948362
1782987237275055600,9.3520556640625,-0.0353652760386467,0.0041202581487596035,0.0030860155820846558
1782987237285130800,9.362130859375,-0.009836480021476746,-0.00023028184659779072,-0.0015955553390085697
1782987237295204600,9.37220458984375,0.004757358226925135,-0.002216041088104248,-0.0009583340724930167
1782987237305278700,9.38227880859375,0.0011269368696957827,0.0018519375007599592,-0.0005918831448070705
1782987237315353600,9.392353515625,-0.0009863765444606543,0.003268703119829297,0.0008659067680127919
1782987237325427700,9.402427734375,0.0016906328964978456,0.003512914991006255,0.0010501975193619728
1782987237335502600,9.412502685546874,0.0027861909475177526,0.007498060818761587,0.0013601419050246477
1782987237345576700,9.42257666015625,0.0007288987981155515,0.005457812920212746,0.002459494862705469
1782987237355652400,9.43265234375,0.002091732807457447,0.005043726414442062,0.003322916105389595
1782987237365726200,9.442726318359375,0.000851232442073524,0.008861367590725422,0.0013338011922314763
1782987237375800300,9.45280029296875,0.0010051632998511195,0.022794760763645172,0.00048105698078870773
1782987237385875200,9.462875244140625,0.00029836036264896393,0.04018040746450424,0.0061240289360284805
1782987237395949300,9.47294921875,0.0014785786624997854,0.03654542565345764,0.0025399222504347563
1782987237406024200,9.483024169921874,0.00012995395809412003,0.023796873167157173,0.0023612240329384804
1782987237416098300,9.493098388671875,0.0012716418132185936,0.022088002413511276,0.0018649072153493762
1782987237426173400,9.50317333984375,0.001148071140050888,0.019449075683951378,0.004164813086390495
1782987237436247300,9.513247314453125,0.000004203408025205135,0.020955942571163177,0.0031926154624670744
1782987237446321200,9.523321044921875,0.00046546291559934616,0.032014187425374985,0.0025028567761182785
1782987237456396300,9.533396240234374,0.0009746226714923978,0.04109771549701691,0.004202146548777819
1782987237466470100,9.54347021484375,0.0001405205111950636,0.0340600460767746,0.00510069727897644
1782987237476545300,9.553545166015626,-0.0005917719681747258,0.011965859681367874,0.00027713057352229953
1782987237486619100,9.563619140625,-0.0004935013712383807,0.0018770063761621714,0.0000028249851311556995
1782987237496693200,9.573693359375,0.0011319771874696016,0.005307280924171209,0.0006978134624660015
1782987237506768100,9.58376806640625,0.0029953911434859037,0.011748935095965862,0.002326602814719081
1782987237516842200,9.59384228515625,-0.0010248877806589007,0.015010004863142967,0.0013547908747568727
1782987237526917000,9.603917236328124,-0.0006786768208257854,0.007929723709821701,0.0016775659751147032
1782987237536991200,9.6139912109375,-0.0013615023344755173,-0.0044668386690318584,0.0005357725312933326
1782987237547066400,9.62406640625,0.0012507924111559987,-0.004079614765942097,0.0014998367987573147
1782987237557140200,9.63414013671875,0.0014916092623025179,0.005499783903360367,-0.002373150549829006
1782987237567214300,9.64421435546875,-0.0008248083177022636,0.006074228323996067,0.002492444822564721
1782987237577289200,9.654289306640624,-0.00036479474510997534,-0.0001380124595016241,0.0023791149724274874
1782987237587363300,9.66436328125,0.0005835569463670254,-0.004421973135322332,0.0010589860612526536
1782987237597438200,9.674438232421876,-0.00018544134218245745,0.0007297066040337086,-0.0035607977770268917
1782987237607512300,9.68451220703125,0.0015197807224467397,0.0016807212959975004,0.00022595093469135463
1782987237617587200,9.694587158203126,0.00029793090652674437,-0.001284789526835084,-0.001366715063340962
1782987237627661300,9.704661376953124,-0.0002631971728987992,-0.0019524439703673124,-0.0012468728236854076
1782987237637735400,9.7147353515625,0.0012898723362013698,-0.00042124208994209766,0.00013838311133440584
1782987237647810300,9.724810302734374,-0.00254188384860754,0.001404088456183672,0.0013740898575633764
1782987237657884400,9.734884521484375,-0.002545819152146578,0.0006680823862552643,0.0014171088114380836
1782987237667959600,9.74495947265625,0.0021370835602283478,-0.0018528657965362072,0.0005880667013116181
1782987237678033400,9.755033447265625,0.001503440667875111,0.00014244462363421917,0.00014443343388848007
1782987237688108500,9.765108642578125,-0.000588472350500524,-0.001583550008945167,0.0017061111284419894
1782987237698182400,9.775182373046874,-0.0006179140182211995,-0.0021020108833909035,0.00038359040627256036
1782987237708256300,9.78525634765625,0.002180003095418215,-0.0015217080945149064,0.0036536857951432467
1782987237718331400,9.795331298828126,0.00024118798319250345,0.0014211442321538925,0.0007648043683730066
1782987237728405200,9.8054052734375,-0.0001351166283711791,-0.0002984588500112295,0.0026524527929723263
1782987237738480400,9.81548046875,0.0003102758200839162,-0.00046636571642011404,-0.0002974307572003454
1782987237748554200,9.82555419921875,0.0011992388172075152,0.0014716165605932474,0.0023225871846079826
1782987237758629400,9.83562939453125,0.00020745187066495419,-0.00037557503674179316,-0.0009320408571511507
1782987237768703200,9.845703125,0.0010178517550230026,0.00022683199495077133,-0.00044734557741321623
1782987237778777300,9.85577734375,-0.001654764753766358,-0.0003507930086925626,-0.00047334731789305806
1782987237788852200,9.865852294921876,-0.0015128182712942362,-0.0005654437700286508,-0.0005468505551107228
1782987237798927400,9.87592724609375,-0.0008360515930689871,-0.0000652470625936985,-0.0008254650747403502
1782987237809001500,9.88600146484375,-0.0004480290226638317,-0.0012820453848689795,-0.001265419297851622
1782987237819076400,9.896076416015624,-0.000327008543536067,0.00046383123844861984,0.0009596761665306985
1782987237829150500,9.906150390625,0.0003539617173373699,-0.0015188921242952347,-0.0010968167334794998
1782987237839225300,9.916225341796874,-0.0007249893387779593,0.0008998014964163303,0.000339572288794443
1782987237849299500,9.926299560546875,-0.00011432648170739412,0.0008231024257838726,0.0009579582838341594
1782987237859373300,9.936373291015625,0.0007690632482990623,0.0008504074066877365,-0.0020255823619663715
1782987237869448400,9.946448486328125,-0.003037126502022147,-0.0009493568213656545,-0.0011217055143788457
1782987237879522300,9.956522216796875,0.0027313202153891325,-0.016508923843503,0.0025083268992602825
1782987237889597400,9.966597412109374,0.0018447539769113064,-0.0073721520602703094,-0.0014078514650464058
1782987237899671300,9.97667138671875,-0.001766266068443656,0.01041062269359827,-0.0023608743213117123
1782987237909746400,9.986746337890626,0.0006667979760095477,0.006527201272547245,0.0010066928807646036
1782987237919820300,9.9968203125,0.0016690121265128255,-0.003066328354179859,-0.0003556585870683193
1782987237929894400,10.006894287109375,0.0031007276847958565,-0.005459710955619812,-0.0015258515486493707
1782987237939969300,10.01696923828125,-0.00018376647494733334,0.004317713901400566,-0.002381333149969578
1782987237950043400,10.02704345703125,-0.0012069529620930552,0.0030734846368432045,-0.0009506830247119069
1782987237960118300,10.0371181640625,0.0008278823224827647,-0.0014377591433003545,0.0018449825001880527
1782987237970192400,10.0471923828125,-0.0014163634041324258,-0.00018127984367311,-0.00039873074274510145
1782987237980267300,10.057267333984376,-0.00038792763371020555,0.00027578813023865223,0.0019664722494781017
1782987237990341400,10.06734130859375,0.0015039821155369282,-0.002460876014083624,-0.0012668714625760913
1782987238000415200,10.077415283203125,0.0004883661167696118,-0.0009584114886820316,-0.0008820209768600762
1782987238010490400,10.087490478515624,-0.0013002128107473254,-0.0005831721937283874,-0.0009909443324431777
1782987238020564200,10.097564208984375,-0.0002486910088919103,-0.0002266166266053915,0.0014790637651458383
1782987238030639400,10.107639404296876,0.0017878281651064754,-0.0001858703326433897,0.00035467720590531826
1782987238040713200,10.117713134765625,0.0008114378433674574,-0.0010542552918195724,0.0016887026140466332
1782987238050787300,10.127787353515625,0.0006540450267493725,-0.0011943374993279576,0.0002876135695260018
1782987238060862200,10.1378623046875,-0.0025318944826722145,-0.0023333714343607426,0.003423219546675682
1782987238070936300,10.147936279296875,-0.0013111014850437641,-0.0032194051891565323,0.00023621456057298928
1782987238081011200,10.15801123046875,0.00014090887270867825,0.0014012639876455069,0.002020413288846612
1782987238091085300,10.168085205078125,0.0033835736103355885,0.00028992677107453346,0.0010643383720889688
1782987238101160200,10.17816015625,-0.0021642735227942467,-0.002395999850705266,-0.0013343237806111574
1782987238111234300,10.188234375,0.0000048710498958826065,-0.0019629700109362602,-0.0001976866042241454
1782987238121308400,10.198308349609375,-0.0007661051349714398,0.0014934663195163012,0.00010821444448083639
1782987238131383300,10.20838330078125,0.0003654719330370426,0.0020937426015734673,0.000113008136395365
1782987238141457400,10.21845751953125,0.00035509432200342417,-0.0003122377675026655,-0.0006165275117382407
1782987238151532300,10.2285322265625,-0.0005439888336695731,-0.0006699003279209137,0.0018503585597500205
1782987238161606400,10.2386064453125,0.00031841068994253874,0.003434574231505394,-0.0007400517351925373
1782987238171681300,10.248681396484375,-0.0009029150241985917,0.0002350525464862585,-0.0003616165486164391
1782987238181755400,10.25875537109375,-0.00006962125189602375,0.0015155801083892584,-0.0002264974609715864
1782987238191829500,10.26882958984375,-0.0005247555091045797,0.0008556488901376724,0.0014853824395686388
1782987238201904400,10.278904296875,-0.00015428231563419104,-0.000988831277936697,0.00012661502114497125
1782987238211978500,10.288978515625,0.0000441231532022357,-0.0012258526403456926,0.00007734654354862869
1782987238222053400,10.299053466796876,0.001169547438621521,0.000013823620975017548,-0.0011037427466362715
1782987238232127500,10.30912744140625,-0.0011809584684669971,0.0020277060102671385,0.0031272212509065866
1782987238242202400,10.319202392578125,-0.00005283404607325792,-0.000009159324690699577,0.0018392198253422976
1782987238252276500,10.3292763671875,-0.0024683210067451,-0.0006784118013456464,0.0013992656022310257
1782987238262350300,10.339350341796875,0.0004042502259835601,-0.002163541503250599,0.001881951466202736
1782987238272425500,10.349425537109376,0.0004508555866777897,-0.001467124791815877,-0.0012691006995737553
1782987238282499300,10.359499267578125,-0.0007215631194412708,-0.0018482585437595844,0.00004194917710265145
1782987238292574500,10.369574462890625,0.001309629762545228,0.0008822805248200893,0.0015266614500433207
1782987238302648300,10.3796484375,-0.0006403464358299971,0.02059374563395977,0.008792394772171974
1782987238312723500,10.389723388671875,-0.002225992502644658,0.0327494814991951,0.011512546800076962
1782987238322797300,10.39979736328125,-0.0029740948230028152,0.0317661315202713,0.006670049857348204
1782987238332871400,10.409871337890625,-0.0010369113879278302,0.021184060722589493,0.010014447383582592
1782987238342946300,10.4199462890625,-0.001999347936362028,0.017833834514021873,0.010065288282930851
1782987238353020400,10.4300205078125,-0.001049664570018649,0.00685654953122139,0.007684688549488783
1782987238363095600,10.440095458984375,-0.00257050059735775,-0.00032968877349048853,0.006338751874864101
1782987238373169400,10.45016943359375,-0.004837649874389172,-0.007569225504994392,-0.0009945288766175508
1782987238383244500,10.46024462890625,-0.006811670493334532,-0.022115793079137802,-0.006248001474887133
1782987238393318400,10.470318359375,-0.041503071784973145,-0.016758311539888382,-0.01124302577227354
1782987238403392500,10.480392578125,-0.01532810740172863,-0.02643905207514763,-0.0158523041754961
1782987238413467400,10.49046728515625,-0.0031409496441483498,0.00014302227646112442,-0.0020518037490546703
1782987238423541500,10.50054150390625,0.009099641814827919,0.01563805714249611,-0.0001681742287473753
