time,seconds_elapsed,z,y,x
1782986221626378500,0.05937841796875,-0.483184814453125,-0.0911102294921875,-0.1868438720703125
1782986221636452400,0.069452392578125,-0.64727783203125,-0.121734619140625,-0.125457763671875
1782986221646526500,0.0795263671875,-0.8163909912109375,-0.270721435546875,0.00640869140625
1782986221656600600,0.0896005859375,-1.004241943359375,-0.5651702880859375,0.1728668212890625
1782986221666675500,0.099675537109375,-1.2748260498046875,-0.9289398193359375,0.2666778564453125
1782986221676749600,0.10974951171875,-1.6016845703125,-1.2987518310546875,0.2881927490234375
1782986221686823700,0.11982373046875,-1.822052001953125,-1.59295654296875,0.265411376953125
1782986221696898600,0.129898681640625,-1.9008331298828125,-1.6931304931640625,0.232269287109375
1782986221706972700,0.13997265625,-1.9259490966796875,-1.701690673828125,0.238311767578125
1782986221717046500,0.150046630859375,-2.050262451171875,-1.8219146728515625,0.2044219970703125
1782986221727120400,0.160120361328125,-2.2548828125,-1.9082489013671875,0.010589599609375
1782986221737195500,0.170195556640625,-2.417510986328125,-1.9640960693359375,-0.20928955078125
1782986221747269400,0.180269287109375,-2.3563995361328125,-2.048736572265625,-0.2786407470703125
1782986221757343500,0.190343505859375,-2.0774383544921875,-2.0972900390625,-0.2177734375
1782986221767418600,0.200418701171875,-1.7548065185546875,-2.032928466796875,-0.1475982666015625
1782986221777492500,0.210492431640625,-1.520263671875,-1.8902130126953125,-0.06683349609375
1782986221787566300,0.22056640625,-1.556793212890625,-1.734344482421875,0.0327606201171875
1782986221797640400,0.230640380859375,-1.693572998046875,-1.4542694091796875,-0.03704833984375
1782986221807715300,0.24071533203125,-1.6279754638671875,-1.1240997314453125,-0.2077178955078125
1782986221817789400,0.25078955078125,-1.3408203125,-0.8885040283203125,-0.262908935546875
1782986221827863600,0.260863525390625,-0.9478759765625,-0.6915283203125,-0.244659423828125
1782986221837938400,0.2709384765625,-0.5742950439453125,-0.47467041015625,-0.199951171875
1782986221848012500,0.281012451171875,-0.3115692138671875,-0.2751922607421875,-0.0868988037109375
1782986221858086700,0.291086669921875,-0.1472320556640625,-0.13232421875,0.0654144287109375
1782986221868160500,0.301160400390625,-0.0714874267578125,-0.0901336669921875,0.175079345703125
1782986221878235600,0.311235595703125,-0.0207061767578125,-0.066558837890625,0.200653076171875
1782986221888309500,0.3213095703125,0.0469207763671875,-0.01763916015625,0.197235107421875
1782986221898383600,0.331383544921875,0.070037841796875,-0.0105743408203125,0.1983489990234375
1782986221908457500,0.34145751953125,0.0681304931640625,-0.0365447998046875,0.165069580078125
1782986221918532600,0.35153271484375,0.0597076416015625,-0.0724334716796875,0.076812744140625
1782986221928606500,0.3616064453125,0.075408935546875,-0.08203125,-0.058746337890625
1782986221938680300,0.371680419921875,0.117919921875,-0.0669708251953125,-0.1685638427734375
1782986221948755500,0.38175537109375,0.172607421875,-0.1082000732421875,-0.21484375
1782986221958829300,0.391829345703125,0.233673095703125,-0.1509246826171875,-0.2471771240234375
1782986221968903400,0.4019033203125,0.2777099609375,-0.151947021484375,-0.2776947021484375
1782986221978977500,0.4119775390625,0.2951202392578125,-0.1393280029296875,-0.2764434814453125
1782986221989052400,0.422052490234375,0.2614593505859375,-0.143798828125,-0.2349395751953125
1782986221999126500,0.43212646484375,0.1621246337890625,-0.1466522216796875,-0.1732940673828125
1782986222009200600,0.44220068359375,0.0341949462890625,-0.129547119140625,-0.119049072265625
1782986222019275500,0.452275634765625,-0.0830841064453125,-0.1342010498046875,-0.0749664306640625
1782986222029349600,0.462349609375,-0.1697235107421875,-0.1384735107421875,-0.060150146484375
1782986222039423500,0.472423583984375,-0.2023773193359375,-0.123199462890625,-0.0826568603515625
1782986222049497600,0.48249755859375,-0.1937408447265625,-0.118865966796875,-0.1018524169921875
1782986222059572500,0.492572509765625,-0.180694580078125,-0.1343231201171875,-0.108428955078125
1782986222069646600,0.502646484375,-0.1659088134765625,-0.10845947265625,-0.09320068359375
1782986222079720400,0.512720458984375,-0.15179443359375,-0.1071319580078125,-0.0787811279296875
1782986222089795600,0.522795654296875,-0.116363525390625,-0.123931884765625,-0.083770751953125
1782986222099869400,0.532869384765625,-0.0751953125,-0.105926513671875,-0.097564697265625
1782986222109943300,0.542943359375,-0.0730743408203125,-0.099578857421875,-0.1025848388671875
1782986222120017400,0.553017333984375,-0.1129150390625,-0.121368408203125,-0.092987060546875
1782986222130092500,0.563092529296875,-0.170166015625,-0.1247406005859375,-0.08306884765625
1782986222140166400,0.57316650390625,-0.226104736328125,-0.1302490234375,-0.0979461669921875
1782986222150240500,0.583240478515625,-0.2550506591796875,-0.1608123779296875,-0.14678955078125
1782986222160315400,0.5933154296875,-0.2853546142578125,-0.1988677978515625,-0.18829345703125
1782986222170389500,0.603389404296875,-0.3612213134765625,-0.2727203369140625,-0.1892547607421875
1782986222180463600,0.613463623046875,-0.556427001953125,-0.38421630859375,-0.1240234375
1782986222190537500,0.623537353515625,-0.951080322265625,-0.57611083984375,-0.014251708984375
1782986222200612600,0.633612548828125,-1.24658203125,-0.808563232421875,0.1043701171875
1782986222210686500,0.6436865234375,-1.447540283203125,-1.144287109375,0.3193359375
1782986222220760600,0.653760498046875,-1.7600860595703125,-1.5013885498046875,0.6422271728515625
1782986222230835500,0.66383544921875,-2.182373046875,-1.7891845703125,0.8940582275390625
1782986222240909600,0.67390966796875,-2.5746917724609375,-1.998443603515625,0.921539306640625
1782986222250983400,0.6839833984375,-2.8663330078125,-2.0917510986328125,0.71856689453125
1782986222261057500,0.6940576171875,-3.0814056396484375,-2.1902313232421875,0.3863372802734375
1782986222271132400,0.70413232421875,-3.0490264892578125,-2.2371063232421875,0.0296783447265625
1782986222281206500,0.71420654296875,-2.7375030517578125,-2.3650054931640625,-0.1841583251953125
1782986222291280400,0.7242802734375,-2.4599151611328125,-2.42706298828125,-0.419891357421875
1782986222301355500,0.73435546875,-2.3132171630859375,-2.3448028564453125,-0.6460113525390625
1782986222311429400,0.744429443359375,-2.1300811767578125,-2.2092437744140625,-0.696990966796875
1782986222321503500,0.75450341796875,-1.8881072998046875,-1.929931640625,-0.5594635009765625
1782986222331577600,0.76457763671875,-1.729248046875,-1.6215362548828125,-0.2999420166015625
1782986222341652500,0.774652587890625,-1.5784149169921875,-1.4085235595703125,-0.1298370361328125
1782986222351726600,0.7847265625,-1.3340301513671875,-1.183868408203125,-0.1650390625
1782986222361800400,0.794800537109375,-1.0451507568359375,-0.9112701416015625,-0.324798583984375
1782986222371875600,0.80487548828125,-0.776092529296875,-0.656158447265625,-0.429931640625
1782986222381949400,0.814949462890625,-0.611114501953125,-0.4146881103515625,-0.421478271484375
1782986222392023600,0.8250234375,-0.5540313720703125,-0.182464599609375,-0.35009765625
1782986222402097400,0.835097412109375,-0.5074920654296875,-0.001220703125,-0.2700347900390625
1782986222412172500,0.845172607421875,-0.5185394287109375,0.1052093505859375,-0.231475830078125
1782986222422246400,0.855246337890625,-0.54779052734375,0.1747894287109375,-0.2114105224609375
1782986222432320500,0.865320556640625,-0.5411529541015625,0.225982666015625,-0.1529693603515625
1782986222442395400,0.8753955078125,-0.5366973876953125,0.2520599365234375,-0.0483245849609375
1782986222452469500,0.885469482421875,-0.4975433349609375,0.2669525146484375,0.048675537109375
1782986222462543400,0.89554345703125,-0.33453369140625,0.247283935546875,0.0348358154296875
1782986222472617700,0.90561767578125,-0.1220245361328125,0.230377197265625,-0.0770416259765625
1782986222482692600,0.915692626953125,0.0296478271484375,0.206268310546875,-0.0985107421875
1782986222492766700,0.9257666015625,0.138092041015625,0.16595458984375,0.0181732177734375
1782986222502840600,0.935840576171875,0.194793701171875,0.15777587890625,0.0686798095703125
1782986222512915700,0.945915771484375,0.1959991455078125,0.1548614501953125,0.0899200439453125
1782986222522989600,0.955989501953125,0.1768951416015625,0.11553955078125,0.10540771484375
1782986222533063400,0.9660634765625,0.154754638671875,0.0801849365234375,0.07098388671875
1782986222543137500,0.976137451171875,0.1226654052734375,0.0381011962890625,-0.0026092529296875
1782986222553212400,0.98621240234375,0.078338623046875,-0.0098114013671875,-0.05743408203125
1782986222563286500,0.99628662109375,0.033050537109375,-0.031341552734375,-0.0751495361328125
1782986222573360400,1.0063603515625,-0.001556396484375,-0.04010009765625,-0.0661773681640625
1782986222583435500,1.016435546875,-0.0356597900390625,-0.0490264892578125,-0.03466796875
1782986222593509400,1.02650927734375,-0.03387451171875,-0.0708160400390625,-0.0003509521484375
1782986222603583500,1.03658349609375,0.01824951171875,-0.094207763671875,0.0088958740234375
1782986222613657900,1.046657958984375,0.0853118896484375,-0.0948638916015625,0.0042877197265625
1782986222623733000,1.05673291015625,0.1272430419921875,-0.0971221923828125,-0.0025177001953125
1782986222633806800,1.066806884765625,0.1280059814453125,-0.108154296875,-0.004638671875
1782986222643881000,1.076880859375,0.0790863037109375,-0.11456298828125,-0.0016937255859375
1782986222653955000,1.086955078125,-0.02752685546875,-0.1201629638671875,-0.005340576171875
1782986222664030000,1.097030029296875,-0.1498260498046875,-0.1269683837890625,-0.029266357421875
1782986222674104000,1.10710400390625,-0.169677734375,-0.1419677734375,-0.08135986328125
1782986222684178000,1.117177978515625,-0.12774658203125,-0.158660888671875,-0.1463470458984375
1782986222694253000,1.127253173828125,-0.11029052734375,-0.16717529296875,-0.1963348388671875
1782986222704327000,1.137326904296875,-0.1212615966796875,-0.17926025390625,-0.224639892578125
1782986222714401000,1.147401123046875,-0.2020416259765625,-0.1964111328125,-0.2596435546875
1782986222724475000,1.157474853515625,-0.3212432861328125,-0.194122314453125,-0.307586669921875
1782986222734550000,1.167550048828125,-0.440948486328125,-0.1824493408203125,-0.3554534912109375
1782986222744623900,1.177623779296875,-0.5875396728515625,-0.237030029296875,-0.4095458984375
1782986222754698000,1.187697998046875,-0.7354278564453125,-0.3823699951171875,-0.527801513671875
1782986222764772900,1.19777294921875,-0.901641845703125,-0.5501556396484375,-0.619537353515625
1782986222774847000,1.207846923828125,-1.0015411376953125,-0.81854248046875,-0.42034912109375
1782986222784920800,1.2179208984375,-0.889404296875,-1.154083251953125,0.101959228515625
1782986222794996000,1.227995849609375,-0.7158355712890625,-1.4720001220703125,0.4307403564453125
1782986222805069800,1.23806982421875,-0.9518585205078125,-1.763092041015625,0.2138519287109375
1782986222815144000,1.24814404296875,-1.85247802734375,-1.749481201171875,-0.480743408203125
1782986222825218000,1.258218017578125,-3.07989501953125,-1.6300811767578125,-1.3754730224609375
1782986222835293000,1.26829296875,-3.6978759765625,-1.792266845703125,-1.971954345703125
1782986222845367000,1.278366943359375,-3.5099334716796875,-2.1430206298828125,-1.9634552001953125
1782986222855441000,1.28844091796875,-3.053436279296875,-2.3275604248046875,-1.5590972900390625
1782986222865516000,1.29851611328125,-2.6272125244140625,-2.2835693359375,-1.056182861328125
1782986222875590000,1.30858984375,-2.4781341552734375,-2.136077880859375,-0.644439697265625
1782986222885664000,1.3186640625,-2.5887603759765625,-1.8681640625,-0.484771728515625
1782986222895737900,1.32873779296875,-2.654327392578125,-1.607147216796875,-0.4939727783203125
1782986222905813000,1.33881298828125,-2.5035400390625,-1.394134521484375,-0.45086669921875
1782986222915886800,1.348886962890625,-2.136871337890625,-1.1795806884765625,-0.383331298828125
1782986222925961000,1.3589609375,-1.5935516357421875,-0.9788970947265625,-0.3495635986328125
1782986222936034800,1.369034912109375,-1.07330322265625,-0.8647003173828125,-0.3482513427734375
1782986222946110000,1.37910986328125,-0.684844970703125,-0.79803466796875,-0.3968353271484375
1782986222956183800,1.389183837890625,-0.4307861328125,-0.7477569580078125,-0.4855499267578125
1782986222966258000,1.3992578125,-0.294189453125,-0.7017059326171875,-0.55438232421875
1782986222976332800,1.409332763671875,-0.24078369140625,-0.6681365966796875,-0.590484619140625
1782986222986407200,1.4194072265625,-0.21441650390625,-0.6281890869140625,-0.5653228759765625
1782986222996481000,1.42948095703125,-0.2060394287109375,-0.551239013671875,-0.461456298828125
1782986223006555000,1.439554931640625,-0.210052490234375,-0.4997100830078125,-0.3266143798828125
1782986223016630000,1.449630126953125,-0.19818115234375,-0.490692138671875,-0.2237701416015625
1782986223026704000,1.459703857421875,-0.134002685546875,-0.423431396484375,-0.2066650390625
1782986223036778000,1.469778076171875,-0.0164794921875,-0.3359527587890625,-0.1776275634765625
1782986223046852900,1.479852783203125,0.082672119140625,-0.2863006591796875,-0.11920166015625
1782986223056927000,1.489927001953125,0.1310882568359375,-0.221771240234375,-0.0652008056640625
1782986223067000800,1.500000732421875,0.1303253173828125,-0.14996337890625,-0.006011962890625
1782986223077075000,1.510074951171875,0.0873870849609375,-0.0972747802734375,0.052886962890625
1782986223087149800,1.52014990234375,0.0131378173828125,-0.07373046875,0.082855224609375
1782986223097224000,1.530223876953125,-0.08270263671875,-0.0570831298828125,0.078460693359375
1782986223107297800,1.5402978515625,-0.17120361328125,-0.0237274169921875,0.07269287109375
1782986223117373000,1.550373046875,-0.2173004150390625,0.0049896240234375,0.0834197998046875
1782986223127446800,1.56044677734375,-0.2237548828125,-0.0096588134765625,0.0829925537109375
1782986223137521200,1.570521240234375,-0.2040863037109375,-0.0164031982421875,0.0852813720703125
1782986223147595000,1.580594970703125,-0.18304443359375,0.001434326171875,0.10662841796875
1782986223157670100,1.590670166015625,-0.155792236328125,0.0118408203125,0.1304168701171875
1782986223167744000,1.600743896484375,-0.120025634765625,0.0080108642578125,0.1342620849609375
1782986223177817900,1.61081787109375,-0.08935546875,0.012298583984375,0.1170501708984375
1782986223187893000,1.62089306640625,-0.0595855712890625,0.0102386474609375,0.0848846435546875
1782986223197966800,1.630966796875,-0.0336456298828125,0.000274658203125,0.0487060546875
1782986223208041000,1.641041015625,-0.0244140625,-0.017333984375,-0.002655029296875
1782986223218114800,1.65111474609375,-0.080596923828125,-0.011566162109375,-0.0581207275390625
1782986223228190000,1.66118994140625,-0.1374664306640625,-0.0099334716796875,-0.09320068359375
1782986223238263800,1.671263916015625,-0.1508636474609375,-0.0189666748046875,-0.133209228515625
1782986223248338000,1.681337890625,-0.1855926513671875,-0.0366058349609375,-0.1696014404296875
1782986223258412800,1.691412841796875,-0.2615509033203125,-0.052276611328125,-0.1843719482421875
1782986223268487000,1.70148681640625,-0.3578338623046875,-0.0634918212890625,-0.1750946044921875
1782986223278560800,1.711560791015625,-0.4459228515625,-0.09759521484375,-0.19970703125
1782986223288635100,1.72163525390625,-0.57598876953125,-0.1529998779296875,-0.2340087890625
1782986223298709800,1.731709716796875,-0.7610321044921875,-0.2112579345703125,-0.254974365234375
1782986223308784000,1.7417841796875,-1.020294189453125,-0.283782958984375,-0.2527618408203125
1782986223318858000,1.75185791015625,-1.28466796875,-0.405426025390625,-0.204376220703125
1782986223328933000,1.76193310546875,-1.511260986328125,-0.6135711669921875,-0.0323944091796875
1782986223339007000,1.772007080078125,-1.7425384521484375,-0.8830108642578125,0.26348876953125
1782986223349081000,1.7820810546875,-1.9439697265625,-1.1760406494140625,0.576141357421875
1782986223359155000,1.792155029296875,-2.1219635009765625,-1.484375,0.73974609375
1782986223369230000,1.80222998046875,-2.3984832763671875,-1.6408233642578125,0.609832763671875
1782986223379304000,1.812303955078125,-2.857391357421875,-1.5777435302734375,0.2357940673828125
1782986223389377800,1.822377685546875,-3.3532257080078125,-1.5054168701171875,-0.1610565185546875
1782986223399453000,1.832452880859375,-3.3599395751953125,-1.6383819580078125,-0.32135009765625
1782986223409526800,1.84252685546875,-2.994903564453125,-1.95928955078125,-0.2119293212890625
1782986223419601000,1.852600830078125,-2.557952880859375,-2.1838531494140625,-0.136871337890625
1782986223429674800,1.8626748046875,-2.128082275390625,-2.1998291015625,-0.2071380615234375
1782986223439750000,1.87275,-1.7908477783203125,-2.05755615234375,-0.2909088134765625
1782986223449823700,1.88282373046875,-1.66064453125,-1.7400970458984375,-0.28094482421875
1782986223459898000,1.892898193359375,-1.784881591796875,-1.268646240234375,-0.2412872314453125
1782986223469972700,1.90297265625,-1.9006500244140625,-0.7952880859375,-0.20880126953125
1782986223480047000,1.913047119140625,-1.81793212890625,-0.44952392578125,-0.176025390625
1782986223490121000,1.923120849609375,-1.51629638671875,-0.27130126953125,-0.2078399658203125
1782986223500195000,1.933195068359375,-1.0911712646484375,-0.201934814453125,-0.300567626953125
1782986223510270000,1.94327001953125,-0.6418304443359375,-0.163848876953125,-0.388671875
1782986223520344000,1.953343994140625,-0.239166259765625,-0.1064910888671875,-0.3754119873046875
1782986223530418000,1.96341796875,0.0636444091796875,-0.1533966064453125,-0.3057403564453125
1782986223540493000,1.9734931640625,0.2949981689453125,-0.2436676025390625,-0.3193206787109375
1782986223550567000,1.98356689453125,0.5200653076171875,-0.220672607421875,-0.4119415283203125
1782986223560640800,1.993640869140625,0.707611083984375,-0.150604248046875,-0.4375152587890625
1782986223570715000,2.00371484375,0.80474853515625,-0.111541748046875,-0.380767822265625
1782986223580790000,2.0137900390625,0.837921142578125,-0.076171875,-0.2757415771484375
1782986223590864000,2.02386376953125,0.825164794921875,-0.04364013671875,-0.1544036865234375
1782986223600937700,2.033937744140625,0.7610321044921875,-0.019744873046875,-0.0321044921875
1782986223611011800,2.04401171875,0.6391448974609375,0.0106048583984375,0.072845458984375
1782986223621086700,2.054086669921875,0.4589385986328125,0.034454345703125,0.1475372314453125
1782986223631160800,2.064160888671875,0.25048828125,0.0666961669921875,0.186187744140625
1782986223641235000,2.07423486328125,0.0419464111328125,0.102142333984375,0.208984375
1782986223651309800,2.084309814453125,-0.1487884521484375,0.1090850830078125,0.2133636474609375
1782986223661384000,2.094384033203125,-0.3439483642578125,0.0951385498046875,0.221038818359375
1782986223671457800,2.104457763671875,-0.3949737548828125,0.0188446044921875,0.111236572265625
1782986223681532000,2.114531982421875,-0.301300048828125,-0.0047149658203125,-0.008209228515625
1782986223691606800,2.124606689453125,-0.214202880859375,-0.010833740234375,-0.048431396484375
1782986223701681000,2.134680908203125,-0.111480712890625,-0.057647705078125,-0.0573272705078125
1782986223711754800,2.144754638671875,-0.0279388427734375,-0.0895233154296875,-0.0694427490234375
1782986223721830000,2.154829833984375,0.01531982421875,-0.0847930908203125,-0.08331298828125
1782986223731903700,2.16490380859375,0.00433349609375,-0.090179443359375,-0.0746002197265625
1782986223741977600,2.1749775390625,-0.0450286865234375,-0.10125732421875,-0.0556488037109375
1782986223752051700,2.1850517578125,-0.0990142822265625,-0.1115875244140625,-0.0637969970703125
1782986223762126600,2.195126708984375,-0.1512908935546875,-0.1193695068359375,-0.0967864990234375
1782986223772200700,2.20520068359375,-0.2378387451171875,-0.14410400390625,-0.1588287353515625
1782986223782274800,2.21527490234375,-0.3390960693359375,-0.1783294677734375,-0.218292236328125
1782986223792349700,2.225349609375,-0.44677734375,-0.202484130859375,-0.2677459716796875
1782986223802423800,2.235423828125,-0.5897369384765625,-0.2343292236328125,-0.2913665771484375
1782986223812498000,2.245497802734375,-0.746307373046875,-0.280731201171875,-0.287628173828125
1782986223822571800,2.25557177734375,-0.9116363525390625,-0.3193359375,-0.2721099853515625
1782986223832647000,2.26564697265625,-1.11279296875,-0.3666229248046875,-0.2402496337890625
1782986223842720800,2.275720703125,-1.2992706298828125,-0.4662933349609375,-0.19476318359375
1782986223852795000,2.285794921875,-1.4581298828125,-0.6181488037109375,-0.1504058837890625
1782986223862869800,2.295869873046875,-1.6201324462890625,-0.8350372314453125,-0.0819091796875
1782986223872943900,2.30594384765625,-1.8015899658203125,-1.1097869873046875,0.0168914794921875
1782986223883017700,2.316017822265625,-1.9669952392578125,-1.32110595703125,0.099365234375
1782986223893091800,2.326091796875,-2.0911712646484375,-1.45587158203125,0.1481781005859375
1782986223903166700,2.336166748046875,-2.179229736328125,-1.5585174560546875,0.1086883544921875
1782986223913240800,2.34624072265625,-2.2824249267578125,-1.586883544921875,-0.0431671142578125
1782986223923314700,2.356314697265625,-2.4313201904296875,-1.54449462890625,-0.2526397705078125
1782986223933389800,2.366389892578125,-2.5516357421875,-1.58160400390625,-0.4205474853515625
1782986223943463700,2.376463623046875,-2.53472900390625,-1.70721435546875,-0.4531097412109375
1782986223953537800,2.386537841796875,-2.37969970703125,-1.820770263671875,-0.3665771484375
1782986223963612000,2.39661181640625,-2.1249237060546875,-1.8533477783203125,-0.2960662841796875
1782986223973686800,2.406686767578125,-1.8937835693359375,-1.80914306640625,-0.278167724609375
1782986223983761000,2.416760986328125,-1.795166015625,-1.58392333984375,-0.24884033203125
1782986223993834800,2.426834716796875,-1.8277740478515625,-1.226348876953125,-0.182586669921875
1782986224003910000,2.436909912109375,-1.894317626953125,-0.900360107421875,-0.1042022705078125
1782986224013983700,2.446983642578125,-1.8468017578125,-0.6892242431640625,-0.11737060546875
1782986224024057900,2.457057861328125,-1.652740478515625,-0.5784759521484375,-0.2192535400390625
1782986224034131700,2.467131591796875,-1.353729248046875,-0.491729736328125,-0.3296661376953125
1782986224044206800,2.477206787109375,-1.0156707763671875,-0.3988800048828125,-0.3530426025390625
1782986224054280700,2.48728076171875,-0.7164764404296875,-0.3080291748046875,-0.29144287109375
1782986224064354800,2.497354736328125,-0.471435546875,-0.245513916015625,-0.2008056640625
1782986224074429700,2.5074296875,-0.279937744140625,-0.21160888671875,-0.1102752685546875
1782986224084503800,2.51750390625,-0.122039794921875,-0.1855010986328125,-0.0299530029296875
1782986224094577700,2.52757763671875,-0.0032196044921875,-0.142547607421875,0.0095062255859375
1782986224104651800,2.53765185546875,0.061187744140625,-0.1072998046875,0.0396575927734375
1782986224114726700,2.5477265625,0.034454345703125,-0.11328125,0.0731964111328125
1782986224124800800,2.55780078125,-0.0290679931640625,-0.04779052734375,0.0385284423828125
1782986224134875000,2.567875,-0.0701904296875,-0.0138397216796875,-0.0140533447265625
1782986224144950000,2.577949951171875,-0.0894927978515625,-0.0307159423828125,-0.0680084228515625
1782986224155024000,2.58802392578125,-0.0773773193359375,-0.053497314453125,-0.1119232177734375
1782986224165097700,2.59809765625,-0.0222625732421875,-0.0774993896484375,-0.1326141357421875
1782986224175171800,2.608171875,0.058135986328125,-0.0872039794921875,-0.1237945556640625
1782986224185246700,2.618246826171875,0.127532958984375,-0.0987701416015625,-0.0943450927734375
1782986224195320800,2.62832080078125,0.163787841796875,-0.1124114990234375,-0.0413360595703125
1782986224205394700,2.638394775390625,0.1592864990234375,-0.12261962890625,0.02532958984375
1782986224215468800,2.64846875,0.1177215576171875,-0.1310272216796875,0.081817626953125
1782986224225543700,2.658543701171875,0.052215576171875,-0.131561279296875,0.09619140625
1782986224235617800,2.66861767578125,-0.02392578125,-0.1192474365234375,0.0683135986328125
1782986224245692000,2.67869189453125,-0.1066131591796875,-0.1000518798828125,0.0320587158203125
1782986224255766800,2.688766845703125,-0.200439453125,-0.0744781494140625,0.017913818359375
1782986224265841000,2.6988408203125,-0.2997894287109375,-0.0586090087890625,0.029144287109375
1782986224275915000,2.7089150390625,-0.4018402099609375,-0.065155029296875,0.0286712646484375
1782986224285988900,2.71898876953125,-0.521942138671875,-0.089202880859375,0.00518798828125
1782986224296064000,2.72906396484375,-0.5186004638671875,-0.093505859375,-0.0796356201171875
1782986224306137900,2.739137939453125,-0.479461669921875,-0.0808258056640625,-0.1265716552734375
1782986224316211700,2.749211669921875,-0.431182861328125,-0.1190185546875,-0.139190673828125
1782986224326286800,2.759286865234375,-0.374420166015625,-0.143768310546875,-0.1322784423828125
1782986224336360700,2.769360595703125,-0.3443145751953125,-0.17724609375,-0.134552001953125
1782986224346434800,2.779434814453125,-0.39215087890625,-0.2115020751953125,-0.156646728515625
1782986224356508700,2.7895087890625,-0.52783203125,-0.2352294921875,-0.177886962890625
1782986224366583800,2.799583740234375,-0.668487548828125,-0.2756195068359375,-0.1952667236328125
1782986224376657700,2.80965771484375,-0.8074951171875,-0.343017578125,-0.2378997802734375
1782986224386731800,2.819731689453125,-0.952789306640625,-0.428131103515625,-0.2891387939453125
1782986224396806700,2.829806640625,-1.1881256103515625,-0.5390167236328125,-0.29931640625
1782986224406880800,2.839880859375,-1.4336395263671875,-0.6718292236328125,-0.1990509033203125
1782986224416955000,2.849954833984375,-1.47064208984375,-0.844512939453125,0.0401763916015625
1782986224427029000,2.860029052734375,-1.2794647216796875,-1.1022796630859375,0.303955078125
1782986224437103900,2.870103759765625,-1.03948974609375,-1.404266357421875,0.4122467041015625
1782986224447178000,2.880177978515625,-1.0869903564453125,-1.6321563720703125,0.3400726318359375
1782986224457251800,2.890251953125,-1.4851837158203125,-1.6884613037109375,0.185577392578125
1782986224467327000,2.900326904296875,-1.9702911376953125,-1.6372528076171875,0.0485687255859375
1782986224477400800,2.91040087890625,-2.343902587890625,-1.5596466064453125,-0.0966796875
1782986224487475000,2.920474853515625,-2.6558380126953125,-1.5723724365234375,-0.2662353515625
1782986224497548800,2.930548828125,-2.9382171630859375,-1.5422821044921875,-0.5521087646484375
1782986224507624000,2.9406240234375,-3.1906890869140625,-1.36212158203125,-0.856353759765625
1782986224517697800,2.95069775390625,-3.2172698974609375,-1.1267242431640625,-0.910400390625
1782986224527771600,2.960771728515625,-2.89910888671875,-0.9813995361328125,-0.701446533203125
1782986224537846800,2.9708466796875,-2.3350677490234375,-0.8787078857421875,-0.4688262939453125
1782986224547920600,2.980920654296875,-1.689208984375,-0.7512359619140625,-0.3489532470703125
1782986224557994800,2.990994873046875,-1.1764984130859375,-0.626220703125,-0.2837982177734375
1782986224568068900,3.00106884765625,-0.8441162109375,-0.5167388916015625,-0.22601318359375
1782986224578143700,3.011143798828125,-0.642303466796875,-0.4433135986328125,-0.1920623779296875
1782986224588217900,3.0212177734375,-0.523895263671875,-0.3864593505859375,-0.1796722412109375
1782986224598292000,3.0312919921875,-0.4499664306640625,-0.3375701904296875,-0.14178466796875
1782986224608366800,3.041366943359375,-0.40234375,-0.286285400390625,-0.0449981689453125
1782986224618441200,3.051441162109375,-0.3807373046875,-0.2111358642578125,0.0866851806640625
1782986224628515300,3.061515380859375,-0.3708038330078125,-0.1474151611328125,0.1751251220703125
1782986224638589200,3.071589111328125,-0.3920135498046875,-0.1811981201171875,0.2659912109375
1782986224648664300,3.081664306640625,-0.392669677734375,-0.19635009765625,0.23858642578125
1782986224658738400,3.091738525390625,-0.331024169921875,-0.161285400390625,0.114105224609375
1782986224668812300,3.101812255859375,-0.2387847900390625,-0.143951416015625,0.0003509521484375
1782986224678887400,3.111887451171875,-0.1490020751953125,-0.1765594482421875,-0.05712890625
1782986224688961300,3.121961181640625,-0.056427001953125,-0.2082366943359375,-0.067138671875
1782986224699035100,3.13203515625,0.0220184326171875,-0.20721435546875,-0.0644989013671875
1782986224709109200,3.142109130859375,0.0712890625,-0.200286865234375,-0.0585479736328125
1782986224719184100,3.15218408203125,0.0889129638671875,-0.20367431640625,-0.04388427734375
1782986224729258200,3.16225830078125,0.063995361328125,-0.2024383544921875,-0.0402374267578125
1782986224739332000,3.17233203125,0.0019073486328125,-0.199554443359375,-0.0481109619140625
1782986224749407200,3.1824072265625,-0.0744781494140625,-0.1941375732421875,-0.059844970703125
1782986224759481000,3.192481201171875,-0.147613525390625,-0.1763916015625,-0.072479248046875
1782986224769555500,3.202555419921875,-0.2188568115234375,-0.1523590087890625,-0.0703125
1782986224779629300,3.21262939453125,-0.265289306640625,-0.136383056640625,-0.0606231689453125
1782986224789704400,3.222704345703125,-0.2802734375,-0.1212310791015625,-0.0387420654296875
1782986224799778300,3.2327783203125,-0.269927978515625,-0.106781005859375,-0.022369384765625
1782986224809852400,3.242852294921875,-0.2421722412109375,-0.097015380859375,-0.0211944580078125
1782986224819927300,3.25292724609375,-0.222564697265625,-0.08502197265625,-0.0316619873046875
1782986224830001400,3.26300146484375,-0.227752685546875,-0.069091796875,-0.0424652099609375
1782986224840075300,3.2730751953125,-0.244415283203125,-0.068023681640625,-0.0616455078125
1782986224850149000,3.283149169921875,-0.2492218017578125,-0.07958984375,-0.0872039794921875
1782986224860224300,3.293224365234375,-0.260986328125,-0.0859832763671875,-0.1213226318359375
1782986224870298000,3.303298095703125,-0.3173828125,-0.0886077880859375,-0.159423828125
1782986224880372200,3.313372314453125,-0.457061767578125,-0.08050537109375,-0.178863525390625
1782986224890446000,3.323446044921875,-0.60406494140625,-0.084381103515625,-0.18463134765625
1782986224900521200,3.333521240234375,-0.7349700927734375,-0.1118011474609375,-0.201568603515625
1782986224910595000,3.343594970703125,-0.9010467529296875,-0.11846923828125,-0.216766357421875
1782986224920669400,3.35366943359375,-1.1978759765625,-0.0954437255859375,-0.20050048828125
1782986224930744000,3.363744140625,-1.645477294921875,-0.09283447265625,-0.1282196044921875
1782986224940818400,3.373818359375,-2.0843658447265625,-0.1546478271484375,-0.0107421875
1782986224950892300,3.383892333984375,-2.1650238037109375,-0.301513671875,0.1139068603515625
1782986224960966400,3.39396630859375,-1.95831298828125,-0.5276641845703125,0.205322265625
1782986224971041300,3.404041259765625,-1.726715087890625,-0.75457763671875,0.1650543212890625
1782986224981115400,3.414115478515625,-1.8157501220703125,-0.9035186767578125,0.0341949462890625
1782986224991189200,3.424189208984375,-2.147857666015625,-0.921142578125,-0.06378173828125
1782986225001264400,3.434264404296875,-2.3683013916015625,-0.90478515625,-0.076202392578125
1782986225011338200,3.444338134765625,-2.3893585205078125,-0.971649169921875,-0.0009613037109375
1782986225021412400,3.454412353515625,-2.3671417236328125,-1.1351776123046875,0.175567626953125
1782986225031486200,3.464486328125,-2.34893798828125,-1.300140380859375,0.2985992431640625
1782986225041561300,3.474561279296875,-2.213134765625,-1.3179168701171875,0.240875244140625
1782986225051635200,3.48463525390625,-2.111114501953125,-1.1601104736328125,0.1246185302734375
1782986225061709000,3.494708984375,-2.195526123046875,-0.8876800537109375,-0.027587890625
1782986225071784200,3.5047841796875,-2.261993408203125,-0.6104278564453125,-0.2368927001953125
1782986225081858000,3.514858154296875,-2.072784423828125,-0.4262237548828125,-0.403411865234375
1782986225091932400,3.524932373046875,-1.6916961669921875,-0.3211212158203125,-0.47845458984375
1782986225102006300,3.53500634765625,-1.2788238525390625,-0.27642822265625,-0.4879302978515625
1782986225112081400,3.545081298828125,-0.9376373291015625,-0.28485107421875,-0.46783447265625
1782986225122155300,3.5551552734375,-0.7052459716796875,-0.363311767578125,-0.433074951171875
1782986225132229400,3.5652294921875,-0.5529937744140625,-0.43853759765625,-0.392913818359375
1782986225142304300,3.57530419921875,-0.4277801513671875,-0.4409332275390625,-0.3466796875
1782986225152378400,3.58537841796875,-0.30926513671875,-0.3988494873046875,-0.2773895263671875
1782986225162452200,3.5954521484375,-0.2137298583984375,-0.4061737060546875,-0.1664581298828125
1782986225172526300,3.6055263671875,-0.137908935546875,-0.4203948974609375,-0.0700225830078125
1782986225182601200,3.615601318359375,-0.072967529296875,-0.4228363037109375,-0.0233917236328125
1782986225192675300,3.62567529296875,-0.0507049560546875,-0.4190826416015625,-0.01739501953125
1782986225202749200,3.635749267578125,-0.0984649658203125,-0.3731536865234375,0.01300048828125
1782986225212824300,3.64582421875,-0.174652099609375,-0.3476409912109375,0.0670318603515625
1782986225222898200,3.655898193359375,-0.1405487060546875,-0.3419342041015625,0.0607452392578125
1782986225232972000,3.665971923828125,-0.095916748046875,-0.3142547607421875,0.036834716796875
1782986225243046400,3.67604638671875,-0.075469970703125,-0.3101806640625,-0.010101318359375
1782986225253121300,3.686121337890625,-0.0720367431640625,-0.2867584228515625,-0.0240478515625
1782986225263195400,3.6961953125,-0.0808868408203125,-0.2427825927734375,-0.016693115234375
1782986225273269200,3.706269287109375,-0.1005401611328125,-0.210723876953125,0.006378173828125
1782986225283344400,3.716344482421875,-0.1003265380859375,-0.1928558349609375,0.0159912109375
1782986225293418200,3.726418212890625,-0.1211700439453125,-0.1722259521484375,0.02716064453125
1782986225303492400,3.736492431640625,-0.144317626953125,-0.1578521728515625,0.0333404541015625
1782986225313566200,3.746566162109375,-0.14996337890625,-0.1622314453125,0.0373382568359375
1782986225323641300,3.756641357421875,-0.187042236328125,-0.17230224609375,0.0023193359375
1782986225333715200,3.766715087890625,-0.2645721435546875,-0.166259765625,-0.060546875
1782986225343789300,3.776789306640625,-0.3602752685546875,-0.1431427001953125,-0.11224365234375
1782986225353864200,3.7868642578125,-0.4245452880859375,-0.1083831787109375,-0.119140625
1782986225363938300,3.796938232421875,-0.43585205078125,-0.0979461669921875,-0.0955047607421875
1782986225374012200,3.80701220703125,-0.3978118896484375,-0.113037109375,-0.0762939453125
1782986225384086300,3.817086181640625,-0.3627471923828125,-0.10870361328125,-0.069854736328125
1782986225394161200,3.8271611328125,-0.3788604736328125,-0.0800628662109375,-0.0486297607421875
1782986225404235300,3.8372353515625,-0.410858154296875,-0.0649566650390625,-0.0170440673828125
1782986225414309400,3.847309326171875,-0.45355224609375,-0.05999755859375,-0.0007781982421875
1782986225424384300,3.85738427734375,-0.5097198486328125,-0.05535888671875,0.0044708251953125
1782986225434458400,3.867458251953125,-0.584930419921875,-0.076904296875,0.0008544921875
1782986225444532200,3.8775322265625,-0.7465057373046875,-0.1093292236328125,-0.043060302734375
1782986225454606300,3.8876064453125,-1.0071868896484375,-0.0830230712890625,-0.113311767578125
1782986225464681200,3.89768115234375,-1.299957275390625,-0.01898193359375,-0.1751708984375
1782986225474755300,3.90775537109375,-1.52130126953125,-0.017791748046875,-0.16253662109375
1782986225484829200,3.9178291015625,-1.5631866455078125,-0.1263427734375,-0.0216827392578125
1782986225494904300,3.927904296875,-1.4779205322265625,-0.230194091796875,0.2122344970703125
1782986225504978200,3.937978271484375,-1.4692535400390625,-0.29510498046875,0.42572021484375
1782986225515052300,3.94805224609375,-1.6614532470703125,-0.4236602783203125,0.4830474853515625
1782986225525126100,3.958126220703125,-1.8970794677734375,-0.5313873291015625,0.2922821044921875
1782986225535201300,3.968201171875,-2.0946197509765625,-0.5772705078125,0.030181884765625
1782986225545275100,3.978275146484375,-2.3199920654296875,-0.598419189453125,-0.1221160888671875
1782986225555349200,3.988349365234375,-2.5479736328125,-0.6065521240234375,-0.2241058349609375
1782986225565423400,3.99842333984375,-2.727447509765625,-0.6784515380859375,-0.389251708984375
1782986225575497200,4.008497314453125,-2.9188079833984375,-0.8359527587890625,-0.5948333740234375
1782986225585571300,4.0185712890625,-2.9908599853515625,-0.881072998046875,-0.796356201171875
1782986225595646200,4.028646240234375,-2.84088134765625,-0.8132476806640625,-0.854705810546875
1782986225605720300,4.03872021484375,-2.539031982421875,-0.7410736083984375,-0.69915771484375
1782986225615794200,4.048794189453125,-2.1252899169921875,-0.6957855224609375,-0.49432373046875
1782986225625868300,4.058868408203125,-1.6875457763671875,-0.6511688232421875,-0.3425750732421875
1782986225635943400,4.068943359375,-1.305450439453125,-0.60235595703125,-0.2491912841796875
1782986225646017300,4.079017333984375,-1.0362548828125,-0.5252532958984375,-0.2016143798828125
1782986225656091100,4.089091064453125,-0.871124267578125,-0.43035888671875,-0.172088623046875
1782986225666166300,4.099166259765625,-0.80084228515625,-0.368133544921875,-0.1683349609375
1782986225676240100,4.109240234375,-0.782073974609375,-0.3397369384765625,-0.2109832763671875
1782986225686314200,4.119314208984375,-0.7853240966796875,-0.3038482666015625,-0.2650146484375
1782986225696388400,4.129388427734375,-0.762176513671875,-0.2710113525390625,-0.27618408203125
1782986225706463200,4.139463134765625,-0.68597412109375,-0.2604827880859375,-0.2480621337890625
1782986225716537300,4.149537353515625,-0.6075286865234375,-0.249053955078125,-0.1895751953125
1782986225726611500,4.159611572265625,-0.57769775390625,-0.2053070068359375,-0.097564697265625
1782986225736686300,4.169686279296875,-0.5113067626953125,-0.1427459716796875,0.0007781982421875
1782986225746760400,4.179760498046875,-0.4010467529296875,-0.1333160400390625,0.0856475830078125
1782986225756834300,4.189834228515625,-0.2771759033203125,-0.1716766357421875,0.136810302734375
1782986225766908400,4.199908447265625,-0.1497955322265625,-0.2277984619140625,0.1398162841796875
1782986225776983300,4.2099833984375,-0.0682525634765625,-0.2518157958984375,0.1241912841796875
1782986225787057400,4.220057373046875,-0.0315704345703125,-0.2504425048828125,0.134857177734375
1782986225797131300,4.23013134765625,-0.0190582275390625,-0.2588043212890625,0.167938232421875
1782986225807206400,4.240206298828125,-0.02056884765625,-0.266082763671875,0.1947174072265625
1782986225817280300,4.2502802734375,-0.0473480224609375,-0.2551116943359375,0.21197509765625
1782986225827354000,4.26035400390625,-0.104827880859375,-0.2400665283203125,0.219482421875
1782986225837428200,4.27042822265625,-0.207733154296875,-0.227447509765625,0.204742431640625
1782986225847503000,4.280503173828125,-0.3320159912109375,-0.2020263671875,0.1507720947265625
1782986225857577200,4.2905771484375,-0.408050537109375,-0.1651763916015625,0.0861968994140625
1782986225867651300,4.3006513671875,-0.43695068359375,-0.1526947021484375,0.05859375
1782986225877726200,4.310726318359375,-0.430908203125,-0.1453399658203125,0.031585693359375
1782986225887800300,4.32080029296875,-0.425994873046875,-0.1248321533203125,-0.0009765625
1782986225897874400,4.33087451171875,-0.4289093017578125,-0.0949249267578125,-0.0254974365234375
1782986225907949300,4.34094921875,-0.435577392578125,-0.0785064697265625,-0.0535736083984375
1782986225918023400,4.3510234375,-0.4390716552734375,-0.0875396728515625,-0.0997772216796875
1782986225928098300,4.361098388671875,-0.42095947265625,-0.1000213623046875,-0.16064453125
1782986225938172400,4.37117236328125,-0.389984130859375,-0.114166259765625,-0.2234649658203125
1782986225948246300,4.381246337890625,-0.403778076171875,-0.125274658203125,-0.270294189453125
1782986225958320400,4.3913203125,-0.4841766357421875,-0.1336212158203125,-0.2864227294921875
1782986225968395300,4.401395263671875,-0.598388671875,-0.167266845703125,-0.27264404296875
1782986225978469400,4.411469482421875,-0.7464599609375,-0.236053466796875,-0.242431640625
1782986225988543200,4.421543212890625,-0.915313720703125,-0.334381103515625,-0.168060302734375
1782986225998617300,4.431617431640625,-1.0455780029296875,-0.48077392578125,-0.0227203369140625
1782986226008692200,4.441692138671875,-1.2406463623046875,-0.623565673828125,0.1284027099609375
1782986226018766300,4.451766357421875,-1.4969635009765625,-0.697845458984375,0.231658935546875
1782986226028840200,4.461840087890625,-1.7245330810546875,-0.74993896484375,0.2775421142578125
1782986226038915300,4.471915283203125,-1.843353271484375,-0.8030853271484375,0.2707061767578125
1782986226048989200,4.4819892578125,-1.9083709716796875,-0.8710174560546875,0.275848388671875
1782986226059063300,4.492063232421875,-2.083251953125,-1.0108795166015625,0.23486328125
1782986226069138200,4.50213818359375,-2.267578125,-1.0924530029296875,0.002655029296875
1782986226079212300,4.51221240234375,-2.390777587890625,-1.132659912109375,-0.236785888671875
1782986226089286400,4.522286376953125,-2.4296417236328125,-1.248291015625,-0.537567138671875
1782986226099360300,4.5323603515625,-2.4077911376953125,-1.2185516357421875,-0.9184112548828125
1782986226109435400,4.542435302734375,-2.337371826171875,-0.9663238525390625,-1.0485076904296875
1782986226119509200,4.55250927734375,-2.04986572265625,-0.7311553955078125,-0.8461456298828125
1782986226129583400,4.562583251953125,-1.6717681884765625,-0.57501220703125,-0.50592041015625
1782986226139658200,4.572658203125,-1.2869720458984375,-0.426055908203125,-0.1904144287109375
1782986226149732400,4.582732421875,-0.97149658203125,-0.379791259765625,-0.06976318359375
1782986226159806200,4.59280615234375,-0.7744140625,-0.36151123046875,-0.084503173828125
1782986226169880300,4.60288037109375,-0.6485595703125,-0.3480682373046875,-0.17205810546875
1782986226179955200,4.612955078125,-0.599700927734375,-0.319732666015625,-0.264190673828125
1782986226190029300,4.623029296875,-0.6449127197265625,-0.288726806640625,-0.26361083984375
1782986226200103200,4.633103271484375,-0.724334716796875,-0.2642669677734375,-0.1649017333984375
1782986226210178300,4.64317822265625,-0.766693115234375,-0.2535858154296875,-0.072906494140625
1782986226220252200,4.653252197265625,-0.8035888671875,-0.244873046875,-0.0328369140625
1782986226230326500,4.663326416015625,-0.8594970703125,-0.237457275390625,-0.0577850341796875
1782986226240400400,4.673400390625,-0.77471923828125,-0.2288970947265625,-0.134674072265625
1782986226250475500,4.6834755859375,-0.584930419921875,-0.2373504638671875,-0.148651123046875
1782986226260549400,4.69354931640625,-0.393890380859375,-0.278228759765625,-0.08978271484375
1782986226270623200,4.703623291015625,-0.242584228515625,-0.2874603271484375,-0.0148773193359375
1782986226280698400,4.713698486328125,-0.1298980712890625,-0.2723541259765625,0.053375244140625
1782986226290772200,4.723772216796875,-0.0614166259765625,-0.259033203125,0.11968994140625
1782986226300846300,4.733846435546875,-0.0389251708984375,-0.2517547607421875,0.165863037109375
1782986226310920200,4.743920166015625,-0.05029296875,-0.2392120361328125,0.1690826416015625
1782986226320995300,4.753995361328125,-0.0766143798828125,-0.2267303466796875,0.1524200439453125
1782986226331069200,4.764069091796875,-0.1310577392578125,-0.220001220703125,0.122589111328125
1782986226341143300,4.774143310546875,-0.206390380859375,-0.2178497314453125,0.0875091552734375
1782986226351218200,4.78421826171875,-0.2684478759765625,-0.19775390625,0.050689697265625
1782986226361292300,4.794292236328125,-0.3279876708984375,-0.1679229736328125,0.01739501953125
1782986226371366100,4.8043662109375,-0.3523101806640625,-0.144744873046875,0.0010528564453125
1782986226381440500,4.8144404296875,-0.3399658203125,-0.1256866455078125,0.001495361328125
1782986226391515100,4.82451513671875,-0.3350372314453125,-0.110137939453125,0.0098724365234375
1782986226401589500,4.834589599609375,-0.329498291015625,-0.0991973876953125,0.0159759521484375
1782986226411663400,4.844663330078125,-0.310882568359375,-0.0961151123046875,0.0258026123046875
1782986226421738500,4.854738525390625,-0.30657958984375,-0.1148529052734375,0.0079803466796875
1782986226431812400,4.864812255859375,-0.3030548095703125,-0.11871337890625,-0.03082275390625
1782986226441886200,4.87488623046875,-0.307952880859375,-0.122344970703125,-0.0703277587890625
1782986226451960300,4.884960205078125,-0.3074798583984375,-0.138427734375,-0.0929718017578125
1782986226462035500,4.895035400390625,-0.3214263916015625,-0.1522674560546875,-0.074737548828125
1782986226472109300,4.905109375,-0.37774658203125,-0.17706298828125,-0.054931640625
1782986226482183200,4.91518310546875,-0.470245361328125,-0.212493896484375,-0.038726806640625
1782986226492258300,4.92525830078125,-0.6204376220703125,-0.2829437255859375,-0.00372314453125
1782986226502332200,4.935332275390625,-0.8222808837890625,-0.3956146240234375,0.066436767578125
1782986226512406300,4.94540625,-1.030242919921875,-0.5415191650390625,0.15838623046875
1782986226522480000,4.955480224609375,-1.204498291015625,-0.7210540771484375,0.268341064453125
1782986226532555300,4.96555517578125,-1.4004974365234375,-0.9201812744140625,0.41815185546875
1782986226542629000,4.975629150390625,-1.59796142578125,-1.0900115966796875,0.53106689453125
1782986226552703500,4.985703369140625,-1.7530364990234375,-1.2179107666015625,0.529083251953125
1782986226562778000,4.995778076171875,-1.9831695556640625,-1.2592926025390625,0.5174407958984375
1782986226572852500,5.0058525390625,-2.375152587890625,-1.2103118896484375,0.5101470947265625
1782986226582926300,5.01592626953125,-2.6627197265625,-1.0735321044921875,0.4000396728515625
1782986226593000400,5.02600048828125,-2.795013427734375,-0.956756591796875,0.2558135986328125
1782986226603075300,5.036075439453125,-2.9624481201171875,-0.91204833984375,0.12908935546875
1782986226613149400,5.0461494140625,-3.1191558837890625,-0.7739410400390625,-0.097259521484375
1782986226623223000,5.05622314453125,-3.0880279541015625,-0.5525665283203125,-0.29534912109375
1782986226633298200,5.066298095703125,-2.9467315673828125,-0.482208251953125,-0.3061370849609375
1782986226643372000,5.0763720703125,-2.6608123779296875,-0.54852294921875,-0.2484283447265625
1782986226653446100,5.086446044921875,-2.2274932861328125,-0.6110076904296875,-0.2681884765625
1782986226663520000,5.09652001953125,-1.76007080078125,-0.6012420654296875,-0.29052734375
1782986226673595100,5.10659521484375,-1.3233184814453125,-0.561798095703125,-0.2552947998046875
1782986226683669000,5.1166689453125,-0.9571990966796875,-0.5306396484375,-0.2633514404296875
1782986226693743000,5.1267431640625,-0.63885498046875,-0.466094970703125,-0.3411102294921875
1782986226703818000,5.13681787109375,-0.3495635986328125,-0.38824462890625,-0.378570556640625
1782986226713892000,5.14689208984375,-0.1767120361328125,-0.3649444580078125,-0.3311767578125
1782986226723966200,5.15696630859375,-0.15179443359375,-0.3620452880859375,-0.2535400390625
1782986226734041000,5.167041015625,-0.2204742431640625,-0.3140716552734375,-0.1799468994140625
1782986226744115200,5.177115234375,-0.310699462890625,-0.219757080078125,-0.12799072265625
1782986226754189300,5.187189208984375,-0.386962890625,-0.134033203125,-0.1146697998046875
1782986226764263200,5.19726318359375,-0.431488037109375,-0.08880615234375,-0.13739013671875
1782986226774338300,5.20733837890625,-0.4489288330078125,-0.047943115234375,-0.16937255859375
1782986226784412200,5.217412109375,-0.4778900146484375,-0.0018310546875,-0.2045745849609375
1782986226794486000,5.227486083984375,-0.45556640625,0.024627685546875,-0.2352142333984375
1782986226804561200,5.23756103515625,-0.3737335205078125,0.014923095703125,-0.236541748046875
1782986226814635000,5.247635009765625,-0.25146484375,-0.01165771484375,-0.190216064453125
1782986226824709000,5.257709228515625,-0.133636474609375,-0.0319671630859375,-0.1190185546875
1782986226834783000,5.267782958984375,-0.0567169189453125,-0.0487518310546875,-0.0524749755859375
1782986226844858000,5.277858154296875,-0.008636474609375,-0.0675811767578125,-0.0090789794921875
1782986226854932000,5.287931884765625,0.0189666748046875,-0.085479736328125,-0.001068115234375
1782986226865006300,5.29800634765625,0.0206756591796875,-0.088531494140625,-0.010040283203125
1782986226875081000,5.3080810546875,-0.001434326171875,-0.1006927490234375,-0.027374267578125
1782986226885155300,5.3181552734375,-0.03662109375,-0.114471435546875,-0.05413818359375
1782986226895229200,5.328229248046875,-0.0624542236328125,-0.1145782470703125,-0.080078125
1782986226905303300,5.33830322265625,-0.0798187255859375,-0.1111907958984375,-0.1101226806640625
1782986226915378200,5.348378173828125,-0.121002197265625,-0.08551025390625,-0.13671875
1782986226925452300,5.358452392578125,-0.143829345703125,-0.0207977294921875,-0.1032867431640625
1782986226935526100,5.368526123046875,-0.1350860595703125,0.014495849609375,-0.0356903076171875
1782986226945601300,5.378601318359375,-0.1502227783203125,0.00311279296875,0.0033111572265625
1782986226955675100,5.388675048828125,-0.1749420166015625,-0.00579833984375,0.0148468017578125
1782986226965749000,5.3987490234375,-0.1952056884765625,0.001617431640625,-0.00054931640625
1782986226975823000,5.408822998046875,-0.2173309326171875,0.005340576171875,-0.030029296875
1782986226985898000,5.41889794921875,-0.251556396484375,-0.0100860595703125,-0.0594940185546875
1782986226995972000,5.42897216796875,-0.3246307373046875,-0.021636962890625,-0.0815582275390625
1782986227006046000,5.4390458984375,-0.4294281005859375,-0.017547607421875,-0.1228790283203125
1782986227016121000,5.44912109375,-0.559661865234375,-0.002960205078125,-0.1707000732421875
1782986227026195000,5.45919482421875,-0.7010040283203125,0.0118408203125,-0.2051544189453125
1782986227036269300,5.469269287109375,-0.804046630859375,-0.015869140625,-0.2223663330078125
1782986227046343200,5.47934326171875,-0.904510498046875,-0.078460693359375,-0.2094573974609375
1782986227056418300,5.489418212890625,-1.0469207763671875,-0.1146240234375,-0.1297607421875
1782986227066492200,5.4994921875,-1.2397003173828125,-0.151702880859375,0.066070556640625
1782986227076566300,5.509566162109375,-1.4056243896484375,-0.2580108642578125,0.3324127197265625
1782986227086641200,5.51964111328125,-1.5489349365234375,-0.434814453125,0.5944976806640625
1782986227096715300,5.52971533203125,-1.6916046142578125,-0.67547607421875,0.6797332763671875
1782986227106789000,5.5397890625,-1.832855224609375,-0.8388214111328125,0.4696044921875
1782986227116863200,5.54986328125,-2.1335296630859375,-0.896270751953125,0.2113037109375
1782986227126938000,5.559938232421875,-2.606964111328125,-0.78887939453125,0.094940185546875
1782986227137012200,5.57001220703125,-3.0077362060546875,-0.6603851318359375,0.055755615234375
1782986227147086000,5.580086181640625,-3.05352783203125,-0.768646240234375,0.0948944091796875
1782986227157161200,5.5901611328125,-3.0398406982421875,-0.9606781005859375,0.1239166259765625
1782986227167235000,5.600235107421875,-2.971160888671875,-0.9627838134765625,0.080108642578125
1782986227177309000,5.610308837890625,-2.7196502685546875,-0.8505859375,0.056884765625
1782986227187383300,5.62038330078125,-2.4702301025390625,-0.691741943359375,0.017547607421875
1782986227197458000,5.6304580078125,-2.3853302001953125,-0.473236083984375,-0.0729217529296875
1782986227207532300,5.6405322265625,-2.3572540283203125,-0.268951416015625,-0.1735076904296875
1782986227217606100,5.650606201171875,-2.195281982421875,-0.1528472900390625,-0.21588134765625
1782986227227681300,5.660681396484375,-1.862335205078125,-0.187896728515625,-0.1671905517578125
1782986227237755100,5.670755126953125,-1.4927520751953125,-0.2917633056640625,-0.0613861083984375
1782986227247829200,5.680829345703125,-1.1561431884765625,-0.3781585693359375,0.035064697265625
1782986227257903000,5.690903076171875,-0.8837890625,-0.4145660400390625,0.1019134521484375
1782986227267978200,5.700978271484375,-0.6518707275390625,-0.3948822021484375,0.154083251953125
1782986227278052000,5.711052001953125,-0.435150146484375,-0.38739013671875,0.197357177734375
1782986227288126200,5.721126220703125,-0.266632080078125,-0.3959197998046875,0.2211151123046875
1782986227298201000,5.731201171875,-0.1776580810546875,-0.3898468017578125,0.2027435302734375
1782986227308275200,5.741275146484375,-0.143341064453125,-0.3449859619140625,0.1696319580078125
1782986227318349000,5.75134912109375,-0.066558837890625,-0.275299072265625,0.122528076171875
1782986227328423000,5.7614228515625,0.0486907958984375,-0.226715087890625,0.071502685546875
1782986227338498000,5.771498046875,0.1169891357421875,-0.1886749267578125,0.035308837890625
1782986227348572000,5.781572021484375,0.102996826171875,-0.14697265625,0.0111846923828125
1782986227358646300,5.791646240234375,0.0151519775390625,-0.0959930419921875,0.006011962890625
1782986227368721200,5.80172119140625,-0.1307373046875,-0.0422515869140625,0.0090484619140625
1782986227378795300,5.811795166015625,-0.2577056884765625,0.006317138671875,0.016082763671875
1782986227388869000,5.821869140625,-0.359161376953125,0.053863525390625,0.01824951171875
1782986227398943200,5.831943115234375,-0.4001617431640625,0.081756591796875,0.025604248046875
1782986227409018000,5.84201806640625,-0.369476318359375,0.0822601318359375,0.04412841796875
1782986227419092200,5.85209228515625,-0.274017333984375,0.075897216796875,0.065399169921875
1782986227429166000,5.862166015625,-0.1636505126953125,0.0655364990234375,0.07171630859375
1782986227439241200,5.8722412109375,-0.0511932373046875,0.0309600830078125,0.0428314208984375
1782986227449315000,5.882315185546875,0.0394744873046875,0.0131072998046875,0.0095672607421875
1782986227459389200,5.89238916015625,0.110809326171875,0.00750732421875,0.0118408203125
1782986227469463000,5.902463134765625,0.16217041015625,0.0030975341796875,0.0320892333984375
1782986227479538200,5.9125380859375,0.1720733642578125,0.01641845703125,0.039459228515625
1782986227489612000,5.922612060546875,0.1437530517578125,0.0377197265625,0.0514984130859375
1782986227499686100,5.93268603515625,0.1104278564453125,0.0478057861328125,0.0400390625
1782986227509761000,5.942760986328125,0.048980712890625,0.0387725830078125,-0.0024566650390625
1782986227519835100,5.952835205078125,-0.0654754638671875,0.0441436767578125,-0.0614471435546875
1782986227529909200,5.9629091796875,-0.186126708984375,0.0509490966796875,-0.1198272705078125
1782986227539983000,5.972983154296875,-0.2500457763671875,0.0608367919921875,-0.16082763671875
1782986227550058200,5.983058349609375,-0.3360595703125,0.04290771484375,-0.17864990234375
1782986227560132000,5.993132080078125,-0.4708099365234375,0.0237274169921875,-0.1583099365234375
1782986227570206200,6.003206298828125,-0.6522369384765625,0.04266357421875,-0.10345458984375
1782986227580281000,6.013281005859375,-0.9056549072265625,0.03851318359375,0.0045623779296875
1782986227590355200,6.023355224609375,-1.21490478515625,-0.0302581787109375,0.1818695068359375
1782986227600429000,6.033428955078125,-1.553863525390625,-0.1455535888671875,0.416351318359375
1782986227610504200,6.043504150390625,-1.8014984130859375,-0.26995849609375,0.6416015625
1782986227620578000,6.053578125,-1.82806396484375,-0.4020538330078125,0.7860107421875
1782986227630652200,6.063652099609375,-1.8107147216796875,-0.5791168212890625,0.848114013671875
1782986227640726000,6.07372607421875,-1.92510986328125,-0.77899169921875,0.8565826416015625
1782986227650801200,6.08380126953125,-2.1680908203125,-0.87841796875,0.8000946044921875
1782986227660875000,6.093875,-2.5230865478515625,-0.9040679931640625,0.6705780029296875
1782986227670949000,6.10394921875,-2.9137725830078125,-0.888519287109375,0.4567718505859375
1782986227681024000,6.11402392578125,-3.2118988037109375,-0.82928466796875,0.2281494140625
1782986227691098000,6.12409814453125,-3.27392578125,-0.7201690673828125,0.11456298828125
1782986227701172200,6.134172119140625,-3.1228485107421875,-0.6002960205078125,0.14697265625
1782986227711246300,6.144246337890625,-2.8326873779296875,-0.5245819091796875,0.2083587646484375
1782986227721321200,6.1543212890625,-2.397430419921875,-0.4596405029296875,0.17108154296875
1782986227731395300,6.164395263671875,-1.9498748779296875,-0.4203338623046875,0.0513153076171875
1782986227741469200,6.17446923828125,-1.5985870361328125,-0.3942108154296875,-0.109466552734375
1782986227751544300,6.18454443359375,-1.33538818359375,-0.3395233154296875,-0.2759857177734375
1782986227761618200,6.1946181640625,-1.219512939453125,-0.29833984375,-0.3874053955078125
1782986227771692000,6.204692138671875,-1.3304290771484375,-0.280731201171875,-0.4189453125
1782986227781766100,6.21476611328125,-1.553741455078125,-0.2532806396484375,-0.3609619140625
1782986227791841000,6.224841064453125,-1.6597137451171875,-0.2307281494140625,-0.24151611328125
1782986227801915100,6.2349150390625,-1.5845947265625,-0.23797607421875,-0.0879974365234375
1782986227811989000,6.244989013671875,-1.39306640625,-0.256561279296875,0.0230560302734375
1782986227822064000,6.255064208984375,-1.1558380126953125,-0.2553253173828125,0.077545166015625
1782986227832138000,6.265137939453125,-0.905364990234375,-0.2368927001953125,0.1049346923828125
1782986227842212000,6.275212158203125,-0.6383056640625,-0.2220611572265625,0.092193603515625
1782986227852286200,6.2852861328125,-0.396087646484375,-0.22442626953125,0.0506744384765625
1782986227862361000,6.295361083984375,-0.20770263671875,-0.2441864013671875,-0.000091552734375
1782986227872435200,6.305435302734375,-0.06134033203125,-0.2336578369140625,-0.02783203125
1782986227882509300,6.31550927734375,0.081695556640625,-0.2028656005859375,-0.0520477294921875
1782986227892584200,6.325584228515625,0.185791015625,-0.2030487060546875,-0.0599517822265625
1782986227902658300,6.335658203125,0.21881103515625,-0.2169952392578125,-0.0753173828125
1782986227912732200,6.345732177734375,0.1974639892578125,-0.207061767578125,-0.10491943359375
1782986227922806000,6.355805908203125,0.1337738037109375,-0.1766357421875,-0.1162567138671875
1782986227932881200,6.365881103515625,0.02960205078125,-0.147552490234375,-0.1241607666015625
1782986227942955000,6.375955078125,-0.08660888671875,-0.11578369140625,-0.14263916015625
1782986227953029000,6.386029052734375,-0.1822967529296875,-0.078369140625,-0.1693572998046875
1782986227963104300,6.396104248046875,-0.2543487548828125,-0.0455474853515625,-0.190399169921875
1782986227973178000,6.40617822265625,-0.2625732421875,-0.0232086181640625,-0.1892852783203125
1782986227983252000,6.416251953125,-0.22552490234375,-0.0168609619140625,-0.171539306640625
1782986227993326000,6.426326171875,-0.183929443359375,-0.0139617919921875,-0.1570281982421875
1782986228003401000,6.43640087890625,-0.1439056396484375,-0.00457763671875,-0.1513519287109375
1782986228013475000,6.44647509765625,-0.109893798828125,0.0068817138671875,-0.160552978515625
1782986228023549200,6.456549072265625,-0.1096038818359375,0.017852783203125,-0.1845245361328125
1782986228033624000,6.4666240234375,-0.1260986328125,0.0161590576171875,-0.2334442138671875
1782986228043698200,6.4766982421875,-0.122314453125,0.00238037109375,-0.28717041015625
1782986228053772300,6.486772216796875,-0.1282196044921875,0.003662109375,-0.31304931640625
1782986228063847200,6.49684716796875,-0.1590118408203125,0.0172882080078125,-0.301605224609375
1782986228073921300,6.50692138671875,-0.2209320068359375,0.0128173828125,-0.278594970703125
1782986228083995100,6.5169951171875,-0.3511505126953125,0.0058135986328125,-0.23126220703125
1782986228094069200,6.5270693359375,-0.5714263916015625,-0.01019287109375,-0.124237060546875
1782986228104144100,6.53714404296875,-0.8079833984375,-0.048858642578125,0.05743408203125
1782986228114218200,6.54721826171875,-0.99407958984375,-0.105010986328125,0.2709197998046875
1782986228124292000,6.5572919921875,-1.194488525390625,-0.170440673828125,0.5126495361328125
1782986228134367200,6.5673671875,-1.50787353515625,-0.24420166015625,0.7145538330078125
1782986228144441000,6.577441162109375,-1.8838043212890625,-0.279998779296875,0.778228759765625
1782986228154515000,6.587514892578125,-2.2650299072265625,-0.3217315673828125,0.6410064697265625
1782986228164589000,6.597589111328125,-2.608856201171875,-0.3412933349609375,0.4399566650390625
1782986228174664000,6.607663818359375,-2.9414825439453125,-0.3418426513671875,0.3575439453125
1782986228184738000,6.617738037109375,-3.0926361083984375,-0.3846282958984375,0.3947601318359375
1782986228194812200,6.627812255859375,-2.9723663330078125,-0.4925079345703125,0.4300537109375
1782986228204887000,6.637886962890625,-2.8265380859375,-0.63494873046875,0.3862152099609375
1782986228214961200,6.647961181640625,-2.7646636962890625,-0.6590423583984375,0.256134033203125
1782986228225035300,6.65803515625,-2.6957244873046875,-0.4960479736328125,0.1062469482421875
1782986228235109000,6.668109130859375,-2.583709716796875,-0.331787109375,0.0772705078125
1782986228245184300,6.678184326171875,-2.406158447265625,-0.2473297119140625,0.1593017578125
1782986228255258000,6.688258056640625,-2.1593780517578125,-0.1669158935546875,0.2378387451171875
1782986228265332200,6.698332275390625,-1.818450927734375,-0.090301513671875,0.2476654052734375
1782986228275407000,6.708406982421875,-1.4553070068359375,-0.074737548828125,0.1912384033203125
1782986228285481200,6.718481201171875,-1.167694091796875,-0.1079559326171875,0.1175079345703125
1782986228295555000,6.72855517578125,-0.9892730712890625,-0.1383209228515625,0.050445556640625
1782986228305629000,6.73862890625,-0.9028778076171875,-0.16448974609375,-0.004730224609375
1782986228315704000,6.7487041015625,-0.83038330078125,-0.2008819580078125,-0.026763916015625
1782986228325778200,6.758778076171875,-0.7423248291015625,-0.2539215087890625,-0.0121612548828125
1782986228335852000,6.76885205078125,-0.6273956298828125,-0.27423095703125,0.0478973388671875
1782986228345927200,6.77892724609375,-0.487762451171875,-0.241943359375,0.118377685546875
1782986228356001000,6.7890009765625,-0.4149322509765625,-0.173065185546875,0.22607421875
1782986228366075100,6.7990751953125,-0.4070892333984375,-0.109710693359375,0.3714141845703125
1782986228376149200,6.809149169921875,-0.397796630859375,-0.09716796875,0.495361328125
1782986228386224000,6.81922412109375,-0.36639404296875,-0.13262939453125,0.53692626953125
1782986228396298200,6.82929833984375,-0.3375701904296875,-0.156982421875,0.48223876953125
1782986228406372000,6.8393720703125,-0.305572509765625,-0.135223388671875,0.386627197265625
1782986228416447200,6.849447265625,-0.294586181640625,-0.1269989013671875,0.3172607421875
1782986228426521000,6.85952099609375,-0.2691802978515625,-0.1542510986328125,0.251220703125
1782986228436595200,6.86959521484375,-0.224761962890625,-0.17608642578125,0.1928253173828125
1782986228446669000,6.8796689453125,-0.1856689453125,-0.1804046630859375,0.1531982421875
1782986228456744200,6.889744140625,-0.128875732421875,-0.16705322265625,0.13934326171875
1782986228466818000,6.899818115234375,-0.0814666748046875,-0.148956298828125,0.1335601806640625
1782986228476892200,6.90989208984375,-0.074676513671875,-0.1335906982421875,0.1316680908203125
1782986228486967000,6.919967041015625,-0.1136016845703125,-0.11480712890625,0.12213134765625
1782986228497041200,6.930041259765625,-0.16741943359375,-0.0855712890625,0.101654052734375
1782986228507115000,6.940114990234375,-0.222686767578125,-0.0537261962890625,0.0900726318359375
1782986228517189000,6.950189208984375,-0.2642974853515625,-0.029052734375,0.083526611328125
1782986228527264000,6.960263916015625,-0.2948455810546875,-0.0196380615234375,0.084381103515625
1782986228537338000,6.970338134765625,-0.30523681640625,-0.014617919921875,0.0833282470703125
1782986228547412200,6.980412109375,-0.301177978515625,-0.00927734375,0.0713958740234375
1782986228557487400,6.9904873046875,-0.2845306396484375,-0.0036773681640625,0.05743408203125
1782986228567561200,7.000561279296875,-0.269256591796875,-0.00115966796875,0.037841796875
1782986228577635000,7.010635009765625,-0.2535858154296875,0.005126953125,0.0220489501953125
1782986228587710200,7.020710205078125,-0.245697021484375,0.0050506591796875,0.015777587890625
1782986228597784000,7.0307841796875,-0.2568817138671875,-0.006134033203125,0.010955810546875
1782986228607858200,7.040858154296875,-0.2968292236328125,-0.0247955322265625,0.006195068359375
1782986228617932500,7.0509326171875,-0.38134765625,-0.0535888671875,0.012298583984375
1782986228628007700,7.061007568359375,-0.5185699462890625,-0.1035003662109375,0.0341339111328125
1782986228638081500,7.07108154296875,-0.7587127685546875,-0.1949005126953125,0.06231689453125
1782986228648155400,7.0811552734375,-1.102691650390625,-0.2733612060546875,0.1112823486328125
1782986228658230500,7.09123046875,-1.5160064697265625,-0.2979278564453125,0.2238006591796875
1782986228668304400,7.101304443359375,-2.0542755126953125,-0.32940673828125,0.3549652099609375
1782986228678378500,7.11137841796875,-2.50408935546875,-0.3888702392578125,0.4420318603515625
1782986228688452600,7.12145263671875,-2.671051025390625,-0.488525390625,0.41473388671875
1782986228698527500,7.131527587890625,-2.6865997314453125,-0.67724609375,0.3072052001953125
1782986228708601600,7.1416015625,-2.6832122802734375,-0.85540771484375,0.1476287841796875
1782986228718675700,7.15167578125,-2.72296142578125,-0.9563751220703125,0.012359619140625
1782986228728750600,7.16175048828125,-2.6733856201171875,-0.9925079345703125,-0.0827484130859375
1782986228738824700,7.17182470703125,-2.5375823974609375,-0.9667205810546875,-0.102996826171875
1782986228748898600,7.181898681640625,-2.4141387939453125,-0.9528350830078125,-0.0908966064453125
1782986228758972700,7.19197265625,-2.3172149658203125,-0.8962249755859375,-0.1204681396484375
1782986228769047600,7.202047607421875,-2.346435546875,-0.7411041259765625,-0.15667724609375
1782986228779121700,7.21212158203125,-2.4765777587890625,-0.5048675537109375,-0.18743896484375
1782986228789195500,7.222195556640625,-2.4817047119140625,-0.282989501953125,-0.178131103515625
1782986228799270700,7.232270751953125,-2.2899627685546875,-0.1843414306640625,-0.1182098388671875
1782986228809344500,7.242344482421875,-1.9914703369140625,-0.1928863525390625,-0.0892791748046875
1782986228819418600,7.252418701171875,-1.657012939453125,-0.2548980712890625,-0.13958740234375
1782986228829492500,7.262492431640625,-1.3579864501953125,-0.2936859130859375,-0.1788330078125
1782986228839567600,7.272567626953125,-1.0847015380859375,-0.3074798583984375,-0.1730499267578125
1782986228849641500,7.282641357421875,-0.81439208984375,-0.2975616455078125,-0.1319732666015625
1782986228859715600,7.292715576171875,-0.5591278076171875,-0.3065948486328125,-0.092742919921875
1782986228869790500,7.30279052734375,-0.33935546875,-0.3321075439453125,-0.0486602783203125
1782986228879864600,7.312864501953125,-0.1678924560546875,-0.368804931640625,0.005828857421875
1782986228889938700,7.322938720703125,-0.0496063232421875,-0.3851776123046875,0.0644073486328125
1782986228900012500,7.333012451171875,0.0420684814453125,-0.3740234375,0.0714111328125
1782986228910087700,7.343087646484375,0.116546630859375,-0.3425140380859375,0.04779052734375
1782986228920161500,7.35316162109375,0.1764373779296875,-0.31951904296875,0.0278778076171875
1782986228930235600,7.363235595703125,0.221527099609375,-0.301483154296875,0.0150299072265625
1782986228940310500,7.373310546875,0.2293701171875,-0.26519775390625,-0.0148773193359375
1782986228950384600,7.383384521484375,0.182220458984375,-0.2237396240234375,-0.03070068359375
1782986228960458500,7.39345849609375,0.1307373046875,-0.21844482421875,0.0303802490234375
1782986228970533600,7.40353369140625,0.136444091796875,-0.2108306884765625,0.0258331298828125
1782986228980607500,7.413607421875,0.120208740234375,-0.1676025390625,0.00006103515625
1782986228990681600,7.423681640625,0.0829620361328125,-0.141876220703125,-0.0075531005859375
1782986229000755500,7.43375537109375,0.046783447265625,-0.124237060546875,0.019378662109375
1782986229010830600,7.44383056640625,0.013397216796875,-0.11407470703125,0.0194549560546875
1782986229020904400,7.453904541015625,-0.021636962890625,-0.1099700927734375,-0.0231170654296875
1782986229030978600,7.463978515625,-0.0486602783203125,-0.09100341796875,-0.0704345703125
1782986229041053400,7.474053466796875,-0.0597991943359375,-0.0784759521484375,-0.0972747802734375
1782986229051127600,7.48412744140625,-0.087127685546875,-0.0744171142578125,-0.11322021484375
1782986229061201700,7.49420166015625,-0.1272430419921875,-0.0667877197265625,-0.1265716552734375
1782986229071275500,7.504275634765625,-0.169647216796875,-0.0564422607421875,-0.139739990234375
1782986229081350700,7.5143505859375,-0.200958251953125,-0.0278472900390625,-0.1496429443359375
1782986229091424500,7.524424560546875,-0.19915771484375,-0.0022735595703125,-0.13751220703125
1782986229101498600,7.53449853515625,-0.186767578125,0.0151519775390625,-0.1002044677734375
1782986229111573500,7.544573486328125,-0.157928466796875,0.0096435546875,-0.079559326171875
1782986229121647600,7.554647705078125,-0.1044464111328125,-0.0141448974609375,-0.1019744873046875
1782986229131721500,7.564721435546875,-0.09124755859375,-0.040618896484375,-0.1389617919921875
1782986229141795600,7.574795654296875,-0.1703033447265625,-0.06500244140625,-0.1647796630859375
1782986229151870500,7.584870361328125,-0.3095245361328125,-0.0763397216796875,-0.15179443359375
1782986229161944600,7.594944580078125,-0.5142364501953125,-0.1158294677734375,-0.043426513671875
1782986229172018400,7.605018310546875,-0.8092193603515625,-0.254241943359375,0.171234130859375
1782986229182093600,7.615093505859375,-1.126739501953125,-0.4732818603515625,0.42852783203125
1782986229192167400,7.62516748046875,-1.432525634765625,-0.6726837158203125,0.6698455810546875
1782986229202241500,7.635241455078125,-1.7579345703125,-0.8635406494140625,0.91094970703125
1782986229212315600,7.645315673828125,-2.0443572998046875,-1.041259765625,1.04656982421875
1782986229222390500,7.655390625,-2.3472137451171875,-1.0716400146484375,0.8145904541015625
1782986229232464600,7.665464599609375,-2.7407684326171875,-0.9785003662109375,0.355072021484375
1782986229242538500,7.67553857421875,-3.1520538330078125,-1.0088043212890625,0.0423431396484375
1782986229252613600,7.685613525390625,-3.3319244384765625,-1.11810302734375,-0.0491485595703125
1782986229262687500,7.6956875,-3.390838623046875,-1.2138519287109375,0.05279541015625
1782986229272761600,7.70576171875,-3.2933349609375,-1.226959228515625,0.2598114013671875
1782986229282835500,7.71583544921875,-3.081268310546875,-1.1009979248046875,0.3734130859375
1782986229292910600,7.72591064453125,-2.7414398193359375,-0.78753662109375,0.388275146484375
1782986229302984400,7.735984375,-2.371795654296875,-0.503265380859375,0.4282073974609375
1782986229313058600,7.74605859375,-2.0037841796875,-0.3341217041015625,0.431549072265625
1782986229323133400,7.756133544921875,-1.6212615966796875,-0.244415283203125,0.342041015625
1782986229333207600,7.76620751953125,-1.3072357177734375,-0.1910552978515625,0.2302703857421875
1782986229343281400,7.776281494140625,-1.1223907470703125,-0.162109375,0.10479736328125
1782986229353356500,7.7863564453125,-1.05377197265625,-0.1568603515625,-0.0405426025390625
1782986229363430400,7.796430419921875,-1.035186767578125,-0.149261474609375,-0.1708221435546875
1782986229373504500,7.80650439453125,-0.920013427734375,-0.09954833984375,-0.2018890380859375
1782986229383578600,7.81657861328125,-0.7583770751953125,-0.0843963623046875,-0.0990447998046875
1782986229393653500,7.826653564453125,-0.6118927001953125,-0.1414031982421875,0.033935546875
1782986229403727600,7.8367275390625,-0.4622802734375,-0.188262939453125,0.13714599609375
1782986229413801500,7.846801513671875,-0.336883544921875,-0.1926422119140625,0.18914794921875
1782986229423876600,7.856876708984375,-0.2545318603515625,-0.177520751953125,0.2144317626953125
1782986229433950700,7.86695068359375,-0.2184600830078125,-0.169830322265625,0.2207794189453125
1782986229444024600,7.877024658203125,-0.238525390625,-0.1736297607421875,0.2158355712890625
1782986229454098400,7.887098388671875,-0.275054931640625,-0.1804046630859375,0.1560821533203125
1782986229464173600,7.897173583984375,-0.2806854248046875,-0.200103759765625,0.0679931640625
1782986229474247400,7.907247314453125,-0.2429046630859375,-0.2338104248046875,-0.0239410400390625
1782986229484321500,7.917321533203125,-0.1807098388671875,-0.240875244140625,-0.092864990234375
1782986229494396400,7.927396484375,-0.1025238037109375,-0.226165771484375,-0.1196746826171875
1782986229504470500,7.937470458984375,-0.023590087890625,-0.2129058837890625,-0.10540771484375
1782986229514544400,7.94754443359375,0.032989501953125,-0.209014892578125,-0.06182861328125
1782986229524618800,7.95761865234375,0.0735321044921875,-0.2156982421875,-0.0261993408203125
1782986229534693400,7.967693359375,0.0756378173828125,-0.21429443359375,-0.010498046875
1782986229544767700,7.977767822265625,0.011474609375,-0.186553955078125,-0.017791748046875
1782986229554841600,7.987841552734375,-0.0704498291015625,-0.1453094482421875,-0.0324554443359375
1782986229564915700,7.997915771484375,-0.124359130859375,-0.1192474365234375,-0.0477447509765625
1782986229574989600,8.007989501953125,-0.1681976318359375,-0.105804443359375,-0.0633392333984375
1782986229585064700,8.018064697265626,-0.198089599609375,-0.092742919921875,-0.07403564453125
1782986229595138600,8.028138671875,-0.225677490234375,-0.073822021484375,-0.0694122314453125
1782986229605212400,8.03821240234375,-0.265289306640625,-0.052337646484375,-0.0537567138671875
1782986229615286500,8.04828662109375,-0.30535888671875,-0.054412841796875,-0.0397796630859375
1782986229625360400,8.0583603515625,-0.320526123046875,-0.0647125244140625,-0.0329132080078125
1782986229635434800,8.068434814453125,-0.3427276611328125,-0.068695068359375,-0.019500732421875
1782986229645508600,8.078508544921876,-0.38177490234375,-0.075958251953125,-0.0041351318359375
1782986229655583700,8.088583740234375,-0.457855224609375,-0.087738037109375,0.01025390625
1782986229665657600,8.09865771484375,-0.615692138671875,-0.0948944091796875,-0.0001678466796875
1782986229675731500,8.1087314453125,-0.88116455078125,-0.118682861328125,-0.0264892578125
1782986229685805600,8.1188056640625,-1.163970947265625,-0.1544647216796875,-0.035614013671875
1782986229695880400,8.12888037109375,-1.3816986083984375,-0.19232177734375,0.0112762451171875
1782986229705954600,8.13895458984375,-1.5057830810546875,-0.2809906005859375,0.117156982421875
1782986229716028400,8.1490283203125,-1.563568115234375,-0.4001312255859375,0.275665283203125
1782986229726103600,8.159103515625,-1.692230224609375,-0.4924163818359375,0.3792724609375
1782986229736177400,8.169177490234375,-1.9210357666015625,-0.5603485107421875,0.311187744140625
1782986229746251500,8.17925146484375,-2.2519073486328125,-0.5707244873046875,0.1993255615234375
1782986229756326400,8.189326416015625,-2.5694122314453125,-0.46337890625,0.1189727783203125
1782986229766400500,8.199400390625,-2.7249298095703125,-0.3999786376953125,0.0997161865234375
1782986229776474400,8.209474365234374,-2.6561279296875,-0.5323944091796875,0.0980072021484375
1782986229786548700,8.219548828125,-2.481201171875,-0.756256103515625,0.03546142578125
1782986229796623400,8.229623291015624,-2.3394622802734375,-0.972412109375,-0.07421875
1782986229806697700,8.23969775390625,-2.3690032958984375,-1.057373046875,-0.1773223876953125
1782986229816771600,8.249771484375,-2.482086181640625,-0.9791717529296875,-0.1843414306640625
1782986229826846700,8.2598466796875,-2.4250335693359375,-0.845947265625,-0.0642242431640625
1782986229836920600,8.269920654296875,-2.098480224609375,-0.744873046875,0.0666351318359375
1782986229846994400,8.279994384765626,-1.62213134765625,-0.63092041015625,0.0763702392578125
1782986229857068500,8.290068603515625,-1.2160186767578125,-0.5216827392578125,0.026275634765625
1782986229867143400,8.300143310546876,-0.9541168212890625,-0.4320220947265625,-0.044677734375
1782986229877217500,8.310217529296875,-0.864776611328125,-0.3511810302734375,-0.104278564453125
1782986229887291400,8.32029150390625,-0.8743133544921875,-0.3020477294921875,-0.1787567138671875
1782986229897366500,8.330366455078124,-0.88720703125,-0.2877655029296875,-0.250091552734375
1782986229907440400,8.3404404296875,-0.848663330078125,-0.269378662109375,-0.24884033203125
1782986229917514500,8.350514404296876,-0.790496826171875,-0.215728759765625,-0.1573028564453125
1782986229927589400,8.36058935546875,-0.693389892578125,-0.173187255859375,-0.0174102783203125
1782986229937663500,8.37066357421875,-0.5891876220703125,-0.15447998046875,0.1006622314453125
1782986229947737300,8.3807373046875,-0.4953155517578125,-0.1331634521484375,0.1560821533203125
1782986229957811700,8.390811767578125,-0.4215240478515625,-0.1244049072265625,0.132110595703125
1782986229967886300,8.40088623046875,-0.354400634765625,-0.142578125,0.0390167236328125
1782986229977960700,8.410960693359375,-0.268096923828125,-0.15753173828125,-0.0641326904296875
1782986229988034600,8.42103466796875,-0.1660614013671875,-0.170928955078125,-0.1381378173828125
1782986229998109700,8.431109619140624,-0.0542755126953125,-0.1861419677734375,-0.165679931640625
1782986230008183600,8.44118359375,0.033599853515625,-0.197967529296875,-0.1580047607421875
1782986230018257700,8.451257568359376,0.064788818359375,-0.201812744140625,-0.1263427734375
1782986230028331500,8.46133154296875,0.0480499267578125,-0.1930999755859375,-0.0866546630859375
1782986230038406700,8.47140673828125,0.000762939453125,-0.175384521484375,-0.055999755859375
1782986230048480500,8.48148046875,-0.0568084716796875,-0.15386962890625,-0.0324554443359375
1782986230058554400,8.491554443359375,-0.1419677734375,-0.143463134765625,-0.0280303955078125
1782986230068629500,8.50162939453125,-0.244293212890625,-0.1260833740234375,-0.05059814453125
1782986230078703400,8.511703369140625,-0.31658935546875,-0.0919036865234375,-0.0638885498046875
1782986230088777500,8.521777587890625,-0.378265380859375,-0.073028564453125,-0.06756591796875
1782986230098851300,8.531851318359376,-0.40863037109375,-0.053924560546875,-0.0592041015625
1782986230108926500,8.541926513671875,-0.3905181884765625,-0.033447265625,-0.0263824462890625
1782986230119000300,8.552000244140626,-0.3583984375,-0.0332489013671875,0.0281982421875
1782986230129074700,8.56207470703125,-0.335723876953125,-0.0334014892578125,0.0789947509765625
1782986230139149300,8.5721494140625,-0.341156005859375,-0.02130126953125,0.1177520751953125
1782986230149223700,8.5822236328125,-0.3781890869140625,-0.0066070556640625,0.1367645263671875
1782986230159297500,8.592297607421875,-0.4355926513671875,-0.009765625,0.107940673828125
1782986230169371600,8.60237158203125,-0.4651947021484375,-0.0153961181640625,0.0380401611328125
1782986230179446500,8.612446533203125,-0.4578399658203125,-0.039764404296875,-0.0548858642578125
1782986230189520600,8.622520751953125,-0.433837890625,-0.0850830078125,-0.1379852294921875
1782986230199594500,8.632594482421876,-0.4154052734375,-0.1556243896484375,-0.19976806640625
1782986230209669600,8.642669677734375,-0.4652557373046875,-0.2602996826171875,-0.21331787109375
1782986230219743500,8.652743408203126,-0.5809478759765625,-0.3605194091796875,-0.157073974609375
1782986230229817300,8.6628173828125,-0.7448272705078125,-0.486358642578125,-0.069915771484375
1782986230239892500,8.672892578125,-0.949981689453125,-0.6349029541015625,0.0045928955078125
1782986230249966600,8.682966552734374,-1.2546234130859375,-0.74041748046875,0.082855224609375
1782986230260040400,8.69304052734375,-1.630035400390625,-0.863494873046875,0.1849212646484375
1782986230270114300,8.7031142578125,-1.9574737548828125,-0.9969482421875,0.206390380859375
1782986230280189400,8.713189453125,-2.262786865234375,-1.1025848388671875,0.100494384765625
1782986230290263300,8.72326318359375,-2.6651153564453125,-1.13873291015625,-0.094757080078125
1782986230300337700,8.733337646484374,-3.1209564208984375,-1.0540924072265625,-0.3125457763671875
1782986230310412300,8.743412353515625,-3.2841949462890625,-0.969207763671875,-0.4423065185546875
1782986230320486700,8.753486572265626,-2.8789825439453125,-1.034393310546875,-0.4024505615234375
1782986230330560500,8.763560546875,-2.330352783203125,-1.2808685302734375,-0.1643524169921875
1782986230340634600,8.773634521484375,-1.9477996826171875,-1.451690673828125,0.0583953857421875
1782986230350709500,8.78370947265625,-1.7711944580078125,-1.4447784423828125,0.14263916015625
1782986230360783600,8.79378369140625,-1.917633056640625,-1.31365966796875,0.1015625
1782986230370857500,8.803857421875,-2.31536865234375,-1.0511322021484375,-0.0417327880859375
1782986230380932600,8.8139326171875,-2.694976806640625,-0.7721710205078125,-0.1656951904296875
1782986230391006500,8.82400634765625,-2.6990966796875,-0.6163177490234375,-0.235443115234375
1782986230401080600,8.83408056640625,-2.3301239013671875,-0.609100341796875,-0.2515716552734375
1782986230411154400,8.844154541015625,-1.804046630859375,-0.63897705078125,-0.2749481201171875
1782986230421229600,8.8542294921875,-1.2512359619140625,-0.6396942138671875,-0.30535888671875
1782986230431303400,8.864303466796875,-0.7810211181640625,-0.6221923828125,-0.312713623046875
1782986230441377300,8.874377197265625,-0.4056243896484375,-0.5685272216796875,-0.2757110595703125
1782986230451452400,8.884452392578124,-0.113800048828125,-0.487762451171875,-0.1763916015625
1782986230461526300,8.8945263671875,0.0745849609375,-0.410736083984375,-0.0111846923828125
1782986230471600600,8.9046005859375,0.156341552734375,-0.326812744140625,0.1535491943359375
1782986230481675500,8.914675537109375,0.1539459228515625,-0.2547607421875,0.2970123291015625
1782986230491749600,8.92474951171875,0.1068115234375,-0.1789703369140625,0.3603363037109375
1782986230501823500,8.934823486328124,0.0605926513671875,-0.1163330078125,0.338623046875
1782986230511897600,8.944897705078125,0.0129547119140625,-0.118011474609375,0.194854736328125
1782986230521972500,8.954972412109376,-0.01019287109375,-0.148834228515625,0.0004425048828125
1782986230532046600,8.965046630859375,-0.002197265625,-0.1675567626953125,-0.162139892578125
1782986230542120400,8.975120361328125,0.00811767578125,-0.146514892578125,-0.2337188720703125
1782986230552195600,8.985195556640624,0.0161285400390625,-0.1112518310546875,-0.1929931640625
1782986230562269400,8.99526953125,0.026519775390625,-0.1003875732421875,-0.1083221435546875
1782986230572343600,9.005343505859376,0.0487060546875,-0.09674072265625,-0.039581298828125
1782986230582417400,9.01541748046875,0.066864013671875,-0.081024169921875,-0.0053253173828125
1782986230592492500,9.025492431640625,0.0358734130859375,-0.0583343505859375,0.0047607421875
1782986230602566400,9.03556640625,-0.0336761474609375,-0.0256500244140625,0.0125579833984375
1782986230612640500,9.045640625,-0.1035919189453125,0.008026123046875,0.021209716796875
1782986230622716700,9.055716552734374,-0.17852783203125,0.0333251953125,0.0185699462890625
1782986230632790500,9.06579052734375,-0.22650146484375,0.047119140625,-0.0096282958984375
1782986230642864600,9.07586474609375,-0.2699432373046875,0.066741943359375,-0.05084228515625
1782986230652938500,9.0859384765625,-0.2991943359375,0.07904052734375,-0.0773468017578125
1782986230663013600,9.096013671875,-0.2907257080078125,0.0654754638671875,-0.0963287353515625
1782986230673087500,9.10608740234375,-0.238250732421875,0.0457611083984375,-0.094451904296875
1782986230683161900,9.116161865234375,-0.1752166748046875,0.0144500732421875,-0.0707855224609375
1782986230693236500,9.126236572265626,-0.12506103515625,-0.0240478515625,-0.041534423828125
1782986230703310800,9.136310791015624,-0.087615966796875,-0.0512847900390625,-0.012451171875
1782986230713384700,9.146384765625,-0.0478515625,-0.07965087890625,0.0262908935546875
1782986230723459800,9.1564599609375,-0.0782470703125,-0.1274566650390625,0.078369140625
1782986230733533700,9.16653369140625,-0.2221527099609375,-0.19232177734375,0.111663818359375
1782986230743607600,9.176607666015625,-0.4377593994140625,-0.268402099609375,0.119781494140625
1782986230753681700,9.186681640625,-0.6954498291015625,-0.380523681640625,0.1743621826171875
1782986230763756800,9.1967568359375,-0.9801483154296875,-0.5456085205078125,0.2588653564453125
1782986230773830700,9.20683056640625,-1.1869659423828125,-0.7218017578125,0.294952392578125
1782986230783904500,9.216904541015625,-1.317657470703125,-0.88330078125,0.322296142578125
1782986230793979600,9.226979736328126,-1.4513702392578125,-1.08843994140625,0.408172607421875
1782986230804053500,9.237053466796874,-1.5875091552734375,-1.22137451171875,0.4866790771484375
1782986230814127600,9.247127685546875,-1.735198974609375,-1.2320709228515625,0.5303955078125
1782986230824202500,9.257202392578124,-1.8917694091796875,-1.2364501953125,0.5860137939453125
1782986230834276600,9.267276611328125,-2.109100341796875,-1.2917938232421875,0.6580963134765625
1782986230844350500,9.2773505859375,-2.222991943359375,-1.4086151123046875,0.6815185546875
1782986230854424800,9.2874248046875,-2.174835205078125,-1.5095367431640625,0.6285858154296875
1782986230864499500,9.29749951171875,-2.044189453125,-1.597747802734375,0.4613800048828125
1782986230874573800,9.30757373046875,-1.9119110107421875,-1.7018890380859375,0.2445526123046875
1782986230884647700,9.317647705078125,-1.8393402099609375,-1.670074462890625,0.06744384765625
1782986230894722800,9.327722900390626,-1.7882843017578125,-1.4460906982421875,-0.0593109130859375
1782986230904796700,9.337796630859375,-1.7072906494140625,-1.1154327392578125,-0.09130859375
1782986230914870800,9.347870849609375,-1.552764892578125,-0.824615478515625,-0.075897216796875
1782986230924944600,9.357944580078126,-1.3451385498046875,-0.6406402587890625,-0.091033935546875
1782986230935019800,9.368019775390625,-1.1605072021484375,-0.569305419921875,-0.217254638671875
1782986230945093600,9.37809375,-1.0370635986328125,-0.555145263671875,-0.401824951171875
1782986230955167500,9.38816748046875,-0.9563140869140625,-0.5422210693359375,-0.5408935546875
1782986230965242600,9.39824267578125,-0.8751068115234375,-0.500946044921875,-0.61083984375
1782986230975316500,9.40831640625,-0.6835479736328125,-0.495269775390625,-0.65802001953125
1782986230985390600,9.418390625,-0.50732421875,-0.5291595458984375,-0.655487060546875
1782986230995465500,9.428465576171876,-0.4264068603515625,-0.5182342529296875,-0.53753662109375
1782986231005539600,9.43853955078125,-0.4093475341796875,-0.4284820556640625,-0.3195343017578125
1782986231015613400,9.448613525390625,-0.4224090576171875,-0.3197784423828125,-0.067047119140625
1782986231025687800,9.458687744140626,-0.4178619384765625,-0.2502593994140625,0.1302032470703125
1782986231035762400,9.468762451171875,-0.386444091796875,-0.1936492919921875,0.2346343994140625
1782986231045836800,9.4788369140625,-0.375732421875,-0.144500732421875,0.2533111572265625
1782986231055910700,9.48891064453125,-0.384979248046875,-0.11798095703125,0.1900634765625
1782986231065985800,9.49898583984375,-0.4005584716796875,-0.1161956787109375,0.0782318115234375
1782986231076059600,9.5090595703125,-0.4274139404296875,-0.122711181640625,-0.0476837158203125
1782986231086133800,9.5191337890625,-0.436248779296875,-0.1202850341796875,-0.1563873291015625
1782986231096207600,9.52920751953125,-0.3849945068359375,-0.1103363037109375,-0.18988037109375
1782986231106282800,9.53928271484375,-0.3336029052734375,-0.0963134765625,-0.1258544921875
1782986231116356600,9.549356689453125,-0.3219757080078125,-0.0679168701171875,-0.0275421142578125
1782986231126430700,9.5594306640625,-0.3300933837890625,-0.0369110107421875,0.052276611328125
1782986231136505600,9.569505615234375,-0.3541412353515625,-0.012847900390625,0.0926971435546875
1782986231146579700,9.579579833984376,-0.382080078125,-0.009063720703125,0.1059112548828125
1782986231156653600,9.589653564453124,-0.3935546875,-0.0254974365234375,0.090057373046875
1782986231166727400,9.5997275390625,-0.3696746826171875,-0.0584716796875,0.0424041748046875
1782986231176802600,9.609802490234374,-0.3198699951171875,-0.094451904296875,-0.0380401611328125
1782986231186876400,9.61987646484375,-0.3036956787109375,-0.1254119873046875,-0.0999755859375
1782986231196950800,9.62995068359375,-0.3323516845703125,-0.15478515625,-0.138641357421875
1782986231207025400,9.640025390625,-0.368499755859375,-0.1683502197265625,-0.1953887939453125
1782986231217099800,9.650099853515625,-0.412139892578125,-0.1524810791015625,-0.229339599609375
1782986231227173600,9.660173583984376,-0.447967529296875,-0.090911865234375,-0.177581787109375
1782986231237248800,9.670248779296875,-0.4473419189453125,-0.044097900390625,-0.0856475830078125
1782986231247322600,9.680322509765626,-0.43963623046875,-0.026397705078125,-0.0087738037109375
1782986231257396700,9.690396728515625,-0.4704132080078125,-0.0503692626953125,0.0638885498046875
1782986231267470600,9.700470703125,-0.5164794921875,-0.1157684326171875,0.12548828125
1782986231277545700,9.710545654296874,-0.5771026611328125,-0.179534912109375,0.1273345947265625
1782986231287619600,9.72061962890625,-0.652099609375,-0.238189697265625,0.1317138671875
1782986231297693700,9.730693603515626,-0.71539306640625,-0.3150634765625,0.1893157958984375
1782986231307768600,9.7407685546875,-0.7352294921875,-0.4279632568359375,0.2519683837890625
1782986231317842700,9.7508427734375,-0.7469482421875,-0.5424346923828125,0.3038330078125
1782986231327916500,9.76091650390625,-0.7657928466796875,-0.652496337890625,0.3463287353515625
1782986231337991700,9.77099169921875,-0.7834625244140625,-0.7258148193359375,0.330230712890625
1782986231348065500,9.7810654296875,-0.923370361328125,-0.768798828125,0.302337646484375
1782986231358139400,9.791139404296874,-1.1918792724609375,-0.7969970703125,0.2918548583984375
1782986231368213800,9.8012138671875,-1.4836273193359375,-0.765869140625,0.26373291015625
1782986231378288600,9.81128857421875,-1.7059326171875,-0.70867919921875,0.2080535888671875
1782986231388362800,9.82136279296875,-1.772857666015625,-0.702789306640625,0.1382598876953125
1782986231398436600,9.8314365234375,-1.72802734375,-0.8002471923828125,0.0023651123046875
1782986231408511700,9.84151171875,-1.72930908203125,-0.9448089599609375,-0.1440887451171875
1782986231418585600,9.851585693359375,-1.8473052978515625,-1.0000762939453125,-0.204376220703125
1782986231428659700,9.86165966796875,-1.9834442138671875,-0.9603271484375,-0.1520538330078125
1782986231438734600,9.871734619140625,-1.9963836669921875,-0.946014404296875,0.0111236572265625
1782986231448808700,9.88180859375,-1.8450469970703125,-1.0228118896484375,0.1789703369140625
1782986231458882600,9.891882568359375,-1.6688690185546875,-1.08758544921875,0.2944183349609375
1782986231468956700,9.901956787109375,-1.5750579833984375,-1.1032257080078125,0.347930908203125
1782986231479031600,9.912031494140624,-1.55194091796875,-1.071380615234375,0.3604888916015625
1782986231489105700,9.922105712890625,-1.6135101318359375,-0.953704833984375,0.37237548828125
1782986231499179500,9.932179443359376,-1.747467041015625,-0.8178253173828125,0.3633270263671875
1782986231509254700,9.942254638671875,-1.9144439697265625,-0.71649169921875,0.2861480712890625
1782986231519328500,9.95232861328125,-2.0147857666015625,-0.6550750732421875,0.1226043701171875
1782986231529402600,9.962402587890624,-1.9891204833984375,-0.6514739990234375,-0.0564422607421875
1782986231539476700,9.972476806640625,-1.8461151123046875,-0.6849822998046875,-0.193206787109375
1782986231549551600,9.982551513671876,-1.492584228515625,-0.7258758544921875,-0.2691650390625
1782986231559625700,9.992625732421875,-1.044677734375,-0.746002197265625,-0.304962158203125
1782986231569699600,10.002699462890625,-0.705322265625,-0.667938232421875,-0.32806396484375
1782986231579774700,10.012774658203124,-0.616363525390625,-0.5399322509765625,-0.1978759765625
1782986231589848600,10.0228486328125,-0.660125732421875,-0.417388916015625,0.0334320068359375
1782986231599922700,10.032922607421876,-0.8285675048828125,-0.3199005126953125,0.1609649658203125
1782986231609997800,10.042997802734375,-0.9694671630859375,-0.2220306396484375,0.1788787841796875
1782986231620071700,10.05307177734375,-0.9625244140625,-0.1756744384765625,0.1815948486328125
1782986231630145000,10.06314501953125,-0.849639892578125,-0.14324951171875,0.166229248046875
1782986231640219000,10.073218994140625,-0.6587371826171875,-0.14263916015625,0.1358642578125
1782986231650294000,10.0832939453125,-0.51324462890625,-0.1527557373046875,0.0937347412109375
