time,seconds_elapsed,z,y,x
1782986221635192300,0.0681923828125,1.7191437594980001,5.340567831751704,-0.8476260789547115
1782986221645266400,0.078266357421875,0.08232172485589981,4.4178713873088356,0.11089958456456661
1782986221655340500,0.088340576171875,-1.7126579046100376,2.080173704662919,1.6883043845981358
1782986221665415400,0.09841552734375,-4.022810577726364,-1.26848381229043,2.976504997010529
1782986221675489500,0.108489501953125,-7.3392270362883805,-4.8029807117193934,3.459500695155561
1782986221685563600,0.118563720703125,-10.119614710175991,-7.993533825340867,3.4273911541894075
1782986221695637500,0.128637451171875,-11.485745242226123,-9.642437342920898,3.090510438635945
1782986221705712600,0.138712646484375,-11.800980235421656,-9.687831312873959,2.9595436330765486
1782986221715786500,0.148786376953125,-12.592864772605894,-10.415463450378178,2.9736650974094867
1782986221725860600,0.158860595703125,-14.419904843199252,-11.592650788718462,1.6191288493022322
1782986221735935500,0.168935546875,-16.399979758775235,-12.038282094109057,-0.708669151424244
1782986221746009600,0.179009521484375,-16.821494860041142,-12.797573690724372,-2.0897567949138582
1782986221756083500,0.18908349609375,-14.689409181833266,-13.467763108563423,-1.8930530502051115
1782986221766157600,0.199157470703125,-11.533665515786408,-13.32541098563671,-1.2242514334626495
1782986221776232400,0.209232421875,-8.599889945694803,-12.14631576784849,-0.6022029096646234
1782986221786306600,0.219306640625,-7.810400194692611,-10.80985439787507,0.4036240187337622
1782986221796380400,0.22938037109375,-9.137431473019719,-8.713349736136198,0.5378654985822737
1782986221806454500,0.23945458984375,-9.368397114422917,-5.42677604265213,-1.0627252389885484
1782986221816529400,0.249529296875,-7.275069329154491,-2.7776977041512727,-2.060006822685897
1782986221826603500,0.259603515625,-3.682801208758354,-0.7716904749393463,-1.9663259378172455
1782986221836677600,0.269677734375,0.16590601699352264,1.3033446977913379,-1.6527521558322011
1782986221846752500,0.27975244140625,3.1995676102042196,3.373357073923945,-0.8239486315734684
1782986221856826600,0.28982666015625,5.13639492020607,5.025749602663517,0.5808782724872231
1782986221866900500,0.299900390625,6.2891784696519375,5.765864205121994,1.840359570893645
1782986221876975600,0.3099755859375,6.737461750856042,5.863360118234157,2.397289250908047
1782986221887049500,0.320049560546875,7.4995105372250075,6.2724611436069,2.3614684343338013
1782986221897123600,0.33012353515625,7.9014517539709805,6.507792579004168,2.4478331509701907
1782986221907197400,0.340197509765625,7.989373783051967,6.286330094483494,2.348458438374102
1782986221917272600,0.3502724609375,7.896392717015742,5.944730241453647,1.8177976104736326
1782986221927346400,0.360346435546875,7.924861271131038,5.6966258337229485,0.7286163262359797
1782986221937420500,0.370420654296875,8.235628763523698,5.836083404251933,-0.4309179395791143
1782986221947494400,0.380494384765625,8.73111686349511,5.694819661083817,-0.9904071678832173
1782986221957569500,0.390569580078125,9.319307797083258,5.128045609533786,-1.2727455613881349
1782986221967643400,0.400643310546875,9.866301627886294,4.990256264477968,-1.5721259828478098
1782986221977717500,0.410717529296875,10.185976649355888,5.042909996300936,-1.7406106181576848
1782986221987792400,0.42079248046875,10.139747982144355,5.024671744298935,-1.483479731145501
1782986221997866500,0.430866455078125,9.437399338978528,4.868941668882965,-0.9056752400804311
1782986222007940600,0.440940673828125,8.28540197147429,4.927181091883778,-0.3553641744881868
1782986222018014500,0.451014404296875,7.112053772905469,4.939322780576348,0.15761581609733402
1782986222028089600,0.461089599609375,6.156053024753928,4.806841478800774,0.44812224542349577
1782986222038163500,0.47116357421875,5.6192754675388334,4.896622287490963,0.3478362632013857
1782986222048237600,0.481237548828125,5.601327722916007,5.030487152579426,0.11478387865200639
1782986222058312400,0.4913125,5.72526915988326,4.88782581757307,0.014601576000079513
1782986222068386600,0.501386474609375,5.8540118596524,5.009964004510641,0.036299540001899
1782986222078460400,0.51146044921875,5.9662710421323775,5.227656907364726,0.21709566761329768
1782986222088534500,0.521534423828125,6.191611829391121,5.053996622982621,0.21312442589476704
1782986222098609400,0.531609375,6.6017509656399485,5.157410820227861,0.08291450311727822
1782986222108683500,0.54168359375,6.7812032774269575,5.337638208040595,-0.028700974631682037
1782986222118757400,0.55175732421875,6.5073518494993445,5.223823612812161,0.029384938307851553
1782986222128832500,0.56183251953125,5.991218436384201,5.094714417818189,0.1208773732215166
1782986222138906400,0.57190625,5.388276508387923,5.100621011513471,0.07800554215721786
1782986222148980700,0.581980712890625,5.01127041093409,4.886517657583951,-0.33167898219190534
1782986222159054600,0.5920546875,4.805465514272451,4.529661783233284,-0.8712493119306862
1782986222169129700,0.602129638671875,4.288795510062575,3.932622357279062,-1.0803927053652702
1782986222179203600,0.61220361328125,3.0928461881071327,2.8985014276146885,-0.8305417462281882
1782986222189277400,0.62227734375,-0.2752233008027077,1.3266098380446434,0.18817915053479373
1782986222199352600,0.6323525390625,-3.656454469102621,-0.9360545231878757,1.0247324852026998
1782986222209426400,0.642426513671875,-5.725802243846655,-3.801986391109228,2.580121414391696
1782986222219500500,0.65250048828125,-8.146686743745207,-7.507001185241341,5.373506809279323
1782986222229574400,0.662574462890625,-12.066247959399222,-10.574377416527271,8.33933639075756
1782986222239649500,0.6726494140625,-16.188053164362906,-12.93777009692192,9.67126537799835
1782986222249723400,0.682723388671875,-19.482201092493533,-14.123079951441287,8.56289555529654
1782986222259797500,0.692797607421875,-22.031429648232457,-14.908104539728164,5.9458414175659415
1782986222269872400,0.702872314453125,-23.00244442564249,-15.44269540055394,2.3919071194782853
1782986222279946500,0.712946533203125,-20.80872675938606,-16.190743134099243,-0.009757789230719209
1782986222290020400,0.723020263671875,-17.71962677206993,-17.302843960022926,-1.9297905432328581
1782986222300094700,0.7330947265625,-15.954388200873135,-16.8424955624938,-4.318376701594889
1782986222310169300,0.74316943359375,-14.503345342952013,-15.752615920728443,-5.469636110213399
1782986222320243700,0.75324365234375,-12.133102066010236,-13.63241123445034,-4.803944880576432
1782986222330317600,0.763317626953125,-10.187765286338328,-10.493366189748048,-2.468777885451913
1782986222340392700,0.773392822265625,-8.864870669424533,-8.116573345032334,-0.14815964016169308
1782986222350466600,0.783466552734375,-6.849269682437181,-6.088347854271531,0.4334833330877125
1782986222360540400,0.79354052734375,-4.158718931341171,-3.515154485577345,-0.7113378591768443
1782986222370614500,0.803614501953125,-1.4088123204350471,-0.8949421760767697,-1.9810309011265634
1782986222380689700,0.813689697265625,0.6934113034725189,1.4487240595847368,-2.1767020879171786
1782986222390763500,0.823763427734375,1.5713760412633417,3.7568572095721957,-1.6802406128689646
1782986222400837400,0.83383740234375,2.1214935570448636,5.70455019698143,-0.8769061686486005
1782986222410912500,0.84391259765625,2.3575720114171506,6.919477191129326,-0.417447997957468
1782986222420986400,0.853986328125,2.1038018330097197,7.613779890483618,-0.31041926347687837
1782986222431060500,0.864060546875,2.1219500686407087,8.17325735528469,-0.03523234916180372
1782986222441134300,0.87413427734375,2.252286175081134,8.49126298223734,0.7414126794449984
1782986222451209500,0.88420947265625,2.3504431824505327,8.712418008244038,1.740853633133322
1782986222461283300,0.894283447265625,3.4991572905004023,8.69777164325416,1.9754398031212388
1782986222471357700,0.904357666015625,5.498286450636386,8.528382460319996,1.1090129429109394
1782986222481432300,0.914432373046875,7.229328737720847,8.42743845258057,0.1268202072739601
1782986222491506700,0.924506591796875,8.361534778562188,8.098875191256404,1.0313554104737936
1782986222501580500,0.93458056640625,9.140273418447375,7.9079323481619355,1.7576945855580268
1782986222511654700,0.944654541015625,9.325205622950195,7.945550423416495,1.9334487734794616
1782986222521729500,0.9547294921875,9.21049963183999,7.643705657669901,2.108425839548558
1782986222531803600,0.9648037109375,9.033813862156867,7.219646132618188,1.9518144512534141
1782986222541877500,0.97487744140625,8.817869264274835,6.824420487862825,1.256271688710153
1782986222551952600,0.98495263671875,8.46160609512031,6.278626680499315,0.5523129799991846
1782986222562026500,0.995026611328125,8.033234552088379,5.923745321092009,0.2019332428600639
1782986222572100400,1.005100341796875,7.700875405612588,5.785469069302081,0.1701020073786378
1782986222582174500,1.015174560546875,7.381589091199636,5.668977363818883,0.36452655510902404
1782986222592249300,1.025249267578125,7.229347442421317,5.525529262349009,0.728240405595675
1782986222602323500,1.035323486328125,7.579229970628023,5.235023636740446,0.8866040443856269
1782986222612397800,1.045397705078125,8.244225911477209,5.157102777191996,0.8737995809353888
1782986222622472000,1.055471923828125,8.780089276456833,5.1486505906671285,0.788459238910675
1782986222632546800,1.065546875,8.992113486024737,5.023610837069153,0.7414959007490426
1782986222642621000,1.075620849609375,8.71203923805952,4.916187404182553,0.7714681374255568
1782986222652695000,1.085695068359375,7.907244950419664,4.832413726952672,0.8114713542509824
1782986222662770000,1.09577001953125,6.647800769153237,4.775183773255348,0.7030756422661244
1782986222672844000,1.105843994140625,5.955857200145721,4.682914654880761,0.331083792777732
1782986222682918000,1.11591796875,6.29432167775929,4.517914062294364,-0.24686003369279205
1782986222692993000,1.125992919921875,6.518939995962381,4.451958365827799,-0.7998234404247254
1782986222703067000,1.13606689453125,6.533811401879787,4.393184105297923,-1.1073997355606406
1782986222713141000,1.14614111328125,5.9767690552711485,4.269433806988597,-1.3626859445542097
1782986222723214800,1.15621484375,4.791859598246217,4.253046735811234,-1.721963493093848
1782986222733290000,1.1662900390625,3.5834698969125744,4.473872091472149,-2.108884396971017
1782986222743363800,1.17636376953125,2.153364613080025,4.350037622010707,-2.491456165727973
1782986222753438000,1.18643798828125,0.6305407135397195,3.244994897904992,-3.324228009095788
1782986222763511800,1.19651171875,-0.9812702139645815,1.7750749055564403,-4.640967025989294
1782986222773587000,1.2065869140625,-2.494876787826419,-0.31192718382179735,-4.0699703883081675
1782986222783660800,1.216660888671875,-2.323058916440606,-3.396728597161174,0.22983108441531658
1782986222793735000,1.22673486328125,-0.49171968734860416,-6.493767560783028,5.079813201284408
1782986222803809800,1.236809814453125,-0.8370476209908724,-9.731799049416184,5.406818127250671
1782986222813884000,1.2468837890625,-7.157558217495679,-11.049800633591413,0.520167929328233
1782986222823958000,1.2569580078125,-18.839947144806384,-9.91543186175823,-7.7298273593306535
1782986222834031900,1.267031982421875,-27.95330508379936,-10.40156702697277,-15.12749197154045
1782986222844107000,1.27710693359375,-28.52105119525194,-13.677255753827094,-17.20501253134608
1782986222854180900,1.287180908203125,-24.490164863097664,-16.43610788773298,-14.221463168781995
1782986222864255000,1.2972548828125,-19.89508163640499,-16.737407879078386,-9.34491044037342
1782986222874330000,1.307330078125,-17.158144397187232,-15.783398012483119,-4.660624204878509
1782986222884404000,1.317404052734375,-17.44382830172777,-13.693386219894885,-2.0311042610675094
1782986222894477800,1.327477783203125,-18.54602966492772,-11.109745691466332,-1.7069444953992963
1782986222904552000,1.337552001953125,-17.8187944177866,-9.00152779558003,-1.5196253957599402
1782986222914626800,1.347626708984375,-15.048575671213865,-6.995230643510818,-0.703849403117597
1782986222924701000,1.357700927734375,-10.248831457197666,-4.889484690696,-0.13964257170706987
1782986222934774800,1.36777490234375,-4.882218499085307,-3.4415386297464368,0.13879063105285167
1782986222944850000,1.377849853515625,-0.6200684193640947,-2.6975919017791745,-0.015605565410852432
1782986222954923800,1.387923828125,2.3868396069556472,-2.2276380560368296,-0.7437599732235074
1782986222964998000,1.397997802734375,4.208264175754786,-1.8640730394363403,-1.5550935995042323
1782986222975072800,1.40807275390625,5.115105463939905,-1.628791872921586,-2.1162170779466627
1782986222985147000,1.41814697265625,5.578263073670864,-1.4340437923252582,-2.2841893798202273
1782986222995221000,1.428220947265625,5.881358131739497,-0.9629171034112572,-1.6704668223515151
1782986223005295000,1.438295166015625,5.987784370282292,-0.3453904774844646,-0.5424786914661527
1782986223015370000,1.448369873046875,6.094525666123628,-0.2711453838393092,0.5383601502314209
1782986223025444000,1.458444091796875,6.5658186515152455,0.06772767457515001,0.8459159871011972
1782986223035518000,1.46851806640625,7.625952558836341,0.9820204478099942,0.8437979720339178
1782986223045593000,1.478593017578125,8.795132531809806,1.5537275718480348,1.2360861020326614
1782986223055667000,1.4886669921875,9.505365206223725,2.086553468827903,1.671662754137814
1782986223065740800,1.49874072265625,9.720955583840608,2.7738857446476817,2.08151459787786
1782986223075815000,1.50881494140625,9.499840305322408,3.343160088580847,2.5631100738361474
1782986223085889800,1.518889892578125,8.931678598806261,3.6259649305537343,2.8682477436482903
1782986223095964000,1.5289638671875,8.115362800198794,3.729459791819751,2.797553912743926
1782986223106037800,1.539037841796875,7.197659926259517,3.960386562517285,2.576634449058771
1782986223116112000,1.54911181640625,6.621837475857138,4.30593456865102,2.514160749489069
1782986223126186800,1.559186767578125,6.434969919377565,4.3192982003539795,2.4569769730210305
1782986223136260900,1.5692607421875,6.575162818443775,4.18100908908248,2.335175616822392
1782986223146335000,1.5793349609375,6.760505941835046,4.3475560343280435,2.4094904147028924
1782986223156409900,1.589409912109375,6.965332348853349,4.581212229989469,2.617711432595551
1782986223166484000,1.59948388671875,7.2622051714062685,4.657000753684342,2.6964617287054655
1782986223176558000,1.60955810546875,7.5456187929272645,4.738434297528863,2.576547063036263
1782986223186632000,1.6196318359375,7.805607115197181,4.856087740267813,2.2666817801803347
1782986223196707000,1.62970703125,8.027420312851667,4.859921619342267,1.907647392746806
1782986223206781000,1.639781005859375,8.193277814528345,4.757671205179393,1.4589293733872473
1782986223216854800,1.649854736328125,7.874096714055538,4.7772523962229485,0.8412443420283496
1782986223226930000,1.659929931640625,7.154196047586202,4.90602899826169,0.4130874646604061
1782986223237004000,1.670004150390625,6.893481749129295,4.890993341693282,-0.020039602335542438
1782986223247078000,1.680077880859375,6.6747665174901485,4.801407763314247,-0.44823907673619684
1782986223257151700,1.69015185546875,6.041978901806473,4.64748210697174,-0.7816744741413741
1782986223267227000,1.700226806640625,5.113595059376955,4.609849418669938,-0.7840562547113746
1782986223277300700,1.71030078125,4.232858518785238,4.4190901154488325,-0.9622019408792257
1782986223287374800,1.720374755859375,3.1290140645533797,3.966239380198717,-1.3886512836769223
1782986223297449700,1.73044970703125,1.5159692113399506,3.444266593405604,-1.7490613433778286
1782986223307523800,1.74052392578125,-0.789458771342039,2.871410007071495,-1.902167792291939
1782986223317598000,1.750597900390625,-3.508365848350525,1.9584914447993038,-1.7888997250303624
1782986223327672000,1.760672119140625,-5.881708844873309,0.3435223455250263,-0.7431896259896457
1782986223337747000,1.770746826171875,-8.163797453022003,-2.0587100608736275,1.688138380381465
1782986223347821000,1.780821044921875,-10.405569832873343,-4.740250991562009,4.830468438103795
1782986223357895000,1.79089501953125,-12.16553017140627,-7.709243420985341,7.2478867231965065
1782986223367970000,1.800969970703125,-14.435206457227467,-10.01249055249691,7.304714525833726
1782986223378044000,1.8110439453125,-18.222993642592428,-10.057743068152666,4.450478356403112
1782986223388118000,1.821117919921875,-23.51134554941654,-9.047671122595668,0.44365196814164515
1782986223398191900,1.83119189453125,-25.769355947363376,-9.40535526446402,-2.223809145398438
1782986223408267000,1.84126708984375,-23.095091145157813,-12.058394323289393,-1.8304405266866086
1782986223418340900,1.8513408203125,-18.9758379627645,-14.882179824876784,-0.6012304479032754
1782986223428414700,1.861414794921875,-14.666860665416717,-15.750494106268881,-0.7414237853609025
1782986223438489900,1.87148974609375,-10.88243915709257,-14.959666384661197,-1.6286562638431787
1782986223448563700,1.881563720703125,-8.602851718109845,-12.651784579086303,-1.7863849657304585
1782986223458638000,1.89163818359375,-8.940349396517872,-8.615625859487055,-1.3337059337854384
1782986223468712000,1.9017119140625,-10.370949770390986,-3.9409786822140216,-1.0001927949689329
1782986223478787000,1.911787109375,-10.314777216792105,-0.07527122182250022,-0.6032070086732506
1782986223488861000,1.92186083984375,-8.076309723705053,2.245370112082362,-0.6275285991769284
1782986223498935000,1.93193505859375,-4.272081106626987,3.2691566947370765,-1.3261122637860476
1782986223509010000,1.942010009765625,0.05952770924568176,3.7695249679654834,-2.277061281505972
1782986223519084000,1.952083984375,4.187226063901186,4.446161077725887,-2.5570383527070284
1782986223529158000,1.962157958984375,7.405258136078715,4.62987864574194,-1.8915991981349884
1782986223539232000,1.97223193359375,9.755699564963578,3.8236172081589697,-1.6057025276266037
1782986223549307000,1.982306884765625,11.81867254397869,3.747753865662217,-2.3985353054463863
1782986223559381000,1.992381103515625,13.81016434110403,4.5193671837121245,-3.047802346765995
1782986223569454800,2.002454833984375,15.024120444393157,5.122876682463288,-2.7812393222808836
1782986223579530000,2.012530029296875,15.508088202440737,5.482331925657391,-1.9551047249704598
1782986223589603800,2.022603759765625,15.57548708345294,5.8437242743939155,-0.874003798270598
1782986223599678000,2.032677978515625,15.189679255384206,6.018718437728285,0.2713121187083423
1782986223609752000,2.042751953125,14.328032030665874,6.181165254178643,1.330931792896986
1782986223619826700,2.05282666015625,12.891210590320824,6.292540055039525,2.1396011684045195
1782986223629900800,2.06290087890625,11.048878258049488,6.370270944973826,2.6091741981357335
1782986223639975000,2.072974853515625,9.124051182442903,6.565825665777921,2.8568504435822364
1782986223650049800,2.0830498046875,7.285507136538624,6.576629383864998,2.9839585278868674
1782986223660124000,2.0931240234375,5.557317900797725,6.375975294095277,3.0049492934674022
1782986223670197800,2.10319775390625,4.174975654137135,5.776272201889753,2.613199215868115
1782986223680272000,2.11327197265625,4.9797167502850295,5.16612311899364,1.1356169452633709
1782986223690346800,2.1233466796875,5.788503322431445,5.177335417881608,0.5894832384210079
1782986223700420900,2.1334208984375,6.7843702170252795,4.858957450485229,0.47600605845339594
1782986223710494700,2.14349462890625,7.674812159073352,4.417251794105768,0.4651529482666403
1782986223720568800,2.15356884765625,8.262451888519525,4.37453961058259,0.3700642424266785
1782986223730643700,2.163643798828125,8.354968844175339,4.361354550316929,0.4411119282700121
1782986223740717800,2.1737177734375,7.984737939944863,4.247893590831756,0.69541416772753
1782986223750791700,2.183791748046875,7.464352714604139,4.076915092879534,0.7616428359165788
1782986223760866800,2.19386669921875,6.995596554213762,3.9499773967057465,0.5421298780284821
1782986223770940700,2.203940673828125,6.368112890157104,3.7171535602152344,0.02862126045897603
1782986223781015000,2.21401513671875,5.389190700623392,3.3057179544150825,-0.6253339386768638
1782986223791089000,2.2240888671875,4.46769603318572,2.972579347999394,-1.1552074155919254
1782986223801164000,2.2341640625,3.214837660050392,2.6758307363480327,-1.5549528758592903
1782986223811238000,2.24423779296875,1.7174340329706668,2.2313272659435865,-1.61715608792454
1782986223821311700,2.254311767578125,0.16468904241919516,1.7988675768151878,-1.5425503442734478
1782986223831387000,2.264386962890625,-1.6735475449711084,1.4252937918975948,-1.3561759781382978
1782986223841460700,2.274460693359375,-3.629323885592818,0.6988757063582539,-1.0401835907042025
1782986223851534800,2.284534912109375,-5.253892003339529,-0.599815904930234,-0.7250797496076673
1782986223861608700,2.294608642578125,-6.800654412350058,-2.4002038231804965,-0.37025348138846453
1782986223871683800,2.304683837890625,-8.546775610622763,-4.941256378987431,0.3863281621484086
1782986223881757700,2.3147578125,-10.323047032487391,-7.26757342044115,1.2041319708239286
1782986223891831800,2.324831787109375,-11.796138056087493,-8.66064047473371,1.8899974620267748
1782986223901906700,2.33490673828125,-12.835142081618308,-9.655203300991653,2.027929138162732
1782986223911980800,2.344980712890625,-13.833258800965547,-10.179747984099388,1.1127382470443845
1782986223922054700,2.3550546875,-15.160810888296364,-9.816916542470455,-0.6926886152211577
1782986223932129000,2.36512890625,-16.665210073351858,-9.74357424288392,-2.549963299754262
1782986223942203600,2.37520361328125,-17.031630479383466,-10.728307749044895,-3.410334805448353
1782986223952278000,2.385278076171875,-16.011438706350326,-12.042330492717028,-2.878265279793739
1782986223962351900,2.395351806640625,-13.731445609176157,-12.699557553130388,-1.9545596583083271
1782986223972427000,2.405427001953125,-11.182198348736762,-12.712843735682963,-1.6043682102829218
1782986223982500900,2.4155009765625,-9.562828384155035,-11.382025340032577,-1.343394530237466
1782986223992574700,2.42557470703125,-9.377378293257951,-8.368948854210972,-0.796144094324857
1782986224002648800,2.43564892578125,-9.968318233293294,-5.076572027406097,0.08689911577403545
1782986224012723700,2.4457236328125,-9.947484704101084,-2.7252093920230864,0.4164420357853174
1782986224022797800,2.4557978515625,-8.503814420774578,-1.464646728120744,-0.2899716648623347
1782986224032871700,2.46587158203125,-5.868537228611111,-0.6356693085998296,-1.4203304704017936
1782986224042946800,2.47594677734375,-2.6032880627065897,0.2164063701748848,-2.004851337175071
1782986224053020700,2.486020751953125,0.5382020370602607,1.155110238827765,-1.6616650917366147
1782986224063094800,2.4960947265625,3.1235739193260668,1.9082725389078259,-0.8409836452655494
1782986224073168600,2.506168701171875,5.182154216340184,2.347564996665716,0.002805120548605919
1782986224083243800,2.516243896484375,6.842721868228912,2.6290508649945257,0.8035537860594689
1782986224093317600,2.526317626953125,8.153594038915633,2.9483348413199186,1.3422585119448602
1782986224103392000,2.53639208984375,9.04050429970622,3.5023423502773046,1.5156553230851888
1782986224113466600,2.546466552734375,9.091016343325377,3.4282398799732325,1.966156280338764
1782986224123541000,2.556541015625,8.489536889097094,3.863112183201313,1.8737988991588352
1782986224133614800,2.56661474609375,7.9614377283781765,4.463869168373942,1.4009203981414438
1782986224143689000,2.57668896484375,7.6676459207057945,4.47814027031064,0.9333402957931161
1782986224153763800,2.586763916015625,7.614972899660468,4.32111635569185,0.4627152727909386
1782986224163838000,2.596837890625,7.936963796856999,4.150786384776234,0.18012027417644857
1782986224173911800,2.606911865234375,8.640606571486591,4.0829760003536935,0.1628767323002219
1782986224183987000,2.616987060546875,9.35434929984808,4.050284275585413,0.3580399695686996
1782986224194060800,2.627060791015625,9.841595056653022,3.9484827742338178,0.7684284044034778
1782986224204134700,2.637134765625,9.943741425919532,3.844631354615092,1.3666145161747931
1782986224214208800,2.647208740234375,9.664127196681498,3.742531747099757,1.9882763422101735
1782986224224283600,2.65728369140625,9.12851634515822,3.6582238168627024,2.2866183605328203
1782986224234357800,2.667357666015625,8.442457742536067,3.6940836502730843,2.1196521669618784
1782986224244431600,2.677431640625,7.695024341496825,3.7877491914421317,1.7423013477236031
1782986224254506000,2.687506103515625,6.851088130035996,3.95269366992712,1.4722987041786313
1782986224264580600,2.69758056640625,5.924017123770714,4.1276852029129865,1.5167352272763848
1782986224274655000,2.707655029296875,4.988007024246454,4.074998153342307,1.542692090831697
1782986224284728800,2.717728759765625,3.788506147289276,3.912189225581288,1.4710757382549344
1782986224294804000,2.727803955078125,3.3070781368523834,3.7102903964474794,0.7719114242136478
1782986224304877800,2.7378779296875,3.6611528560519218,3.944091553537547,0.08704027781039476
1782986224314952000,2.747951904296875,4.059066132456064,3.784238552972674,-0.14786511419452725
1782986224325025800,2.75802587890625,4.562429495847225,3.510886306738853,-0.17627010155431924
1782986224335101000,2.768100830078125,4.983471718904376,3.3090456375330684,-0.15749255504384635
1782986224345174800,2.7781748046875,4.850037646448612,2.9814369004547596,-0.371283993479982
1782986224355248600,2.78824853515625,3.7274195181638,2.789241426950693,-0.6506988276883959
1782986224365323800,2.79832373046875,2.281808622163534,2.546003163951635,-0.8342920386724173
1782986224375397600,2.808397705078125,0.9053548490196466,2.0384394262611867,-1.1715534971717745
1782986224385471700,2.8184716796875,-0.5006862531363964,1.321336281555891,-1.7439822865478694
1782986224395545600,2.828545654296875,-2.4255752880632877,0.42657530726492404,-2.122447496768832
1782986224405620700,2.838620849609375,-5.160669529762864,-0.7029962934195995,-1.7465134124606847
1782986224415694600,2.848694580078125,-6.503624353408813,-2.0390420683294534,0.04486965381801128
1782986224425769000,2.85876904296875,-5.46756281107068,-4.123050236588716,2.7419009991049763
1782986224435843600,2.868843505859375,-2.994191168087721,-6.919155119568109,4.515597602045536
1782986224445918000,2.87891796875,-2.097977656900883,-9.634792381125688,4.529939138869941
1782986224455991800,2.88899169921875,-4.863553546103835,-10.854487320327758,3.2329309506237505
1782986224466066000,2.89906591796875,-9.552428570693731,-10.8525069601655,1.9877318600699305
1782986224476140800,2.909140869140625,-13.566663043254612,-10.204917496669292,0.7756102787315845
1782986224486215000,2.91921484375,-16.613652904593945,-10.282046329057216,-0.5581020847946405
1782986224496288800,2.929288818359375,-19.348725518983603,-10.662665940833092,-2.674903392370045
1782986224506364000,2.939364013671875,-21.901130366671083,-9.720406133264303,-5.814637880641222
1782986224516437800,2.949437744140625,-23.165467580676076,-7.624614588230848,-7.404598210865259
1782986224526511900,2.959511962890625,-21.20830592317581,-5.945555586361885,-6.055826809895038
1782986224536585700,2.969585693359375,-16.429633723282812,-4.9980081937789915,-3.522030216565728
1782986224546660900,2.979660888671875,-10.129994649893044,-3.8578900646388528,-1.8615414751321075
1782986224556734700,2.989734619140625,-4.4211733514636755,-2.660708278279006,-1.0813108431234955
1782986224566808600,2.99980859375,-0.4919131640940904,-1.6049381191253662,-0.5127867330357432
1782986224576883700,3.0098837890625,1.9777987873375416,-0.8972831862449645,-0.1507704071819782
1782986224586957600,3.01995751953125,3.511192596209049,-0.49226037009656426,-0.1556323141299188
1782986224597032000,3.030031982421875,4.461684225550294,-0.18986995316594837,-0.11472513420209288
1782986224607105800,3.040105712890625,5.14016157926321,0.07940379158258437,0.4039731609649956
1782986224617181200,3.05018115234375,5.473268913757801,0.5514581167355179,1.557395738966763
1782986224627255300,3.06025537109375,5.705395415633917,1.2465113421961664,2.4782336960613724
1782986224637329400,3.070329345703125,5.609738408386707,1.098214339390397,3.3944948467597365
1782986224647404300,3.080404296875,5.4716421893388025,0.7191247136607766,3.6623628163635726
1782986224657478400,3.090478515625,5.841829254427552,0.9219818664327263,2.6557404267385603
1782986224667552300,3.10055224609375,6.680109632083774,1.2715531367331743,1.4319118948630987
1782986224677626400,3.11062646484375,7.568342081388831,1.1452937782123684,0.642201632978022
1782986224687701200,3.120701171875,8.448418112245202,0.804860046352446,0.4264749156303704
1782986224697775400,3.130775390625,9.288453224614262,0.7538289472952485,0.4437075707864016
1782986224707849200,3.14084912109375,9.878193141210078,0.85839699075073,0.4665382651451975
1782986224717924400,3.15092431640625,10.173328764706849,0.8558151575639843,0.5799292281340808
1782986224727998200,3.160998291015625,10.10729065065384,0.8254957148849964,0.6603740532021969
1782986224738072000,3.171072021484375,9.62678735384643,0.8069371448874473,0.5909199932258575
1782986224748146200,3.181146240234375,8.911001721480488,0.7960203218147158,0.46221273009628056
1782986224758221000,3.191220947265625,8.2027622667104,0.8757388784348964,0.28127456366568804
1782986224768295200,3.201295166015625,7.49400434102416,1.0761544832736254,0.21708931093774736
1782986224778369300,3.211369384765625,6.938774596795439,1.2415548888325691,0.24870646527707577
1782986224788444200,3.221444091796875,6.675432872444391,1.3911872318953276,0.397435575889796
1782986224798518300,3.231518310546875,6.689640261495113,1.5782394972920417,0.5622913531780243
1782986224808592400,3.24159228515625,6.912132673585415,1.7240961212083696,0.6195477564908564
1782986224818666200,3.251666259765625,7.150804067060351,1.8696344729557632,0.5185815369196236
1782986224828741400,3.261741455078125,7.1871584059894085,2.0651149594798683,0.4016840271145105
1782986224838815200,3.271815185546875,7.01167733592093,2.210125487960875,0.23343809593133627
1782986224848889300,3.281889404296875,6.91260788988173,2.1666890818163753,-0.028252500211820006
1782986224858964200,3.291964111328125,6.810321819883584,2.1442563007339834,-0.34775662209391595
1782986224869038300,3.302038330078125,6.523626107951999,2.149225029057264,-0.7492017258860171
1782986224879112200,3.3121123046875,5.358306317538022,2.2518711645394562,-1.0489402400683612
1782986224889186000,3.32218603515625,3.8697389078646895,2.340457502748072,-1.1591178670339286
1782986224899261200,3.33226123046875,2.527916887640953,2.1639263391047714,-1.3350591019600628
1782986224909335300,3.342335205078125,1.1490484545707702,2.005784818632901,-1.600938966486603
1782986224919409200,3.3524091796875,-1.2286410467237234,2.1816963890731333,-1.6700294538475573
1782986224929483300,3.362483154296875,-5.079328632637858,2.3757959426328537,-1.2905452758423983
1782986224939558100,3.37255810546875,-9.880351196026801,2.1373387764304876,-0.4098594425246119
1782986224949632300,3.38263232421875,-12.246238615846632,1.2170011700734495,0.6880459770470857
1782986224959706400,3.392706298828125,-11.0691845484972,-0.5481193277016282,1.7885192012801765
1782986224969781200,3.40278125,-8.637107038933038,-2.6641844299569724,2.0194068090111017
1782986224979855400,3.41285546875,-8.092405118459462,-4.336819243997335,1.0757965366814284
1782986224989929200,3.42292919921875,-11.00370406832695,-4.876268066248297,0.01663845212254673
1782986225000003300,3.43300341796875,-13.833440002751349,-4.564639865373075,-0.4023582365816459
1782986225010078200,3.443078125,-14.74240427443981,-4.844179568070173,-0.020284699670411646
1782986225020152300,3.45315234375,-14.440454294753074,-6.100670160228014,1.3783515695892274
1782986225030226200,3.46322607421875,-14.422232409363984,-7.935534640836715,3.111954208680987
1782986225040301300,3.47330126953125,-13.507835591232777,-8.76765415777564,3.2742291756957767
1782986225050375200,3.483375244140625,-12.037164488255977,-7.9405638671755785,2.3910320902094244
1782986225060449300,3.49344921875,-12.192336345267295,-5.712912367135286,1.3063687217876314
1782986225070523100,3.503523193359375,-13.234236092239618,-3.030518911270797,-0.4306925333254039
1782986225080598300,3.513598388671875,-12.353423563802242,-1.007962698318064,-2.2089896157987416
1782986225090672000,3.523672119140625,-9.091022188544272,0.16406301947534083,-3.1820763771772382
1782986225100746200,3.533746337890625,-4.95701742722094,0.6808119341403246,-3.4050744007021185
1782986225110821000,3.543821044921875,-1.247237610644102,0.7150818680107593,-3.2117402785569427
1782986225120895200,3.553895263671875,1.4509136785835026,0.10515022725760936,-2.8848797294974324
1782986225130969300,3.56396923828125,3.1931916454315186,-0.8640379192471503,-2.511462011924386
1782986225141043200,3.574043212890625,4.515200127160549,-1.2047092592552304,-2.1193784645870326
1782986225151118300,3.584118408203125,5.738153775897622,-0.9273179667636752,-1.6389786281540988
1782986225161192200,3.594192138671875,6.811193342021108,-0.8522162562891841,-0.7779866524741054
1782986225171266300,3.604266357421875,7.648807949244976,-1.0874056528672575,0.17394925739131867
1782986225181341200,3.614341064453125,8.371195171833039,-1.2148895847469567,0.7346067988224327
1782986225191415300,3.624415283203125,8.819324139258265,-1.297620767186582,0.7919195354323834
1782986225201489200,3.6344892578125,8.674519947004319,-1.088139520099759,0.834480108590424
1782986225211563300,3.644563232421875,7.845517685303092,-0.7005804644495248,1.3225902271397412
1782986225221638100,3.65463818359375,7.842226242542266,-0.7280091541230678,1.3542778894320129
1782986225231712300,3.664712158203125,8.329237021547556,-0.5036661457300186,1.1483858990088105
1782986225241786400,3.674786376953125,8.649621068069338,-0.4062207937613129,0.6578028144747018
1782986225251861200,3.684861328125,8.701171807086467,-0.3047910483315587,0.36268173095993694
1782986225261935400,3.694935302734375,8.69954683623314,0.0842307733476162,0.33216373350154604
1782986225272009500,3.705009521484375,8.489232937714457,0.4682976029679179,0.5154889046665281
1782986225282083300,3.715083251953125,8.470199735942483,0.6675429949834942,0.6488334722079336
1782986225292158500,3.725158447265625,8.357225683191418,0.8149781202629208,0.7110004439160227
1782986225302232300,3.735232421875,8.098667685985564,0.9865177592292428,0.7618392352715134
1782986225312306200,3.74530615234375,8.026847481399773,0.9758806298807263,0.8149030092000961
1782986225322381300,3.75538134765625,7.832994303816556,0.8168594039648771,0.6440870813984424
1782986225332455200,3.765455078125,7.208181320273876,0.776652919652313,0.08914017269909381
1782986225342529300,3.775529296875,6.29070231821835,0.9132308430917561,-0.5192390144476666
1782986225352603100,3.78560302734375,5.525814509031176,1.2244057472415268,-0.7824643824100493
1782986225362678300,3.79567822265625,5.19340684723854,1.4548019181936978,-0.6619899639662354
1782986225372752100,3.805752197265625,5.412903000122308,1.4082820129506288,-0.43139406919088213
1782986225382826200,3.815826171875,5.85134468626976,1.3622224186956882,-0.39934992161113764
1782986225392901000,3.825901123046875,5.863967436477542,1.6323083566099403,-0.2865783143633045
1782986225402975200,3.835975341796875,5.549817900431155,1.8933730759397147,-0.02969080765293911
1782986225413049300,3.84604931640625,5.1793070102155205,1.983406105825305,0.1642019164893776
1782986225423123500,3.85612353515625,4.6697693421036,2.0902198823809623,0.2211537108324468
1782986225433198300,3.8661982421875,4.019800874516368,2.0391180561751128,0.2509810591455549
1782986225443272400,3.8762724609375,2.838030300039053,1.737486056396365,-0.009135291684512048
1782986225453346300,3.88634619140625,0.5667582694590091,1.753484128256142,-0.6780749103918671
1782986225463421400,3.89642138671875,-2.2894097448170183,2.423679391314089,-1.4482847913846373
1782986225473495300,3.906495361328125,-4.907440618625283,2.868241898429394,-1.8183890004955232
1782986225483569200,3.916569091796875,-6.081949093145131,2.3137889837920667,-1.049799341115728
1782986225493643300,3.926643310546875,-5.570991621363163,1.2606015346080064,0.9046675974078476
1782986225503718400,3.936718505859375,-5.034372469580173,0.7601523050978779,3.243458482117951
1782986225513792300,3.946792236328125,-6.257675662407278,-0.06004851824939251,4.659681078809499
1782986225523866000,3.9568662109375,-8.742537836697696,-1.216140753851831,3.89921430093497
1782986225533941200,3.966941162109375,-10.76865612604618,-1.6924430918380617,1.5270044000953436
1782986225544015000,3.97701513671875,-12.942614614343642,-1.9021499643743036,-0.167648695942387
1782986225554089200,3.987089111328125,-15.270891557693481,-1.9094497659936547,-0.9320940951243042
1782986225564163300,3.997163330078125,-17.234201216429472,-2.2280901837185025,-2.074806040149927
1782986225574238200,4.00723828125,-19.07466658578515,-3.629970659063756,-3.764599786522984
1782986225584312300,4.017312255859375,-20.47865660063028,-4.691832413090765,-5.717137875875831
1782986225594386400,4.027386474609375,-19.782226826119423,-4.29547279586941,-6.9239669037640095
1782986225604461300,4.03746142578125,-17.326584901094435,-3.5512615717470646,-6.061688979926705
1782986225614535400,4.047535400390625,-13.606764752018451,-3.016378742237389,-3.9791082141220566
1782986225624609300,4.057609375,-9.320067091017961,-2.588439453142881,-2.248003237064928
1782986225634683400,4.067683349609375,-5.2804234519124025,-2.1312515654712914,-1.032422601313889
1782986225644758300,4.07775830078125,-2.224026879802346,-1.5364906058430672,-0.36594109808206554
1782986225654832400,4.087832275390625,-0.22591011157929897,-0.652017216810584,0.07276420743763447
1782986225664906200,4.09790625,0.8192939376354217,0.012108370944857597,0.2701845759831369
1782986225674981400,4.1079814453125,1.1781792719870805,0.2560626732587814,0.059601359003782266
1782986225685055200,4.11805517578125,1.2599684974014758,0.427561980214715,-0.5255580979339778
1782986225695129300,4.12812939453125,1.3724404458492994,0.683289722430706,-0.8693211203470825
1782986225705203200,4.138203125,1.9787591568022964,0.7814046442240477,-0.7230252282306552
1782986225715278300,4.1482783203125,2.85457869925797,0.8172522026747465,-0.305133578158915
1782986225725352200,4.158352294921875,3.2929099107682704,1.108585511279106,0.4692163252480328
1782986225735426300,4.16842626953125,3.695597561967373,1.752894930191338,1.432966226221621
1782986225745501200,4.178501220703125,4.6711786243796345,2.1622622052848337,2.2853761053867636
1782986225755575300,4.1885751953125,5.814914359495043,1.9755720511987804,2.898544097712636
1782986225765649400,4.1986494140625,7.074543834200501,1.5180208831727504,3.05965411260128
1782986225775723300,4.20872314453125,8.059784705361723,1.1742191361844538,2.8764161447957157
1782986225785798400,4.21879833984375,8.54926333578527,1.2128978264078498,2.823845122820139
1782986225795872300,4.228872314453125,8.736257733514904,1.213712357661128,3.078848350153863
1782986225805946400,4.2389462890625,8.751023340970278,1.1435311524540186,3.368597604437172
1782986225816021200,4.249021240234375,8.595891815969347,1.2056827804625034,3.5598818083152173
1782986225826095400,4.259095458984375,8.144252210074663,1.3807859571292995,3.687101536300778
1782986225836169200,4.269169189453125,7.31856418748796,1.512571677856147,3.6450472321644423
1782986225846243300,4.279243408203125,6.06143763551414,1.6982245978489516,3.262512434417009
1782986225856318200,4.289318115234375,5.115371421399712,2.0957491671964523,2.581104872471094
1782986225866392300,4.299392333984375,4.639841236829757,2.373520398916304,2.145935339862108
1782986225876466200,4.309466064453125,4.582464568138122,2.494288758805394,1.918055243384093
1782986225886541300,4.319541259765625,4.622719421637058,2.7187857887163758,1.5891094124831258
1782986225896615200,4.329615234375,4.591595384576917,3.080566259987652,1.2979998296320439
1782986225906690300,4.339690185546875,4.481968888688087,3.433590301090479,1.0255836952045558
1782986225916764200,4.34976416015625,4.37884812143147,3.5201068472877144,0.6160809571631253
1782986225926839300,4.35983935546875,4.416310129341483,3.490276064908504,0.014441928458958864
1782986225936913200,4.3699130859375,4.670704577127099,3.479632798080146,-0.6473410416930914
1782986225946987300,4.3799873046875,4.719408694541454,3.441525770264864,-1.2685305740416049
1782986225957061400,4.390061279296875,4.1155017209053035,3.460203290466964,-1.606018315577507
1782986225967136300,4.40013623046875,3.0585137103945015,3.316887290944159,-1.6660175878576933
1782986225977210400,4.41021044921875,1.7515993374228476,2.8281252843573688,-1.5222516526103018
1782986225987284200,4.4202841796875,0.06193769299685955,2.018755943886936,-1.1359527530889957
1782986225997358300,4.4303583984375,-1.3108107958883046,0.7911340110778808,-0.07128850886188447
1782986226007433500,4.44043359375,-2.8812901805728672,-0.7349141112059354,1.3801000206917524
1782986226017507300,4.45050732421875,-5.274260253107547,-1.7011340555548666,2.5273025551348924
1782986226027581200,4.460581298828125,-7.70251148238182,-2.218873734822869,3.1959532190993425
1782986226037656300,4.47065625,-9.33605259565711,-2.7405174357920883,3.287200008688867
1782986226047730200,4.480730224609375,-9.935913508772849,-3.3247897346317767,3.273627410410344
1782986226057804300,4.49080419921875,-11.211440809834002,-4.456387288185954,3.3701854581505057
1782986226067879200,4.500879150390625,-13.138134848356247,-5.730863034367561,1.813412527257204
1782986226077953300,4.510953369140625,-14.56903508195877,-6.024800387990474,-0.5641263865854591
1782986226088027100,4.521027099609375,-15.32706644937992,-7.039810958993434,-2.8837407885953783
1782986226098101500,4.5311015625,-15.19235519659519,-7.603361372321844,-6.5009402288913725
1782986226108176100,4.541176025390625,-14.882704725533722,-5.831418335050344,-8.965133709162473
1782986226118250500,4.55125048828125,-12.826142782604693,-3.238496768057346,-8.043964035895467
1782986226128324400,4.561324462890625,-9.203107768023013,-1.6486925051778554,-5.062046658447384
1782986226138399500,4.5713994140625,-5.365031826400757,-0.18057926999032498,-1.71076989890635
1782986226148473300,4.581473388671875,-1.8285837929040192,0.5346808771967888,0.2478277827464044
1782986226158547500,4.59154736328125,0.5731161140531301,0.5891375667884946,0.47672838137857615
1782986226168621300,4.601621337890625,2.1387410444438455,0.5286465654686093,-0.15999986168965696
1782986226178696400,4.611696533203125,3.0338024629861113,0.5002200969293713,-1.2024844228126108
1782986226188770300,4.621770263671875,3.043973143866658,0.5661527047812939,-1.6900141111254692
1782986226198844200,4.63184423828125,2.3534464559197423,0.5796443467780947,-1.048799808684364
1782986226208919300,4.641919189453125,1.8795277981996534,0.5277703671559691,-0.07482165142409503
1782986226218993200,4.6519931640625,1.625341440206766,0.46759529991745946,0.4625855089314282
1782986226229067300,4.6620673828125,1.0680132623940706,0.4727069438427686,0.45553390991948545
1782986226239141000,4.67214111328125,1.2424135514885186,0.5491185678720474,-0.2890164830293506
1782986226249216300,4.68221630859375,2.8820605804234742,0.6170955410331487,-0.8072741948220878
1782986226259290000,4.6922900390625,4.799896189707518,0.3722521809250116,-0.5275589894276111
1782986226269364500,4.702364501953125,6.428738331511616,0.19881927555799483,0.1373995785532519
1782986226279439000,4.712439208984375,7.634826185643672,0.3965641998827457,0.7603892556589096
1782986226289513500,4.722513427734375,8.466397421050072,0.6102309159606695,1.3659984301030634
1782986226299587300,4.73258740234375,8.816360613277554,0.7579200160011649,1.8931763843238352
1782986226309661400,4.742661376953125,8.802465358915924,0.8871420237198472,2.0592548352748152
1782986226319736300,4.752736328125,8.585858497732877,1.035100296090543,1.9082902206949888
1782986226329810400,4.762810546875,8.189590650448203,1.1320435437560081,1.632687711316347
1782986226339884300,4.77288427734375,7.474547945404052,1.1564219059482217,1.256792936105281
1782986226349959400,4.78295947265625,6.811354670062661,1.271302084581554,0.8671312090873717
1782986226360033300,4.793033203125,6.203549519944191,1.5823358266949652,0.4536758974952623
1782986226370107400,4.803107421875,5.79011660284698,1.8534163286045193,0.16643992294082416
1782986226380181200,4.81318115234375,5.800246367195248,2.103150675624609,0.05089299662760459
1782986226390256400,4.82325634765625,5.901348780366778,2.3333906331017613,0.07247675966522656
1782986226400330200,4.833330322265625,5.8674383274585,2.514840548446774,0.07961500491416082
1782986226410404000,4.843404052734375,6.005317688885331,2.682833308586478,0.13844464889308436
1782986226420479200,4.853479248046875,6.073132164961099,2.648089035202563,0.03732543985038064
1782986226430553000,4.863552978515625,6.070446871399879,2.6021745485067367,-0.34893753897417334
1782986226440627500,4.87362744140625,6.012579204320907,2.710381532986462,-0.8285929502479732
1782986226450701300,4.883701416015625,5.94838058065474,2.629356862203777,-1.2399090213216841
1782986226460776400,4.8937763671875,5.881324813991784,2.5601184908047316,-1.2846997646845877
1782986226470850300,4.903850341796875,5.473542470002174,2.413371640050411,-1.148631105941534
1782986226480924400,4.91392431640625,4.672991811281443,2.150349941433966,-1.1040027135334909
1782986226490999300,4.923999267578125,3.4121517917424438,1.6458759864524006,-0.9508122395977378
1782986226501073400,4.934073486328125,1.573602485141158,0.6886682005986571,-0.5260733539797365
1782986226511147300,4.944147216796875,-0.5344540827035904,-0.6006228373989463,0.229514127420634
1782986226521221400,4.954221435546875,-2.36182499268651,-2.2152011837899686,1.0844876465287059
1782986226531296300,4.964296142578125,-4.151995760565996,-4.146877979160845,2.3665379926830528
1782986226541370400,4.974370361328125,-6.199792213237285,-5.9566235083431005,3.741390468110144
1782986226551444200,4.9844443359375,-7.806245413100719,-7.406382171672583,4.1763931197196245
1782986226561519400,4.994519287109375,-9.548164483508467,-8.230690722599626,4.078849275812506
1782986226571593200,5.00459326171875,-12.879197496443986,-8.138428033965825,4.279466248442232
1782986226581667000,5.0146669921875,-16.351015529119966,-7.169481295001506,3.754497202442586
1782986226591741400,5.024741455078125,-17.951415420293806,-5.91231148840785,2.4435125112921
1782986226601816300,5.03481640625,-19.229374332416057,-5.471760847282409,1.3710409543149173
1782986226611890400,5.044890380859375,-21.0097368229866,-4.849125207778811,-0.3705411392234266
1782986226621964300,5.05496435546875,-21.336054351210592,-2.9190266215100884,-2.708264394702017
1782986226632039200,5.0650390625,-20.211654015684125,-1.6718790272369979,-3.5232600506216287
1782986226642113300,5.07511328125,-18.060110772812365,-2.0615692496970293,-2.920911412343383
1782986226652187100,5.085187255859375,-14.208461063867807,-2.7569533145472405,-2.6607696530774234
1782986226662261200,5.09526123046875,-9.7095018774122,-2.8030972260847684,-2.759953373146057
1782986226672336100,5.105336181640625,-5.348714313328266,-2.2127757102087138,-2.249207352157682
1782986226682410200,5.11541015625,-1.5424708492964505,-1.720643350405991,-1.7630163651026785
1782986226692484000,5.125484130859375,1.5927946768671273,-1.1044114404648542,-2.2024016157105564
1782986226702559200,5.135559326171875,4.598495665484666,-0.2598059514403343,-2.8253391607701777
1782986226712633000,5.145633056640625,6.858940597102046,0.12427607574909924,-2.732912221485376
1782986226722707000,5.15570703125,7.659819757124781,0.010054945546388626,-2.1343922015845775
1782986226732782000,5.165781982421875,7.319158061727881,0.10469985314160585,-1.4901539482124149
1782986226742856000,5.17585595703125,6.497925264984369,0.7785644523620605,-0.9413439348328858
1782986226752930000,5.185929931640625,5.733202875491976,1.577259838604927,-0.6529734946221113
1782986226763004200,5.196004150390625,5.175888726204634,2.0898796906411645,-0.7349946290962398
1782986226773079000,5.2060791015625,4.976210203468799,2.4100439569324252,-0.9901787659548222
1782986226783153200,5.216153076171875,4.708071892490983,2.861976408293843,-1.327944739910215
1782986226793227300,5.226227294921875,4.672458142796159,3.239834154140949,-1.6965385444581507
1782986226803302100,5.23630224609375,5.277380430954694,3.3105767926231024,-1.9486160936035215
1782986226813376300,5.246376220703125,6.349125865614414,3.125382430052757,-1.7646252616040408
1782986226823450000,5.2564501953125,7.571618911102414,2.9446552760243416,-1.2335631594263017
1782986226833524200,5.266524169921875,8.461017481577397,2.811955655322969,-0.6225573866356164
1782986226843599000,5.27659912109375,9.004037148052454,2.701712781101465,-0.17200910137528552
1782986226853673200,5.286673095703125,9.339535761597752,2.5395614404663442,-0.02278409928769106
1782986226863747000,5.2967470703125,9.439524076047539,2.4958035472825166,-0.10884805886223911
1782986226873822200,5.306822265625,9.29694282054007,2.4404396797180175,-0.27132607416845855
1782986226883896000,5.31689599609375,8.973982201528548,2.299880577687919,-0.5434022725844756
1782986226893970200,5.32697021484375,8.652801451671124,2.2603970008224246,-0.8500240069419145
1782986226904044000,5.3370439453125,8.495874859946966,2.284005839946866,-1.1260304209463297
1782986226914119200,5.347119140625,8.175241222578286,2.4137056943103667,-1.5365955275222658
1782986226924193000,5.357193115234375,7.814249855858087,2.9340637393832205,-1.5272734262950718
1782986226934267100,5.36726708984375,7.857639500251412,3.4375986599490043,-1.0001771590083837
1782986226944342000,5.377342041015625,7.818463674160838,3.420532958857715,-0.5604117499765008
1782986226954416000,5.387416015625,7.588978626704216,3.252325971445441,-0.4252218102967366
1782986226964490200,5.397490234375,7.380278593122958,3.2535423614978787,-0.5273496575258672
1782986226974564000,5.407564208984375,7.199346856433153,3.309932357239723,-0.807860616407916
1782986226984639200,5.41763916015625,6.9004404822260135,3.2024612858191133,-1.1443011139132082
1782986226994713000,5.427713134765625,6.395747916057705,3.0319337465047833,-1.352524616023898
1782986227004787200,5.437787109375,5.415695261189342,3.0309356753781436,-1.6922526838324963
1782986227014862000,5.447862060546875,4.285108930504322,3.1455475584641097,-2.1474992281779643
1782986227024936200,5.457936279296875,2.823296841287613,3.3496783844336866,-2.5927093855470416
1782986227035010000,5.468010009765625,1.664469335502386,3.33239319537282,-2.8593974977165457
1782986227045084200,5.478084228515625,0.7038993797391653,2.8074600974693893,-2.952665856261551
1782986227055159000,5.488158935546875,-0.5145785848885774,2.3574641671285033,-2.5723516571730376
1782986227065233200,5.498233154296875,-2.2948428757816552,2.1354761974290013,-1.24109150910452
1782986227075307000,5.50830712890625,-4.141322390860319,1.4131252151980995,1.0698546524770558
1782986227085382100,5.518382080078125,-5.59759262804091,0.04252689008414745,3.7134137891650196
1782986227095456000,5.5284560546875,-7.063658867570758,-2.109023659311235,5.507913526159524
1782986227105530000,5.538530029296875,-8.339614038655162,-4.081261597651243,4.649378295981884
1782986227115604200,5.548604248046875,-10.491225670588015,-5.044706232067942,2.074639743672311
1782986227125679000,5.55867919921875,-14.626377848380804,-4.732127890861034,0.5912444759398698
1782986227135753200,5.568753173828125,-19.249274964672328,-3.2363542030706998,-0.020218758294731378
1782986227145827000,5.5788271484375,-20.901691458809374,-3.449054704464972,0.0931440015129745
1782986227155902200,5.588902099609375,-20.565843885695934,-5.507052525416016,0.6350371481761335
1782986227165976000,5.59897607421875,-20.398441492664812,-6.401867275720834,0.436328858711943
1782986227176050200,5.60905029296875,-18.4358472887218,-5.6162663488507265,0.17147512236274778
1782986227186124000,5.6191240234375,-15.685270815730094,-4.398937846519052,0.08414083004184067
1782986227196199200,5.62919921875,-14.160725499224663,-2.56775848416388,-0.4961129538714885
1782986227206273000,5.63927294921875,-13.884194038432836,-0.5376201455190778,-1.3668610382817685
1782986227216347100,5.64934716796875,-12.924405588436127,0.9028133478432894,-2.024226776513457
1782986227226422000,5.659422119140625,-10.135537086451054,1.038823408266902,-1.85651560979411
1782986227236496100,5.66949609375,-6.512347173568606,0.07928396459519862,-0.9875966405071318
1782986227246570000,5.679570068359375,-3.0456670883029697,-0.8816673917010426,0.01857410549339838
1782986227256644400,5.689644287109375,-0.13388883048593997,-1.448710907842219,0.7348345431637019
1782986227266719000,5.699718994140625,2.219661670330167,-1.3463959040105342,1.2584985709793866
1782986227276793300,5.70979345703125,4.400146930047869,-1.0969915195971727,1.7656110577709971
1782986227286867200,5.7198671875,6.249593478238582,-1.0836804948642849,2.1752824303776026
1782986227296942300,5.7299423828125,7.405867792409658,-1.0114172226861118,2.255472550032288
1782986227307016200,5.74001611328125,7.823021191334724,-0.6666513068407773,2.0875398495167494
1782986227317090000,5.750090087890625,8.312560612034797,0.06826748054027557,1.7463608522474765
1782986227327164200,5.7601640625,9.394055871814489,0.6378586353376507,1.2359515158675611
1782986227337239000,5.770239013671875,10.313582454049588,1.0184875994637608,0.7761167669489979
1782986227347313200,5.780313232421875,10.504178675663471,1.3210326224341988,0.42782238471657036
1782986227357387000,5.790386962890625,9.935005161756276,1.69416217071563,0.2217847204786725
1782986227367462100,5.800462158203125,8.68430776604712,2.158638169568777,0.17616563653284684
1782986227377536000,5.810535888671875,7.319269705408811,2.577857268851995,0.17534107707589863
1782986227387610000,5.820610107421875,6.236340028911829,3.0451643994778395,0.1580305526443757
1782986227397684200,5.830684326171875,5.568599173268676,3.429919503623247,0.1533964448366314
1782986227407759000,5.840759033203125,5.589492323693633,3.5958038933068512,0.27400349495047704
1782986227417833200,5.850833251953125,6.288562383580207,3.6134982476904987,0.4348043890910223
1782986227427907300,5.8609072265625,7.341203304797411,3.682017364904284,0.5696288199266418
1782986227437982200,5.870982177734375,8.394554420110582,3.521129176072776,0.37535233889743685
1782986227448056300,5.881056396484375,9.358737890195846,3.3635876673206684,-0.025666703236009922
1782986227458130200,5.891130126953125,10.059574959754944,3.3967192448109387,-0.16543041710471734
1782986227468204000,5.9012041015625,10.653051724791526,3.4168174454659224,0.0162601933946833
1782986227478279200,5.911279052734375,10.871740068423748,3.553654896624386,0.14152142598992212
1782986227488353300,5.921353271484375,10.690243683588504,3.796958333814144,0.2823145925042219
1782986227498427100,5.93142724609375,10.363975255203247,3.996323845078051,0.30630897861383855
1782986227508502300,5.941502197265625,9.893332258152961,3.961014923548698,-0.008183726580720394
1782986227518576000,5.951576171875,8.998519845935702,3.9310201827794313,-0.5487203623346985
1782986227528650000,5.96164990234375,7.667657026621699,4.039530534119904,-1.1872867806155234
1782986227538724000,5.97172412109375,6.895480813992023,4.129417433533073,-1.6951714938886462
1782986227548799000,5.981799072265625,6.23092852525711,4.084857576316595,-1.9913523886546491
1782986227558873000,5.991873046875,5.041103239139915,3.8108126716434954,-1.9618862018041312
1782986227568947200,6.001947265625,3.485075573655963,3.8855727290734645,-1.605412166377902
1782986227579022000,6.01202197265625,1.2642583035498858,4.007048068188131,-0.8164199896343052
1782986227589096200,6.02209619140625,-1.5777245335072279,3.5566228065192695,0.5888614167282358
1782986227599170300,6.03217041015625,-4.8779140798896545,2.5875641316130755,2.660574715027213
1782986227609245200,6.0422451171875,-7.897416799366474,1.4193021502673626,4.948018128207326
1782986227619319300,6.0523193359375,-8.957745352476834,0.24486527967900037,6.668026395580172
1782986227629393200,6.06239306640625,-8.654696471637488,-1.245481122365594,7.571068876004219
1782986227639467300,6.07246728515625,-9.23120047456324,-3.2589988733381032,7.903349696546792
1782986227649542100,6.082542236328125,-11.128195540392397,-4.7491371855899684,7.743188360685109
1782986227659616300,6.0926162109375,-14.187876541000604,-5.258113420426845,6.903268399128318
1782986227669690000,6.102690185546875,-17.97800415201187,-5.4109787540614604,5.331096823573112
1782986227679765200,6.11276513671875,-21.368432187724114,-5.106140067195892,3.1420401348650455
1782986227689839000,6.122839111328125,-22.895420805728435,-4.396197900161146,1.6238804277434944
1782986227699913000,6.132912841796875,-21.98970413765907,-3.32677827810049,1.4984420302167534
1782986227709987000,6.142987060546875,-19.64390556614399,-2.5762971799284218,2.2121803746640682
1782986227720062000,6.15306201171875,-15.796958920323847,-2.039968827785551,2.3019719970092174
1782986227730136000,6.163135986328125,-11.235275274407863,-1.6082304386690258,1.4669484291918575
1782986227740210200,6.173210205078125,-7.394256265071034,-1.4713298591464756,0.12589856238439678
1782986227750285000,6.18328515625,-4.464270150390267,-1.1579175513334572,-1.4434069562152028
1782986227760359200,6.193359130859375,-2.6087112567991015,-0.8626476339325309,-2.7844778658106923
1782986227770433300,6.203433349609375,-2.7956021941542626,-0.9130198306895791,-3.5066873937442895
1782986227780507100,6.213507080078125,-4.7638037165850395,-1.009788014049083,-3.491746429722011
1782986227790582300,6.223582275390625,-6.396423623362184,-0.9942286258675157,-2.84046980214566
1782986227800656100,6.23365625,-6.255984640580415,-1.1364146715123207,-1.7250995991624891
1782986227810730200,6.243730224609375,-4.720052253141999,-1.408595316683501,-0.6579108779590577
1782986227820805000,6.25380517578125,-2.502375034627318,-1.4351095218606293,-0.11100056072100996
1782986227830879200,6.263879150390625,-0.12504618333876133,-1.1904257362283766,0.20453955290094017
1782986227840953000,6.273953125,2.4362159245431423,-0.7872562928617,0.23719898283481597
1782986227851027200,6.284027099609375,4.917071201279759,-0.557461448803544,-0.002300897353515029
1782986227861102000,6.29410205078125,6.952247826352715,-0.48153673150837417,-0.5246102226246148
1782986227871176200,6.30417626953125,8.441194590732454,-0.37370837108269334,-0.8342989068046212
1782986227881250000,6.31425,9.829740952730178,0.058753071611374615,-1.1667184051655233
1782986227891325200,6.3243251953125,11.033531051313876,0.2778733769200742,-1.3752829757988452
1782986227901399000,6.33439892578125,11.5894464397192,0.1986671537362039,-1.5562036065727471
1782986227911473200,6.34447314453125,11.553687728595733,0.19043956974744797,-1.9153424772940575
1782986227921547300,6.35454736328125,11.065381649082898,0.4341045337259769,-2.195945571438968
1782986227931622100,6.3646220703125,10.188483079218864,0.7104337499439716,-2.312389053866267
1782986227941696300,6.3746962890625,9.025532356023788,0.9810377203829586,-2.4925012908667323
1782986227951770000,6.38477001953125,8.01698835068643,1.3216422787651418,-2.787074019783735
1782986227961845200,6.39484521484375,7.180114332696795,1.6836776015803216,-3.0858810252696274
1782986227971919000,6.404919189453125,6.817588011494278,1.9737867752172051,-3.241761030550301
1782986227981993200,6.4149931640625,7.05645521980226,2.1329851112656293,-3.184305159142613
1782986227992067000,6.425067138671875,7.4346321146011345,2.2258765993222593,-3.084437840723991
1782986228002142200,6.43514208984375,7.806675036689638,2.3458144997365773,-3.07793152756989
1782986228012216000,6.445216064453125,8.149637994766234,2.5378569746360182,-3.1691105126202106
1782986228022290200,6.455290283203125,8.262391682764887,2.7297578491076826,-3.424023431321978
1782986228032365000,6.465364990234375,8.05760794584453,2.8643250172466037,-3.875925779806077
1782986228042439200,6.475439208984375,8.001199829924106,2.8243738228693602,-4.498825330942869
1782986228052513000,6.485512939453125,7.984433404040336,2.840021766117215,-4.973175365817546
1782986228062588200,6.495588134765625,7.718716767251491,3.014166911406815,-5.078662862205505
1782986228072662000,6.505662109375,7.2242749614626165,3.080795977090299,-4.9860634889632465
1782986228082736000,6.515736083984375,6.22199586173892,3.0308295846551654,-4.7521118174865835
1782986228092810200,6.525810302734375,4.320241034162044,2.9316429419770835,-4.081028665678203
1782986228102885000,6.535885009765625,1.921909142333269,2.673428059120476,-2.6149717784985897
1782986228112959200,6.545959228515625,-0.12641688717007638,2.1855621245905756,-0.6565320638865232
1782986228123033000,6.556033203125,-1.8720394882708786,1.6340633835837244,1.6713216856151818
1782986228133108200,6.566108154296875,-4.514457784360647,0.9277870455801487,4.0723301031768315
1782986228143182000,6.57618212890625,-7.999239928027987,0.5087631766080856,5.497009270307421
1782986228153256200,6.586256103515625,-11.785354796266555,0.17217998269647358,5.0695186017632485
1782986228163330000,6.596330078125,-15.222767870515584,-0.1428939747184515,3.1923201232939955
1782986228173405200,6.6064052734375,-18.575226533317565,-0.14172463867813348,1.937713883578032
1782986228183479000,6.61647900390625,-21.014579002320765,-0.33695728792101143,2.032065507315099
1782986228193553200,6.62655322265625,-20.63890210764408,-1.1174901177465915,2.6311004910007116
1782986228203628000,6.6366279296875,-19.000731581002473,-2.4778739228382705,2.674800808778405
1782986228213702100,6.6467021484375,-18.110455643171072,-3.3909342316687106,1.8800600053802132
1782986228223776000,6.65677587890625,-17.511747407221794,-2.4315844653502103,0.42475408318713304
1782986228233850400,6.666850341796875,-16.559416287493704,-0.7176397358000278,-0.34059834783710535
1782986228243925000,6.676925048828125,-15.005249739706516,0.2338473343193531,0.16947883397899566
1782986228253999400,6.686999267578125,-12.844700183558464,0.8315265194818378,1.0462605725303291
1782986228264073200,6.6970732421875,-9.813173264288901,1.5733482181191443,1.398322636733204
1782986228274148400,6.7071484375,-6.160624570453167,1.8869789909884334,1.0485013371944427
1782986228284222200,6.71722216796875,-2.978324905914068,1.5955355000078677,0.3767953042473644
1782986228294296000,6.727296142578125,-0.7788210574716329,1.1679374255664645,-0.20341325228475032
1782986228304370200,6.7373701171875,0.37840252024829385,0.8377163140326738,-0.7310827894147485
1782986228314445000,6.747445068359375,1.0773153437465428,0.47565147286206483,-0.9599771044366061
1782986228324519200,6.757519287109375,1.9060896419107913,-0.08515621762946247,-0.9330464274130761
1782986228334593000,6.767593017578125,2.9137346525818106,-0.5093279708839953,-0.432987220133841
1782986228344668200,6.777668212890625,4.286421766668558,-0.43710093906298275,0.2111860051780939
1782986228354742000,6.787741943359375,5.3348623135864734,0.0797597654134035,1.0886763303902
1782986228364816100,6.797816162109375,5.5846396229654545,0.7370650056295096,2.392621989749372
1782986228374890000,6.807889892578125,5.612018043756485,1.0524560661695896,3.797883339704573
1782986228384965000,6.817965087890625,5.864819669392705,0.8380841244317591,4.567902666561305
1782986228395039000,6.8280390625,6.170593591281771,0.5076214592270553,4.433066326092184
1782986228405113300,6.83811328125,6.4600073300004,0.6354134341426193,3.607785130740702
1782986228415188000,6.84818798828125,6.665887629985809,0.928212431385368,2.891749907527864
1782986228425262300,6.858262451171875,6.745909845727682,0.858301713682711,2.329014317713678
1782986228435336200,6.868336181640625,7.160638647854328,0.6870164878688753,1.7547767984151839
1782986228445410300,6.878410400390625,7.506419585961103,0.6921452290594577,1.332815414686501
1782986228455485200,6.888485107421875,7.986841634225845,0.8484142336577176,1.1305131923835723
1782986228465559300,6.898559326171875,8.504493050688504,1.093358131530881,1.0795333120569586
1782986228475633200,6.908633056640625,8.732420931831001,1.301952951171994,1.0745677986040711
1782986228485708300,6.918708251953125,8.482099432572722,1.5052663232788444,1.0294079296678305
1782986228495782100,6.9287822265625,7.982913647127151,1.7805992219358682,0.8683179346539079
1782986228505856000,6.93885595703125,7.414319394412637,2.1297633727401495,0.728508993403986
1782986228515930000,6.94893017578125,6.939035878080129,2.443049569955468,0.6818666308250277
1782986228526005000,6.9590048828125,6.595843202900886,2.623175543220341,0.674387015659362
1782986228536079000,6.9690791015625,6.393171928089857,2.7298180548623203,0.7152048368033022
1782986228546153000,6.979153076171875,6.369373119351267,2.8429002441629767,0.6454429529868065
1782986228556228000,6.98922802734375,6.470906909677386,2.957645690500736,0.5048717221274972
1782986228566302000,6.999302001953125,6.616158845698833,3.053534460677206,0.3243804592141881
1782986228576376300,7.009376220703125,6.74876698872447,3.152228643663227,0.09508074172921478
1782986228586451000,7.019450927734375,6.854286633816361,3.261238468958437,-0.041155473866779355
1782986228596525300,7.029525390625,6.794249806004762,3.2188945342257616,-0.11733805664684623
1782986228606599200,7.03959912109375,6.535805206045508,3.1033824874296783,-0.20195947327986358
1782986228616673500,7.049673583984375,5.854679383650422,2.9012603709340095,-0.18700849932022393
1782986228626748700,7.059748779296875,4.718775072813034,2.5373954946041106,0.0020546675074845553
1782986228636822500,7.069822509765625,2.843250080513954,1.7684166167110205,0.31729002602919937
1782986228646896600,7.079896728515625,-0.26360300563573835,0.8235477956876158,0.6620792496848851
1782986228656971500,7.089971435546875,-3.9442666178435086,0.34150632952749727,1.5055707130528986
1782986228667045600,7.100045654296875,-8.8225413477391,0.10472177271246909,2.734143809106946
1782986228677119500,7.110119384765625,-13.929360044848918,-0.3863941035240888,3.787525611819327
1782986228687193600,7.120193603515625,-16.630681196284293,-1.0889572662234306,3.9390871693789955
1782986228697268500,7.1302685546875,-17.14026153449416,-2.4843732217296957,3.210587601390481
1782986228707342600,7.140342529296875,-17.15572096943259,-4.329967478406429,1.960138042962551
1782986228717416400,7.15041650390625,-17.436790658175944,-5.4032502056360245,0.6887447729662061
1782986228727491600,7.16049169921875,-17.51300179119706,-5.963549508213997,-0.25015591516671704
1782986228737565400,7.1705654296875,-16.338654060196877,-5.825172718659043,-0.6312142288871109
1782986228747639600,7.1806396484375,-15.0322452986598,-5.7210155940920115,-0.4791724865950644
1782986228757713700,7.190713623046875,-13.843973087203501,-5.614889215278625,-0.6124609765676782
1782986228767788500,7.20078857421875,-13.431480665826797,-4.788612871409953,-1.1067184752982109
1782986228777862700,7.210862548828125,-14.451684129297732,-3.0430870086818933,-1.5437189496614039
1782986228787936500,7.2209365234375,-15.069792646765707,-0.9945289239883423,-1.8519049011282622
1782986228798011600,7.23101171875,-13.784522534847259,0.1656242774426937,-1.5634629300512373
1782986228808085500,7.24108544921875,-11.09852053309679,0.22851532564163207,-1.1884914071649313
1782986228818159600,7.25115966796875,-7.848033467516303,-0.4387853850185871,-1.5310716495342551
1782986228828233500,7.2612333984375,-4.733641218033433,-0.9822934195324778,-2.0600211434721944
1782986228838308600,7.27130859375,-1.9948902073919772,-1.215594225884974,-2.1656657301180062
1782986228848382500,7.281382568359375,0.651163230329752,-1.1098115459427236,-1.8411155038274825
1782986228858456600,7.29145654296875,3.2276065407305956,-1.02637806045264,-1.4407783612772822
1782986228868531500,7.301531494140625,5.495179132270812,-1.1297924038283527,-1.1008987561687826
1782986228878605600,7.31160546875,7.342631876295805,-1.39764049968794,-0.6996666375402361
1782986228888679400,7.321679443359375,8.670304375135897,-1.5632066172026098,-0.18197079741396008
1782986228898753500,7.33175341796875,9.612364276218413,-1.470600375828147,0.041899551966041323
1782986228908828400,7.341828369140625,10.366925921702384,-1.1063127440415321,-0.2211140364091843
1782986228918902500,7.351902587890625,10.977210029155016,-0.7185895838707685,-0.45203905354104934
1782986228928976600,7.3619765625,11.46204521768689,-0.45941462381035086,-0.594960135462135
1782986228939051500,7.372051513671875,11.682019509476422,-0.08648439749330282,-0.7280013361427933
1782986228949125600,7.382125732421875,11.421840633070468,0.427964715796709,-1.1111690980315208
1782986228959199700,7.39219970703125,10.75821071987748,0.692075670954585,-0.5932581538498402
1782986228969274600,7.402274658203125,10.665703116571903,0.7050739764764905,-0.39631607034057376
1782986228979348700,7.4123486328125,10.616212817215919,1.0910644676357506,-0.6370586440663785
1782986228989422600,7.422422607421875,10.29102926145792,1.4442752634823322,-0.8809145275071263
1782986228999496400,7.432496337890625,9.899304902821779,1.6601897584870458,-0.7430373580373824
1782986229009571600,7.442571533203125,9.558505844780802,1.8268223361894487,-0.6129074416935444
1782986229019645400,7.4526455078125,9.216503840690851,1.8987690897643565,-0.9109411247193813
1782986229029719600,7.462719482421875,8.88658331953883,2.0727926545009017,-1.4054390446096658
1782986229039794400,7.47279443359375,8.721393341860175,2.3007865866169332,-1.7166246162839234
1782986229049868500,7.48286865234375,8.515752695849537,2.4134733468592167,-1.8775372089043258
1782986229059942400,7.4929423828125,8.120698316007852,2.5473265215098855,-2.002823923000693
1782986229070016500,7.5030166015625,7.695908138594031,2.684980549748242,-2.149679640956968
1782986229080091400,7.51309130859375,7.275673140266537,2.9706366894990204,-2.3185651121526956
1782986229090165500,7.52316552734375,7.151518352809548,3.331076559816301,-2.3847879351228474
1782986229100239600,7.533239501953125,7.208987960481643,3.6209511940449475,-2.190792718720436
1782986229110314500,7.543314453125,7.36291361682415,3.7381314663141962,-1.970897337386012
1782986229120388600,7.553388671875,7.7878890876770015,3.642558045697212,-2.0871967351675034
1782986229130462700,7.563462646484375,8.132110521382092,3.4692367840111253,-2.4642832043811675
1782986229140536600,7.57353662109375,7.653855295762419,3.281626592470705,-2.7697549284532665
1782986229150611700,7.58361181640625,6.4465305933117865,3.2025849121987817,-2.8706738017514346
1782986229160685600,7.593685546875,4.6777468968540425,3.0644913234993814,-2.20833904293552
1782986229170759400,7.603759521484375,2.094423763811588,2.1792346751347185,-0.49038069382980465
1782986229180834600,7.61383447265625,-1.1072492942392826,0.27016806323975323,2.021187408817559
1782986229190908400,7.623908447265625,-4.071259259074926,-1.7626362797439097,4.487677037201822
1782986229200982500,7.633982421875,-7.272270638346671,-3.5660821242600678,7.0008601738303895
1782986229211056400,7.644056396484375,-10.206159021162986,-5.4065784732759,9.249473797878622
1782986229221131500,7.654131591796875,-13.032745551645755,-6.416605995169282,8.797208753561973
1782986229231205400,7.664205322265625,-16.367551653379202,-5.726683702856302,4.954971016085148
1782986229241279500,7.674279541015625,-20.742434962832927,-5.54132304380834,1.292258655631542
1782986229251354400,7.684354248046875,-23.164992948901652,-6.616760318723321,-0.32812958261463787
1782986229261428500,7.694428466796875,-24.16657822114229,-7.883594025719165,-0.020853612999012693
1782986229271502600,7.704502685546875,-23.643038331162927,-8.533139299458265,1.7320158082917332
1782986229281576700,7.71457666015625,-21.934847927355765,-8.166936920091509,3.25512524677515
1782986229291651600,7.724651611328125,-18.937246658563613,-5.854917868581414,3.449213402158022
1782986229301725700,7.7347255859375,-15.246652603971958,-2.9455840813070533,3.5863328851282597
1782986229311799600,7.744799560546875,-11.620829419976472,-1.0680115088284015,3.824248784060776
1782986229321874700,7.754874755859375,-7.826350043496489,-0.13678747453689574,3.2383860011592507
1782986229331948500,7.764948486328125,-4.334519150361419,0.34182869334965943,2.2715096387282014
1782986229342022700,7.775022705078125,-2.0084546223640443,0.5977877601034939,1.2830316853418946
1782986229352097500,7.78509765625,-0.8974778320342301,0.6187677120290697,0.10126171365277842
1782986229362171600,7.795171630859375,-0.6746966661304236,0.4993506206184625,-1.2210660083595664
1782986229372245500,7.80524560546875,0.04017126686871052,0.7501350612133741,-2.030219587187469
1782986229382319400,7.8153193359375,1.6333587424457072,1.0253853961534798,-1.603669998885691
1782986229392394500,7.82539453125,3.1033436167240143,0.5620562292478978,-0.5019574421159922
1782986229402468400,7.83546826171875,4.582708898288011,-0.13583309642150998,0.4391919199928641
1782986229412542500,7.84554248046875,5.932326102432608,-0.3752145378619432,0.9735168233588337
1782986229422617300,7.855617431640625,6.901997064018249,-0.29726693643704055,1.1903129235036671
1782986229432691500,7.86569140625,7.432116916909814,-0.1637989617116749,1.324409989912808
1782986229442765600,7.875765625,7.447627789774536,-0.15033055445998905,1.4064037979885935
1782986229452839700,7.885839599609375,7.07609398625195,-0.13128639290258287,1.1460733112175017
1782986229462914600,7.89591455078125,6.853603912249207,-0.17023220962956548,0.43737803897131233
1782986229472988700,7.90598876953125,7.072655243974924,-0.37245164901986716,-0.373778952100873
1782986229483062500,7.9160625,7.584677714639902,-0.46564898815527556,-1.1303669157806784
1782986229493137700,7.9261376953125,8.292956916898488,-0.25112770107463,-1.5038083795554935
1782986229503211500,7.93621142578125,9.055261723855137,-0.0003888531871140003,-1.534676980549842
1782986229513285600,7.94628564453125,9.687649526566267,0.1600027842991054,-1.1499544634997845
1782986229523359500,7.956359375,10.122530305361748,0.2054647049218416,-0.7150231235608459
1782986229533434600,7.9664345703125,10.318688837277888,0.2341160682581365,-0.43672268033511935
1782986229543508500,7.976508544921875,9.906646497756242,0.4623755194425583,-0.3590418766202405
1782986229553582600,7.98658251953125,9.07185396221578,0.9054366820842027,-0.4285213998313993
1782986229563656400,7.996656494140625,8.4408520609051,1.2687459703579544,-0.5191415819551796
1782986229573730600,8.00673046875,7.973784584254026,1.4693758024692534,-0.6392284623861313
1782986229583804700,8.0168046875,7.61010207875371,1.6168419074088334,-0.7857328826867044
1782986229593879600,8.026879638671875,7.351922851732373,1.8059458446383476,-0.8119114261686802
1782986229603953700,8.03695361328125,7.0117860569924115,2.0733108331561088,-0.7382983468167483
1782986229614027500,8.047027587890625,6.561692511495948,2.17441996832937,-0.6343810954201966
1782986229624100400,8.057100341796875,6.322861543545127,2.1257810251057148,-0.5832303520387038
1782986229634175500,8.067175537109375,6.137955058005452,2.1206419086515904,-0.5157160644859076
1782986229644249300,8.077249267578125,5.8049318946629755,2.14084970716089,-0.36614217361211776
1782986229654323500,8.087323486328126,5.217151295441389,2.0852862253710627,-0.20119212390286847
1782986229664398300,8.0973984375,4.017396151462197,2.0754168655246494,-0.16170493030818178
1782986229674472400,8.107472412109376,1.748511892801523,1.9752049714520572,-0.3558759964678436
1782986229684546600,8.117546630859374,-1.116813825920224,1.7085750192105769,-0.573235648779571
1782986229694620700,8.12762060546875,-3.5623972982674834,1.4533148945063352,-0.4133368363115936
1782986229704695600,8.137695556640624,-5.200973483100533,0.9188789319813251,0.3415517030391842
1782986229714769700,8.147769775390625,-5.8973646791666745,-0.11560995421260595,1.6852274613708256
1782986229724843500,8.157843505859375,-6.854208892405032,-1.046958491666615,3.152106186327338
1782986229734918700,8.167918701171875,-8.739445131379366,-1.7029247383639214,3.2190520628750323
1782986229744992500,8.177992431640625,-11.68015839177966,-2.045583452796936,2.315126662136614
1782986229755066400,8.18806640625,-15.081730921840666,-1.3565712610661982,1.5976858099095523
1782986229765141500,8.1981416015625,-17.330516395324466,-0.21084259856790302,1.2888405177511275
1782986229775215600,8.208215576171876,-17.46057251577973,-0.8656324949622154,1.4646677709087728
1782986229785289500,8.21828955078125,-15.90479268757701,-2.8903146140277385,1.1637209769152104
1782986229795363300,8.22836328125,-14.213498473513125,-5.304553684562444,0.34069143294803794
1782986229805438500,8.2384384765625,-13.697585425150393,-6.9307122863709925,-0.7506248174916953
1782986229815512300,8.24851220703125,-14.74639422085881,-6.875013780024648,-1.1857147089932114
1782986229825586400,8.25858642578125,-14.988646979951858,-5.724126419588923,-0.4025765920400619
1782986229835661300,8.268661376953125,-12.771459590780735,-4.704922196288407,1.1605435889881104
1782986229845735400,8.2787353515625,-8.359037116527556,-3.705798053464293,1.7966667057700454
1782986229855809500,8.2888095703125,-3.9564761110752817,-2.5982556214973327,1.5523771801523862
1782986229865883600,8.298883544921875,-0.8118962285995482,-1.7348823036387562,0.9585825813382863
1782986229875958500,8.30895849609375,0.7210556817233562,-0.9956082436576486,0.3111949240244925
1782986229886032600,8.31903271484375,0.9057570000797509,-0.4997790751636028,-0.4115800557721406
1782986229896106500,8.3291064453125,0.7473579977154732,-0.3876604701980948,-1.3512385217361151
1782986229906181600,8.339181640625,0.9872294146299362,-0.3938315600484609,-1.8333087755993007
1782986229916255500,8.34925537109375,1.5238678556352854,-0.031164222940057513,-1.4147769279278815
1782986229926330600,8.35933056640625,2.333165884435177,0.47696810841858384,-0.24079894355554132
1782986229936404500,8.369404541015625,3.377400796356797,0.7466901814565062,1.0006935110326856
1782986229946478600,8.379478515625,4.316407739609479,0.9979393169537186,1.813421587346494
1782986229956552400,8.389552490234376,5.105712197172641,1.2630948127284645,1.895194007756561
1782986229966627600,8.399627685546875,5.712068317526579,1.2765695035904645,1.2140605135116724
1782986229976701400,8.409701416015626,6.450735643786191,1.1704849180921912,0.17580905991382895
1782986229986775300,8.419775390625,7.390185070109367,1.1630728882700203,-0.7047997626449912
1782986229996850400,8.429850341796875,8.432616147479415,1.0697650744974612,-1.1944650747470558
1782986230006924300,8.43992431640625,9.43450712466836,0.9869351078584789,-1.3011885426707566
1782986230016998700,8.44999853515625,9.944711732256412,0.9217743611618876,-1.1190456035602838
1782986230027072500,8.460072509765626,9.945071797740459,0.9694719318822026,-0.7744096707701683
1782986230037147600,8.470147705078125,9.574126607760787,1.091015660057962,-0.4459199861388653
1782986230047221500,8.480221435546875,9.040677902707458,1.2848822816446424,-0.20067915114574134
1782986230057295600,8.490295654296874,8.346005785518884,1.4125821943625807,-0.0459684636390768
1782986230067370500,8.50037060546875,7.357676885214447,1.5003008098259567,-0.19284920643875375
1782986230077444600,8.510444580078126,6.5073647089809175,1.7849293600946663,-0.3787186004601419
1782986230087518500,8.5205185546875,5.904354976445436,2.0656419059634206,-0.45166912425011396
1782986230097592600,8.530592529296875,5.403959815210103,2.2396526112183928,-0.47433681006692346
1782986230107667500,8.54066748046875,5.442122080343961,2.536236387696862,-0.2730029030731879
1782986230117741600,8.550741455078125,5.703830650535226,2.663129075685143,0.17396408963426946
1782986230127815400,8.5608154296875,5.965794656792283,2.7197072874754666,0.7456360692936926
1782986230137890600,8.570890625,5.991414251217246,2.8930209503769873,1.2058454236783087
1782986230147964400,8.58096435546875,5.705801658347249,3.186749045163393,1.623933326974511
1782986230158038500,8.59103857421875,5.10327298732698,3.3598037648677823,1.6107617107123136
1782986230168112600,8.601112548828125,4.622043129810691,3.4532936572089787,1.1696748438183218
1782986230178187500,8.6111875,4.503754019516706,3.4605119180247184,0.36413656941074873
1782986230188261600,8.62126171875,4.631832117897272,3.239438725082576,-0.4629162387231365
1782986230198335500,8.63133544921875,4.8308308416754,2.7936089745104313,-1.1886042198896407
1782986230208410600,8.64141064453125,4.595629754659533,1.980994660769403,-1.5457054473035037
1782986230218484500,8.651484375,3.6166000130981204,1.0558554993495344,-1.2679450292386114
1782986230228558600,8.66155859375,2.142207259249687,0.044857378858327863,-0.4792125994097441
1782986230238633500,8.671633544921875,0.30200784735381603,-1.394410870116949,0.26969032619278877
1782986230248707600,8.68170751953125,-2.27196936519444,-2.5694120965898035,0.896889656882733
1782986230258781400,8.691781494140624,-5.798536056146025,-3.6255686247125265,1.7716688965052365
1782986230268855600,8.70185546875,-9.308234029883145,-4.968817170608044,2.38387447353974
1782986230278930400,8.711930419921876,-12.231072610896826,-6.075284374558925,1.7992174131661653
1782986230289004500,8.722004638671875,-15.765556066322326,-6.741377462995052,0.25642931461408736
1782986230299078400,8.732078369140625,-20.334483107495306,-6.229574772560596,-1.8110390761241315
1782986230309153500,8.742153564453124,-23.605591520822045,-5.0704725414872165,-3.4776416242629287
1782986230319227400,8.752227294921875,-21.674062317228316,-4.889430037899315,-3.8898815321832894
1782986230329301500,8.762301513671876,-16.185103666907548,-6.773791539865732,-2.212916141592711
1782986230339375600,8.772375732421875,-11.741167279493808,-9.036583326870202,0.2141455856360495
1782986230349450500,8.782450439453125,-9.092907856160402,-9.702273095202445,1.5427654483288527
1782986230359524600,8.792524658203124,-9.086656394550204,-9.107072575113177,1.6096085951544343
1782986230369598700,8.8025986328125,-12.232090848028658,-7.272991938358545,0.5093748057004064
1782986230379673600,8.812673583984376,-16.261252840608357,-4.639613273292779,-0.8735485287837683
1782986230389747700,8.822747802734375,-17.931873684477804,-2.758312035679817,-1.768429622323066
1782986230399821600,8.832821533203125,-15.343381624364852,-2.27015004081279,-2.1102387341894207
1782986230409895400,8.8428955078125,-10.62178681795597,-2.5991198371112345,-2.3097106284372506
1782986230419970600,8.852970458984375,-5.141956645986437,-2.628309691238403,-2.7034967419087885
1782986230430044400,8.86304443359375,-0.22502572996020315,-2.431983986061811,-3.0007278763800858
1782986230440118500,8.873118408203124,3.760389475351572,-1.9552137383028865,-2.951542405189574
1782986230450193400,8.883193359375,6.866271670642495,-1.1213745579645038,-2.376526156603545
1782986230460267500,8.893267578125,9.105288029783964,-0.2534358318865299,-1.1115744639620184
1782986230470341400,8.90334130859375,10.226645344352722,0.5826119644120336,0.4451859362432733
1782986230480416500,8.91341650390625,10.467199482834339,1.4071800430580972,1.8374518667533992
1782986230490490400,8.923490478515625,10.068967057478428,2.1529677227169275,2.733259135226905
1782986230500564500,8.933564453125,9.56665934062004,2.9608827727258205,2.7958836414441466
1782986230510638600,8.943638671875,9.060342972642182,3.267275703296065,1.8514926670655607
1782986230520713500,8.95371337890625,8.63846429876089,3.1148087213292714,0.028023586826771495
1782986230530787600,8.96378759765625,8.582079563716054,2.9722178212106227,-1.6663909512147306
1782986230540861700,8.97386181640625,8.64710236324668,3.13422653850466,-2.731486280335486
1782986230550936600,8.9839365234375,8.676457637068628,3.5755440723493694,-2.6659359497994184
1782986230561010700,8.9940107421875,8.717251419749855,3.853792273931205,-1.9112828266397117
1782986230571084500,9.00408447265625,8.869933798033,3.9060412243455644,-1.1754324574969708
1782986230581158400,9.014158447265626,9.086806616675853,4.029880077721178,-0.7487380538970232
1782986230591233500,9.024233642578125,9.024135933229326,4.20806894544363,-0.6456935667470097
1782986230601307400,9.034307373046875,8.422313949173688,4.471935570451617,-0.6230950737088918
1782986230611381500,9.044381591796874,7.7582947444021695,4.784209375753998,-0.5566044666480273
1782986230621457700,9.054457763671875,7.029757182490825,5.04245406922698,-0.5592443136323243
1782986230631531800,9.06453173828125,6.4530836682170625,5.202290410917997,-0.7392056709200143
1782986230641605600,9.074605712890625,6.035478433871269,5.3584676455795766,-1.1631183348469436
1782986230651679500,9.084679443359375,5.6302434362769125,5.5868438550114625,-1.4884012593261897
1782986230661754600,9.094754638671875,5.5276358792394396,5.588815447345375,-1.7194830744549632
1782986230671828700,9.104828857421875,5.852033253055811,5.485719230008125,-1.8034543200835584
1782986230681902600,9.114902587890626,6.429914389553666,5.298377626276016,-1.6492553997576236
1782986230691977700,9.124977783203125,6.947341349610686,5.019074947205185,-1.3769037088684737
1782986230702051600,9.135051513671876,7.262661683002114,4.775002571469545,-1.1214669854883104
1782986230712125400,9.14512548828125,7.647838811951876,4.587880747967958,-0.8074727861341089
1782986230722200600,9.15520068359375,7.68455263184309,4.233007571867108,-0.3671283351052552
1782986230732274400,9.1652744140625,6.669087302809953,3.669037471821904,0.07452091491185128
1782986230742348500,9.1753486328125,4.736421788662672,2.9715543888658282,0.1693744237564504
1782986230752422700,9.185422607421875,2.3756173711955544,2.072295518633723,0.49477849039733407
1782986230762497500,9.19549755859375,-0.44885552813410756,0.6707131494522094,1.3179627134695648
1782986230772571600,9.205571533203125,-2.885039303973317,-1.013171665138006,1.905515641415119
1782986230782645800,9.215645751953126,-4.437812936097383,-2.508839846727252,2.132751448640227
1782986230792720600,9.225720703125,-5.726155879589915,-4.261768971449136,2.816416434124112
1782986230802794800,9.235794677734376,-7.119880521008372,-5.971605973419547,3.807368668669462
1782986230812868600,9.24586865234375,-8.549419403129816,-6.351137789958715,4.381613202230632
1782986230822943700,9.25594384765625,-10.004837991917134,-6.306207345864176,4.939088387298583
1782986230833017600,9.266017578125,-11.941251460421086,-6.6253486988484855,5.661133080059289
1782986230843091700,9.276091796875,-13.665285914570092,-7.618931281897425,6.201316646325588
1782986230853165600,9.28616552734375,-13.674735295438765,-8.776825890746712,6.064540277704596
1782986230863240700,9.29624072265625,-12.55383975316286,-9.647071432462335,4.944600428718328
1782986230873314600,9.306314453125,-11.135891355592012,-10.785691431999206,3.0438796203643084
1782986230883388400,9.316388427734376,-10.078479566711186,-11.276457179623842,1.2655011432178318
1782986230893463600,9.326463623046875,-9.494842643165589,-9.893990429800748,-0.06865088123413733
1782986230903537700,9.33653759765625,-8.709054669290781,-7.103254380378127,-0.7089210072934627
1782986230913611800,9.34661181640625,-7.38518156273365,-4.169706773823499,-0.6096764238830655
1782986230923685600,9.356685546875,-5.348494533097743,-2.1569275662586094,-0.5335554898960515
1782986230933760800,9.3667607421875,-3.271601165279746,-1.2574462854474782,-1.259765814436227
1782986230943834600,9.376834716796875,-1.7813515016078947,-1.1282014813750982,-2.9011422975122927
1782986230953908700,9.38690869140625,-0.7858540248483419,-1.1749880747303365,-4.421141495020687
1782986230963983600,9.396983642578125,-0.0997720413506031,-0.9434577851817011,-5.271237105894088
1782986230974057700,9.4070576171875,1.415565886348486,-0.7346008074730634,-5.803666404771804
1782986230984131600,9.417131591796876,3.4476989059418437,-1.0889113812550901,-6.1296004866361615
1782986230994206700,9.427206787109375,4.5981537201792,-1.2992495374321937,-5.5218911981076
1782986231004280600,9.437280517578126,4.9863627641707655,-0.7632774513810873,-3.8093954983219502
1782986231014354700,9.447354736328125,4.9677299598932265,0.2811334016293287,-1.4791145216733217
1782986231024428500,9.457428466796875,4.902350017488002,1.0561688030824063,0.6275231192842126
1782986231034503700,9.467503662109374,5.18037084005475,1.580495751786232,1.9169754853233694
1782986231044577500,9.47757763671875,5.397676204895973,2.0830694261044265,2.3509493784070012
1782986231054651600,9.487651611328126,5.372776156917214,2.4124048408448693,2.0048206497758625
1782986231064726500,9.4977265625,5.245079751330614,2.509605570402741,1.00775336641632
1782986231074800600,9.507800537109375,5.027112123188376,2.4309128496989607,-0.21743841663636265
1782986231084874800,9.517874755859374,4.803755203223228,2.4333792398124934,-1.4469845224410294
1782986231094948600,9.527948486328125,5.09273464217782,2.513343880148232,-2.1771254278957843
1782986231105023700,9.538023681640626,5.683328545254469,2.6394202833175657,-1.9170915129184722
1782986231115097600,9.54809765625,5.911266363269091,2.892294389668107,-1.0526514426112175
1782986231125171700,9.558171630859375,5.880516420218348,3.2227392269551753,-0.19489428413398563
1782986231135246600,9.56824658203125,5.686660904547572,3.5349031421422956,0.3126274045130238
1782986231145320700,9.57832080078125,5.3930386082232,3.66952963925302,0.5073840702746063
1782986231155394600,9.58839453125,5.1804684552103275,3.643954760752618,0.4591010643491521
1782986231165468700,9.59846875,5.234129902771115,3.4165412588730453,0.10400927706155925
1782986231175543600,9.60854345703125,5.656109698939323,3.1174583590552207,-0.5885414275262505
1782986231185617700,9.61861767578125,5.988830664464831,2.8604335627660156,-1.3329117146678269
1782986231195691500,9.62869140625,5.78002658598721,2.6242577854990956,-1.7283716065704822
1782986231205766700,9.6387666015625,5.420352731606364,2.4844872034981846,-2.2016436369501053
1782986231215840500,9.648840576171875,4.988204008123279,2.5719267097592353,-2.718475407592952
1782986231225914600,9.65891455078125,4.528810134840011,3.1338711491957305,-2.553004859407246
1782986231235989500,9.668989501953124,4.346107881346344,3.781419403898716,-1.7463061994507907
1782986231246063600,9.679063720703125,4.415362034836411,4.143971736325323,-0.9863847804993391
1782986231256137700,9.6891376953125,4.204626696035266,4.183272357839345,-0.3806446000866592
1782986231266211800,9.6992119140625,3.733143156507611,3.731194945049286,0.2738033510021865
1782986231276286700,9.70928662109375,3.1386995922654863,3.1779856007322667,0.4465036312457174
1782986231286360800,9.71936083984375,2.3877035303086043,2.703023571439087,0.33702976863533257
1782986231296434700,9.7294345703125,1.5801742647469044,2.193336557984352,0.7199716858789325
1782986231306509800,9.739509765625,1.1637690538406371,1.3391606920599937,1.369233466501534
1782986231316583700,9.749583740234375,0.9814064075648784,0.334757439789176,1.9008017646357416
1782986231326657500,9.759657470703125,0.7180576689511537,-0.657975832954049,2.4109569801241157
1782986231336732700,9.769732666015624,0.5588029265403748,-1.4718155968368052,2.5218548111230135
1782986231346806500,9.779806640625,-0.23986089552044867,-1.9371178173810242,2.2265039374403655
1782986231356880600,9.789880615234376,-2.5201456691175697,-2.2943150525152682,2.187947996813804
1782986231366954500,9.79995458984375,-5.360287262222171,-2.2653245203524826,2.051846312583983
1782986231377029600,9.810029541015625,-7.909145231083035,-1.7145757209300994,1.6535678561292588
1782986231387103500,9.820103515625,-9.146765118554233,-1.4271879350811243,1.107168411022797
1782986231397177600,9.830177490234375,-8.973086713993549,-1.9787410366237161,0.12829155846815554
1782986231407252500,9.84025244140625,-8.61188901104629,-3.418861518514156,-1.3541878730610013
1782986231417326600,9.85032666015625,-9.341527227675915,-4.409412186521291,-2.2265524527572094
1782986231427400700,9.860400634765625,-10.774150631809235,-4.331947838568687,-2.1437401679053902
1782986231437475600,9.8704755859375,-11.46753270918727,-3.932195656299591,-0.8668411400996148
1782986231447549700,9.8805498046875,-10.495777927064895,-4.475927854958177,0.8269132535327225
1782986231457623800,9.890623779296876,-8.606091138422489,-5.3257496173262595,2.1729963652670383
1782986231467697700,9.90069775390625,-7.307704939821362,-5.730188496106862,2.886288427251577
1782986231477772800,9.910772705078125,-6.749168555262685,-5.811093924424052,3.09370046684891
1782986231487846700,9.9208466796875,-6.9055123786628245,-5.1356210132241245,3.170699827638268
1782986231497920800,9.930920654296875,-7.892837654882669,-3.976754344472289,3.227333569008112
1782986231507995600,9.94099560546875,-9.360070015582442,-3.057902885019779,2.7705066236034033
1782986231518069800,9.95106982421875,-10.647073234903813,-2.472770754480362,1.462823312085867
1782986231528143600,9.9611435546875,-10.771782149112225,-2.349128300459683,-0.3768292065169662
1782986231538217500,9.971217529296876,-9.829109669089316,-2.69719033524096,-1.9023951713070273
1782986231548292600,9.981292724609375,-7.208605683165788,-3.0065479608356953,-2.928462850636244
1782986231558366500,9.991366455078126,-2.868916436690092,-3.482682541039586,-3.3141315624952314
1782986231568440600,10.001440673828125,1.0768500643223524,-3.0119203015238045,-3.7309625975981353
1782986231578515500,10.011515380859375,2.8838649994969368,-1.98987763992697,-3.191740277579427
1782986231588589600,10.021589599609374,2.8462784884244203,-0.7804851912915706,-1.1257707470968366
1782986231598663700,10.03166357421875,1.72649178417325,0.09802373637855052,0.5753977221842855
1782986231608738600,10.041738525390626,-0.0688935034841299,1.0199369214892386,0.9345745137631892
1782986231618812700,10.051812744140625,-0.4507657456696033,1.6513424351647494,0.9278253317639231
1782986231628886000,10.061885986328125,0.22639292666018007,1.9920599524021148,0.8321475739896297
1782986231638960000,10.071960205078126,1.9112614915907382,2.2615742279082536,0.5901419215254485
1782986231649035000,10.082034912109375,3.5438907507181168,2.2127707417726517,0.2565929807431996
