time,seconds_elapsed,z,y,x
1782986221626378500,0.05937841796875,-0.5838815569877625,0.6725658774375916,-0.03970133885741234
1782986221636452400,0.069452392578125,-0.5507222414016724,0.5502713918685913,0.17104019224643707
1782986221646526500,0.0795263671875,-0.46885961294174194,0.33446159958839417,0.4913593530654907
1782986221656600600,0.0896005859375,-0.3475819230079651,-0.2622068524360657,0.8889290690422058
1782986221666675500,0.099675537109375,-0.21788093447685242,-0.8980341553688049,1.3880057334899902
1782986221676749600,0.10974951171875,-0.21297325193881989,-1.0403074026107788,1.7092266082763672
1782986221686823700,0.11982373046875,-0.22348634898662567,-0.5087290406227112,1.6110323667526245
1782986221696898600,0.129898681640625,0.062307316809892654,0.3206608295440674,1.1427866220474243
1782986221706972700,0.13997265625,0.6582021117210388,0.9748178720474243,0.6344597935676575
1782986221717046500,0.150046630859375,1.1204999685287476,1.2586088180541992,0.3464985489845276
1782986221727120400,0.160120361328125,1.1405235528945923,1.3585556745529175,0.3996959924697876
1782986221737195500,0.170195556640625,0.8956165313720703,1.428291916847229,0.5725263953208923
1782986221747269400,0.180269287109375,0.6069352030754089,1.4451720714569092,0.485403448343277
1782986221757343500,0.190343505859375,0.4288272559642792,1.4346177577972412,0.05946039780974388
1782986221767418600,0.200418701171875,0.3494109809398651,1.3495168685913086,-0.6489977240562439
1782986221777492500,0.210492431640625,0.4709422290325165,1.0933362245559692,-1.2380191087722778
1782986221787566300,0.22056640625,0.7211562991142273,0.7434171438217163,-1.2854820489883423
1782986221797640400,0.230640380859375,0.7302022576332092,0.36839932203292847,-0.821440577507019
1782986221807715300,0.24071533203125,0.5299485325813293,-0.1176810935139656,-0.14766934514045715
1782986221817789400,0.25078955078125,0.2707793116569519,-0.4718668758869171,0.3329593241214752
1782986221827863600,0.260863525390625,0.023860326036810875,-0.4431918263435364,0.39622536301612854
1782986221837938400,0.2709384765625,-0.12283351272344589,-0.149602010846138,0.1390542984008789
1782986221848012500,0.281012451171875,-0.06534624844789505,0.32722020149230957,-0.23121963441371918
1782986221858086700,0.291086669921875,0.11458943039178848,0.6877096891403198,-0.5471363067626953
1782986221868160500,0.301160400390625,0.2847643494606018,0.7255558371543884,-0.6396439075469971
1782986221878235600,0.311235595703125,0.405748575925827,0.4259960353374481,-0.620293378829956
1782986221888309500,0.3213095703125,0.5604255199432373,0.06773510575294495,-0.5435479879379272
1782986221898383600,0.331383544921875,0.7129697799682617,-0.25339579582214355,-0.4270767569541931
1782986221908457500,0.34145751953125,0.8122614622116089,-0.5959579348564148,-0.23688392341136932
1782986221918532600,0.35153271484375,0.7930009365081787,-0.8847034573554993,-0.0012900352012366056
1782986221928606500,0.3616064453125,0.675740659236908,-1.0439423322677612,0.16320756077766418
1782986221938680300,0.371680419921875,0.5478023886680603,-0.9018898606300354,0.18182812631130219
1782986221948755500,0.38175537109375,0.4251917600631714,-0.4681967794895172,0.025229455903172493
1782986221958829300,0.391829345703125,0.27853789925575256,-0.050031475722789764,-0.2458087056875229
1782986221968903400,0.4019033203125,0.11027804017066956,0.17870156466960907,-0.5232280492782593
1782986221978977500,0.4119775390625,-0.061398644000291824,0.14270628988742828,-0.759360671043396
1782986221989052400,0.422052490234375,-0.1910591721534729,0.007891212590038776,-0.9038401246070862
1782986221999126500,0.43212646484375,-0.2472531944513321,-0.16855785250663757,-0.9205629229545593
1782986222009200600,0.44220068359375,-0.2700392007827759,-0.3634091019630432,-0.7897366881370544
1782986222019275500,0.452275634765625,-0.2741923928260803,-0.48996812105178833,-0.5595932602882385
1782986222029349600,0.462349609375,-0.2523166537284851,-0.43444493412971497,-0.29534268379211426
1782986222039423500,0.472423583984375,-0.23651133477687836,-0.3235114812850952,-0.08328423649072647
1782986222049497600,0.48249755859375,-0.23184308409690857,-0.14265701174736023,0.06326072663068771
1782986222059572500,0.492572509765625,-0.20996229350566864,0.06314461678266525,0.15271177887916565
1782986222069646600,0.502646484375,-0.18071572482585907,0.1226193904876709,0.2545822262763977
1782986222079720400,0.512720458984375,-0.16514581441879272,0.11245783418416977,0.3658006191253662
1782986222089795600,0.522795654296875,-0.16689151525497437,0.033001359552145004,0.3979990482330322
1782986222099869400,0.532869384765625,-0.1845991462469101,-0.09177891910076141,0.3562997877597809
1782986222109943300,0.542943359375,-0.2036982625722885,-0.07700583338737488,0.2633616030216217
1782986222120017400,0.553017333984375,-0.20603865385055542,0.04036127030849457,0.1259366273880005
1782986222130092500,0.563092529296875,-0.19323231279850006,0.14243650436401367,0.032699089497327805
1782986222140166400,0.57316650390625,-0.18239377439022064,0.20842058956623077,-0.03130386024713516
1782986222150240500,0.583240478515625,-0.2171429693698883,0.23845358192920685,-0.16201606392860413
1782986222160315400,0.5933154296875,-0.2811320722103119,0.3009260296821594,-0.39550524950027466
1782986222170389500,0.603389404296875,-0.3123038411140442,0.44219526648521423,-0.6937209963798523
1782986222180463600,0.613463623046875,-0.19809071719646454,0.9044318795204163,-0.8271072506904602
1782986222190537500,0.623537353515625,-0.0046693203039467335,1.5901165008544922,-0.8050237894058228
1782986222200612600,0.633612548828125,0.06263089179992676,1.9728492498397827,-0.7858031988143921
1782986222210686500,0.6436865234375,0.19700627028942108,1.6749323606491089,-0.7004566192626953
1782986222220760600,0.653760498046875,0.5215758085250854,0.8671348094940186,-0.3309704661369324
1782986222230835500,0.66383544921875,0.9386394023895264,-0.25280776619911194,0.34227052330970764
1782986222240909600,0.67390966796875,1.3845694065093994,-1.0575984716415405,0.9947811961174011
1782986222250983400,0.6839833984375,1.7684338092803955,-1.1246273517608643,1.44180428981781
1782986222261057500,0.6940576171875,1.9440628290176392,-0.6391549110412598,1.7475864887237549
1782986222271132400,0.70413232421875,1.9379609823226929,-0.2720935642719269,1.730286955833435
1782986222281206500,0.71420654296875,1.7815886735916138,-0.3543599545955658,1.3536964654922485
1782986222291280400,0.7242802734375,1.4256465435028076,-0.42472758889198303,0.8237016201019287
1782986222301355500,0.73435546875,0.9607542753219604,-0.1706140786409378,0.2599197328090668
1782986222311429400,0.744429443359375,0.5285913944244385,0.15308569371700287,-0.3028642535209656
1782986222321503500,0.75450341796875,0.4207456409931183,0.1584082841873169,-0.5668748617172241
1782986222331577600,0.76457763671875,0.6052328944206238,-0.3696073293685913,-0.34059566259384155
1782986222341652500,0.774652587890625,0.814490556716919,-1.1599891185760498,0.11768642067909241
1782986222351726600,0.7847265625,0.8795129656791687,-1.6294649839401245,0.42579203844070435
1782986222361800400,0.794800537109375,0.796034038066864,-1.4759483337402344,0.38370293378829956
1782986222371875600,0.80487548828125,0.6400729417800903,-0.7817530632019043,0.00637747161090374
1782986222381949400,0.814949462890625,0.500088632106781,0.0839095488190651,-0.43334370851516724
1782986222392023600,0.8250234375,0.4233539402484894,0.7635961771011353,-0.782446563243866
1782986222402097400,0.835097412109375,0.33519238233566284,1.1756260395050049,-0.9733640551567078
1782986222412172500,0.845172607421875,0.17904111742973328,1.4151878356933594,-0.9333825707435608
1782986222422246400,0.855246337890625,-0.009702694602310658,1.4391629695892334,-0.7056218385696411
1782986222432320500,0.865320556640625,-0.15159271657466888,1.3446121215820312,-0.3540382385253906
1782986222442395400,0.8753955078125,-0.18548384308815002,1.252416729927063,0.08067140728235245
1782986222452469500,0.885469482421875,-0.18687614798545837,1.105451226234436,0.47516706585884094
1782986222462543400,0.89554345703125,-0.2942843437194824,0.8343068361282349,0.7058303356170654
1782986222472617700,0.90561767578125,-0.5217875838279724,0.47889840602874756,0.7740578651428223
1782986222482692600,0.915692626953125,-0.6384484171867371,0.2730794847011566,0.6657180786132812
1782986222492766700,0.9257666015625,-0.5873231291770935,0.20038928091526031,0.39865362644195557
1782986222502840600,0.935840576171875,-0.49091672897338867,0.2397097945213318,0.09095919877290726
1782986222512915700,0.945915771484375,-0.3428891897201538,0.35398176312446594,-0.19148953258991241
1782986222522989600,0.955989501953125,-0.1620275229215622,0.48432406783103943,-0.41657084226608276
1782986222533063400,0.9660634765625,-0.06942461431026459,0.5596646070480347,-0.5831707715988159
1782986222543137500,0.976137451171875,-0.09354832768440247,0.5458881258964539,-0.6698721051216125
1782986222553212400,0.98621240234375,-0.1661519557237625,0.48579972982406616,-0.6524776816368103
1782986222563286500,0.99628662109375,-0.23698431253433228,0.35569366812705994,-0.5628969073295593
1782986222573360400,1.0063603515625,-0.29249709844589233,0.1663314551115036,-0.40388035774230957
1782986222583435500,1.016435546875,-0.3111059367656708,0.0024168186355382204,-0.21601538360118866
1782986222593509400,1.02650927734375,-0.30879566073417664,-0.07333413511514664,-0.0947083979845047
1782986222603583500,1.03658349609375,-0.2772230803966522,-0.04980270937085152,-0.10007893294095993
1782986222613657900,1.046657958984375,-0.22622302174568176,0.0063798688352108,-0.21216659247875214
1782986222623733000,1.05673291015625,-0.1667783260345459,0.0009366337326355278,-0.3436258137226105
1782986222633806800,1.066806884765625,-0.10608915239572525,-0.11721237748861313,-0.430113285779953
1782986222643881000,1.076880859375,-0.02683774009346962,-0.3382081389427185,-0.3849759101867676
1782986222653955000,1.086955078125,0.08013824373483658,-0.5047204494476318,-0.16000911593437195
1782986222664030000,1.097030029296875,0.18258525431156158,-0.42925122380256653,0.1372276246547699
1782986222674104000,1.10710400390625,0.2512274384498596,-0.28580138087272644,0.32262304425239563
1782986222684178000,1.117177978515625,0.2780904769897461,-0.10431788116693497,0.4118781089782715
1782986222694253000,1.127253173828125,0.30678921937942505,-0.043651871383190155,0.47302162647247314
1782986222704327000,1.137326904296875,0.3140452802181244,-0.18001317977905273,0.5713210105895996
1782986222714401000,1.147401123046875,0.3379053473472595,-0.4868229031562805,0.77564936876297
1782986222724475000,1.157474853515625,0.4264748990535736,-0.8219020962715149,1.0020414590835571
1782986222734550000,1.167550048828125,0.6359847187995911,-0.7416251301765442,1.1093155145645142
1782986222744623900,1.177623779296875,0.8188480138778687,-0.12685196101665497,1.078096866607666
1782986222754698000,1.187697998046875,0.7857118844985962,0.7667325735092163,1.0456632375717163
1782986222764772900,1.19777294921875,0.5428904294967651,1.295678734779358,1.287463903427124
1782986222774847000,1.207846923828125,0.4099973738193512,0.6127129197120667,1.6282076835632324
1782986222784920800,1.2179208984375,0.768166720867157,-1.3752247095108032,1.4053524732589722
1782986222794996000,1.227995849609375,1.4942057132720947,-3.2159082889556885,0.2603841722011566
1782986222805069800,1.23806982421875,2.2536659240722656,-3.651567220687866,-1.29163658618927
1782986222815144000,1.24814404296875,2.7062554359436035,-2.174043893814087,-2.070366144180298
1782986222825218000,1.258218017578125,2.3925716876983643,-0.2879420518875122,-1.688312292098999
1782986222835293000,1.26829296875,1.4826401472091675,0.2380210906267166,-0.9602445363998413
1782986222845367000,1.278366943359375,0.6368270516395569,-0.24641403555870056,-0.48246943950653076
1782986222855441000,1.28844091796875,0.15724527835845947,-0.8312910795211792,-0.6388590335845947
1782986222865516000,1.29851611328125,0.15473204851150513,-0.8946873545646667,-1.3268276453018188
1782986222875590000,1.30858984375,0.4731587767601013,-0.6211317181587219,-1.8926256895065308
1782986222885664000,1.3186640625,0.7182811498641968,-0.3977058231830597,-1.8724901676177979
1782986222895737900,1.32873779296875,0.7482348084449768,-0.4749409556388855,-1.3679801225662231
1782986222905813000,1.33881298828125,0.7047917246818542,-0.7321237325668335,-0.6215386390686035
1782986222915886800,1.348886962890625,0.6530028581619263,-1.0434496402740479,0.0070304786786437035
1782986222925961000,1.3589609375,0.5973997712135315,-1.3350669145584106,0.2890147566795349
1782986222936034800,1.369034912109375,0.5554837584495544,-1.3030791282653809,0.15760107338428497
1782986222946110000,1.37910986328125,0.5016447305679321,-0.7605673670768738,-0.3705359995365143
1782986222956183800,1.389183837890625,0.3876281678676605,0.11969577521085739,-1.0699577331542969
1782986222966258000,1.3992578125,0.17136536538600922,0.9400348663330078,-1.656031847000122
1782986222976332800,1.409332763671875,-0.1683642417192459,1.4467079639434814,-1.979192852973938
1782986222986407200,1.4194072265625,-0.5372487902641296,1.5512042045593262,-2.0229411125183105
1782986222996481000,1.42948095703125,-0.8518626689910889,1.3808138370513916,-1.8137993812561035
1782986223006555000,1.439554931640625,-1.078620195388794,1.1735565662384033,-1.4367660284042358
1782986223016630000,1.449630126953125,-1.3019715547561646,0.9278820753097534,-1.0339025259017944
1782986223026704000,1.459703857421875,-1.5534708499908447,0.7189309597015381,-0.7488062977790833
1782986223036778000,1.469778076171875,-1.7519450187683105,0.554479718208313,-0.662146806716919
1782986223046852900,1.479852783203125,-1.9046986103057861,0.4649684727191925,-0.7168813943862915
1782986223056927000,1.489927001953125,-2.000746965408325,0.43089014291763306,-0.8376690745353699
1782986223067000800,1.500000732421875,-2.0083658695220947,0.4146355390548706,-0.9656563401222229
1782986223077075000,1.510074951171875,-1.9549589157104492,0.4433002173900604,-1.0530208349227905
1782986223087149800,1.52014990234375,-1.891541838645935,0.5004433989524841,-1.040432095527649
1782986223097224000,1.530223876953125,-1.8239569664001465,0.5588715672492981,-0.8904380202293396
1782986223107297800,1.5402978515625,-1.713254690170288,0.6084585189819336,-0.6379908323287964
1782986223117373000,1.550373046875,-1.6091690063476562,0.5577269196510315,-0.3312876522541046
1782986223127446800,1.56044677734375,-1.5625314712524414,0.39194273948669434,-0.02430800348520279
1782986223137521200,1.570521240234375,-1.4988499879837036,0.1697205901145935,0.2646588087081909
1782986223147595000,1.580594970703125,-1.3903053998947144,-0.030491063371300697,0.5185003876686096
1782986223157670100,1.590670166015625,-1.2508689165115356,-0.15212401747703552,0.6988614201545715
1782986223167744000,1.600743896484375,-1.0918920040130615,-0.2073337435722351,0.8027856945991516
1782986223177817900,1.61081787109375,-0.9468157887458801,-0.20568232238292694,0.8408310413360596
1782986223187893000,1.62089306640625,-0.8253692984580994,-0.1932125985622406,0.8224126100540161
1782986223197966800,1.630966796875,-0.7462286353111267,-0.14867256581783295,0.7369462251663208
1782986223208041000,1.641041015625,-0.704208493232727,-0.11739587038755417,0.6243898272514343
1782986223218114800,1.65111474609375,-0.6691272258758545,0.059663064777851105,0.5718086361885071
1782986223228190000,1.66118994140625,-0.6506046652793884,0.21798212826251984,0.5172593593597412
1782986223238263800,1.671263916015625,-0.6750471591949463,0.25467464327812195,0.45445990562438965
1782986223248338000,1.681337890625,-0.7303836345672607,0.2831304967403412,0.41473114490509033
1782986223258412800,1.691412841796875,-0.7503997087478638,0.3774029612541199,0.42027878761291504
1782986223268487000,1.70148681640625,-0.7383014559745789,0.46576210856437683,0.429292768239975
1782986223278560800,1.711560791015625,-0.7422200441360474,0.5274156332015991,0.43991798162460327
1782986223288635100,1.72163525390625,-0.7660518884658813,0.5288295149803162,0.4406266510486603
1782986223298709800,1.731709716796875,-0.7918035984039307,0.5641283392906189,0.47839295864105225
1782986223308784000,1.7417841796875,-0.8022671341896057,0.7324047088623047,0.6193950772285461
1782986223318858000,1.75185791015625,-0.8459975719451904,0.902219295501709,0.8065287470817566
1782986223328933000,1.76193310546875,-0.8567378520965576,0.7985608577728271,1.0125237703323364
1782986223339007000,1.772007080078125,-0.6264732480049133,0.28363490104675293,1.2079273462295532
1782986223349081000,1.7820810546875,-0.18780584633350372,-0.5519806146621704,1.1550148725509644
1782986223359155000,1.792155029296875,0.3899911642074585,-1.24150550365448,0.735672652721405
1782986223369230000,1.80222998046875,0.9363812804222107,-1.3041092157363892,0.2109425961971283
1782986223379304000,1.812303955078125,1.2938222885131836,-0.43869906663894653,0.18120521306991577
1782986223389377800,1.822377685546875,1.4030203819274902,0.41110605001449585,0.5894326567649841
1782986223399453000,1.832452880859375,1.3543894290924072,0.6252697110176086,0.839451789855957
1782986223409526800,1.84252685546875,1.322514295578003,0.3746364414691925,0.7858272194862366
1782986223419601000,1.852600830078125,1.204232931137085,-0.07291468977928162,0.4124506711959839
1782986223429674800,1.8626748046875,0.9418386220932007,-0.44817405939102173,-0.25591379404067993
1782986223439750000,1.87275,0.6799963712692261,-0.6364438533782959,-1.1178474426269531
1782986223449823700,1.88282373046875,0.5570771098136902,-0.4937306344509125,-1.7529674768447876
1782986223459898000,1.892898193359375,0.6111581921577454,-0.05578922852873802,-1.8101543188095093
1782986223469972700,1.90297265625,0.8458228707313538,0.4225454032421112,-1.2962223291397095
1782986223480047000,1.913047119140625,1.1222827434539795,0.615450918674469,-0.4641982913017273
1782986223490121000,1.923120849609375,1.2661287784576416,0.5351480841636658,0.4441249966621399
1782986223500195000,1.933195068359375,1.1935787200927734,0.34296080470085144,1.1878132820129395
1782986223510270000,1.94327001953125,0.985075831413269,0.20359653234481812,1.6603448390960693
1782986223520344000,1.953343994140625,0.7924688458442688,0.23062948882579803,1.9295696020126343
1782986223530418000,1.96341796875,0.6323755979537964,0.3866710066795349,2.0532546043395996
1782986223540493000,1.9734931640625,0.308321088552475,0.5114449262619019,2.042572021484375
1782986223550567000,1.98356689453125,-0.13913898169994354,0.2634199261665344,1.7807908058166504
1782986223560640800,1.993640869140625,-0.5640601515769958,0.0391673743724823,1.3072168827056885
1782986223570715000,2.00371484375,-0.9078574776649475,-0.009070194326341152,0.7072929739952087
1782986223580790000,2.0137900390625,-1.1253043413162231,-0.048703890293836594,0.0024168186355382204
1782986223590864000,2.02386376953125,-1.227769136428833,-0.1041751354932785,-0.7319144010543823
1782986223600937700,2.033937744140625,-1.210873007774353,-0.16670775413513184,-1.4289478063583374
1782986223611011800,2.04401171875,-1.0995819568634033,-0.21340176463127136,-1.9884755611419678
1782986223621086700,2.054086669921875,-0.9309852123260498,-0.285229355096817,-2.348114252090454
1782986223631160800,2.064160888671875,-0.7354623079299927,-0.32902368903160095,-2.4629433155059814
1782986223641235000,2.07423486328125,-0.5135027170181274,-0.32883915305137634,-2.3254215717315674
1782986223651309800,2.084309814453125,-0.2833835184574127,-0.25774019956588745,-1.934798240661621
1782986223661384000,2.094384033203125,-0.07394693046808243,-0.11884702742099762,-1.307708978652954
1782986223671457800,2.104457763671875,-0.0037286917213350534,-0.23660002648830414,-0.7377784252166748
1782986223681532000,2.114531982421875,-0.07137911021709442,-0.4841855764389038,-0.274588406085968
1782986223691606800,2.124606689453125,-0.13920556008815765,-0.6872169971466064,0.011343734338879585
1782986223701681000,2.134680908203125,-0.18566946685314178,-0.8330061435699463,0.09770738333463669
1782986223711754800,2.144754638671875,-0.24706678092479706,-0.9898759126663208,0.03193183243274689
1782986223721830000,2.154829833984375,-0.2985193133354187,-1.0865989923477173,-0.12348172068595886
1782986223731903700,2.16490380859375,-0.2831885516643524,-0.9719691276550293,-0.306225448846817
1782986223741977600,2.1749775390625,-0.2195214331150055,-0.6973902583122253,-0.5059952735900879
1782986223752051700,2.1850517578125,-0.15195117890834808,-0.3510182201862335,-0.7046311497688293
1782986223762126600,2.195126708984375,-0.11478250473737717,-0.10034631192684174,-0.8527777194976807
1782986223772200700,2.20520068359375,-0.14356622099876404,0.07216793298721313,-0.8774255514144897
1782986223782274800,2.21527490234375,-0.22564031183719635,0.15358449518680573,-0.8132745027542114
1782986223792349700,2.225349609375,-0.33385413885116577,0.10973048955202103,-0.6656485795974731
1782986223802423800,2.235423828125,-0.4417598247528076,0.11126686632633209,-0.45406362414360046
1782986223812498000,2.245497802734375,-0.5020915865898132,0.14596572518348694,-0.24745213985443115
1782986223822571800,2.25557177734375,-0.47290122509002686,0.3032621443271637,-0.03477156162261963
1782986223832647000,2.26564697265625,-0.35663482546806335,0.6420242190361023,0.15021027624607086
1782986223842720800,2.275720703125,-0.21521084010601044,1.2516307830810547,0.23884719610214233
1782986223852795000,2.285794921875,-0.08933946490287781,1.890724539756775,0.3260236382484436
1782986223862869800,2.295869873046875,0.017773671075701714,2.068005084991455,0.531764030456543
1782986223872943900,2.30594384765625,0.08440649509429932,1.4343245029449463,0.9290122985839844
1782986223883017700,2.316017822265625,0.12691666185855865,0.15345241129398346,1.3856706619262695
1782986223893091800,2.326091796875,0.20552200078964233,-1.206241250038147,1.6415932178497314
1782986223903166700,2.336166748046875,0.3760434091091156,-1.8848786354064941,1.5102413892745972
1782986223913240800,2.34624072265625,0.6248918175697327,-1.6389702558517456,1.0725572109222412
1782986223923314700,2.356314697265625,0.8278356194496155,-0.6543149948120117,0.5992490649223328
1782986223933389800,2.366389892578125,0.8836081027984619,0.20440107583999634,0.2436068058013916
1782986223943463700,2.376463623046875,0.8153672218322754,0.588314414024353,-0.024637170135974884
1782986223953537800,2.386537841796875,0.7054346203804016,0.3609536588191986,-0.3331611752510071
1782986223963612000,2.39661181640625,0.4960172176361084,-0.24887587130069733,-0.8061172962188721
1782986223973686800,2.406686767578125,0.23550918698310852,-0.6523740887641907,-1.4581283330917358
1782986223983761000,2.416760986328125,0.14315342903137207,-0.643545925617218,-2.0481560230255127
1782986223993834800,2.426834716796875,0.2870032787322998,-0.4060271382331848,-2.260154962539673
1782986224003910000,2.436909912109375,0.5120236277580261,-0.204054594039917,-2.0169949531555176
1782986224013983700,2.446983642578125,0.6074297428131104,-0.1609784960746765,-1.4413278102874756
1782986224024057900,2.457057861328125,0.4987131357192993,-0.21750995516777039,-0.78864985704422
1782986224034131700,2.467131591796875,0.2634212374687195,-0.214011088013649,-0.2812311351299286
1782986224044206800,2.477206787109375,0.03386928513646126,-0.09581227600574493,0.014104633592069149
1782986224054280700,2.48728076171875,-0.14165140688419342,0.10404197871685028,0.14687812328338623
1782986224064354800,2.497354736328125,-0.2587633728981018,0.3207857310771942,0.19115984439849854
1782986224074429700,2.5074296875,-0.3267299234867096,0.45268625020980835,0.18617120385169983
1782986224084503800,2.51750390625,-0.36280110478401184,0.4249512851238251,0.15764714777469635
1782986224094577700,2.52757763671875,-0.39214619994163513,0.1870977133512497,0.09954949468374252
1782986224104651800,2.53765185546875,-0.34350597858428955,-0.07242945581674576,0.06584053486585617
1782986224114726700,2.5477265625,-0.2541276216506958,-0.3068446218967438,0.13663294911384583
1782986224124800800,2.55780078125,-0.20134855806827545,-0.45644769072532654,0.2913849651813507
1782986224134875000,2.567875,-0.19699455797672272,-0.5718320608139038,0.49631255865097046
1782986224144950000,2.577949951171875,-0.271223247051239,-0.5928055644035339,0.6945550441741943
1782986224155024000,2.58802392578125,-0.3974496126174927,-0.5082269906997681,0.8168679475784302
1782986224165097700,2.59809765625,-0.535132646560669,-0.35867372155189514,0.7993946671485901
1782986224175171800,2.608171875,-0.654675304889679,-0.21902155876159668,0.6583904027938843
1782986224185246700,2.618246826171875,-0.7495331168174744,-0.1628810614347458,0.4169868528842926
1782986224195320800,2.62832080078125,-0.8008397221565247,-0.1987093687057495,0.12084945291280746
1782986224205394700,2.638394775390625,-0.7867467999458313,-0.22448663413524628,-0.1850268393754959
1782986224215468800,2.64846875,-0.7190164923667908,-0.1975138783454895,-0.461493581533432
1782986224225543700,2.658543701171875,-0.651458203792572,-0.17191770672798157,-0.6784948706626892
1782986224235617800,2.66861767578125,-0.623434841632843,-0.1718311458826065,-0.8202863931655884
1782986224245692000,2.67869189453125,-0.6198499202728271,-0.17515237629413605,-0.883614182472229
1782986224255766800,2.688766845703125,-0.5891700387001038,-0.15530836582183838,-0.8441326022148132
1782986224265841000,2.6988408203125,-0.5251995921134949,-0.15424495935440063,-0.6868641376495361
1782986224275915000,2.7089150390625,-0.44729679822921753,-0.12502209842205048,-0.37007179856300354
1782986224285988900,2.71898876953125,-0.38864919543266296,-0.012429239228367805,0.03253663703799248
1782986224296064000,2.72906396484375,-0.40003395080566406,-0.0663241595029831,0.35067519545555115
1782986224306137900,2.739137939453125,-0.43497756123542786,-0.013769607990980148,0.5700932741165161
1782986224316211700,2.749211669921875,-0.44224345684051514,0.10712405294179916,0.6653921008110046
1782986224326286800,2.759286865234375,-0.43940240144729614,0.2029765546321869,0.6473127007484436
1782986224336360700,2.769360595703125,-0.4454352557659149,0.22153185307979584,0.5682874321937561
1782986224346434800,2.779434814453125,-0.4220588207244873,0.24495941400527954,0.539758563041687
1782986224356508700,2.7895087890625,-0.35902687907218933,0.22518464922904968,0.5977896451950073
1782986224366583800,2.799583740234375,-0.2798130214214325,0.24003124237060547,0.6587203741073608
1782986224376657700,2.80965771484375,-0.2696991264820099,0.308922678232193,0.7215635180473328
1782986224386731800,2.819731689453125,-0.3627281188964844,0.4864671230316162,0.8283413648605347
1782986224396806700,2.829806640625,-0.5014708042144775,0.7929727435112,1.1395338773727417
1782986224406880800,2.839880859375,-0.5793834924697876,0.8312127590179443,1.536346673965454
1782986224416955000,2.849954833984375,-0.4914887845516205,0.500016987323761,1.7141950130462646
1782986224427029000,2.860029052734375,-0.26335254311561584,-0.1877821534872055,1.3476204872131348
1782986224437103900,2.870103759765625,-0.023928768932819366,-0.9480768442153931,0.3970656096935272
1782986224447178000,2.880177978515625,0.176033616065979,-1.312053918838501,-0.7077379822731018
1782986224457251800,2.890251953125,0.40683647990226746,-1.3996895551681519,-1.5595964193344116
1782986224467327000,2.900326904296875,0.6994419693946838,-1.5109260082244873,-2.20058274269104
1782986224477400800,2.91040087890625,1.0631544589996338,-1.5741820335388184,-2.7821335792541504
1782986224487475000,2.920474853515625,1.29171621799469,-1.3677939176559448,-3.212618112564087
1782986224497548800,2.930548828125,1.1369236707687378,-0.9252393841743469,-3.262988805770874
1782986224507624000,2.9406240234375,0.6473321914672852,-0.533777117729187,-2.763946056365967
1782986224517697800,2.95069775390625,0.15168672800064087,-0.49220409989356995,-1.8872789144515991
1782986224527771600,2.960771728515625,-0.13939784467220306,-0.7589465975761414,-1.005174994468689
1782986224537846800,2.9708466796875,-0.28651192784309387,-0.9540390968322754,-0.5481536388397217
1782986224547920600,2.980920654296875,-0.3455568552017212,-0.797826886177063,-0.5987550616264343
1782986224557994800,2.990994873046875,-0.3216845691204071,-0.23994867503643036,-0.9928227066993713
1782986224568068900,3.00106884765625,-0.2634042203426361,0.6130452752113342,-1.538427472114563
1782986224578143700,3.011143798828125,-0.2847156226634979,1.4799671173095703,-2.0220580101013184
1782986224588217900,3.0212177734375,-0.4203312397003174,1.9456067085266113,-2.268509864807129
1782986224598292000,3.0312919921875,-0.5904944539070129,1.860404133796692,-2.2441813945770264
1782986224608366800,3.041366943359375,-0.6533836722373962,1.3940417766571045,-2.0026938915252686
1782986224618441200,3.051441162109375,-0.5880395174026489,0.7733902335166931,-1.6484956741333008
1782986224628515300,3.061515380859375,-0.3619752526283264,0.3498144745826721,-1.186586618423462
1782986224638589200,3.071589111328125,-0.04513365775346756,0.13339640200138092,-0.6774138808250427
1782986224648664300,3.081664306640625,0.16807182133197784,0.07654750347137451,-0.2047097384929657
1782986224658738400,3.091738525390625,0.24943992495536804,-0.010673416778445244,0.1707211434841156
1782986224668812300,3.101812255859375,0.20598885416984558,-0.08623342216014862,0.4257563650608063
1782986224678887400,3.111887451171875,0.11757216602563858,-0.08500464260578156,0.5412691235542297
1782986224688961300,3.121961181640625,0.02887585572898388,-0.06172195449471474,0.5053558349609375
1782986224699035100,3.13203515625,-0.04484789818525314,0.016699085012078285,0.3421834409236908
1782986224709109200,3.142109130859375,-0.0864826962351799,0.09149210155010223,0.09243592619895935
1782986224719184100,3.15218408203125,-0.11105647683143616,0.14753033220767975,-0.17747119069099426
1782986224729258200,3.16225830078125,-0.13779035210609436,0.17813964188098907,-0.379972904920578
1782986224739332000,3.17233203125,-0.18847030401229858,0.21928681433200836,-0.500898003578186
1782986224749407200,3.1824072265625,-0.26460501551628113,0.26224520802497864,-0.5291908979415894
1782986224759481000,3.192481201171875,-0.33842039108276367,0.2806817293167114,-0.45315656065940857
1782986224769555500,3.202555419921875,-0.39949920773506165,0.2771469056606293,-0.2834490239620209
1782986224779629300,3.21262939453125,-0.4356803596019745,0.2363227903842926,-0.059469982981681824
1782986224789704400,3.222704345703125,-0.4391981363296509,0.18653897941112518,0.15726950764656067
1782986224799778300,3.2327783203125,-0.42484503984451294,0.12559334933757782,0.3249344229698181
1782986224809852400,3.242852294921875,-0.41339290142059326,0.08045355975627899,0.41847822070121765
1782986224819927300,3.25292724609375,-0.40827804803848267,0.07539009302854538,0.4705243706703186
1782986224830001400,3.26300146484375,-0.4003647267818451,0.10550485551357269,0.5198668837547302
1782986224840075300,3.2730751953125,-0.4047307074069977,0.13110634684562683,0.563742995262146
1782986224850149000,3.283149169921875,-0.4375933110713959,0.09988424926996231,0.5761922001838684
1782986224860224300,3.293224365234375,-0.5186173319816589,0.023541279137134552,0.5262025594711304
1782986224870298000,3.303298095703125,-0.5907384157180786,0.04182867333292961,0.4959612786769867
1782986224880372200,3.313372314453125,-0.6164512038230896,0.16020724177360535,0.49098384380340576
1782986224890446000,3.323446044921875,-0.6413158178329468,0.3368922770023346,0.4435659945011139
1782986224900521200,3.333521240234375,-0.6645225882530212,0.4785556495189667,0.30243122577667236
1782986224910595000,3.343594970703125,-0.6262849569320679,0.6131904125213623,0.15370939671993256
1782986224920669400,3.35366943359375,-0.547450602054596,0.8265466690063477,0.20323887467384338
1782986224930744000,3.363744140625,-0.3899618685245514,1.3652575016021729,0.7595319151878357
1782986224940818400,3.373818359375,-0.16239716112613678,1.5116664171218872,1.6413860321044922
1782986224950892300,3.383892333984375,0.03803739696741104,0.8400342464447021,2.3215038776397705
1782986224960966400,3.39396630859375,0.12802854180335999,-0.4460184872150421,2.4412808418273926
1782986224971041300,3.404041259765625,0.05119021609425545,-1.6514405012130737,2.019961357116699
1782986224981115400,3.414115478515625,-0.02231462672352791,-1.637503981590271,1.4996252059936523
1782986224991189200,3.424189208984375,0.060197293758392334,-0.7161594033241272,0.9922296404838562
1782986225001264400,3.434264404296875,0.2163352370262146,0.23781761527061462,0.5339105129241943
1782986225011338200,3.444338134765625,0.43098121881484985,0.4112682342529297,0.1574636548757553
1782986225021412400,3.454412353515625,0.6797918081283569,0.07317487895488739,-0.029328327625989914
1782986225031486200,3.464486328125,0.8544949293136597,-0.6698840856552124,-0.2152518630027771
1782986225041561300,3.474561279296875,0.9170911908149719,-1.4225479364395142,-0.7156352996826172
1782986225051635200,3.48463525390625,0.9920535683631897,-1.7803930044174194,-1.3291921615600586
1782986225061709000,3.494708984375,1.0813552141189575,-1.6103919744491577,-1.6279863119125366
1782986225071784200,3.5047841796875,1.0927250385284424,-1.1957284212112427,-1.6049233675003052
1782986225081858000,3.514858154296875,0.9913521409034729,-0.7377611398696899,-1.4466266632080078
1782986225091932400,3.524932373046875,0.8260856866836548,-0.46743616461753845,-1.239696979522705
1782986225102006300,3.53500634765625,0.6483575105667114,-0.42774975299835205,-1.0362786054611206
1782986225112081400,3.545081298828125,0.43907588720321655,-0.4103289246559143,-0.8819395899772644
1782986225122155300,3.5551552734375,0.16008633375167847,-0.1670457124710083,-0.7738437652587891
1782986225132229400,3.5652294921875,-0.15281590819358826,0.18860985338687897,-0.7278333902359009
1782986225142304300,3.57530419921875,-0.42552173137664795,0.5824549198150635,-0.7432256937026978
1782986225152378400,3.58537841796875,-0.60499107837677,0.8901399970054626,-0.7840596437454224
1782986225162452200,3.5954521484375,-0.6979562044143677,1.0004305839538574,-0.7969730496406555
1782986225172526300,3.6055263671875,-0.7742099761962891,0.8890611529350281,-0.796932578086853
1782986225182601200,3.615601318359375,-0.8584622740745544,0.6975892186164856,-0.8544174432754517
1782986225192675300,3.62567529296875,-0.9281222820281982,0.64690762758255,-0.8909379243850708
1782986225202749200,3.635749267578125,-0.9069181680679321,0.6934956908226013,-0.7587130069732666
1782986225212824300,3.64582421875,-0.8338032364845276,0.7048125267028809,-0.5489233136177063
1782986225222898200,3.655898193359375,-0.8119253516197205,0.5235356688499451,-0.3745507001876831
1782986225232972000,3.665971923828125,-0.8692203760147095,0.285757452249527,-0.2542083263397217
1782986225243046400,3.67604638671875,-0.9609159231185913,0.08525071293115616,-0.15937447547912598
1782986225253121300,3.686121337890625,-1.0333682298660278,-0.06892367452383041,-0.10099159181118011
1782986225263195400,3.6961953125,-1.0493048429489136,-0.07232452929019928,-0.09471505880355835
1782986225273269200,3.706269287109375,-1.012048602104187,-0.018556373193860054,-0.1615782380104065
1782986225283344400,3.716344482421875,-0.9532657265663147,0.026092853397130966,-0.2759215831756592
1782986225293418200,3.726418212890625,-0.8741967082023621,0.05968170613050461,-0.3520139753818512
1782986225303492400,3.736492431640625,-0.7878208160400391,-0.02135828509926796,-0.3884388208389282
1782986225313566200,3.746566162109375,-0.7307778000831604,-0.15793797373771667,-0.4381784200668335
1782986225323641300,3.756641357421875,-0.7295522093772888,-0.20686529576778412,-0.45459628105163574
1782986225333715200,3.766715087890625,-0.7823168635368347,-0.13384221494197845,-0.39865949749946594
1782986225343789300,3.776789306640625,-0.8524845242500305,0.005418733693659306,-0.23112456500530243
1782986225353864200,3.7868642578125,-0.8948974609375,0.07073862105607986,0.01666126772761345
1782986225363938300,3.796938232421875,-0.913951575756073,0.06417366117238998,0.21445290744304657
1782986225374012200,3.80701220703125,-0.9388212561607361,0.05813680589199066,0.3087826073169708
1782986225384086300,3.817086181640625,-0.9401310086250305,0.08288263529539108,0.3358568251132965
1782986225394161200,3.8271611328125,-0.9038054943084717,0.16559268534183502,0.3604215681552887
1782986225404235300,3.8372353515625,-0.8385750651359558,0.1567145138978958,0.3738119304180145
1782986225414309400,3.847309326171875,-0.7530311346054077,0.04959578067064285,0.4032720923423767
1782986225424384300,3.85738427734375,-0.6683160066604614,-0.10655280947685242,0.4230351448059082
1782986225434458400,3.867458251953125,-0.6121581792831421,-0.21590326726436615,0.38905641436576843
1782986225444532200,3.8775322265625,-0.5565506219863892,0.02100221998989582,0.3881421387195587
1782986225454606300,3.8876064453125,-0.47536972165107727,0.522420346736908,0.5227409601211548
1782986225464681200,3.89768115234375,-0.42785361409187317,1.0436863899230957,0.8977640867233276
1782986225474755300,3.90775537109375,-0.40634486079216003,1.3143008947372437,1.397441029548645
1782986225484829200,3.9178291015625,-0.3274729251861572,1.1376606225967407,1.6963292360305786
1782986225494904300,3.927904296875,-0.06818757951259613,0.4236024022102356,1.7609182596206665
1782986225504978200,3.937978271484375,0.2887955904006958,-0.7827248573303223,1.7354052066802979
1782986225515052300,3.94805224609375,0.5408307313919067,-1.9719703197479248,1.7261645793914795
1782986225525126100,3.958126220703125,0.5851766467094421,-2.575925588607788,1.5364460945129395
1782986225535201300,3.968201171875,0.5726104974746704,-2.5614356994628906,1.1765589714050293
1782986225545275100,3.978275146484375,0.658477246761322,-2.3290774822235107,0.8888425230979919
1782986225555349200,3.988349365234375,0.799858033657074,-2.2784528732299805,0.5650266408920288
1782986225565423400,3.99842333984375,0.7960950136184692,-2.190195322036743,0.15518425405025482
1782986225575497200,4.008497314453125,0.5064597129821777,-1.6512833833694458,-0.16031616926193237
1782986225585571300,4.0185712890625,-0.00640809815376997,-1.1332371234893799,-0.3043564260005951
1782986225595646200,4.028646240234375,-0.5299344062805176,-0.7732200622558594,-0.28860756754875183
1782986225605720300,4.03872021484375,-0.9140240550041199,-0.700706958770752,-0.19159552454948425
1782986225615794200,4.048794189453125,-1.1843959093093872,-0.9065818190574646,-0.1100095883011818
1782986225625868300,4.058868408203125,-1.3655861616134644,-1.3035084009170532,-0.13382437825202942
1782986225635943400,4.068943359375,-1.4373223781585693,-1.5878863334655762,-0.3510752022266388
1782986225646017300,4.079017333984375,-1.38592529296875,-1.5618139505386353,-0.7289838790893555
1782986225656091100,4.089091064453125,-1.2372984886169434,-1.266924262046814,-1.17253577709198
1782986225666166300,4.099166259765625,-1.106693148612976,-0.8142988085746765,-1.5294855833053589
1782986225676240100,4.109240234375,-1.106427788734436,-0.42661869525909424,-1.677392840385437
1782986225686314200,4.119314208984375,-1.1879440546035767,-0.14576385915279388,-1.5793895721435547
1782986225696388400,4.129388427734375,-1.3134076595306396,-0.090650275349617,-1.2834721803665161
1782986225706463200,4.139463134765625,-1.4749350547790527,-0.26067420840263367,-0.8880321383476257
1782986225716537300,4.149537353515625,-1.533867597579956,-0.35743242502212524,-0.42939770221710205
1782986225726611500,4.159611572265625,-1.4018890857696533,-0.2801874577999115,0.027574636042118073
1782986225736686300,4.169686279296875,-1.1508443355560303,-0.09295923262834549,0.3597898781299591
1782986225746760400,4.179760498046875,-0.9058952927589417,0.09780379384756088,0.5507878065109253
1782986225756834300,4.189834228515625,-0.7529171705245972,0.17255020141601562,0.6136003136634827
1782986225766908400,4.199908447265625,-0.702426552772522,0.17090623080730438,0.5640543103218079
1782986225776983300,4.2099833984375,-0.6890431046485901,0.11029507964849472,0.48834171891212463
1782986225787057400,4.220057373046875,-0.65818852186203,0.039254460483789444,0.39188867807388306
1782986225797131300,4.23013134765625,-0.6145851612091064,-0.044912878423929214,0.29081425070762634
1782986225807206400,4.240206298828125,-0.5610031485557556,-0.14726507663726807,0.18734592199325562
1782986225817280300,4.2502802734375,-0.48924052715301514,-0.23371262848377228,0.09989809989929199
1782986225827354000,4.26035400390625,-0.39360374212265015,-0.2400221824645996,0.05337773635983467
1782986225837428200,4.27042822265625,-0.31626397371292114,-0.1199711486697197,0.09252886474132538
1782986225847503000,4.280503173828125,-0.2871936857700348,0.038369227200746536,0.22400620579719543
1782986225857577200,4.2905771484375,-0.27367016673088074,0.11483150720596313,0.43758347630500793
1782986225867651300,4.3006513671875,-0.27081871032714844,0.03792714327573776,0.6540574431419373
1782986225877726200,4.310726318359375,-0.2677542269229889,-0.01125185564160347,0.8178698420524597
1782986225887800300,4.32080029296875,-0.22976741194725037,0.09249211847782135,0.9239698648452759
1782986225897874400,4.33087451171875,-0.1683807522058487,0.22281762957572937,1.0050718784332275
1782986225907949300,4.34094921875,-0.1387842446565628,0.28958335518836975,1.1150500774383545
1782986225918023400,4.3510234375,-0.15100708603858948,0.34109342098236084,1.2187613248825073
1782986225928098300,4.361098388671875,-0.2048703283071518,0.3895421624183655,1.2420905828475952
1782986225938172400,4.37117236328125,-0.2783551812171936,0.4858250319957733,1.1574121713638306
1782986225948246300,4.381246337890625,-0.3297880291938782,0.6723387241363525,1.0008177757263184
1782986225958320400,4.3913203125,-0.3451305031776428,0.8217063546180725,0.8396315574645996
1782986225968395300,4.401395263671875,-0.30125945806503296,0.889143705368042,0.6756447553634644
1782986225978469400,4.411469482421875,-0.23668710887432098,1.1732063293457031,0.5215028524398804
1782986225988543200,4.421543212890625,-0.10888972878456116,1.4770575761795044,0.35484305024147034
1782986225998617300,4.431617431640625,0.0806005671620369,1.4921683073043823,0.17300108075141907
1782986226008692200,4.441692138671875,0.27663159370422363,1.1083521842956543,0.08826141804456711
1782986226018766300,4.451766357421875,0.5575926899909973,0.588617742061615,0.11318247765302658
1782986226028840200,4.461840087890625,0.894812822341919,0.3757994472980499,0.11839242279529572
1782986226038915300,4.471915283203125,1.2262141704559326,0.2209443598985672,-0.03334464132785797
1782986226048989200,4.4819892578125,1.5298904180526733,0.13855361938476562,-0.24462705850601196
1782986226059063300,4.492063232421875,1.6505368947982788,0.02135482244193554,-0.37947729229927063
1782986226069138200,4.50213818359375,1.4960073232650757,-0.43500977754592896,-0.2197243720293045
1782986226079212300,4.51221240234375,1.1808218955993652,-1.0456454753875732,-0.11025300621986389
1782986226089286400,4.522286376953125,0.48093944787979126,-1.5935343503952026,-0.30837035179138184
1782986226099360300,4.5323603515625,-0.4794350266456604,-1.38382887840271,-0.5799352526664734
1782986226109435400,4.542435302734375,-1.1349329948425293,-0.7140001654624939,-0.8504541516304016
1782986226119509200,4.55250927734375,-1.4181220531463623,-0.16235828399658203,-1.085546851158142
1782986226129583400,4.562583251953125,-1.3184775114059448,-0.06571856141090393,-1.2038135528564453
1782986226139658200,4.572658203125,-1.017281174659729,-0.2829238474369049,-1.3951616287231445
1782986226149732400,4.582732421875,-0.7055659294128418,-0.3958389461040497,-1.6919234991073608
1782986226159806200,4.59280615234375,-0.4492608904838562,-0.21473360061645508,-2.099282741546631
1782986226169880300,4.60288037109375,-0.338582843542099,0.16940367221832275,-2.547973871231079
1782986226179955200,4.612955078125,-0.3842898905277252,0.48149898648262024,-2.859487771987915
1782986226190029300,4.623029296875,-0.4732125699520111,0.5885833501815796,-2.845953941345215
1782986226200103200,4.633103271484375,-0.49252259731292725,0.4853166341781616,-2.4935665130615234
1782986226210178300,4.64317822265625,-0.4671293795108795,0.31213393807411194,-1.9045097827911377
1782986226220252200,4.653252197265625,-0.41241899132728577,0.3351966440677643,-1.1158857345581055
1782986226230326500,4.663326416015625,-0.42682188749313354,0.4564783275127411,-0.3107440173625946
1782986226240400400,4.673400390625,-0.5544589757919312,0.5597943067550659,0.3067474067211151
1782986226250475500,4.6834755859375,-0.683293342590332,0.5756004452705383,0.7126344442367554
1782986226260549400,4.69354931640625,-0.7794231176376343,0.5620380640029907,0.8677510619163513
1782986226270623200,4.703623291015625,-0.826070249080658,0.5231037139892578,0.8803696632385254
1782986226280698400,4.713698486328125,-0.8084025382995605,0.34325429797172546,0.8052512407302856
1782986226290772200,4.723772216796875,-0.722963809967041,0.15929006040096283,0.6426292657852173
1782986226300846300,4.733846435546875,-0.6051540970802307,0.10514213144779205,0.43209654092788696
1782986226310920200,4.743920166015625,-0.4986143112182617,0.1370590478181839,0.22853383421897888
1782986226320995300,4.753995361328125,-0.4356822371482849,0.15173546969890594,0.07694245129823685
1782986226331069200,4.764069091796875,-0.4133510887622833,0.2060096263885498,0.004502073861658573
1782986226341143300,4.774143310546875,-0.4157024025917053,0.30914345383644104,0.00800040178000927
1782986226351218200,4.78421826171875,-0.442817360162735,0.3860797882080078,0.09785492718219757
1782986226361292300,4.794292236328125,-0.47958922386169434,0.441690593957901,0.25222131609916687
1782986226371366100,4.8043662109375,-0.516377329826355,0.46017080545425415,0.41694769263267517
1782986226381440500,4.8144404296875,-0.5370288491249084,0.40600183606147766,0.5681321620941162
1782986226391515100,4.82451513671875,-0.5344429016113281,0.34420931339263916,0.7252461314201355
1782986226401589500,4.834589599609375,-0.5140382647514343,0.30120164155960083,0.8486868739128113
1782986226411663400,4.844663330078125,-0.49270159006118774,0.3202802836894989,0.9220308661460876
1782986226421738500,4.854738525390625,-0.4830193817615509,0.42888903617858887,0.9241752028465271
1782986226431812400,4.864812255859375,-0.48880642652511597,0.5582395792007446,0.8989670872688293
1782986226441886200,4.87488623046875,-0.5154657363891602,0.7200090289115906,0.8511031270027161
1782986226451960300,4.884960205078125,-0.5386472344398499,0.7861968278884888,0.7594123482704163
1782986226462035500,4.895035400390625,-0.5252518057823181,0.822182297706604,0.6488733291625977
1782986226472109300,4.905109375,-0.4618232846260071,0.8668099045753479,0.49168238043785095
1782986226482183200,4.91518310546875,-0.3413322865962982,0.9452857971191406,0.3281744122505188
1782986226492258300,4.92525830078125,-0.18637600541114807,1.1414393186569214,0.21131063997745514
1782986226502332200,4.935332275390625,0.027648672461509705,1.3563880920410156,0.1767241656780243
1782986226512406300,4.94540625,0.25599876046180725,1.3808151483535767,0.1422644704580307
1782986226522480000,4.955480224609375,0.47459980845451355,1.2066348791122437,0.0349007248878479
1782986226532555300,4.96555517578125,0.6677250266075134,0.786918580532074,-0.0540752187371254
1782986226542629000,4.975629150390625,0.7477293610572815,-0.02725692093372345,-0.20454594492912292
1782986226552703500,4.985703369140625,0.696672260761261,-0.9348627328872681,-0.5212849974632263
1782986226562778000,4.995778076171875,0.6695517301559448,-1.359096884727478,-0.8304716348648071
1782986226572852500,5.0058525390625,0.7353823781013489,-1.3010077476501465,-0.9874317049980164
1782986226582926300,5.01592626953125,0.8805577158927917,-1.2133058309555054,-1.2404344081878662
1782986226593000400,5.02600048828125,1.0326745510101318,-1.10807204246521,-1.7129675149917603
1782986226603075300,5.036075439453125,1.0960841178894043,-0.5324005484580994,-2.114896297454834
1782986226613149400,5.0461494140625,0.9967079758644104,0.1730055958032608,-2.245690107345581
1782986226623223000,5.05622314453125,0.8072781562805176,0.47261786460876465,-1.9621939659118652
1782986226633298200,5.066298095703125,0.5629413723945618,0.10989374667406082,-1.1289325952529907
1782986226643372000,5.0763720703125,0.23895132541656494,-1.0279154777526855,0.06708130240440369
1782986226653446100,5.086446044921875,-0.1735270470380783,-2.4376604557037354,1.2501072883605957
1782986226663520000,5.09652001953125,-0.473745197057724,-3.5227413177490234,2.0889194011688232
1782986226673595100,5.10659521484375,-0.5433120131492615,-3.5840940475463867,2.2798514366149902
1782986226683669000,5.1166689453125,-0.44088125228881836,-2.498394727706909,1.7791383266448975
1782986226693743000,5.1267431640625,-0.2896033227443695,-0.8482854962348938,0.7615407705307007
1782986226703818000,5.13681787109375,-0.21286699175834656,0.5528544187545776,-0.3609728515148163
1782986226713892000,5.14689208984375,-0.2627248466014862,1.2459686994552612,-1.247165560722351
1782986226723966200,5.15696630859375,-0.42894282937049866,1.213934302330017,-1.6863902807235718
1782986226734041000,5.167041015625,-0.6078500151634216,0.6399360299110413,-1.6961891651153564
1782986226744115200,5.177115234375,-0.7586304545402527,-0.04163799062371254,-1.4535634517669678
1782986226754189300,5.187189208984375,-0.8870550394058228,-0.550898551940918,-1.0637770891189575
1782986226764263200,5.19726318359375,-0.9955636262893677,-0.789910614490509,-0.6545775532722473
1782986226774338300,5.20733837890625,-1.0580490827560425,-0.6339694857597351,-0.29827964305877686
1782986226784412200,5.217412109375,-1.0937477350234985,-0.14448954164981842,0.0057007623836398125
1782986226794486000,5.227486083984375,-1.174261450767517,0.3541546165943146,0.23490040004253387
1782986226804561200,5.23756103515625,-1.2894035577774048,0.6806443333625793,0.3973422944545746
1782986226814635000,5.247635009765625,-1.376663088798523,0.7451972365379333,0.4867169260978699
1782986226824709000,5.257709228515625,-1.4269450902938843,0.6077900528907776,0.5238959789276123
1782986226834783000,5.267782958984375,-1.4341732263565063,0.39855456352233887,0.5080110430717468
1782986226844858000,5.277858154296875,-1.420610785484314,0.1731075942516327,0.44505468010902405
1782986226854932000,5.287931884765625,-1.4294424057006836,-0.0502525195479393,0.3600473999977112
1782986226865006300,5.29800634765625,-1.4524872303009033,-0.20041298866271973,0.26715394854545593
1782986226875081000,5.3080810546875,-1.502348780632019,-0.22292602062225342,0.1871001124382019
1782986226885155300,5.3181552734375,-1.6017951965332031,-0.2245124727487564,0.13182860612869263
1782986226895229200,5.328229248046875,-1.724912405014038,-0.23037302494049072,0.07804739475250244
1782986226905303300,5.33830322265625,-1.8777331113815308,-0.15702849626541138,0.0026519757229834795
1782986226915378200,5.348378173828125,-1.952296257019043,0.025538915768265724,-0.05302007496356964
1782986226925452300,5.358452392578125,-1.8825440406799316,0.232855886220932,-0.13752616941928864
1782986226935526100,5.368526123046875,-1.7704277038574219,0.2788366973400116,-0.21323078870773315
1782986226945601300,5.378601318359375,-1.6736204624176025,0.18062543869018555,-0.21890971064567566
1782986226955675100,5.388675048828125,-1.6015307903289795,0.0351414754986763,-0.18557599186897278
1782986226965749000,5.3987490234375,-1.55338454246521,-0.13225524127483368,-0.14692047238349915
1782986226975823000,5.408822998046875,-1.529113531112671,-0.32202303409576416,-0.09795239567756653
1782986226985898000,5.41889794921875,-1.511815071105957,-0.5116837620735168,-0.028987975791096687
1782986226995972000,5.42897216796875,-1.4811252355575562,-0.5437549352645874,0.0686858519911766
1782986227006046000,5.4390458984375,-1.467819094657898,-0.4796507656574249,0.15946795046329498
1782986227016121000,5.44912109375,-1.5144944190979004,-0.3417051434516907,0.3412981927394867
1782986227026195000,5.45919482421875,-1.5900392532348633,-0.20101432502269745,0.5592382550239563
1782986227036269300,5.469269287109375,-1.67703378200531,0.022342590615153313,0.6451784372329712
1782986227046343200,5.47934326171875,-1.7422401905059814,0.366411030292511,0.5878163576126099
1782986227056418300,5.489418212890625,-1.6741218566894531,0.7923024296760559,0.5216323137283325
1782986227066492200,5.4994921875,-1.4769659042358398,1.0798377990722656,0.6250236630439758
1782986227076566300,5.509566162109375,-1.1505519151687622,0.6599198579788208,0.8557985424995422
1782986227086641200,5.51964111328125,-0.8250265121459961,-0.44286903738975525,1.0338358879089355
1782986227096715300,5.52971533203125,-0.6987407803535461,-1.9044384956359863,0.9019625782966614
1782986227106789000,5.5397890625,-0.8444377779960632,-2.8163626194000244,0.2540314793586731
1782986227116863200,5.54986328125,-0.9617468118667603,-2.2377684116363525,-0.5805131793022156
1782986227126938000,5.559938232421875,-0.8050429821014404,-0.8455930352210999,-0.9264340996742249
1782986227137012200,5.57001220703125,-0.5524903535842896,-0.2838445007801056,-0.9150949120521545
1782986227147086000,5.580086181640625,-0.5627917051315308,-0.4689302146434784,-0.9045721888542175
1782986227157161200,5.5901611328125,-0.8181044459342957,-0.7799628973007202,-0.7691084146499634
1782986227167235000,5.600235107421875,-1.108269453048706,-1.1794623136520386,-0.7861757874488831
1782986227177309000,5.610308837890625,-1.317435383796692,-1.733737587928772,-1.066133975982666
1782986227187383300,5.62038330078125,-1.462752103805542,-2.155489683151245,-1.3848488330841064
1782986227197458000,5.6304580078125,-1.4989327192306519,-2.008587598800659,-1.4748023748397827
1782986227207532300,5.6405322265625,-1.4271610975265503,-1.3494337797164917,-1.2931820154190063
1782986227217606100,5.650606201171875,-1.3855178356170654,-0.6442599296569824,-0.9483678936958313
1782986227227681300,5.660681396484375,-1.4390497207641602,-0.18869295716285706,-0.5675297379493713
1782986227237755100,5.670755126953125,-1.546421766281128,-0.015895608812570572,-0.20621521770954132
1782986227247829200,5.680829345703125,-1.6733876466751099,-0.047389354556798935,0.09905361384153366
1782986227257903000,5.690903076171875,-1.7768278121948242,-0.223648801445961,0.4115856885910034
1782986227267978200,5.700978271484375,-1.854328989982605,-0.6232782006263733,0.6752071976661682
1782986227278052000,5.711052001953125,-1.935774326324463,-1.1946911811828613,0.8643619418144226
1782986227288126200,5.721126220703125,-2.0165915489196777,-1.7746716737747192,0.9434165358543396
1782986227298201000,5.731201171875,-2.0905723571777344,-1.9884811639785767,0.895038366317749
1782986227308275200,5.741275146484375,-2.0986950397491455,-1.6175414323806763,0.6992901563644409
1782986227318349000,5.75134912109375,-2.040618896484375,-0.9501745700836182,0.30430981516838074
1782986227328423000,5.7614228515625,-1.9666024446487427,-0.32459700107574463,-0.18754565715789795
1782986227338498000,5.771498046875,-1.924782395362854,0.07114768028259277,-0.6442348957061768
1782986227348572000,5.781572021484375,-1.9429011344909668,0.20917744934558868,-0.9295840859413147
1782986227358646300,5.791646240234375,-2.001516580581665,0.16185681521892548,-0.9523205757141113
1782986227368721200,5.80172119140625,-2.042821168899536,0.062128350138664246,-0.7518375515937805
1782986227378795300,5.811795166015625,-2.0377843379974365,-0.005396363325417042,-0.40515655279159546
1782986227388869000,5.821869140625,-2.03084397315979,-0.06795534491539001,0.038059234619140625
1782986227398943200,5.831943115234375,-2.0143184661865234,-0.1644994616508484,0.5162330269813538
1782986227409018000,5.84201806640625,-1.991307020187378,-0.2491765320301056,0.9197538495063782
1782986227419092200,5.85209228515625,-1.940781831741333,-0.2878411114215851,1.1676474809646606
1782986227429166000,5.862166015625,-1.914029598236084,-0.2860967218875885,1.2656750679016113
1782986227439241200,5.8722412109375,-1.9512193202972412,-0.32571443915367126,1.2412359714508057
1782986227449315000,5.882315185546875,-1.986810326576233,-0.4406881630420685,1.1913353204727173
1782986227459389200,5.89238916015625,-2.0077569484710693,-0.6267419457435608,1.062840461730957
1782986227469463000,5.902463134765625,-2.007617235183716,-0.8425003290176392,0.8746777176856995
1782986227479538200,5.9125380859375,-1.9656416177749634,-0.9741973876953125,0.6771875023841858
1782986227489612000,5.922612060546875,-1.8982330560684204,-0.9733925461769104,0.4638630151748657
1782986227499686100,5.93268603515625,-1.8284400701522827,-0.8860970735549927,0.23556272685527802
1782986227509761000,5.942760986328125,-1.7855911254882812,-0.6556255221366882,0.06605278700590134
1782986227519835100,5.952835205078125,-1.7854516506195068,-0.40031173825263977,0.031684957444667816
1782986227529909200,5.9629091796875,-1.8432011604309082,-0.31450068950653076,0.057737864553928375
1782986227539983000,5.972983154296875,-1.946389079093933,-0.4341128170490265,0.0849929228425026
1782986227550058200,5.983058349609375,-2.0340464115142822,-0.4964821934700012,0.08353031426668167
1782986227560132000,5.993132080078125,-2.06044602394104,-0.41841748356819153,0.020535102114081383
1782986227570206200,6.003206298828125,-2.0053675174713135,-0.22664272785186768,-0.046549659222364426
1782986227580281000,6.013281005859375,-1.915236473083496,-0.058031611144542694,-0.0088789789006114
1782986227590355200,6.023355224609375,-1.8072144985198975,-0.010942662134766579,0.18520420789718628
1782986227600429000,6.033428955078125,-1.6261078119277954,0.09196215122938156,0.5465728044509888
1782986227610504200,6.043504150390625,-1.3615152835845947,-0.007457117084413767,0.7877547740936279
1782986227620578000,6.053578125,-1.1123334169387817,-0.4570639431476593,0.652438759803772
1782986227630652200,6.063652099609375,-0.9293851852416992,-0.9721429944038391,0.1870630979537964
1782986227640726000,6.07372607421875,-0.7752978801727295,-1.453170895576477,-0.4176616966724396
1782986227650801200,6.08380126953125,-0.6645100712776184,-1.9096367359161377,-0.9199280142784119
1782986227660875000,6.093875,-0.651009202003479,-2.39334774017334,-1.2249736785888672
1782986227670949000,6.10394921875,-0.7550351619720459,-2.456987142562866,-1.4277126789093018
1782986227681024000,6.11402392578125,-0.8671500086784363,-1.7780613899230957,-1.6605511903762817
1782986227691098000,6.12409814453125,-0.8789467215538025,-0.9190044403076172,-1.8248456716537476
1782986227701172200,6.134172119140625,-0.7741338014602661,-0.4062100946903229,-1.6961864233016968
1782986227711246300,6.144246337890625,-0.6909094452857971,-0.45839473605155945,-1.334824562072754
1782986227721321200,6.1543212890625,-0.6616085767745972,-0.9858982563018799,-0.9979711174964905
1782986227731395300,6.164395263671875,-0.6214691400527954,-1.4746249914169312,-0.9069570899009705
1782986227741469200,6.17446923828125,-0.5648577809333801,-1.3943434953689575,-1.2026755809783936
1782986227751544300,6.18454443359375,-0.49720630049705505,-0.72377610206604,-1.9034147262573242
1782986227761618200,6.1946181640625,-0.484659880399704,0.4568439722061157,-2.7450852394104004
1782986227771692000,6.204692138671875,-0.5737607479095459,1.8925697803497314,-3.2150542736053467
1782986227781766100,6.21476611328125,-0.7376940250396729,3.040282964706421,-3.0376057624816895
1782986227791841000,6.224841064453125,-0.8991939425468445,3.3878862857818604,-2.2841744422912598
1782986227801915100,6.2349150390625,-1.0366979837417603,2.889263868331909,-1.1700211763381958
1782986227811989000,6.244989013671875,-1.1402177810668945,1.8151540756225586,0.027289144694805145
1782986227822064000,6.255064208984375,-1.231870174407959,0.7464073300361633,1.090788722038269
1782986227832138000,6.265137939453125,-1.2700194120407104,-0.12635713815689087,1.8638454675674438
1782986227842212000,6.275212158203125,-1.288435459136963,-0.6360041499137878,2.2617297172546387
1782986227852286200,6.2852861328125,-1.3291221857070923,-0.7368942499160767,2.307529926300049
1782986227862361000,6.295361083984375,-1.352895975112915,-0.41244667768478394,2.077775001525879
1782986227872435200,6.305435302734375,-1.3420217037200928,0.11028362810611725,1.689639925956726
1782986227882509300,6.31550927734375,-1.3058950901031494,0.5315818786621094,1.2139878273010254
1782986227892584200,6.325584228515625,-1.2819043397903442,0.7175053954124451,0.7521243691444397
1782986227902658300,6.335658203125,-1.307694911956787,0.6878745555877686,0.3719378709793091
1782986227912732200,6.345732177734375,-1.3675715923309326,0.5327150225639343,0.1053093746304512
1782986227922806000,6.355805908203125,-1.429566502571106,0.3461395800113678,-0.043306995183229446
1782986227932881200,6.365881103515625,-1.48030424118042,0.1881917417049408,-0.059782907366752625
1782986227942955000,6.375955078125,-1.5198252201080322,0.1105845645070076,0.02888304740190506
1782986227953029000,6.386029052734375,-1.5570088624954224,0.173663929104805,0.20742136240005493
1782986227963104300,6.396104248046875,-1.5992625951766968,0.3101820945739746,0.4423356056213379
1782986227973178000,6.40617822265625,-1.6219596862792969,0.3916735053062439,0.6555421352386475
1782986227983252000,6.416251953125,-1.6377873420715332,0.41925719380378723,0.82114177942276
1782986227993326000,6.426326171875,-1.6451009511947632,0.4069203734397888,0.9536140561103821
1782986228003401000,6.43640087890625,-1.6317973136901855,0.35434556007385254,1.0462957620620728
1782986228013475000,6.44647509765625,-1.6129759550094604,0.2895119786262512,1.1154866218566895
1782986228023549200,6.456549072265625,-1.608670711517334,0.2657153010368347,1.182033896446228
1782986228033624000,6.4666240234375,-1.6947108507156372,0.2589532732963562,1.214529275894165
1782986228043698200,6.4766982421875,-1.8218780755996704,0.31063616275787354,1.1810022592544556
1782986228053772300,6.486772216796875,-1.91859769821167,0.45392516255378723,1.097579002380371
1782986228063847200,6.49684716796875,-1.9916177988052368,0.5500836372375488,0.9584823250770569
1782986228073921300,6.50692138671875,-2.0545694828033447,0.5560770630836487,0.7876560091972351
1782986228083995100,6.5169951171875,-2.112283706665039,0.48075971007347107,0.6800957322120667
1782986228094069200,6.5270693359375,-2.1470091342926025,0.3400973975658417,0.721551775932312
1782986228104144100,6.53714404296875,-2.09134578704834,0.017404289916157722,0.821147084236145
1782986228114218200,6.54721826171875,-1.972612738609314,-0.7471567392349243,0.9074193835258484
1782986228124292000,6.5572919921875,-1.764752745628357,-1.7790459394454956,0.9555703997612
1782986228134367200,6.5673671875,-1.4260764122009277,-2.552565574645996,0.9113161563873291
1782986228144441000,6.577441162109375,-1.0659544467926025,-2.6040594577789307,0.7266077995300293
1782986228154515000,6.587514892578125,-0.8570393323898315,-2.106369972229004,0.36073875427246094
1782986228164589000,6.597589111328125,-0.7773098945617676,-1.3677481412887573,0.14870478212833405
1782986228174664000,6.607663818359375,-0.7232381105422974,-0.8797379732131958,0.28751087188720703
1782986228184738000,6.617738037109375,-0.7155628800392151,-1.1517689228057861,0.4959189295768738
1782986228194812200,6.627812255859375,-0.7971986532211304,-1.8625447750091553,0.4548306167125702
1782986228204887000,6.637886962890625,-0.9793511033058167,-2.2158310413360596,0.06886854767799377
1782986228214961200,6.647961181640625,-1.1579445600509644,-1.9282457828521729,-0.47826430201530457
1782986228225035300,6.65803515625,-1.3073556423187256,-1.2741891145706177,-0.9446693062782288
1782986228235109000,6.668109130859375,-1.3917831182479858,-0.6600064039230347,-1.1939188241958618
1782986228245184300,6.678184326171875,-1.4014898538589478,-0.18845273554325104,-1.1835026741027832
1782986228255258000,6.688258056640625,-1.3239127397537231,-0.025856897234916687,-1.0334335565567017
1782986228265332200,6.698332275390625,-1.230889916419983,-0.22906407713890076,-0.8699148893356323
1782986228275407000,6.708406982421875,-1.1925233602523804,-0.6549307107925415,-0.7673161029815674
1782986228285481200,6.718481201171875,-1.2075272798538208,-1.1083567142486572,-0.7304097414016724
1782986228295555000,6.72855517578125,-1.2977490425109863,-1.378587245941162,-0.7035714387893677
1782986228305629000,6.73862890625,-1.42038094997406,-1.3962639570236206,-0.6264758706092834
1782986228315704000,6.7487041015625,-1.5838344097137451,-1.1794583797454834,-0.5450134873390198
1782986228325778200,6.758778076171875,-1.7616981267929077,-0.8121671676635742,-0.4524766504764557
1782986228335852000,6.76885205078125,-1.9278463125228882,-0.5141062140464783,-0.42107000946998596
1782986228345927200,6.77892724609375,-2.0245394706726074,-0.3562350869178772,-0.4696945250034332
1782986228356001000,6.7890009765625,-1.9865703582763672,-0.2620433270931244,-0.450956255197525
1782986228366075100,6.7990751953125,-1.7708543539047241,-0.2979416847229004,-0.2649504244327545
1782986228376149200,6.809149169921875,-1.4679919481277466,-0.5083670616149902,0.014874553307890892
1782986228386224000,6.81922412109375,-1.2079232931137085,-0.7633492946624756,0.3006855249404907
1782986228396298200,6.82929833984375,-1.0651054382324219,-0.9527125954627991,0.5751059055328369
1782986228406372000,6.8393720703125,-0.9843946099281311,-0.9754575490951538,0.8322655558586121
1782986228416447200,6.849447265625,-0.9368193745613098,-0.9592460989952087,1.0250717401504517
1782986228426521000,6.85952099609375,-0.9530848860740662,-0.8605704307556152,1.1208837032318115
1782986228436595200,6.86959521484375,-1.012695550918579,-0.7115095257759094,1.1327323913574219
1782986228446669000,6.8796689453125,-1.0780539512634277,-0.5679505467414856,1.0398259162902832
1782986228456744200,6.889744140625,-1.1137456893920898,-0.48097142577171326,0.8569836616516113
1782986228466818000,6.899818115234375,-1.1275203227996826,-0.45762747526168823,0.6491590738296509
1782986228476892200,6.90989208984375,-1.1425690650939941,-0.48648709058761597,0.4717901647090912
1782986228486967000,6.919967041015625,-1.1627273559570312,-0.518693208694458,0.35959145426750183
1782986228497041200,6.930041259765625,-1.1777225732803345,-0.5417303442955017,0.3190469741821289
1782986228507115000,6.940114990234375,-1.1856390237808228,-0.5726443529129028,0.3365769684314728
1782986228517189000,6.950189208984375,-1.1896028518676758,-0.6020177006721497,0.4036710262298584
1782986228527264000,6.960263916015625,-1.1918140649795532,-0.5845715999603271,0.49988919496536255
1782986228537338000,6.970338134765625,-1.1993540525436401,-0.5299482941627502,0.6029974818229675
1782986228547412200,6.980412109375,-1.2090471982955933,-0.4268578588962555,0.6775444149971008
1782986228557487400,6.9904873046875,-1.214302659034729,-0.2416650950908661,0.6942070126533508
1782986228567561200,7.000561279296875,-1.2024174928665161,-0.03948722034692764,0.6645495295524597
1782986228577635000,7.010635009765625,-1.1714500188827515,0.08174119889736176,0.6118788123130798
1782986228587710200,7.020710205078125,-1.1357516050338745,0.06962115317583084,0.5576755404472351
1782986228597784000,7.0307841796875,-1.1064749956130981,-0.07683059573173523,0.4867275655269623
1782986228607858200,7.040858154296875,-1.0795786380767822,-0.32058414816856384,0.4007037281990051
1782986228617932500,7.0509326171875,-1.032524585723877,-0.6177303194999695,0.28109559416770935
1782986228628007700,7.061007568359375,-0.9854601621627808,-0.8338367938995361,0.050282079726457596
1782986228638081500,7.07108154296875,-0.920518696308136,-0.5905748605728149,-0.2834213376045227
1782986228648155400,7.0811552734375,-0.7352545857429504,-0.08265679329633713,-0.5844141840934753
1782986228658230500,7.09123046875,-0.35226163268089294,0.4434240460395813,-0.5856876969337463
1782986228668304400,7.101304443359375,0.16791710257530212,0.8478138446807861,-0.1512603610754013
1782986228678378500,7.11137841796875,0.6116985082626343,0.6644906401634216,0.5150942206382751
1782986228688452600,7.12145263671875,0.807253897190094,-0.23943735659122467,1.1114028692245483
1782986228698527500,7.131527587890625,0.641528308391571,-1.3653792142868042,1.4658235311508179
1782986228708601600,7.1416015625,0.27571600675582886,-2.089113235473633,1.5404783487319946
1782986228718675700,7.15167578125,-0.07650196552276611,-2.1284372806549072,1.2789822816848755
1782986228728750600,7.16175048828125,-0.2687574326992035,-1.6058640480041504,0.5429418683052063
1782986228738824700,7.17182470703125,-0.2618933916091919,-0.8089351654052734,-0.5103801488876343
1782986228748898600,7.181898681640625,-0.2426142394542694,-0.07477357238531113,-1.734424352645874
1782986228758972700,7.19197265625,-0.37379515171051025,0.5494862794876099,-2.927290439605713
1782986228769047600,7.202047607421875,-0.5725703239440918,1.1069180965423584,-3.646677255630493
1782986228779121700,7.21212158203125,-0.7564850449562073,1.5279630422592163,-3.693227767944336
1782986228789195500,7.222195556640625,-0.8544307351112366,1.6681745052337646,-3.2488956451416016
1782986228799270700,7.232270751953125,-0.8660368323326111,1.4715205430984497,-2.5676686763763428
1782986228809344500,7.242344482421875,-0.9404463171958923,0.9233695864677429,-1.7526603937149048
1782986228819418600,7.252418701171875,-1.0714261531829834,0.18902984261512756,-0.8780644536018372
1782986228829492500,7.262492431640625,-1.2020957469940186,-0.3403184413909912,-0.08559133112430573
1782986228839567600,7.272567626953125,-1.259871244430542,-0.43499913811683655,0.4887142777442932
1782986228849641500,7.282641357421875,-1.2254271507263184,-0.18405026197433472,0.8114140629768372
1782986228859715600,7.292715576171875,-1.147751808166504,0.21169812977313995,0.9414812326431274
1782986228869790500,7.30279052734375,-1.0553404092788696,0.5632500648498535,0.9589707255363464
1782986228879864600,7.312864501953125,-0.9290983080863953,0.757253885269165,0.9564204812049866
1782986228889938700,7.322938720703125,-0.7900943756103516,0.7283647060394287,0.9805737733840942
1782986228900012500,7.333012451171875,-0.7095049619674683,0.5347843170166016,1.040152668952942
1782986228910087700,7.343087646484375,-0.6947484016418457,0.24913978576660156,1.1239922046661377
1782986228920161500,7.35316162109375,-0.7252597212791443,-0.11351990699768066,1.1406534910202026
1782986228930235600,7.363235595703125,-0.7562384009361267,-0.4479559361934662,1.0651535987854004
1782986228940310500,7.373310546875,-0.8004066944122314,-0.6494893431663513,0.9398719072341919
1782986228950384600,7.383384521484375,-0.7716019153594971,-0.482824444770813,0.8093253374099731
1782986228960458500,7.39345849609375,-0.6733611226081848,-0.19910883903503418,0.6321055293083191
1782986228970533600,7.40353369140625,-0.5986016392707825,0.016165120527148247,0.4538218080997467
1782986228980607500,7.413607421875,-0.5811983942985535,0.24596050381660461,0.3257775604724884
1782986228990681600,7.423681640625,-0.5485403537750244,0.332756906747818,0.26676273345947266
1782986229000755500,7.43375537109375,-0.49076706171035767,0.24836081266403198,0.28694388270378113
1782986229010830600,7.44383056640625,-0.4708804190158844,0.05789871886372566,0.37480875849723816
1782986229020904400,7.453904541015625,-0.5096020102500916,-0.16941379010677338,0.49900022149086
1782986229030978600,7.463978515625,-0.5802537798881531,-0.3619544804096222,0.6080598831176758
1782986229041053400,7.474053466796875,-0.6458727717399597,-0.4836297929286957,0.6816251277923584
1782986229051127600,7.48412744140625,-0.6919552683830261,-0.44541794061660767,0.7440693378448486
1782986229061201700,7.49420166015625,-0.7264131307601929,-0.2113516628742218,0.7818215489387512
1782986229071275500,7.504275634765625,-0.7383955121040344,0.16346323490142822,0.8171989917755127
1782986229081350700,7.5143505859375,-0.7229507565498352,0.5332956314086914,0.8383796215057373
1782986229091424500,7.524424560546875,-0.6659620404243469,0.800818920135498,0.8659654259681702
1782986229101498600,7.53449853515625,-0.593324601650238,0.8718555569648743,0.9243890643119812
1782986229111573500,7.544573486328125,-0.5459181666374207,0.6046273112297058,1.0262770652770996
1782986229121647600,7.554647705078125,-0.5648322105407715,0.13103817403316498,1.0547460317611694
1782986229131721500,7.564721435546875,-0.6250734925270081,-0.18593019247055054,1.0002745389938354
1782986229141795600,7.574795654296875,-0.7089515924453735,-0.250080406665802,0.9003034234046936
1782986229151870500,7.584870361328125,-0.740082323551178,-0.20641443133354187,0.7963040471076965
1782986229161944600,7.594944580078125,-0.6823250651359558,-0.15931881964206696,0.724233865737915
1782986229172018400,7.605018310546875,-0.5773839950561523,-0.21919865906238556,0.7046998739242554
1782986229182093600,7.615093505859375,-0.4818207025527954,-0.6748396754264832,0.678059458732605
1782986229192167400,7.62516748046875,-0.34546205401420593,-1.3519878387451172,0.669610321521759
1782986229202241500,7.635241455078125,-0.04873185232281685,-2.258927345275879,0.5302111506462097
1782986229212315600,7.645315673828125,0.3907829225063324,-3.164710760116577,0.15560929477214813
1782986229222390500,7.655390625,0.6538603901863098,-3.4095044136047363,-0.4479080140590668
1782986229232464600,7.665464599609375,0.6522569060325623,-2.295841693878174,-0.9901773929595947
1782986229242538500,7.67553857421875,0.439529687166214,-0.9993559718132019,-1.49576997756958
1782986229252613600,7.685613525390625,0.09890740364789963,0.028558939695358276,-1.8176974058151245
1782986229262687500,7.6956875,-0.27584996819496155,0.5978870987892151,-2.057175397872925
1782986229272761600,7.70576171875,-0.5939653515815735,0.9440011382102966,-2.226116895675659
1782986229282835500,7.71583544921875,-0.854920506477356,1.1242790222167969,-2.317817211151123
1782986229292910600,7.72591064453125,-0.9634382128715515,1.1074517965316772,-2.312892198562622
1782986229302984400,7.735984375,-0.8777595162391663,0.796640932559967,-2.170524835586548
1782986229313058600,7.74605859375,-0.7749559283256531,0.09605276584625244,-1.8910952806472778
1782986229323133400,7.756133544921875,-0.7040950655937195,-0.8679002523422241,-1.579603910446167
1782986229333207600,7.76620751953125,-0.6743574142456055,-1.7732878923416138,-1.3302422761917114
1782986229343281400,7.776281494140625,-0.6699653267860413,-2.167048454284668,-1.166479229927063
1782986229353356500,7.7863564453125,-0.6935518383979797,-1.5793871879577637,-1.1197361946105957
1782986229363430400,7.796430419921875,-0.7610925436019897,-0.2566957175731659,-1.1671513319015503
1782986229373504500,7.80650439453125,-0.8021329045295715,1.0637730360031128,-1.229475975036621
1782986229383578600,7.81657861328125,-0.7457061409950256,1.9485210180282593,-1.1917870044708252
1782986229393653500,7.826653564453125,-0.6688963174819946,2.20662260055542,-1.0335829257965088
1782986229403727600,7.8367275390625,-0.5797416567802429,1.8596049547195435,-0.775109589099884
1782986229413801500,7.846801513671875,-0.4808765947818756,1.109119176864624,-0.4249070882797241
1782986229423876600,7.856876708984375,-0.35673388838768005,0.23036129772663116,-0.057854779064655304
1782986229433950700,7.86695068359375,-0.1834190934896469,-0.4999632239341736,0.2522018849849701
1782986229444024600,7.877024658203125,-0.00042743736412376165,-0.9107846021652222,0.5465129017829895
1782986229454098400,7.887098388671875,0.11768455803394318,-1.0774215459823608,0.840202271938324
1782986229464173600,7.897173583984375,0.1299324333667755,-1.018532395362854,1.0632505416870117
1782986229474247400,7.907247314453125,0.06322397291660309,-0.7241001725196838,1.1593704223632812
1782986229484321500,7.917321533203125,-0.021025655791163445,-0.3624069392681122,1.1620067358016968
1782986229494396400,7.927396484375,-0.07910867035388947,-0.09457311034202576,1.084810733795166
1782986229504470500,7.937470458984375,-0.09354779124259949,-0.03933568671345711,0.9861626625061035
1782986229514544400,7.94754443359375,-0.08990378677845001,-0.17960305511951447,0.8844680190086365
1782986229524618800,7.95761865234375,-0.09042337536811829,-0.47062209248542786,0.7608712315559387
1782986229534693400,7.967693359375,-0.10739303380250931,-0.7109140753746033,0.6320610642433167
1782986229544767700,7.977767822265625,-0.1139683797955513,-0.7620768547058105,0.5416437983512878
1782986229554841600,7.987841552734375,-0.11023303121328354,-0.6850854158401489,0.4701816141605377
1782986229564915700,7.997915771484375,-0.11646749079227448,-0.4662129878997803,0.41729551553726196
1782986229574989600,8.007989501953125,-0.15169338881969452,-0.16096225380897522,0.3559040427207947
1782986229585064700,8.018064697265626,-0.17992235720157623,0.14686773717403412,0.29568013548851013
1782986229595138600,8.028138671875,-0.1875118464231491,0.35499218106269836,0.2772558331489563
1782986229605212400,8.03821240234375,-0.19472581148147583,0.47779133915901184,0.3440694808959961
1782986229615286500,8.04828662109375,-0.22210443019866943,0.4336278736591339,0.4708434045314789
1782986229625360400,8.0583603515625,-0.2733055651187897,0.23883840441703796,0.5999393463134766
1782986229635434800,8.068434814453125,-0.312167763710022,0.0548962727189064,0.6865874528884888
1782986229645508600,8.078508544921876,-0.32187923789024353,-0.12186145782470703,0.6773632764816284
1782986229655583700,8.088583740234375,-0.2608947157859802,-0.33640092611312866,0.6129499673843384
1782986229665657600,8.09865771484375,-0.1975008249282837,-0.4228561818599701,0.5856515169143677
1782986229675731500,8.1087314453125,-0.17505782842636108,-0.14436650276184082,0.6623177528381348
1782986229685805600,8.1188056640625,-0.1499604731798172,0.3865964412689209,0.8347441554069519
1782986229695880400,8.12888037109375,-0.05230901017785072,0.8447269797325134,1.0525411367416382
1782986229705954600,8.13895458984375,0.07370564341545105,0.7861942052841187,1.1451081037521362
1782986229716028400,8.1490283203125,0.16239076852798462,0.14398247003555298,1.108511209487915
1782986229726103600,8.159103515625,0.14068974554538727,-1.0282800197601318,0.9881608486175537
1782986229736177400,8.169177490234375,0.003365170443430543,-2.106058120727539,0.8213180899620056
1782986229746251500,8.17925146484375,-0.036200881004333496,-2.3682351112365723,0.6153971552848816
1782986229756326400,8.189326416015625,0.19350768625736237,-1.7806384563446045,0.40662047266960144
1782986229766400500,8.199400390625,0.6136144399642944,-1.070112943649292,0.1280200183391571
1782986229776474400,8.209474365234374,0.8907365798950195,-0.7092235088348389,-0.35431361198425293
1782986229786548700,8.219548828125,0.8627805709838867,-0.6006461381912231,-1.0956740379333496
1782986229796623400,8.229623291015624,0.5084853172302246,-0.6202459335327148,-1.8294507265090942
1782986229806697700,8.23969775390625,0.019753199070692062,-0.6300498247146606,-2.0441014766693115
1782986229816771600,8.249771484375,-0.4324888288974762,-0.7148773670196533,-1.644669532775879
1782986229826846700,8.2598466796875,-0.7100309729576111,-0.9235251545906067,-0.9857624173164368
1782986229836920600,8.269920654296875,-0.8263301253318787,-1.2511128187179565,-0.4974992573261261
1782986229846994400,8.279994384765626,-0.8487576842308044,-1.3773179054260254,-0.40022650361061096
1782986229857068500,8.290068603515625,-0.7989070415496826,-1.113673210144043,-0.6482341885566711
1782986229867143400,8.300143310546876,-0.6762588620185852,-0.4549456834793091,-1.0510649681091309
1782986229877217500,8.310217529296875,-0.5509659647941589,0.4166739284992218,-1.3840432167053223
1782986229887291400,8.32029150390625,-0.5691739916801453,1.1941499710083008,-1.4692912101745605
1782986229897366500,8.330366455078124,-0.7466260194778442,1.6101889610290527,-1.307166576385498
1782986229907440400,8.3404404296875,-0.9279348254203796,1.5676122903823853,-0.901833176612854
1782986229917514500,8.350514404296876,-0.9866135716438293,1.1287992000579834,-0.3606884181499481
1782986229927589400,8.36058935546875,-0.9165101051330566,0.5522029995918274,0.15335093438625336
1782986229937663500,8.37066357421875,-0.7375994920730591,0.05121711641550064,0.5674362778663635
1782986229947737300,8.3807373046875,-0.4983069896697998,-0.3121488392353058,0.8557700514793396
1782986229957811700,8.390811767578125,-0.31633880734443665,-0.4114903509616852,1.0446100234985352
1782986229967886300,8.40088623046875,-0.23822695016860962,-0.2603234648704529,1.0866857767105103
1782986229977960700,8.410960693359375,-0.2337871938943863,0.07429846376180649,0.9919747710227966
1782986229988034600,8.42103466796875,-0.27693307399749756,0.4010193347930908,0.7947857975959778
1782986229998109700,8.431109619140624,-0.3357849419116974,0.5479872226715088,0.5410565733909607
1782986230008183600,8.44118359375,-0.4026702344417572,0.5248384475708008,0.2815086543560028
1782986230018257700,8.451257568359376,-0.4564543664455414,0.3707146942615509,0.06748024374246597
1782986230028331500,8.46133154296875,-0.48373523354530334,0.14031103253364563,-0.0951898992061615
1782986230038406700,8.47140673828125,-0.49228665232658386,-0.09968238323926926,-0.2035568505525589
1782986230048480500,8.48148046875,-0.4883164167404175,-0.2539936602115631,-0.26965969800949097
1782986230058554400,8.491554443359375,-0.4959394335746765,-0.2687832713127136,-0.2524564862251282
1782986230068629500,8.50162939453125,-0.5339137315750122,-0.2007317692041397,-0.14840012788772583
1782986230078703400,8.511703369140625,-0.5838882327079773,-0.06381679326295853,0.020596088841557503
1782986230088777500,8.521777587890625,-0.6195623278617859,0.11015553027391434,0.22954611480236053
1782986230098851300,8.531851318359376,-0.6391013860702515,0.18971188366413116,0.4384886622428894
1782986230108926500,8.541926513671875,-0.6326653361320496,0.09057863801717758,0.63495272397995
1782986230119000300,8.552000244140626,-0.5961818695068359,-0.193123921751976,0.8236646056175232
1782986230129074700,8.56207470703125,-0.5233311057090759,-0.6192355751991272,1.0200825929641724
1782986230139149300,8.5721494140625,-0.41115903854370117,-1.058529019355774,1.2383973598480225
1782986230149223700,8.5822236328125,-0.27629444003105164,-1.2924435138702393,1.4522854089736938
1782986230159297500,8.592297607421875,-0.16674664616584778,-1.2053440809249878,1.5982215404510498
1782986230169371600,8.60237158203125,-0.10535518825054169,-0.9109800457954407,1.678302526473999
1782986230179446500,8.612446533203125,-0.09938278049230576,-0.4856780171394348,1.6661015748977661
1782986230189520600,8.622520751953125,-0.1352856457233429,-0.1464805155992508,1.5377541780471802
1782986230199594500,8.632594482421876,-0.2039685696363449,0.03347353637218475,1.3474394083023071
1782986230209669600,8.642669677734375,-0.303577721118927,0.12830577790737152,1.1189700365066528
1782986230219743500,8.652743408203126,-0.35061022639274597,0.145006462931633,0.8531617522239685
1782986230229817300,8.6628173828125,-0.345645546913147,0.24702124297618866,0.4968174993991852
1782986230239892500,8.672892578125,-0.3105296492576599,0.5238086581230164,0.14114966988563538
1782986230249966600,8.682966552734374,-0.1915859431028366,0.8019140362739563,-0.006923686247318983
1782986230260040400,8.69304052734375,-0.016706274822354317,0.8287163376808167,0.09636488556861877
1782986230270114300,8.7031142578125,0.07807482779026031,0.09282874315977097,0.2525014877319336
1782986230280189400,8.713189453125,-0.038790538907051086,-0.9013639092445374,0.46182382106781006
1782986230290263300,8.72326318359375,-0.2553934156894684,-1.4393235445022583,0.8228962421417236
1782986230300337700,8.733337646484374,-0.3760457932949066,-0.8270012736320496,1.3025912046432495
1782986230310412300,8.743412353515625,-0.4296365976333618,0.10411202162504196,1.4642014503479004
1782986230320486700,8.753486572265626,-0.5143378973007202,0.6100026369094849,0.9808952212333679
1782986230330560500,8.763560546875,-0.542149007320404,0.630994975566864,0.05362914130091667
1782986230340634600,8.773634521484375,-0.5004811882972717,0.19791202247142792,-1.1476682424545288
1782986230350709500,8.78370947265625,-0.4055842459201813,-0.33072972297668457,-2.4163100719451904
1782986230360783600,8.79378369140625,-0.28978440165519714,-0.557688295841217,-3.2232518196105957
1782986230370857500,8.803857421875,-0.17772206664085388,-0.29146939516067505,-3.154315233230591
1782986230380932600,8.8139326171875,-0.0733138918876648,0.040765006095170975,-2.349562883377075
1782986230391006500,8.82400634765625,-0.040946900844573975,0.19325999915599823,-1.2734354734420776
1782986230401080600,8.83408056640625,-0.12144307792186737,0.3875320255756378,-0.2702203094959259
1782986230411154400,8.844154541015625,-0.30812588334083557,0.628595232963562,0.46110743284225464
1782986230421229600,8.8542294921875,-0.5663923025131226,0.8560907244682312,0.9279627799987793
1782986230431303400,8.864303466796875,-0.8560933470726013,1.037392020225525,1.1608601808547974
1782986230441377300,8.874377197265625,-1.120611548423767,1.137940764427185,1.1800607442855835
1782986230451452400,8.884452392578124,-1.287544846534729,1.100810170173645,1.0326851606369019
1782986230461526300,8.8945263671875,-1.306221604347229,1.0059571266174316,0.7990146279335022
1782986230471600600,8.9046005859375,-1.1592998504638672,0.8607631921768188,0.6080100536346436
1782986230481675500,8.914675537109375,-0.869778037071228,0.6437363624572754,0.5468795895576477
1782986230491749600,8.92474951171875,-0.4977794289588928,0.4066026508808136,0.661999523639679
1782986230501823500,8.934823486328124,-0.1980619579553604,0.07902318239212036,0.8898457288742065
1782986230511897600,8.944897705078125,-0.15384654700756073,-0.39894551038742065,1.1651697158813477
1782986230521972500,8.954972412109376,-0.3455424904823303,-0.8915514945983887,1.3683571815490723
1782986230532046600,8.965046630859375,-0.6432966589927673,-1.0903215408325195,1.3898760080337524
1782986230542120400,8.975120361328125,-0.8572022914886475,-0.9318584203720093,1.224329948425293
1782986230552195600,8.985195556640624,-0.906393826007843,-0.5491832494735718,0.9393983483314514
1782986230562269400,8.99526953125,-0.851023256778717,-0.16648538410663605,0.6025692224502563
1782986230572343600,9.005343505859376,-0.7538149356842041,0.0904899537563324,0.2639802396297455
1782986230582417400,9.01541748046875,-0.663339376449585,0.186195969581604,-0.03933515399694443
1782986230592492500,9.025492431640625,-0.5845681428909302,0.19555245339870453,-0.22822411358356476
1782986230602566400,9.03556640625,-0.5077465772628784,0.1435489058494568,-0.31966906785964966
1782986230612640500,9.045640625,-0.4261188209056854,0.09029500931501389,-0.2835068106651306
1782986230622716700,9.055716552734374,-0.3762545883655548,0.02870621345937252,-0.15538959205150604
1782986230632790500,9.06579052734375,-0.36374786496162415,-0.0318324975669384,0.03464319929480553
1782986230642864600,9.07586474609375,-0.36444002389907837,-0.031677503138780594,0.30150312185287476
1782986230652938500,9.0859384765625,-0.392152339220047,-0.04224998503923416,0.5900140404701233
1782986230663013600,9.096013671875,-0.45187318325042725,-0.0923491045832634,0.8285663723945618
1782986230673087500,9.10608740234375,-0.5109314322471619,-0.1719730943441391,0.997409999370575
1782986230683161900,9.116161865234375,-0.5576515197753906,-0.21835097670555115,1.0542988777160645
1782986230693236500,9.126236572265626,-0.5741495490074158,-0.13728567957878113,0.9995841979980469
1782986230703310800,9.136310791015624,-0.5565681457519531,-0.03418327122926712,0.8285053968429565
1782986230713384700,9.146384765625,-0.5096110701560974,-0.0169086754322052,0.5590878129005432
1782986230723459800,9.1564599609375,-0.43306195735931396,-0.05128023028373718,0.3107219338417053
1782986230733533700,9.16653369140625,-0.3699130713939667,-0.11383868753910065,0.16793307662010193
1782986230743607600,9.176607666015625,-0.3063362240791321,-0.23476935923099518,0.18055540323257446
1782986230753681700,9.186681640625,-0.20883257687091827,-0.2761399745941162,0.39048653841018677
1782986230763756800,9.1967568359375,-0.09988825023174286,-0.25687944889068604,0.7394858002662659
1782986230773830700,9.20683056640625,-0.05784305930137634,-0.40872490406036377,1.0677717924118042
1782986230783904500,9.216904541015625,-0.12454832345247269,-0.7279202342033386,1.2244439125061035
1782986230793979600,9.226979736328126,-0.20347030460834503,-1.0250730514526367,1.1216102838516235
1782986230804053500,9.237053466796874,-0.16732028126716614,-1.1360312700271606,0.7749966382980347
1782986230814127600,9.247127685546875,0.03232704848051071,-0.9709917306900024,0.3126995861530304
1782986230824202500,9.257202392578124,0.41212257742881775,-0.4361341595649719,-0.08734636008739471
1782986230834276600,9.267276611328125,0.8659276366233826,0.03970480337738991,-0.26735207438468933
1782986230844350500,9.2773505859375,1.2034507989883423,0.16283392906188965,-0.38990649580955505
1782986230854424800,9.2874248046875,1.3471394777297974,-0.2215491682291031,-0.5496698021888733
1782986230864499500,9.29749951171875,1.227399230003357,-0.9766916632652283,-0.8209569454193115
1782986230874573800,9.30757373046875,0.9221770167350769,-1.4219317436218262,-1.2885795831680298
1782986230884647700,9.317647705078125,0.6622748970985413,-1.1824626922607422,-1.8632105588912964
1782986230894722800,9.327722900390626,0.5528775453567505,-0.4875235855579376,-2.3264670372009277
1782986230904796700,9.337796630859375,0.6292389035224915,0.1394588202238083,-2.4972965717315674
1782986230914870800,9.347870849609375,0.8412914872169495,0.35104697942733765,-2.4293010234832764
1782986230924944600,9.357944580078126,1.0516718626022339,0.06784642487764359,-2.19157338142395
1782986230935019800,9.368019775390625,1.0903719663619995,-0.42701178789138794,-1.8034425973892212
1782986230945093600,9.37809375,0.8538898825645447,-0.7572869062423706,-1.4135875701904297
1782986230955167500,9.38816748046875,0.49552345275878906,-0.5181645750999451,-1.081623911857605
1782986230965242600,9.39824267578125,0.11771438270807266,0.009153284132480621,-0.8653672933578491
1782986230975316500,9.40831640625,-0.3369476795196533,0.3856496810913086,-0.8205068707466125
1782986230985390600,9.418390625,-0.8436263203620911,0.5990855097770691,-0.828686535358429
1782986230995465500,9.428465576171876,-1.2495405673980713,0.7353901267051697,-0.8240272998809814
1782986231005539600,9.43853955078125,-1.420922875404358,0.7759993076324463,-0.7588648200035095
1782986231015613400,9.448613525390625,-1.3942161798477173,0.7345070242881775,-0.6244286894798279
1782986231025687800,9.458687744140626,-1.268776535987854,0.4994758665561676,-0.4822939336299896
1782986231035762400,9.468762451171875,-1.1007471084594727,0.18521831929683685,-0.3562861979007721
1782986231045836800,9.4788369140625,-0.9309391379356384,-0.03161172196269035,-0.2526240050792694
1782986231055910700,9.48891064453125,-0.8236272931098938,-0.16000084578990936,-0.17066600918769836
1782986231065985800,9.49898583984375,-0.803429365158081,-0.1327338069677353,-0.08198035508394241
1782986231076059600,9.5090595703125,-0.8921722769737244,0.029079854488372803,0.03509540110826492
1782986231086133800,9.5191337890625,-1.0994170904159546,0.13466434180736542,0.15076208114624023
1782986231096207600,9.52920751953125,-1.302907109260559,0.10571683943271637,0.22904357314109802
1782986231106282800,9.53928271484375,-1.4230574369430542,0.0036709012929350138,0.2677291929721832
1782986231116356600,9.549356689453125,-1.4448117017745972,-0.12869912385940552,0.3037921190261841
1782986231126430700,9.5594306640625,-1.3866544961929321,-0.21378019452095032,0.337274432182312
1782986231136505600,9.569505615234375,-1.2829989194869995,-0.2226479947566986,0.3935885727405548
1782986231146579700,9.579579833984376,-1.1608742475509644,-0.2940252423286438,0.514133095741272
1782986231156653600,9.589653564453124,-1.0571353435516357,-0.36291083693504333,0.6551927328109741
1782986231166727400,9.5997275390625,-1.0323165655136108,-0.41001975536346436,0.7224175930023193
1782986231176802600,9.609802490234374,-1.1040102243423462,-0.49945589900016785,0.7133870720863342
1782986231186876400,9.61987646484375,-1.2080460786819458,-0.600286602973938,0.7366032004356384
1782986231196950800,9.62995068359375,-1.3239668607711792,-0.6960698962211609,0.7990109324455261
1782986231207025400,9.640025390625,-1.4839229583740234,-0.7369121313095093,0.8958735466003418
1782986231217099800,9.650099853515625,-1.5956484079360962,-0.6573824286460876,1.0122302770614624
1782986231227173600,9.660173583984376,-1.555685043334961,-0.3986762762069702,1.0745763778686523
1782986231237248800,9.670248779296875,-1.3985310792922974,-0.013544037938117981,1.0476092100143433
1782986231247322600,9.680322509765626,-1.2266865968704224,0.2670825719833374,1.0191302299499512
1782986231257396700,9.690396728515625,-1.0170390605926514,0.39409884810447693,1.0865031480789185
1782986231267470600,9.700470703125,-0.8486163020133972,0.25725364685058594,1.1864771842956543
1782986231277545700,9.710545654296874,-0.8133432269096375,0.0037550569977611303,1.3446768522262573
1782986231287619600,9.72061962890625,-0.8091557025909424,-0.23152190446853638,1.5719993114471436
1782986231297693700,9.730693603515626,-0.7776382565498352,-0.45228278636932373,1.740485429763794
1782986231307768600,9.7407685546875,-0.7154185175895691,-0.5295461416244507,1.7504323720932007
1782986231317842700,9.7508427734375,-0.6267379522323608,-0.46358203887939453,1.5917963981628418
1782986231327916500,9.76091650390625,-0.515028715133667,-0.5304034352302551,1.2074213027954102
1782986231337991700,9.77099169921875,-0.41583794355392456,-0.7763990759849548,0.6458804607391357
1782986231348065500,9.7810654296875,-0.3302604556083679,-0.9771942496299744,0.11991335451602936
1782986231358139400,9.791139404296874,-0.19787633419036865,-0.985515832901001,-0.23262791335582733
1782986231368213800,9.8012138671875,0.024990305304527283,-0.7515384554862976,-0.327449768781662
1782986231378288600,9.81128857421875,0.25986912846565247,-0.44545629620552063,-0.2689398527145386
1782986231388362800,9.82136279296875,0.3736627995967865,-0.4976220428943634,-0.20375952124595642
1782986231398436600,9.8314365234375,0.22143198549747467,-0.8578835129737854,-0.2408594787120819
1782986231408511700,9.84151171875,-0.13229891657829285,-1.0130776166915894,-0.33568212389945984
1782986231418585600,9.851585693359375,-0.453233003616333,-0.7873073816299438,-0.3846597969532013
1782986231428659700,9.86165966796875,-0.5953555107116699,-0.38766518235206604,-0.3191252648830414
1782986231438734600,9.871734619140625,-0.6136831045150757,-0.11980842798948288,-0.31500083208084106
1782986231448808700,9.88180859375,-0.581527054309845,-0.06866481155157089,-0.5589445233345032
1782986231458882600,9.891882568359375,-0.5392328500747681,-0.06554625183343887,-0.9977548718452454
1782986231468956700,9.901956787109375,-0.5046687722206116,-0.05149728059768677,-1.5352226495742798
1782986231479031600,9.912031494140624,-0.4726026952266693,-0.05263897776603699,-2.0509512424468994
1782986231489105700,9.922105712890625,-0.36027881503105164,-0.09776783734560013,-2.3850173950195312
1782986231499179500,9.932179443359376,-0.1761995255947113,-0.15887939929962158,-2.4709725379943848
1782986231509254700,9.942254638671875,-0.019222963601350784,-0.05395324528217316,-2.2441039085388184
1782986231519328500,9.95232861328125,-0.01058952696621418,0.07448329031467438,-1.7616280317306519
1782986231529402600,9.962402587890624,-0.16706807911396027,0.2444813847541809,-1.0683726072311401
1782986231539476700,9.972476806640625,-0.4790363609790802,0.01571371592581272,-0.25700411200523376
1782986231549551600,9.982551513671876,-0.8143081068992615,-0.33301496505737305,0.17415794730186462
1782986231559625700,9.992625732421875,-1.106483817100525,-0.42782509326934814,-0.00993092730641365
1782986231569699600,10.002699462890625,-1.33363938331604,-0.08376093953847885,-0.5191518068313599
1782986231579774700,10.012774658203124,-1.2686893939971924,0.30601373314857483,-0.9562790989875793
1782986231589848600,10.0228486328125,-0.9937193989753723,0.4840039610862732,-1.2102916240692139
1782986231599922700,10.032922607421876,-0.7248266935348511,0.661841869354248,-1.0048085451126099
1782986231609997800,10.042997802734375,-0.4752269685268402,0.5869266390800476,-0.5266584753990173
1782986231620071700,10.05307177734375,-0.2964385747909546,0.3349233865737915,0.12943309545516968
1782986231630145000,10.06314501953125,-0.16533222794532776,-0.10029198229312897,0.7285990715026855
1782986231640219000,10.073218994140625,-0.06531774997711182,-0.365814208984375,1.156609296798706
1782986231650294000,10.0832939453125,-0.008101335726678371,-0.35434690117836,1.4869831800460815
