time,seconds_elapsed,z,y,x
1782986355401325300,0.0733251953125,-6.47860155583322,-10.599829837691784,2.907089515478909
1782986355411400200,0.083400146484375,-7.2952569616585965,-11.557487120878696,3.029816023698449
1782986355421474600,0.093474609375,-6.572901303252578,-11.526102971577643,2.4274228156261146
1782986355431548400,0.10354833984375,-5.5641679128229615,-11.491349638104438,1.686243360415101
1782986355441622300,0.113622314453125,-6.332214478302002,-10.211567017686367,1.2696683458998799
1782986355451697400,0.123697509765625,-7.956704854637384,-6.862770384523272,0.41049339304659516
1782986355461771300,0.133771240234375,-8.900250610363482,-3.0438544859230516,-0.35638569955565036
1782986355471845400,0.143845458984375,-8.49502788772881,-0.2728811215907335,-0.5773497330348938
1782986355481920300,0.153920166015625,-7.188667056986689,0.8298089019089937,-0.48999410566501317
1782986355491994400,0.163994384765625,-6.220886439192295,0.9985261769309639,-0.4749607141189277
1782986355502068200,0.174068115234375,-5.161418886825442,1.3197598260194063,-0.8425655076295137
1782986355512142300,0.184142333984375,-3.4458313585042952,1.416830207195878,-1.5897113238990306
1782986355522217200,0.19421728515625,-1.3889198714852333,0.9132178374797105,-2.1988301869645714
1782986355532291300,0.204291259765625,0.30074644911587234,0.5162704834982752,-1.8717767456814645
1782986355542365400,0.214365478515625,1.656338051494956,0.8045680776685475,-1.0647976613484322
1782986355552440300,0.2244404296875,2.7453134378969666,1.2816738409921526,-0.07430332663841545
1782986355562514400,0.234514404296875,3.7233325411111116,1.566642290739715,0.8389191870164125
1782986355572588500,0.244588623046875,4.283886110711097,1.709645571051538,1.318716162185371
1782986355582662400,0.254662353515625,4.334789199474454,1.9301023856610058,1.2984963809773324
1782986355592737500,0.264737548828125,4.263959759491682,2.0600638135701415,0.9254428205415606
1782986355602811400,0.274811279296875,4.220432167932391,1.983426564091444,0.3900480959869921
1782986355612885200,0.28488525390625,4.366717538654804,1.8471882478699087,-0.04297974841818213
1782986355622960400,0.29496044921875,4.661100882479548,1.774746988776326,-0.3276901317514479
1782986355633034200,0.3050341796875,4.6010599630147215,1.758694848641753,-0.5009652162082493
1782986355643108400,0.3151083984375,4.230469577822089,1.8377727692708372,-0.5920807075683027
1782986355653182200,0.32518212890625,4.056339922362565,2.1695903562158345,-0.595188172064349
1782986355663257300,0.33525732421875,4.223300416845083,2.527536363890767,-0.31132147301360963
1782986355673331200,0.345331298828125,4.5612680508524175,2.753376625104248,0.18413009433969854
1782986355683405300,0.3554052734375,4.867906480616331,2.8555680025562644,0.5416197365492582
1782986355693480200,0.365480224609375,5.053500948420167,3.0591011548936367,0.6134598879445344
1782986355703554300,0.37555419921875,5.141413625150919,3.2971134999379514,0.5635081816218793
1782986355713628400,0.38562841796875,5.065358559474348,3.329690366154909,0.3952907458808273
1782986355723702500,0.39570263671875,4.902984223738312,3.199607942214608,0.076474094806239
1782986355733777400,0.40577734375,4.719016480353474,2.9471447547525167,-0.4643326448597014
1782986355743850000,0.41585009765625,4.733024547439813,2.7597750939697026,-0.9617644993100315
1782986355753923800,0.425923828125,4.741096794736385,2.599877962002158,-1.2518471502661703
1782986355763999000,0.4359990234375,4.557603683125972,2.4375866283744574,-1.2392618094593286
1782986355774072800,0.44607275390625,4.191949000769854,2.043513076263666,-1.0475713628679513
1782986355784147000,0.45614697265625,3.4139667322099205,1.3899351860076188,-0.7860008859731257
1782986355794221800,0.466221923828125,2.146370224148035,0.813705908370018,-0.4137414715897292
1782986355804296000,0.4762958984375,0.3711053489774465,0.3928612537115812,0.0021708594993688165
1782986355814369800,0.486369873046875,-1.7044547244101762,-0.06799860047101974,0.2553494104228914
1782986355824444000,0.49644384765625,-3.605011866635084,-0.6921621801942587,0.409316056362912
1782986355834518800,0.506518798828125,-5.266370961162448,-1.522928528958559,0.9070134298816322
1782986355844593000,0.516593017578125,-6.410665499204397,-2.5136276655256746,1.9238805885367094
1782986355854667000,0.5266669921875,-6.87073858692348,-3.6240655266731974,3.0812963278278707
1782986355864742100,0.5367421875,-6.333571738129854,-4.926182728496194,3.37974472913444
1782986355874816000,0.54681591796875,-5.596309017971158,-6.645031888961792,3.0851974269196387
1782986355884889900,0.556889892578125,-5.630818605816364,-8.302624908953904,2.9148224478185174
1782986355894964000,0.5669638671875,-6.685352208912372,-9.378384255430102,2.783238094882667
1782986355905038800,0.577038818359375,-7.6528779751628635,-9.730244805711507,2.273555026950687
1782986355915113000,0.587113037109375,-7.453920167917013,-9.481496254858374,1.9326169988304376
1782986355925186800,0.597186767578125,-6.872623085495829,-9.839278011882305,1.9360884743332862
1782986355935262000,0.607261962890625,-7.811401480689645,-8.93119695276916,1.6581069608636199
1782986355945335800,0.617335693359375,-10.356209297376871,-5.766955507490039,0.974458195862174
1782986355955410000,0.627409912109375,-12.691837188011407,-2.8877146606624127,0.29644546398632227
1782986355965484800,0.63748486328125,-12.731043409240245,-1.075796755877137,-1.0131856936633585
1782986355975559000,0.647558837890625,-10.52404423660636,-1.0891998428076506,-2.691328457470238
1782986355985633000,0.657633056640625,-6.714500561985373,-2.1684768420159815,-3.4007644285485146
1782986355995707100,0.66770703125,-2.9822219133526087,-3.544436109641194,-3.289258694784343
1782986356005782000,0.677781982421875,0.20045593684911728,-2.021340407422185,-3.232636643852293
1782986356015856000,0.687856201171875,1.917283820620179,-0.18695874189436434,-2.6278230767652393
1782986356025930000,0.697929931640625,2.0949615239501,0.4440063345372677,-0.46056204027980563
1782986356036005000,0.708005126953125,2.1260481516093015,0.8356231411457061,1.6019623181849718
1782986356046079000,0.718078857421875,2.606191382932663,1.5037351681888103,2.6832296144276855
1782986356056152800,0.72815283203125,3.2431378718614576,2.355476500442624,2.782585476192832
1782986356066227000,0.73822705078125,3.937484410357475,2.782150591906905,2.2858834703870117
1782986356076301800,0.7483017578125,4.66145159561336,2.8904356100589035,1.507458280365169
1782986356086376000,0.7583759765625,5.488263069272041,2.8785686466544864,0.5930399079892784
1782986356096449800,0.76844970703125,6.232453542867303,2.9087592022567987,-0.4072202531274408
1782986356106525000,0.77852490234375,6.7301376915782685,3.1111008067220447,-1.1656053293570876
1782986356116598800,0.788598876953125,7.0307678208380935,3.3646529584646223,-1.5082327718690036
1782986356126673000,0.7986728515625,7.230245852565765,3.548483923727274,-1.5298314402148128
1782986356136747000,0.8087470703125,7.339765965470671,3.679118136331439,-1.2810071937769651
1782986356146822000,0.81882177734375,7.362027481639385,3.8500942961961027,-0.8621373463228345
1782986356156896000,0.82889599609375,7.231713587030768,4.091354537120461,-0.3842465335687622
1782986356166970000,0.83897021484375,6.956183996757865,4.251271542832255,-0.021655102107627316
1782986356177045000,0.849044921875,6.707204559758305,4.36636916360855,0.15559486819636076
1782986356187119000,0.859119140625,6.610291414970159,4.4050276878267525,-0.010910498363221995
1782986356197193000,0.86919287109375,6.520174506193399,4.389078423544764,-0.308109232968837
1782986356207266800,0.879266845703125,6.4935810983002185,4.1821337091982365,-0.7076676462315022
1782986356217342000,0.889342041015625,6.975545115309953,3.9584892044633624,-1.0916568075057118
1782986356227416000,0.899416015625,7.210830373477935,3.524342585161328,-1.23084820137918
1782986356237490000,0.909489990234375,6.230202549070119,3.6319337758302686,-0.849052385430783
1782986356247565000,0.91956494140625,5.048426713895798,3.956095587325096,-0.5746568406891077
1782986356257639000,0.929638916015625,4.491003843536973,4.0863025144279,-0.7233763797558843
1782986356267712800,0.939712646484375,4.416993435430527,3.8734278255105017,-0.7342953947857022
1782986356277787000,0.949786865234375,4.414867529317736,3.6054181093484163,-0.3566130055055022
1782986356287861800,0.95986181640625,4.283962683078647,3.1645202622205018,-0.09763459093049168
1782986356297936000,0.969935791015625,3.3596617260485884,2.317271565210819,0.08596005395879038
1782986356308010000,0.980010009765625,1.7062842779248952,1.5775924315601586,0.0784112186149694
1782986356318084900,0.9900849609375,-0.08143909680247306,1.3479711905032397,0.148102083021868
1782986356328159000,1.000158935546875,-1.7294734303325414,0.9557382978230714,0.9999991720929742
1782986356338233000,1.010233154296875,-3.63827233120203,-0.20036884308755396,2.493333650037646
1782986356348307000,1.020306884765625,-5.404034634011984,-1.8121505444973707,3.7492864820569753
1782986356358382000,1.030382080078125,-6.056785425794124,-3.761314188981056,4.660751338389516
1782986356368456000,1.0404560546875,-5.894345039084554,-6.019195992112159,4.841623453846574
1782986356378530000,1.050530029296875,-6.192021579235792,-7.870307843166589,4.191234715020657
1782986356388605000,1.06060498046875,-7.360587804225086,-8.599798175758123,3.2516891348466275
1782986356398679000,1.070678955078125,-8.382284136602282,-9.222355489328503,2.341471209835261
1782986356408753000,1.0807529296875,-8.177267175447941,-9.858465527433156,0.7012287722904235
1782986356418828000,1.090828125,-8.322286471757293,-10.597012442183495,-1.1069535261631012
1782986356428902000,1.10090185546875,-10.2406341222167,-10.025186367940902,-1.861841042600572
1782986356438975700,1.110975830078125,-12.033044777977466,-7.102468782958388,-1.4557139184720813
1782986356449049900,1.1210498046875,-11.587359696573019,-3.886685951012373,-0.00617065145894885
1782986356459125000,1.131125,-9.374644484379887,-2.106041136369109,1.9111691371321677
1782986356469198800,1.14119873046875,-6.8579182683169835,-1.2461059762656688,2.8324095375478264
1782986356479273000,1.15127294921875,-5.145467284455895,-0.5881704753220081,2.4198446354568004
1782986356489347800,1.161347900390625,-3.8816976412057875,-0.07154284894913435,1.305162853129208
1782986356499422000,1.171421875,-2.23946176482141,0.38341216510385273,0.3030159284178167
1782986356509496000,1.18149609375,-0.22480361164212226,0.4425961754783988,-0.6377129432566464
1782986356519570000,1.19156982421875,1.7254776386946438,0.4310524526789784,-1.328297206609696
1782986356529645000,1.20164501953125,3.340373088210821,0.3480763555675745,-1.8364599331066012
1782986356539719000,1.211718994140625,4.489689838328958,0.531617982494831,-2.0946584493502973
1782986356549793000,1.22179296875,5.2990065718293184,0.8787395215556025,-2.0595202082127333
1782986356559868000,1.231867919921875,5.829807392722368,1.2144207981914281,-1.9450179229810833
1782986356569942000,1.24194189453125,6.026252340364456,1.3503735754698514,-1.6935126207657158
1782986356580015900,1.252015869140625,5.957709550014138,1.2165543030887842,-1.4941916792958974
1782986356590090000,1.262090087890625,5.7923389550715685,1.185058217845857,-1.3703339750893413
1782986356600164900,1.272164794921875,5.759301193344593,1.3743711216509342,-1.2915759340643882
1782986356610239000,1.282239013671875,5.904409336981177,1.3984557615935802,-1.2574893939368426
1782986356620312800,1.292312744140625,5.9945309219330545,1.4652929170697926,-1.1839429500803351
1782986356630388000,1.302387939453125,6.164655433404445,1.6849813776552676,-0.9847826059997081
1782986356640461800,1.3124619140625,6.268132759013771,1.8321791870474815,-0.7202364742949604
1782986356650536000,1.322535888671875,6.116692489746213,1.9878066788718103,-0.43996652109455314
1782986356660610800,1.33261083984375,5.964155072891712,2.0045897636294363,-0.465284209963493
1782986356670685000,1.342684814453125,5.999047522574663,1.965011494217813,-0.7759901448946446
1782986356680759000,1.352759033203125,6.118465929159521,2.0115695395141837,-1.2063230511274188
1782986356690833000,1.3628330078125,6.243049755683541,2.0522984402656554,-1.5621762512415647
1782986356700908000,1.372907958984375,6.330356283214688,2.173367828927934,-1.787940524609387
1782986356710982000,1.38298193359375,6.378741251677274,2.390706803777814,-1.9156401450663805
1782986356721056000,1.393055908203125,6.264801568764447,2.6458435943633316,-1.9606321100898085
1782986356731131000,1.403130859375,5.964508124113083,2.8807155955553054,-1.9976452051885425
1782986356741205000,1.413205078125,5.570676564064621,3.2136265306949614,-1.9773520664833486
1782986356751279400,1.423279296875,5.322034396195411,3.4909994107469915,-1.8241370426282286
1782986356761353500,1.433353515625,5.376534632667899,3.441086794325709,-1.8960862804211676
1782986356771428400,1.443428466796875,5.467603727602959,3.127326549857855,-2.201158045390248
1782986356781502500,1.45350244140625,5.118396322178841,2.6665187181234358,-2.5787203154221174
1782986356791576300,1.463576416015625,3.9212703576594587,2.0615175195097923,-3.2621821795493364
1782986356801651500,1.4736513671875,1.8235165726423261,1.5414841763466596,-4.046494235652685
1782986356811725300,1.483725341796875,-0.8700257614850997,1.122101410934329,-4.351862207089364
1782986356821799400,1.49379931640625,-4.059574666500091,0.6223237970754504,-3.8966412355765696
1782986356831873500,1.50387353515625,-7.3651909141063685,0.011809387998282909,-2.117692995718121
1782986356841948400,1.513948486328125,-10.381866301202773,-1.5693082950785755,0.9785904733613133
1782986356852022500,1.5240224609375,-13.00817458949089,-4.17712903277874,4.165531826226413
1782986356862096400,1.534096435546875,-15.27796193447113,-6.875809314316511,5.554856479120255
1782986356872171500,1.544171630859375,-17.48846005513668,-8.454088559097052,5.2566562073558565
1782986356882245600,1.55424560546875,-20.532921274781227,-8.156411434423923,4.2065763687983155
1782986356892319500,1.564319580078125,-23.087422217965123,-7.41201754721105,2.4745287040635944
1782986356902393300,1.574393310546875,-23.317660714137553,-8.567550103104114,1.2096866823416204
1782986356912468500,1.584468505859375,-21.552636077952382,-10.453934343069792,1.067989516192302
1782986356922542300,1.594542236328125,-18.024111238670347,-9.842798002701997,0.44602081616483624
1782986356932616400,1.604616455078125,-14.065904358279704,-8.048729642862082,0.14812807597965003
1782986356942691300,1.61469140625,-11.242729097545146,-6.216802384749054,0.8255767442319542
1782986356952765400,1.624765380859375,-9.09787395413518,-4.11895975240469,1.1428656742826104
1782986356962839300,1.63483935546875,-6.8075874264836305,-2.172299030652642,1.0996456143025308
1782986356972913400,1.644913330078125,-4.048736461621522,-1.0042027612626552,1.2321505161494015
1782986356982988300,1.65498828125,-0.6512333729565143,-0.6684642014816403,1.3577341673657297
1782986356993062400,1.6650625,2.4746529149651524,-0.4609954632610082,1.3124183772154152
1782986357003136500,1.675136474609375,5.0651189054995776,-0.36594139034301043,0.8266505840085446
1782986357013211400,1.68521142578125,6.893254954636096,-0.02596446233987808,0.27176614608615635
1782986357023285500,1.695285400390625,8.044536282825469,0.5812406760588288,-0.16990224702283738
1782986357033359600,1.705359619140625,9.015111499774456,1.1391647739380597,0.6422760133884847
1782986357043434500,1.7154345703125,9.810243640577793,1.5319801426813004,1.6558396004535256
1782986357053508600,1.725508544921875,10.258719229483605,1.899644703555107,2.338103925359249
1782986357063582500,1.73558251953125,10.4929722219944,1.952469115769863,2.9156390248984096
1782986357073656300,1.74565625,10.995969674682616,1.962984080043435,2.8662501400902864
1782986357083731500,1.7557314453125,11.60272443896532,2.0944152882441878,2.0015461581498384
1782986357093805300,1.765805419921875,12.036283029246329,1.9874626877397297,0.8954787671715021
1782986357103879400,1.77587939453125,12.272538593751191,1.9637787375524638,-0.09220219061821698
1782986357113954300,1.785954345703125,12.16026830535531,2.1546476386278868,-0.61293644859232
1782986357124028400,1.7960283203125,11.69222409262657,2.3001532571494576,-0.7370745771754532
1782986357134102300,1.806102294921875,10.961826582062244,2.563437990616262,-0.8626660463720559
1782986357144176400,1.81617626953125,10.169325958806276,2.682255216437578,-0.9524025044638663
1782986357154251300,1.826251220703125,9.463370231059193,2.716093480892479,-1.1750872242558748
1782986357164325400,1.836325439453125,9.154981742757558,3.0757153128251433,-1.6985086754873393
1782986357174399500,1.8463994140625,8.830703611406683,3.2329218905344606,-2.0847920121133328
1782986357184474400,1.856474365234375,8.528902684801816,3.384509751579165,-2.223966820178181
1782986357194548500,1.866548583984375,8.12441470618248,3.498670968288183,-2.0795950279921294
1782986357204622600,1.87662255859375,7.495264570218324,3.5573990515887735,-1.686661731957644
1782986357214696400,1.886696533203125,6.9162003614157435,3.6306568877622483,-1.311665513021499
1782986357224771600,1.896771484375,6.443721965631842,3.6372982254728674,-1.3242542148292065
1782986357234845400,1.906845458984375,5.9709267589837305,3.7754108111336824,-1.4394006431832909
1782986357244919600,1.91691943359375,5.414534400716423,3.9008746353626247,-1.4378236031249165
1782986357254994400,1.926994384765625,4.970236389756202,3.84484002892971,-1.4643058057285845
1782986357265068500,1.937068603515625,4.7772956508427855,3.659623162266612,-1.551937911952287
1782986357275142400,1.947142333984375,4.80889841133058,3.265412539772689,-1.9218981825478374
1782986357285216300,1.95721630859375,4.755582416206598,2.9223399838417765,-2.398523761139065
1782986357295291400,1.96729150390625,3.527390866816044,2.779501538702845,-2.3674895943194625
1782986357305365200,1.977365234375,0.9450625900298356,2.5757512364834545,-2.0232422955207525
1782986357315439400,1.987439453125,-1.3158055354356766,2.553082893079519,-2.036217658558488
1782986357325514200,1.99751416015625,-3.424686279144883,1.9692153756484387,-1.582887469228357
1782986357335588400,2.00758837890625,-5.036674316781759,-0.031765549834072586,-0.019041860002465546
1782986357345662500,2.017662353515625,-6.296205591809749,-2.921002013236284,2.585537301960587
1782986357355736600,2.027736572265625,-7.557301047414541,-5.480981095570326,4.443918267235159
1782986357365811500,2.0378115234375,-8.607834182697534,-7.65030958597958,4.298069534364342
1782986357375885600,2.047885498046875,-11.628209593355654,-9.64155997556448,3.8577845584377646
1782986357385959400,2.05795947265625,-16.269762310278416,-9.499843812453745,3.179596835321188
1782986357396034600,2.06803466796875,-19.410993466848133,-7.860271602320671,2.5000132739320398
1782986357406108400,2.0781083984375,-20.439617552661893,-7.329438048201799,2.4260993119373917
1782986357416182500,2.0881826171875,-20.401964990615845,-8.893405859035253,2.4541940643042324
1782986357426256400,2.09825634765625,-20.098036988854407,-9.417721994084118,1.681117249573022
1782986357436331500,2.10833154296875,-18.85041710089445,-7.422778010678291,0.6523387038499117
1782986357446405400,2.1184052734375,-16.595595854377745,-4.946523505735397,0.46719292966164644
1782986357456479200,2.128479248046875,-13.586502885234355,-2.9975840253964066,1.071550204348564
1782986357466554400,2.138554443359375,-9.978326417088509,-1.814816841097176,1.2723083390146492
1782986357476628500,2.14862841796875,-6.908342049130797,-1.1338625758767127,0.5953541397484019
1782986357486702300,2.158702392578125,-4.939274849781394,-0.49233781924694775,-0.31238238024339077
1782986357496777500,2.168777587890625,-3.3120617704838513,-0.031551907083392144,-1.1793585448995232
1782986357506851300,2.178851318359375,-1.4211077383846045,0.24870441945046184,-1.8310756097197531
1782986357516925400,2.188925537109375,0.6601964316129684,0.23287556667774914,-2.070400498667359
1782986357526999600,2.19899951171875,2.912407787892222,0.05596972450315952,-2.071789761068672
1782986357537074400,2.209074462890625,5.1790498205840585,-0.12528379148691893,-2.003906165279448
1782986357547148500,2.2191484375,6.862638282576203,0.0678781889617443,-1.827418548516929
1782986357557222400,2.229222412109375,7.773589928689598,0.746125533311069,-1.7450222971200942
1782986357567297500,2.239297607421875,8.037185335540771,1.2623469169706105,-1.2232785698425024
1782986357577371400,2.249371337890625,8.120256417459249,1.641787255834043,-0.43504386040270326
1782986357587445500,2.259445556640625,8.14808024393022,1.8666700701922176,-0.29516090406849976
1782986357597519400,2.269519287109375,8.140588426870107,2.2583292546376583,-0.7482243322212249
1782986357607594500,2.279594482421875,7.990315447816252,2.60103969925791,-1.1744362860664725
1782986357617668400,2.28966845703125,7.712006455957889,2.596222654365003,-1.0622275185994803
1782986357627742500,2.299742431640625,7.474680631873011,2.5217948976293205,-0.8018206786565483
1782986357637817300,2.3098173828125,7.375450442314148,2.46106161198616,-0.7382203862097114
1782986357647891500,2.319891357421875,7.472530760362744,2.438271395768225,-0.6380233974453061
1782986357657965300,2.32996533203125,7.6795906255215405,2.4259689635559916,-0.4460285610798746
1782986357668039400,2.340039306640625,7.889565501344204,2.3571596312239764,-0.19096878125332295
1782986357678114300,2.3501142578125,7.997539553850888,2.292703817926347,0.019001272263750434
1782986357688188400,2.3601884765625,8.083031140914558,2.3260323792934416,-0.21099395320471376
1782986357698262500,2.370262451171875,8.071122676455975,2.5298732824057337,-0.5554061237089336
1782986357708337400,2.38033740234375,7.874173286423087,2.7677909349039194,-0.9886508257351815
1782986357718411500,2.39041162109375,7.482858677631616,2.8484651848137377,-1.3300827748522162
1782986357728485400,2.4004853515625,7.075602987864613,2.5473949105709788,-1.5251381678320466
1782986357738559500,2.4105595703125,6.841250042110681,2.1861945772752165,-1.616995636665821
1782986357748634000,2.420634033203125,6.8270566815853115,2.2324784818053245,-1.791403524544835
1782986357758708200,2.430708251953125,7.164705166640878,2.449588324074447,-2.008958480232954
1782986357768782000,2.440781982421875,7.58557670930624,2.5160987318143246,-1.9821932229042052
1782986357778857200,2.450857177734375,7.815866058883071,2.3483444566056133,-1.5934142700701952
1782986357788931000,2.46093115234375,7.870494890171289,2.0814201975926756,-1.1657235489092768
1782986357799005200,2.471005126953125,7.514476051166653,1.8599030602753162,-1.2037593381192535
1782986357809079300,2.481079345703125,6.381637557640671,1.5546663140028714,-1.860434975194931
1782986357819154200,2.491154296875,4.6177392951369285,1.0926882694453,-2.68223300460577
1782986357829228300,2.501228271484375,2.6083903542816635,0.49972734497636556,-2.773191332642734
1782986357839302100,2.51130224609375,0.4970785840332508,-0.07919716309458016,-2.055776345509291
1782986357849377300,2.521377197265625,-2.468912325486541,-0.4793646481662988,-0.5534694565579295
1782986357859451100,2.531451171875,-6.672851039257645,-1.3154443009078503,1.2774904178276658
1782986357869525200,2.541525146484375,-11.942517534834145,-2.512593938563764,2.6293314355015753
1782986357879599000,2.55159912109375,-16.08657315005064,-3.1107898410767314,3.0321906438753006
1782986357889674200,2.56167431640625,-16.879597504919765,-3.8438340667575597,2.7264117535501717
1782986357899748000,2.571748046875,-15.662530576133728,-5.633658213156461,2.22801039648056
1782986357909822200,2.581822265625,-15.169429079037904,-7.198862872308492,1.1494276631467044
1782986357919897000,2.59189697265625,-14.2356658816576,-8.0198636138618,-0.38672976521924135
1782986357929971200,2.60197119140625,-12.031931848299502,-9.165828130942582,-1.467434166882187
1782986357940045000,2.612045166015625,-9.639197338086365,-10.530397989547252,-2.224831620313972
1782986357950119200,2.622119140625,-7.883018856179714,-11.622201877373456,-3.129026924034953
1782986357960194000,2.632194091796875,-7.917581635516881,-10.48883146892786,-4.026429937267303
1782986357970268200,2.64226806640625,-9.92449662722349,-6.500225943142175,-3.714071376290917
1782986357980342300,2.65234228515625,-12.209679109734296,-2.578253574693203,-1.2920564110577106
1782986357990417200,2.662417236328125,-13.367365628790855,-0.364903279466927,1.5831430514246225
1782986358000491300,2.6724912109375,-13.57843648315668,0.5868187684521079,2.5477242886558176
1782986358010565400,2.6825654296875,-12.94218908240795,0.8304425236374139,2.426351679263264
1782986358020639200,2.69263916015625,-10.838900459617376,0.9767641347169875,2.2616854331977665
1782986358030714400,2.70271435546875,-6.8723793398678295,1.320898182399571,1.5689118431068956
1782986358040788200,2.712788330078125,-1.8432985469549894,1.336053081433475,1.040353248182684
1782986358050862000,2.722862060546875,3.291583046078682,1.1780480468228458,0.6383779830366373
1782986358060937200,2.732937255859375,7.6362775534957645,1.0922475399404763,0.2725826501008123
1782986358071011000,2.743010986328125,10.336709647136926,1.190301086935401,-0.3048477469548583
1782986358081085200,2.753085205078125,11.664276932036875,1.2824866186797619,-1.2409367569342256
1782986358091160000,2.76316015625,11.7830681466341,1.505278305977583,-2.238338606010377
1782986358101234200,2.773234130859375,11.317989797973633,1.7133534856587647,-1.3382754336580633
1782986358111308000,2.78330810546875,10.492787513077259,1.9510431746199726,-0.024132497672364115
1782986358121382100,2.793382080078125,9.354660265493392,2.7488348900213837,1.0591804790537804
1782986358131457000,2.80345703125,7.965600693276524,2.8333810129284855,2.060841227683425
1782986358141531100,2.81353125,6.985868940925598,2.8755414077877997,2.300431343438476
1782986358151605200,2.823605224609375,6.341352893525362,2.811828521811962,1.946730572117865
1782986358161680100,2.83368017578125,6.44296150265336,2.4393568529173733,1.544678296212852
1782986358171754200,2.843754150390625,6.85663874990046,2.174474036604166,1.3179670973837374
1782986358181828400,2.853828369140625,7.125455106270313,1.9565955480501054,1.1865568589057773
1782986358191902200,2.863902099609375,7.225699441307783,1.7483163702294229,1.232070582780987
1782986358201977300,2.873977294921875,7.019996251454949,1.8203677532225846,1.200553016358614
1782986358212051200,2.88405126953125,6.415322969621419,1.9861951520219443,1.035798288292065
1782986358222125300,2.894125244140625,5.813104679724574,1.9872601509049534,0.7502903979055583
1782986358232200200,2.9042001953125,5.612189308670163,1.9734408843889832,0.451595328361541
1782986358242274300,2.9142744140625,5.533662884443998,1.9411355285897849,0.301154591525346
1782986358252348200,2.92434814453125,5.308032174327969,1.9806711279034614,0.30686650289874523
1782986358262422000,2.934422119140625,5.0561172683984035,2.0851076539337634,0.342151897422038
1782986358272497200,2.9444970703125,5.037987737467884,2.1933035324975845,0.36048707045987244
1782986358282571000,2.954571044921875,5.250760719576478,2.2120696077659723,0.2669942555092275
1782986358292645000,2.96464501953125,5.712376360562444,2.11376997705549,0.042378713785111904
1782986358302720000,2.974719970703125,6.267659880805015,1.9711086420491337,-0.20222944932766257
1782986358312794000,2.984794189453125,6.63884414023757,1.7533862208396196,-0.4379449886716902
1782986358322868200,2.9948681640625,6.605719869270921,1.5756237618356943,-0.7645495171435177
1782986358332942300,3.0049423828125,6.173766960620879,1.5603127954572438,-1.1207492656730116
1782986358343017200,3.015017333984375,5.577140791642665,1.680318062019348,-1.3517188525989652
1782986358353091300,3.02509130859375,4.768445404911041,1.8080097914308308,-1.070188852867484
1782986358363165200,3.035165283203125,3.703227326193452,1.4976973493292927,-0.31730080315154047
1782986358373240300,3.045240234375,1.9924030667513608,0.8344263325765728,0.5617122015831991
1782986358383314200,3.055314208984375,-1.2465776854306458,0.23217297136634588,1.6274578478388488
1782986358393388300,3.06538818359375,-5.493078360599279,-0.108910748834908,2.2868369717195627
1782986358403462100,3.075462158203125,-9.085671475166082,-0.5572215025678277,2.180840941287577
1782986358413537300,3.085537353515625,-11.387192513537407,-1.6257693102300166,2.036585176696628
1782986358423611100,3.095611083984375,-12.877608765947818,-2.6745693381100892,1.743152119334042
1782986358433685000,3.10568505859375,-12.73797116267681,-3.546161618259549,1.504410144840926
1782986358443760000,3.115760009765625,-11.798446917551756,-5.47224483140707,2.325578790307045
1782986358453834000,3.125833984375,-10.48855089842081,-8.109002032995223,3.5551232156112786
1782986358463908000,3.135908203125,-8.743528016778827,-9.703597621804475,3.7949239053770896
1782986358473982200,3.145982177734375,-7.337458857572078,-10.07500516859889,2.3705656407639384
1782986358484057000,3.15605712890625,-8.691832900854944,-10.272126992589234,0.3954070657368749
1782986358494131200,3.166131103515625,-14.285116433525085,-8.508806237712502,-1.9551029714047907
1782986358504205300,3.176205322265625,-19.77260559581518,-3.4210657505601643,-4.3077793197348715
1782986358514280200,3.1862802734375,-21.470001049363614,0.9420432422086596,-4.997746327972412
1782986358524354300,3.196354248046875,-18.74305212019682,1.350754683741927,-4.052822269630432
1782986358534428200,3.20642822265625,-11.881684003686905,0.3799360134258866,-2.7706632754698393
1782986358544502300,3.216502197265625,-4.43000372365117,0.32749270948320625,-1.7443232089400291
1782986358554577200,3.2265771484375,0.2665028187304735,0.53846448738873,-0.25294366445541383
1782986358564651300,3.2366513671875,0.44737493418753144,0.35895109306424855,0.7820344665601849
1782986358574725000,3.24672509765625,-1.7216881832838058,0.6643517977267503,0.5244476524740457
1782986358584800300,3.25680029296875,-2.0561703132629394,1.0192755349710583,-0.005017243640124797
1782986358594874000,3.2668740234375,-0.4541927975088358,0.6915677214324474,0.27602139237783846
1782986358604948200,3.2769482421875,1.7418664634376764,0.14152414766997098,0.8467807872369885
1782986358615023000,3.287023193359375,3.3498119476854797,-0.27154256646335123,1.4466601127922534
1782986358625097200,3.29709716796875,4.612387997236848,-0.2991942512378096,1.8501333614110946
1782986358635171000,3.307171142578125,5.793778632485866,-0.10094722260981798,1.6293150200128554
1782986358645245200,3.3172451171875,6.390041813370585,-0.11091770474314688,0.9749072548039257
1782986358655320000,3.327320068359375,7.059386597079039,-0.10421762258261441,0.15941124814674257
1782986358665394200,3.337394287109375,7.6926266327053305,0.015607611237466335,-0.5995329232703894
1782986358675468300,3.34746826171875,7.949279673072695,0.19119681785553694,-1.1830708434209227
1782986358685542100,3.357542236328125,7.899695265692472,0.46334553351849317,-1.5732437348313628
1782986358695617300,3.3676171875,7.789264467683434,0.716608054664731,-1.6863856914952395
1782986358705691100,3.377691162109375,7.8963453707426785,0.964357365347445,-1.5481788516797124
1782986358715765200,3.38776513671875,7.981400904476642,1.2517597642436622,-1.3714707240343094
1782986358725840100,3.397840087890625,7.836357642769813,1.6778519641667604,-1.0700211681503802
1782986358735914200,3.407914306640625,7.572977339974045,2.026668324446678,-0.44873526275530456
1782986358745991400,3.417991455078125,6.9765580917447805,2.275524135066569,0.01801489157490432
1782986358756066600,3.428066650390625,6.349588806951045,2.484035075816512,0.10898330261446534
1782986358766140400,3.438140380859375,6.2546706353724,2.578376324290037,-0.08157624025084077
1782986358776214500,3.448214599609375,6.626863195064663,2.5088944995239375,-0.3488150451056659
1782986358786288400,3.458288330078125,7.018270742836594,2.474689739844203,-0.4532563934415579
1782986358796363500,3.468363525390625,7.032442476052045,2.4888109119161963,-0.45814007382988925
1782986358806437400,3.478437255859375,7.031916990873217,2.590077283477783,-0.3623113998102024
1782986358816511700,3.48851171875,7.243899114865064,2.5571365523844958,0.006551430937461555
1782986358826586400,3.49858642578125,7.726592615193129,2.21224262624532,0.421149044432491
1782986358836660700,3.50866064453125,8.06698835313022,1.640326827892661,0.08739621510859578
1782986358846734600,3.518734619140625,7.577706706583499,1.0086544799745083,-0.36408929620292035
1782986358856808700,3.52880859375,6.7621747518301,0.515982021945715,-1.0262992961280046
1782986358866883600,3.538883544921875,7.191248890173434,0.3320864670142531,-1.916245125222206
1782986358876957700,3.548957763671875,8.320628183156252,0.29512890149503945,-2.618736976251006
1782986358887031600,3.559031494140625,8.388635551455616,0.3817655669406056,-2.68692291598767
1782986358897106700,3.569106689453125,6.7755696554541585,0.8011743435770273,-2.169022493200004
1782986358907180500,3.5791806640625,3.9879502767473456,0.958215793852508,-1.6583493913173675
1782986358917254400,3.58925439453125,0.6032248365908861,0.5663324452623725,-0.7249553195104003
1782986358927328500,3.59932861328125,-2.9229052165091036,-0.21302754139155147,0.4360923465423286
1782986358937403400,3.6094033203125,-6.118510937345028,-1.3659627742677927,1.6840205697990953
1782986358947477500,3.6194775390625,-9.121139094388484,-2.607825121614337,2.3929205343045292
1782986358957551400,3.62955126953125,-12.322667191010712,-3.291491276142001,1.7233474947981535
1782986358967626500,3.63962646484375,-14.192927979171275,-4.012898840042949,0.027080972214415668
1782986358977700400,3.649700439453125,-15.400000752687454,-5.460450933238864,-0.842338932332024
1782986358987774700,3.659774658203125,-17.15328468219638,-5.893246722453832,-0.3216307586472481
1782986358997848600,3.6698486328125,-17.265929064601657,-5.142411404016614,0.5892511101655662
1782986359007923700,3.679923828125,-15.330508114266395,-5.320981087750196,2.017093563632667
1782986359017997600,3.68999755859375,-13.023463344037532,-6.740143537285924,3.5241961624279616
1782986359028071700,3.70007177734375,-12.88355218452215,-7.429545020595192,3.50825391240865
1782986359038146600,3.710146484375,-14.261672429573535,-6.011185119614005,1.8751622964665293
1782986359048220700,3.720220703125,-15.547112052839994,-4.057752419508994,-0.21607920231344177
1782986359058294500,3.73029443359375,-15.48257265291214,-2.3390035045474766,-1.8354668304160235
1782986359068368400,3.740368408203125,-12.551833674037455,-1.5614289400056003,-2.4367696129031478
1782986359078443500,3.750443603515625,-7.404668938013911,-1.8183213420867919,-2.37230605469048
1782986359088517600,3.760517578125,-2.100585793572664,-2.0400056526646018,-2.380318680754304
1782986359098591500,3.770591552734375,1.5974568234592674,-2.309546816177666,-2.201389516058564
1782986359108666600,3.78066650390625,3.5741461882501837,-2.560866094301641,-2.0062793241515755
1782986359118740500,3.790740478515625,4.060566600146889,-2.4679645232424137,-1.889663115505874
1782986359128814300,3.800814453125,3.306312413176894,-2.253173771570623,-1.9926950354352593
1782986359138889500,3.810889404296875,1.8496388558924197,-2.063628520314395,-2.326497950978577
1782986359148963300,3.82096337890625,1.0135603721946478,-1.5558222060397267,-2.1943404743298887
1782986359159037700,3.83103759765625,1.7445330522984266,-0.7227955111280083,-1.2360948698610066
1782986359169111600,3.841111572265625,3.0038544839680195,-0.09648644380867481,0.1952418189300224
1782986359179186700,3.851186767578125,3.542815814962983,0.46601884438097474,1.5887353184737265
1782986359189260500,3.861260498046875,3.9641929690629243,1.2441606874167919,2.25813022493422
1782986359199334700,3.871334716796875,5.063026317134499,2.0333497019067406,2.162847603957355
1782986359209409500,3.881409423828125,6.217369955503941,2.1537805004045367,2.015331960787624
1782986359219483600,3.891483642578125,7.1169672639101735,1.8282053149804471,1.899462771116942
1782986359229557500,3.9015576171875,7.6513740003407,1.5917621189489959,1.5586282033711671
1782986359239631600,3.911631591796875,7.637550642171502,1.5383774425029755,1.0975471076533199
1782986359249706500,3.92170654296875,7.178249707868694,1.5793509656652807,0.5090313990902156
1782986359259780600,3.931780517578125,6.46052989256978,1.741511074128747,-0.08750332874488086
1782986359269854500,3.9418544921875,5.820644427579641,1.963129625993967,-0.47448184456080195
1782986359279929600,3.9519296875,5.445822688427567,2.164376713220775,-0.6497372891798615
1782986359290003500,3.96200341796875,5.202610144391656,2.4138950794026255,-0.5686579656004905
1782986359300077300,3.972077392578125,5.198502709072828,2.682978562276065,-0.2996031973648816
1782986359310151700,3.982151611328125,5.360258620649576,2.936322624225914,0.023677812707424164
1782986359320226300,3.992226318359375,5.5021483867615455,3.279851399491727,0.4434477142738178
1782986359330300700,4.00230078125,5.682372851964831,3.574358661957085,0.7813201077457517
1782986359340374500,4.01237451171875,5.814077908670902,3.7327193781375883,0.9029200961533933
1782986359350449700,4.02244970703125,5.915185582539439,3.840322843766212,0.9189153184689581
1782986359360523500,4.0325234375,6.166594292512536,3.872071442465484,0.7970631088659167
1782986359370597600,4.04259765625,6.573716126766801,3.8764994880408046,0.5415782720277086
1782986359380671500,4.05267138671875,6.95951226439774,3.836442202940583,0.3954524757811799
1782986359390746600,4.06274658203125,7.138934181046485,3.8048455799326297,0.31784977880381043
1782986359400820500,4.072820556640625,6.971013901621103,3.8325118777543303,0.3315328517194837
1782986359410894600,4.08289453125,6.609135230672359,3.9672099787965416,0.47149113831222056
1782986359420969500,4.092969482421875,5.96570580946505,3.916956586113572,0.5403135858541355
1782986359431043600,4.103043701171875,4.5478129414737225,3.7570465946644545,0.6183429838109761
1782986359441117400,4.113117431640625,2.9227333670735356,3.439365085099637,0.6104143827687949
1782986359451191600,4.123191650390625,1.316772919163108,3.0037036773204804,0.29353006972996515
1782986359461266400,4.133266357421875,-0.9194400729954242,2.4803768455699085,0.1188227605129592
1782986359471340500,4.143340576171875,-3.77646967253685,1.9306962599009274,0.4335797791995108
1782986359481414700,4.15341455078125,-5.915080953121185,1.3666764754951,0.764250534196943
1782986359491489500,4.163489501953125,-5.787434816417098,0.20472645377516746,1.0544709131233394
1782986359501563600,4.173563720703125,-3.547556872010231,-2.420831892928481,1.5705571260958908
1782986359511637500,4.183637451171875,-0.6088134503781795,-6.171384449398517,2.2220848058238625
1782986359521712600,4.193712646484375,0.43276130242347716,-9.716123925900458,3.5147917897447942
1782986359531786500,4.203786376953125,-2.163304992336035,-11.693746187627315,4.739768761003017
1782986359541860600,4.213860595703125,-7.017170672640204,-11.814615962064266,5.195173856911063
1782986359551934500,4.2239345703125,-11.878581361496447,-10.832324588358402,4.263440119531751
1782986359562009600,4.234009521484375,-15.752555130451917,-9.697551327377557,2.289336387319863
1782986359572083500,4.24408349609375,-16.759124036324025,-8.950429476505517,0.011358137099444866
1782986359582157600,4.254157470703125,-16.50233187974691,-8.007755827438832,-0.8792495899695902
1782986359592232400,4.264232421875,-18.19837007346749,-6.08512304700613,-0.8258546113252639
1782986359602306600,4.274306640625,-19.19760556771159,-3.3982074375420805,-1.382994134698063
1782986359612380400,4.28438037109375,-17.534836021864415,-1.4755191275298594,-2.0515135734982786
1782986359622454500,4.29445458984375,-13.819918842399119,-1.023882444244623,-2.321764492715895
1782986359632529400,4.304529296875,-9.204427618449925,-1.4839026327326892,-2.6816508208036423
1782986359642603500,4.314603515625,-4.646722813037037,-1.7692904769361018,-3.316947204437852
1782986359652677600,4.324677734375,-1.2122861242502927,-1.6495371393084526,-3.8863676788434383
1782986359662752500,4.33475244140625,1.0561188264608383,-1.161991815035045,-3.851925603276491
1782986359672826600,4.34482666015625,2.6581448575317856,-0.5976631108105183,-2.7083412593305107
1782986359682900500,4.354900390625,4.074931225585937,-0.6249184897437692,-1.0915236095800995
1782986359692974600,4.364974609375,5.220355059918761,-0.7882926501721144,0.29281068768054247
1782986359703049700,4.3750498046875,6.065509999519586,-0.7176891278997063,1.076829825251922
1782986359713123600,4.38512353515625,6.7111331313788885,-0.17141835067421196,1.4970885697811842
1782986359723197400,4.395197509765625,7.09828711335957,-0.04447714736908674,1.765075197328627
1782986359733272600,4.4052724609375,7.197089432895183,-0.021408990992605684,1.9095028113551438
1782986359743346400,4.415346435546875,7.336333068412542,0.45757279533594847,1.900588414146006
1782986359753417000,4.4254169921875,7.490341726863384,0.5948927693143486,1.4503531220912933
1782986359763491000,4.435490966796875,7.658095417550205,1.0318778269127011,0.650641690673679
1782986359773566000,4.44556591796875,7.424110720586777,1.5668392746165394,0.022920710729807614
1782986359783640000,4.45564013671875,6.671392072620987,1.5776020761713385,-0.06670476126819849
1782986359793714000,4.4657138671875,6.706868459671735,1.5816101427689193,-0.017230536264181136
1782986359803789000,4.4757890625,7.352052615591883,1.996699594901502,-0.09756810156553983
1782986359813863000,4.48586279296875,7.944167444625497,2.3096040993228555,-0.021717180158942938
1782986359823937000,4.49593701171875,8.27365074340403,2.4646043991595503,0.20753223191089926
1782986359834012000,4.506011962890625,8.467805534282327,2.5760177784651517,0.25550650068074465
1782986359844086000,4.5160859375,8.359078033059834,2.837254347230494,0.35588783303610977
1782986359854160100,4.52616015625,7.9217235576272005,3.1961399738430973,0.9316317383095621
1782986359864234000,4.53623388671875,7.383835408821701,3.303053703641891,1.208494038490951
1782986359874309000,4.54630908203125,7.0455217378556725,3.599045943967998,1.1985250907275824
1782986359884383000,4.556383056640625,6.886334799984097,3.9750297126367684,0.9677654202252626
1782986359894457000,4.56645703125,6.700768389230966,4.074547194704413,0.6426460157446563
1782986359904532000,4.576531982421875,6.095034200167656,4.1329114131286735,0.1581779800247401
1782986359914606000,4.586606201171875,5.649741917473078,4.170743423394859,-0.2514260264340788
1782986359924680000,4.596679931640625,5.664346781408787,4.190422229593992,-0.5839413133196533
1782986359934754000,4.606754150390625,5.716622327569127,4.1076153515696525,-0.5852999248543754
1782986359944829000,4.616828857421875,5.71047958703041,3.9294215154111383,-0.25708105652108787
1782986359954903000,4.626903076171875,5.431303164687752,3.6636329824298617,0.12854535056613384
1782986359964977200,4.63697705078125,4.825810383164883,3.252480285224318,0.446243226743862
1782986359975052000,4.647052001953125,3.5953076342225074,2.534015496776998,0.5764392305938527
1782986359985126100,4.657126220703125,1.4114561129420995,1.503952025809884,0.5606745290985331
1782986359995200300,4.6672001953125,-1.3754595014095305,0.31473814958930013,0.4131996563306078
1782986360005274000,4.677274169921875,-5.037190449610352,-0.7963590522497892,0.19186576662566512
1782986360015349200,4.687349365234375,-9.01370514010787,-1.515084245198965,-0.3662641925565898
1782986360025423000,4.697423095703125,-10.902921973150969,-1.8026836279720067,-1.1772810079731046
1782986360035497000,4.7074970703125,-10.498704043644667,-2.3607120630085467,-1.877292878754437
1782986360045572000,4.717572021484375,-9.13533946917653,-3.7082577215760946,-1.7306334140226245
1782986360055646000,4.72764599609375,-8.06150787589252,-5.736669674819708,-0.9102584031522274
1782986360065720000,4.737719970703125,-7.483631415569782,-7.970601862564682,-0.09534330165553838
1782986360075794000,4.7477939453125,-5.740104325443506,-9.51550432292223,0.03393306659888476
1782986360085869000,4.757869140625,-3.458120346713066,-10.087167900079487,-0.04083711036629974
1782986360095943000,4.76794287109375,-3.652485565471649,-10.835448273336887,0.26707846319396045
1782986360106017000,4.77801708984375,-5.942715979021787,-9.021882016822696,0.8430285950966179
1782986360116092000,4.788091796875,-8.452033380132914,-4.965760705646872,1.472443081085384
1782986360126166000,4.798166015625,-10.229214902579784,-1.5663555827528237,2.0006468712225556
1782986360136240000,4.808240234375,-10.405864431905746,0.3608721242547035,0.6546162933930755
1782986360146315000,4.81831494140625,-8.686738792586326,1.1857061603605747,-2.018400262317061
1782986360156389000,4.82838916015625,-6.015965339627861,0.49286418120861053,-4.631970649585128
1782986360166463200,4.838463134765625,-3.2138363740533586,-0.7702654105722904,-6.290439867889881
1782986360176537000,4.848537109375,-1.4707061742901801,-1.7663517931357025,-6.625513534021377
1782986360186612200,4.8586123046875,-0.628736294466257,-2.0269886424422263,-5.418399843972921
1782986360196686000,4.86868603515625,-0.25094635315835473,-1.2187547357425093,-3.0744279033631083
1782986360206760000,4.878760009765625,-0.3524725446999073,0.2508516606122255,-0.001112418221309781
1782986360216835000,4.8888349609375,-0.17243103484809397,1.4799842902451752,2.45861831048727
1782986360226909200,4.8989091796875,0.2730716757267713,1.9621724713996052,3.905017726516723
1782986360236983000,4.908983154296875,0.619851561743021,1.9014777642011642,4.354281835451722
1782986360247057000,4.919056884765625,0.8151338953465223,1.6361235309839248,3.7979005831003185
1782986360257132000,4.929132080078125,1.1036930630624293,1.5047805855885148,2.5671055732131003
1782986360267206000,4.939205810546875,1.9026701888561248,1.501639364953339,1.5322770798012613
1782986360277280000,4.949280029296875,2.946649664711952,1.55573189740777,0.9152873372301459
1782986360287354000,4.95935400390625,3.9228246013641357,1.8134806240573524,0.6497425498768686
1782986360297429000,4.969428955078125,4.860661916315555,2.279721879017353,0.7370374600354581
1782986360307503000,4.979503173828125,5.497457598596811,2.966172403566539,0.9722251030478626
1782986360317577200,4.9895771484375,5.778021675905585,3.3327404013752937,1.2064983346290885
1782986360327651000,4.999651123046875,5.752445920622349,3.3542329789981244,1.528617534380406
1782986360337726200,5.009726318359375,5.7614826290369034,3.345477425612509,1.6873671037480233
1782986360347800000,5.019800048828125,5.858500987765193,3.439227722455561,1.599020419514179
1782986360357874200,5.029874267578125,5.934046934875846,3.610043431061506,1.420422824860364
1782986360367949000,5.039948974609375,5.989679974770546,3.7506755983278155,1.28815034352988
1782986360378023200,5.050023193359375,5.749242740666866,4.169364243996143,1.3463738383091985
1782986360388097000,5.060096923828125,5.424695144724845,4.547876069837808,1.234881986939907
1782986360398172200,5.070172119140625,4.953733583244681,4.135884583720564,0.6735918466936797
1782986360408246000,5.08024609375,4.672953232836723,3.9599972709387536,0.3977119086131453
1782986360418320000,5.09031982421875,4.9420349621444934,4.162642826786637,0.014987506577745079
1782986360428394000,5.10039404296875,5.47955486215949,4.503818316924572,-0.3985631916802376
1782986360438468900,5.11046875,5.837832293745875,4.73657434887588,-0.602226327072829
1782986360448543000,5.12054296875,5.94258036994338,4.85058183632791,-0.6778141405638307
1782986360458617000,5.1306171875,5.909542608216404,4.810980478301644,-0.8951165097303688
1782986360468691200,5.140691162109375,5.766402549782395,4.668586269798874,-0.4614327221671119
1782986360478766000,5.15076611328125,5.542624774056673,4.566956033360958,0.3064237275673076
1782986360488840200,5.160840087890625,4.92296376644969,4.378144357076287,0.7423112357199192
1782986360498914000,5.1709140625,3.496389579352736,4.031930872771143,0.7428288298532366
1782986360508989200,5.1809892578125,0.7279092008799314,3.636959495037794,1.0996833890296518
1782986360519063000,5.19106298828125,-2.528142513090372,2.6857249383747575,1.7473590695045886
1782986360529137200,5.20113720703125,-4.559064403328299,1.063896474725008,2.6630899127185343
1782986360539212000,5.2112119140625,-6.945920376896858,-1.0230296268075705,3.3750781986281275
1782986360549286100,5.2212861328125,-7.841434799903631,-3.765983934357762,2.2569423303239047
1782986360559360000,5.231360107421875,-7.933560710415244,-6.599165040799975,0.9161458537556231
1782986360569434000,5.24143408203125,-8.6896590639472,-8.90954100127816,0.7581164153560995
1782986360579509000,5.251509033203125,-10.508699367958307,-9.765161220791935,1.616364206894487
1782986360589583000,5.2615830078125,-11.19719951851368,-8.781448289850355,1.9552261593930422
1782986360599657000,5.271656982421875,-11.358590688431262,-8.509178578156233,1.5193983090057968
1782986360609732000,5.281732177734375,-12.854155409646033,-9.107371265798806,0.7443459564179181
1782986360619806000,5.291805908203125,-15.618565177679061,-6.960027228182554,-0.17895247250609098
1782986360629880000,5.301880126953125,-17.824541437005994,-2.945895631474256,-0.23404981635520233
1782986360639954200,5.3119541015625,-17.50515166221857,-0.3617170506462455,0.20444825788829474
1782986360650029000,5.322029052734375,-14.881239913678169,0.13033318383097647,0.07259215707266703
1782986360660103200,5.332103271484375,-11.602978121465444,-0.23512217656075954,-0.489457222309336
1782986360670177000,5.342177001953125,-8.981841682857274,-0.46510991284251213,-0.8323778756141662
1782986360680252200,5.352252197265625,-6.549492370614409,-0.6216954360440373,-0.9770731276009231
1782986360690326000,5.362325927734375,-3.5324563335120676,-0.9414917458057404,-1.4026592046327888
1782986360700400000,5.372400146484375,-0.3062777797579765,-1.6816957801133394,-2.1073526573590935
1782986360710475000,5.38247509765625,2.4879572176963087,-2.8895944830596445,-2.9464883366703987
1782986360720549000,5.392549072265625,4.767734041771292,-3.4852237499549985,-3.384391678157449
1782986360730623000,5.402623046875,6.459297720426321,-3.3399975328966973,-3.176867994879186
1782986360740697000,5.412697021484375,7.1708712880551815,-2.9852208029076457,-2.494759883448481
1782986360750772200,5.422772216796875,7.234163902792334,-2.5228876613020894,-1.7195026559382676
1782986360760846000,5.43284619140625,6.864138165745139,-2.431490357325971,-0.9237694074366242
1782986360770920200,5.442920166015625,6.346983592888712,-2.014775057557225,-0.6314407311193645
1782986360780995000,5.4529951171875,6.084406423169374,-1.5200632026553154,-0.5617315273381769
1782986360791069200,5.463069091796875,6.077489775648713,-1.3883189829826355,-0.5672855812687426
1782986360801143300,5.473143310546875,6.407155445256829,-1.245909576910734,-0.6312431627206504
1782986360811217200,5.483217041015625,6.839319366309046,-1.0101517327949403,-0.6681241558723151
1782986360821292300,5.493292236328125,7.366409057724476,-0.7793035802915692,-0.6747322489004581
1782986360831366100,5.5033662109375,7.946984840133786,-0.6084338034108281,-0.7083262562707067
1782986360841440300,5.513440185546875,8.3840230892241,-0.45850510774999853,-0.7489568112142384
1782986360851515100,5.52351513671875,8.565841545620561,-0.30560850219428537,-0.916242153736949
1782986360861589200,5.53358935546875,8.47091168360412,-0.11595219177901744,-1.0923162943277507
1782986360871663000,5.5436630859375,8.066639978083968,0.1634551167100668,-1.1331101500742138
1782986360881737200,5.5537373046875,7.652730091124773,0.5467158906444907,-0.8114476080492138
1782986360891812000,5.56381201171875,7.217406829258799,0.915628405752778,-0.497209663067013
1782986360901886200,5.57388623046875,6.614778789517283,1.4065417451545594,-0.25735674992362034
1782986360911960000,5.5839599609375,6.109791624316573,1.8884961175531148,0.015230357156600802
1782986360922035200,5.59403515625,5.813673419523239,2.1647370709657667,0.20457228612676262
1782986360932109000,5.604109130859375,5.749456675678491,2.2202628510937092,0.3248338290048763
1782986360942183200,5.61418310546875,5.937631223103404,2.295537287786603,0.3567250510452315
1782986360952258000,5.624258056640625,6.07950988329947,2.2929496093809605,0.31240229052025825
1782986360962332200,5.634332275390625,6.0903293834775685,2.1352704457238314,0.06127404145635664
1782986360972406300,5.64440625,5.958381165665387,2.114258637355268,-0.28608963579721747
1782986360982480400,5.65448046875,5.825453873687982,2.0815359329268337,-0.7361497174154966
1782986360992555300,5.66455517578125,5.584278388437628,2.0772943498343226,-1.1682903306573629
1782986361002629400,5.67462939453125,5.027241887047887,1.8663491676747799,-1.4354843465223908
1782986361012703200,5.684703125,3.5964673256516453,1.1464297965049743,-1.1115179845344274
1782986361022778400,5.6947783203125,0.8389169219940901,0.30373014110177754,0.23875556462705133
1782986361032852200,5.704852294921875,-2.640106512016058,-0.09470599013268947,2.449715457585454
1782986361042926000,5.714926025390625,-6.4193877348423,-0.24274054260998962,4.080710101248323
1782986361053000200,5.725000244140625,-9.703048755750059,-0.09779898771196603,4.038124758975208
1782986361063075000,5.735074951171875,-11.569437086391448,-0.0956459013313055,3.0348405738621946
1782986361073149200,5.745149169921875,-12.759018626880644,-0.8449585402458906,2.1124236770130693
1782986361083223000,5.75522314453125,-13.737057019317149,-2.5171681146115064,0.7331167063951491
1782986361093298200,5.765298095703125,-13.445979146778583,-4.788219195917248,-1.299112028657645
1782986361103372000,5.7753720703125,-11.666018807268141,-7.510159357011318,-2.0189641798101365
1782986361113446100,5.785446044921875,-9.183785227915644,-9.236563462901115,-1.5872748905323444
1782986361123521000,5.79552099609375,-7.876101624137163,-9.393368474072217,-0.9205537333257496
1782986361133595100,5.80559521484375,-9.939646265560388,-8.035373902204633,-0.14732450451180337
1782986361143669200,5.815669189453125,-13.363759128731488,-3.3792952318012714,-0.41670631274469194
1782986361153743400,5.825743408203125,-16.92345652039051,2.2634295003861187,0.6105174778170883
1782986361163818200,5.835818359375,-19.197468789589404,5.723713747134805,2.767769015333056
1782986361173892400,5.845892333984375,-17.580858937370778,6.211399648922681,2.6057576676905154
1782986361183966200,5.85596630859375,-13.56433781517744,4.2692029208421705,0.5613965597627684
1782986361194041300,5.866041259765625,-9.119139445003867,2.0060560367897153,-1.5522104452833532
1782986361204115200,5.876115234375,-4.910326403194666,0.6631473903730511,-2.977666442005336
1782986361214189300,5.886189208984375,-0.7661608978629112,0.2058987124249339,-2.917303450979292
1782986361224263200,5.89626318359375,3.2538018892169,-0.22109335894733667,-1.7210981084361672
1782986361234338300,5.90633837890625,6.634708063346147,-0.5440443333476781,-0.18895013490729032
1782986361244412200,5.916412109375,8.679545666211842,-0.4068564613163471,1.3449838452555238
1782986361254486000,5.926486083984375,8.832215769535303,-0.10233633888065814,2.7015494072332977
1782986361264561200,5.93656103515625,7.78337891677618,0.0031789222970604893,3.4803783557504415
1782986361274635000,5.946635009765625,6.442471673309803,0.05912789627313614,3.617591069962084
1782986361284709000,5.956709228515625,5.45242077151835,0.3530024137929082,2.9542171773567794
1782986361294783200,5.966783203125,5.002828745803237,0.34735973173081874,1.585734236961603
1782986361304858000,5.976858154296875,4.654195925396681,-0.0015346622213721274,-0.033628713357448575
1782986361314932200,5.98693212890625,5.2760097271233795,-0.01752835016697645,-0.9159972390651703
1782986361325006300,5.99700634765625,6.658998454993963,0.06535656152963638,-0.8762964392524212
1782986361335081200,6.007081298828125,7.644276735556125,-0.05121610023528337,-0.29382326225657013
1782986361345155300,6.0171552734375,8.158637293779849,-0.03132365128546953,0.33060273126251993
1782986361355229200,6.027229248046875,8.314861874714493,0.19815496643036604,0.7826430999778211
1782986361365304300,6.03730419921875,8.303634962779283,0.43646834024786946,1.0345368169888853
1782986361375378200,6.047378173828125,8.016656926774978,0.5571884770810603,0.9529892913758754
1782986361385452300,6.057452392578125,7.759876460635661,0.772509682367742,0.6333258872788399
1782986361395526100,6.067526123046875,7.616272876343131,0.8929019024208188,0.16421886762417853
1782986361405601300,6.077601318359375,7.520135976624489,1.260628422614932,-0.10891487702075392
1782986361415675100,6.087675048828125,7.39137281858921,1.7511252901703118,-0.0931899595465511
1782986361425749000,6.0977490234375,6.601763240599632,1.9927023419588803,-0.05786752094849944
1782986361435824000,6.10782421875,5.876660329312085,2.272493389068544,-0.05064882174134254
1782986361445898000,6.11789794921875,5.4366725827664135,2.572385559442639,-0.13021193207148463
1782986361455972000,6.12797216796875,5.349525629711151,2.694269771619141,-0.32587847921960056
1782986361466046200,6.138046142578125,5.683021671262384,2.7044948130354283,-0.41674532958082855
1782986361476121000,6.14812109375,6.100625152042507,2.7385326917156574,-0.23410244159158317
1782986361486195200,6.1581953125,6.3728258901536465,2.684090615171194,0.09410418831463903
1782986361496269300,6.168269287109375,6.269798646399378,2.527280927824974,0.4113519461046904
1782986361506344200,6.17834423828125,5.721904651886224,2.333174360002577,0.45625506380088626
1782986361516418300,6.188418212890625,4.795719780805706,2.339260109657049,0.1629609399849549
1782986361526492200,6.1984921875,3.6833278629809616,2.2216092972666024,-0.32827220595572143
1782986361536567300,6.2085673828125,2.607841488227248,1.6466987010121346,-1.0401254307761787
1782986361546641200,6.21864111328125,0.9245417800486088,1.0209762014091015,-1.6217309946246443
1782986361556715300,6.22871533203125,-1.535936479091644,0.697818013998866,-1.1496200439136475
1782986361566789000,6.2387890625,-3.760461956065893,0.39037235950529575,0.10296606988525017
1782986361576864300,6.2488642578125,-5.850864793798327,-0.568800588941574,1.9531718572117387
1782986361586938000,6.258938232421875,-7.3409893697857855,-2.580858788755536,3.3469501285135745
1782986361597012200,6.26901220703125,-7.064297165474295,-4.570763608950376,2.6728844537630674
1782986361607087000,6.279087158203125,-6.316940921324491,-6.722531892749667,0.4710852243924513
1782986361617161200,6.2891611328125,-6.657495064693689,-8.87399680968821,-1.4145711762227118
1782986361627235000,6.299235107421875,-8.396196342098712,-9.200963741731643,-1.792675736437738
1782986361637309200,6.30930908203125,-10.275583855044841,-7.762598579075932,-1.205494856674969
1782986361647384000,6.319384033203125,-11.213289068049193,-6.480268027740717,-1.1400804274782537
1782986361657458200,6.329458251953125,-11.493091513335704,-6.83414693210721,-0.6451267997097223
1782986361667532300,6.3395322265625,-10.969677880084514,-6.582586246442794,0.7065344044178724
1782986361677607200,6.349607177734375,-10.202575901979207,-4.490362038502097,2.2835507896557448
1782986361687681300,6.359681396484375,-9.33053120188713,-2.051206261114776,3.2135394369333983
1782986361697755100,6.369755126953125,-7.345621121239661,-0.7770774286746979,2.3385781187422574
1782986361707830300,6.379830322265625,-5.055573078519106,-0.6718427380040287,-0.054534102209471164
1782986361717904100,6.389904052734375,-3.3916841732531786,-0.9776271812871098,-2.525281570701301
1782986361727978200,6.399978271484375,-2.0767712027430534,-0.9785615395277738,-4.116798774978518
1782986361738052000,6.410052001953125,-0.9855559284597635,-0.9445400274604558,-4.8193993470788
1782986361748127200,6.420127197265625,-0.6730149966537952,-1.0398778857558966,-4.872711250549554
1782986361758201300,6.430201416015625,0.14721826765835283,-0.7516331908166408,-4.1777728836402295
1782986361768275500,6.440275390625,1.5029828885167835,-0.42456309065967796,-2.8015309996813533
1782986361778350300,6.450350341796875,2.987600099259615,-0.1986962337002158,-1.0744296322423965
1782986361788424400,6.460424560546875,4.263245473742485,0.0890077784910798,0.34616306929215784
1782986361798498300,6.470498291015625,5.522933400636911,0.5002554605036974,1.056649353140965
1782986361808572400,6.480572509765625,6.429465476742386,0.9393591176912188,1.2916921077899635
1782986361818647300,6.490647216796875,6.91773590041995,1.223771979382634,1.5282434403710066
1782986361828721400,6.500721435546875,6.879144596219063,1.2377180871486664,1.701828321429342
1782986361838795500,6.51079541015625,6.421303213074803,1.0855991879671811,1.8032400928109884
1782986361848870400,6.520870361328125,5.575191411140561,1.0711878007769584,1.9663141012489795
1782986361858944500,6.530944580078125,4.633115143445134,1.2471987399384379,1.8199831378191709
1782986361869018400,6.541018310546875,3.883462897312641,1.462580735501647,1.339687638543546
1782986361879093500,6.551093505859375,3.515253269776702,1.4518617730885743,0.8183966965347528
1782986361889167400,6.56116748046875,3.573422550150752,1.2001038112863898,0.32727380603551864
1782986361899241500,6.571241455078125,3.862117326945066,0.9561153144419192,0.03066138798445463
1782986361909315300,6.5813154296875,4.1947634736686945,0.8372393441706896,-0.00848396990261972
1782986361919390500,6.591390380859375,4.394395234653353,0.9263362622499466,0.2258916260745376
1782986361929464300,6.60146435546875,4.540265594834089,1.125827737981081,0.49558439995273945
1782986361939538400,6.611538330078125,4.520231691586971,1.4251751339539884,0.7045390658821911
1782986361949613300,6.62161328125,3.9508506724089383,1.694136159491539,0.66706602512151
1782986361959687400,6.6316875,3.3950293920278547,1.9652265982732176,0.40080373714864254
1782986361969761300,6.64176123046875,3.285166749295592,2.3280372893750667,0.10891589993406087
1782986361979835400,6.65183544921875,3.5522330471277237,2.774058470866084,-0.14506817695237695
1782986361989910300,6.66191015625,4.134523816761374,3.148729111109674,-0.25822922190921377
1782986361999984400,6.671984375,4.824205870577693,3.3017662941798567,-0.24296193027570842
1782986362010058500,6.68205859375,5.650904531511664,3.1822868050575255,-0.3323327699255198
1782986362020133400,6.69213330078125,6.317874987304211,2.853152758108079,-0.4342609663967043
1782986362030207500,6.70220751953125,6.504229333564639,2.3469877812996507,-0.653846039672941
1782986362040281600,6.712281494140625,6.103063192844391,1.9473323374032974,-0.9249612475696951
1782986362050355500,6.72235546875,5.364057428410649,1.8799550837010144,-1.0920187726859003
1782986362060430600,6.7324306640625,4.449576439127326,1.8135837921708822,-1.42409508363232
1782986362070504400,6.74250439453125,3.5444764416515824,1.6502108007863163,-1.5675580904103814
1782986362080578300,6.752578369140625,2.3433833270668982,1.3834621906012297,-1.1140228800274432
1782986362090653400,6.7626533203125,-0.6268441971093416,0.7250386138796806,-0.229879745862633
1782986362100727300,6.772727294921875,-4.854720251306891,-0.23069442324638365,1.0116433595921843
1782986362110801400,6.782801513671875,-9.0852284075737,-1.1130527198210358,2.148105523508042
1782986362120876300,6.792876220703125,-11.520648213303089,-2.0222174825176595,2.9594501095741985
1782986362130950400,6.802950439453125,-12.723693630999326,-3.066841978278756,3.677882749317586
1782986362141024300,6.813024169921875,-14.626259774959086,-4.2102369371324775,3.9419580486401915
1782986362151098400,6.823098388671875,-16.75553273383379,-4.224384412689507,3.3898005514636633
1782986362161173200,6.83317333984375,-18.568490503060815,-3.984889720132947,2.6066248059138655
1782986362171247400,6.843247314453125,-19.315802908068893,-4.515085560870171,1.478415287362784
1782986362181321500,6.853321533203125,-18.385369147372245,-5.360643236052989,0.5119884587975219
1782986362191396400,6.863396240234375,-16.048441280055044,-6.158543672525882,0.6186445971060544
1782986362201470500,6.873470458984375,-13.358508953118324,-5.944699846315384,1.3759388093590736
1782986362211544600,6.883544677734375,-11.973921557879446,-4.765831423020362,2.229860262130946
1782986362221618400,6.893618408203125,-11.69220772601366,-2.9675048212140798,2.31945665416494
1782986362231693600,6.903693603515625,-10.757453179508447,-0.9978215357929467,1.755636337853968
1782986362241767400,6.913767333984375,-8.527284728211164,-0.23510990160107612,1.3373729318603873
1782986362251841300,6.92384130859375,-5.572694918149709,-0.9686252519249916,0.9003396512061357
1782986362261916400,6.93391650390625,-2.8984850610017774,-2.256309731508791,0.10684943239092826
1782986362271990500,6.943990478515625,-2.30190156212151,-3.7619945724606514,-1.4952764057926833
1782986362282064400,6.954064453125,-4.1494168499886985,-5.602218534275889,-4.270522186747193
1782986362292139500,6.964139404296875,-4.252608344393968,-5.8097314038991925,-6.478964543926716
1782986362302213400,6.97421337890625,-1.5767887139618395,-4.470461406245827,-7.489355638435483
1782986362312287200,6.984287353515625,1.3487848449736832,-2.9930726854518053,-7.0098314157932995
1782986362322361300,6.994361328125,4.094375930768251,-1.812388152645528,-5.061515328049659
1782986362332436200,7.004436279296875,6.643760553851723,-0.734133482222259,-2.607328862529993
1782986362342510300,7.01451025390625,8.616358849936724,0.3588090542450547,-0.18356435021571815
1782986362352584400,7.02458447265625,9.835607214415074,1.1238128910273313,1.6717992399990558
1782986362362659300,7.034659423828125,10.089815784239768,1.489184664788842,1.9225227441869674
1782986362372733400,7.0447333984375,10.506876828706265,1.959022482936084,1.8877569896236062
1782986362382807600,7.0548076171875,10.84527057917118,2.010474437753856,2.0604231484018265
1782986362392881400,7.06488134765625,10.727386542546748,1.5002207303270696,1.9769410014644264
1782986362402956500,7.07495654296875,10.22060606418848,1.1360019259929657,1.5511770105823874
1782986362413030400,7.085030517578125,9.519620526069403,1.4322829201325773,0.7811208588466048
1782986362423104500,7.0951044921875,9.00258753376603,2.1423083815366026,-0.46163770668730136
1782986362433179400,7.105179443359375,8.592806124913691,2.847384988361597,-1.6470476605802773
1782986362443253500,7.11525341796875,8.029644418641924,3.399648284000158,-2.265728132717311
1782986362453327400,7.125327392578125,7.479799874582886,3.8183208553165193,-2.5120064940646287
1782986362463401200,7.135401123046875,6.529463728064298,4.187133709442615,-2.2343112501904367
1782986362473476400,7.145476318359375,5.66053628320992,4.100997686995566,-1.5497173132933675
1782986362483550200,7.15555029296875,5.995082710596919,3.9549227441534396,-1.0315471336536108
1782986362493624600,7.16562451171875,6.568508036729693,4.08590065562874,-0.6208010444875807
1782986362503699500,7.175699462890625,7.293636666980385,4.252573273080587,-0.519844250331819
1782986362513773600,7.185773681640625,7.723570052501559,4.344767572653294,-0.4947040369216352
1782986362523847400,7.195847412109375,7.973394123631715,4.133969982270896,-0.19938111069183795
1782986362533922600,7.205922607421875,8.316130871737004,3.9978894869595765,-0.04577047511525452
1782986362543996400,7.215996337890625,8.478850659909844,3.998969683411717,-0.055517450691014526
1782986362554070500,7.226070556640625,8.408585868072509,4.029115815350413,-0.1986928726993501
1782986362564144400,7.236144287109375,8.202973279112577,4.058981669043004,-0.3325603681363165
1782986362574219500,7.246219482421875,7.836930474221706,4.028210390943289,-0.2914174797564745
1782986362584293400,7.25629345703125,7.172117488723993,3.9600875795707102,0.0036521658319979902
1782986362594367500,7.266367431640625,5.930605854511261,3.6328628733739254,0.4041790588006377
1782986362604442400,7.2764423828125,4.5134190889626735,3.209832399109006,0.9023501142457127
1782986362614516500,7.2865166015625,3.0043408061802386,2.8590096674427388,1.6253803109124303
1782986362624590300,7.29659033203125,1.3768828122109174,2.1929694782376288,2.5429361775964496
1782986362634664400,7.30666455078125,-0.11413900487720965,0.9963555548936128,3.7301451437354087
1782986362644739300,7.3167392578125,-1.7005518717527388,-0.7955489049106835,5.188925317910313
1782986362654813400,7.3268134765625,-3.7164918814361094,-2.9726597197592257,6.3752341203391545
1782986362664887600,7.336887451171875,-5.272231962150335,-4.718942830595374,5.6415323075324295
1782986362674962400,7.34696240234375,-6.030668403241038,-5.748913654842973,2.98014013864249
1782986362685036500,7.35703662109375,-6.431712378886342,-6.6392036211997265,0.8063375715591012
1782986362695110400,7.3671103515625,-6.147211546650529,-8.237651209262014,0.44601062356438487
1782986362705185500,7.377185546875,-7.129028873103857,-9.169318895667791,0.8864074989002197
1782986362715259400,7.38725927734375,-8.732609147879481,-7.324622756874561,0.7344952282067387
1782986362725333500,7.39733349609375,-9.01821531100869,-3.442222812618315,-0.13600976816266774
1782986362735407400,7.407407470703125,-8.180148283842206,0.4680079723715782,-0.7292614192064851
1782986362745482500,7.417482421875,-6.876506064409017,3.3400513089105486,-0.8977453969292342
1782986362755556000,7.42755615234375,-6.32561405712366,4.100976059685647,-1.6660498826920984
1782986362765630000,7.4376298828125,-7.732175383761525,3.73418039060086,-3.1506413744717836
1782986362775705000,7.447705078125,-11.24868888273239,3.881474061582982,-3.482117308372259
1782986362785779000,7.457779052734375,-15.762420690906048,4.115647851377726,-2.8949323369562623
1782986362795853000,7.46785302734375,-17.74195550825596,4.185914689041674,-2.7481401857554912
1782986362805927000,7.477927001953125,-15.356992801088094,4.13895273911953,-2.281458347421139
1782986362816002000,7.488001953125,-10.904965461677312,2.6429180623054505,-1.0867746614873408
1782986362826076000,7.498075927734375,-7.2207871193468565,0.3320538799189031,0.3940368368295952
1782986362836150000,7.50814990234375,-4.571799966260791,-1.4935115880772472,1.231154198588431
1782986362846225000,7.518224853515625,-2.1422879232704637,-2.2708748479560015,0.9793600694943219
1782986362856299300,7.52829931640625,-0.04595744905471801,-2.4939722402021287,0.45782143633477385
1782986362866373000,7.538373046875,1.5070190121650695,-2.7808950388878584,0.39742658886574206
1782986362876448300,7.5484482421875,2.7767747440874575,-2.777482892356813,0.7884862730480731
1782986362886522000,7.558522216796875,3.860294203171134,-2.471008420982957,1.028319842170179
1782986362896596000,7.568595947265625,4.9516632067114115,-2.412661884345859,0.6885090645141899
1782986362906670000,7.578670166015625,6.041547524651885,-2.3717631799854337,0.11299831040948628
1782986362916745000,7.588744873046875,7.097963288232684,-1.9959344557479022,-0.1133521288158372
1782986362926819000,7.598819091796875,7.801308541220426,-1.6838557346262037,-0.004183167436160147
1782986362936893000,7.608892822265625,8.045254075706005,-1.6071014346390962,0.08599464121498167
1782986362946968000,7.618968017578125,7.796387451431155,-1.492239960706234,0.023158684204146265
1782986362957042000,7.6290419921875,7.189757774832844,-1.3765109101586044,-0.18464608103781938
1782986362967116000,7.639115966796875,6.479096061351895,-1.1412257981210947,-0.473901341259107
1782986362977190100,7.649190185546875,5.6168444409996265,-0.8009142313361167,-0.8453772040493786
1782986362987265000,7.65926513671875,4.738470537886023,-0.30714681767746804,-1.0790335458412765
1782986362997339100,7.669339111328125,4.335532126796245,0.28967955004796386,-1.1204107544336468
1782986363007413200,7.679413330078125,4.530776466476917,0.7540263695634901,-1.0927995478000492
1782986363017488100,7.689488037109375,5.022499076434969,0.9944240023091435,-1.075110527178645
1782986363027562200,7.699562255859375,5.5831929312884805,1.2548339109919964,-1.1109154155313967
1782986363037636000,7.709635986328125,6.41957419732511,1.6777222003072498,-1.0875843704350292
1782986363047711200,7.719711181640625,7.483808525702357,2.0683941272810102,-1.1123386532675474
1782986363057785000,7.72978515625,8.343585280373691,2.2946651811271903,-1.1663960413433612
1782986363067859000,7.73985888671875,8.93380450491905,2.3034885390520095,-1.244477498281002
1782986363077933000,7.74993310546875,9.188943049070238,2.11590552777946,-1.4788316130787134
1782986363088008200,7.76000830078125,9.14481398448646,2.056394769668579,-2.0251187569171187
1782986363098082000,7.77008203125,9.013826720660925,2.4814739931568504,-1.5673814186692236
1782986363108156000,7.780156005859375,8.047376474687457,2.1541183540567754,-1.0255928283590823
1782986363118231000,7.79023095703125,5.688513254415988,1.3788085195764899,-0.41145189934782683
1782986363128305000,7.800304931640625,2.5214684421539304,0.7697846413180232,0.25642873009219763
1782986363138379000,7.81037890625,-1.5396645597040652,0.07483926014602184,0.6663443597834557
1782986363148453000,7.820453125,-5.606276869755983,-0.4617009811818599,0.948460854166001
1782986363158528000,7.830528076171875,-8.649824481686949,-0.88156042419523,1.4765519777089358
1782986363168602000,7.84060205078125,-11.633958950662612,-1.8123203481063246,2.533449971848726
1782986363178676200,7.85067626953125,-14.069002324295043,-2.3264742778420446,3.319630159911513
1782986363188751000,7.860751220703125,-14.397800563418864,-2.215461296030879,3.488426345388591
1782986363198825200,7.8708251953125,-13.432364462924003,-2.784142934767902,3.646299570313096
1782986363208899000,7.880899169921875,-11.039123756754398,-3.787899998089671,4.284705902661383
1782986363218974200,7.89097412109375,-7.869045275884866,-4.839944706979393,4.4704830335557455
1782986363229048000,7.901048095703125,-7.8290932047247885,-5.831502506202459,4.107723195858299
1782986363239122200,7.9111220703125,-11.548571993017196,-3.893082666312158,2.3593517344407737
1782986363249196000,7.921196044921875,-15.102938545042276,0.715854605948925,-0.5106815043848008
1782986363259271200,7.931271240234375,-15.634279464161395,3.111051999144256,-1.177315787025541
1782986363269345000,7.941344970703125,-12.573486702919006,2.124776524238288,0.20358033421365543
1782986363279419000,7.9514189453125,-7.597345473033189,0.9834341140002012,0.3889531038245186
1782986363289494000,7.961493896484375,-4.352209120830893,0.6149864399246872,-0.6632759851887822
1782986363299567900,7.97156787109375,-3.6837270914316176,0.3713083242036402,-1.683566104029864
1782986363309642000,7.98164208984375,-3.6042706928789614,0.2604404499515891,-2.061903888478875
1782986363319716000,7.991716064453125,-2.8032489095151423,-0.2946910945996642,-1.6906353117637336
1782986363329791000,8.001791015625,-1.4015385300397871,-1.0931957805760204,-1.0527253115650266
1782986363339865000,8.011864990234375,0.4084907845199108,-1.4855802105560898,-0.4047314319863915
1782986363349939200,8.021939208984374,2.3942659575641154,-1.5775956464305518,0.11084500483311713
1782986363360014000,8.03201416015625,3.8416824416816233,-1.5516798455379903,0.36270810751020904
1782986363370088200,8.042088134765624,4.650903898113966,-1.4562868960544466,0.331045323930867
1782986363380162000,8.052162109375,4.898227384600043,-1.4957576134383677,0.057334400452487166
1782986363390237200,8.0622373046875,5.317673862898349,-1.6155992138713597,-0.5431706923183054
1782986363400311000,8.07231103515625,6.195093826287985,-1.7560286981724202,-1.1005246621593832
1782986363410385200,8.08238525390625,6.974817970079183,-2.018119107288122,-1.5398849244564772
1782986363420459000,8.092458984375,7.43760557745397,-2.0968356472589074,-1.6899826930738984
1782986363430534100,8.1025341796875,7.618916084328293,-1.9073564469762145,-1.331531073964387
1782986363440608000,8.11260791015625,7.75958010803759,-1.6463985490217803,-0.731769164243713
1782986363450682000,8.12268212890625,7.83774471321404,-1.5253728533707558,-0.2111563041595742
1782986363460757000,8.132757080078125,7.455075767692923,-1.4692111134268342,0.12807015253612772
1782986363470831000,8.1428310546875,6.619024756523967,-1.0894639005713165,0.2871258104445413
1782986363480905000,8.152905029296875,5.738254898184538,-0.41594226956963537,0.26446502929255367
1782986363490979000,8.16297900390625,5.341024927869439,0.17875614621639252,0.01457308055795729
1782986363501054000,8.173053955078124,5.258685082834958,0.4912513391844928,-0.4731893935974687
1782986363511128000,8.183128173828125,5.111673735925555,0.46244273945987224,-1.0664710013881324
1782986363521202200,8.1932021484375,5.019121124434471,0.43726007514744997,-1.5778044668756424
1782986363531277000,8.203277099609375,5.280862427851558,0.5187970793664455,-1.9981540314935147
1782986363541351200,8.21335107421875,5.688060834473371,0.6250386089920997,-2.2007475648932155
1782986363551425000,8.223425048828124,6.21895576339066,0.7815577889591455,-2.014924841291457
1782986363561500200,8.233500244140625,6.784123548787832,1.0221148500502109,-1.4458379827544092
1782986363571574000,8.243573974609374,7.109669508117437,1.3007824460878967,-0.7958505912709981
1782986363581648100,8.253648193359375,7.023158514878153,1.5622200903832912,-0.25043548102676866
1782986363591722000,8.263721923828125,6.675483725848793,1.8158660578891634,0.0733036937423516
1782986363601797000,8.273797119140625,6.090080377152562,1.8993845913141965,0.009797618917608632
1782986363611871000,8.28387109375,4.910871177595854,1.682332324451208,-0.41391807026565075
1782986363621945000,8.293945068359376,2.8601082763344046,1.3712237635359168,-1.1684368995212018
1782986363632020000,8.30402001953125,0.4607371045857668,0.8622679869651794,-2.3035998904719945
1782986363642094000,8.314093994140626,-2.0457032797843215,0.5430088528200984,-3.5439772599577903
1782986363652168000,8.32416796875,-4.969315767779946,0.6583513882681727,-4.136338464967906
1782986363662242000,8.334241943359375,-6.568913694921135,1.059262092922628,-3.5501857592090964
1782986363672317000,8.34431689453125,-6.41084611646831,1.0707660682335496,-1.3869317664079368
1782986363682391000,8.35439111328125,-5.278756980004906,-0.02988455839306116,1.7869214106947182
1782986363692465200,8.364465087890625,-3.9088060128837823,-1.940991736204922,5.467081165033578
1782986363702540000,8.3745400390625,-4.422863788768649,-4.199613836309314,8.038968127304315
1782986363712614100,8.3846142578125,-5.910837324202061,-5.939392972078919,8.105160555136203
1782986363722688000,8.39468798828125,-7.502562326011061,-6.314104821115732,6.171153563252091
1782986363732763100,8.40476318359375,-9.059999273771046,-6.187779119360447,3.9016739690467714
1782986363742837000,8.4148369140625,-11.023180337691306,-5.650309488227963,1.363175773897767
1782986363752911400,8.424911376953125,-14.025090701854229,-4.801612345975637,-1.0274046270214021
1782986363762985200,8.434985107421875,-17.80550706619024,-2.6324530746534465,-3.476429033602774
1782986363773060400,8.445060302734374,-19.519741426336765,1.1944801261857152,-5.032490893617272
1782986363783134200,8.45513427734375,-17.49698706046343,4.170464898714423,-3.994640714296698
1782986363793208000,8.4652080078125,-13.3140537253201,3.908862419246137,-1.4086777342699468
1782986363803283200,8.475283203125,-8.792662342303991,2.553660985228419,0.18883251814329996
1782986363813357000,8.485357177734375,-5.107815306931734,1.2450371779903768,0.21660010264869778
1782986363823431200,8.49543115234375,-2.9298189414203164,-0.10475158332884311,-0.3636402007285505
1782986363833506000,8.505506103515625,-1.8318857570588587,-1.295479955765605,-0.9368782606609165
1782986363843580200,8.515580078125,-1.2196195358783006,-2.0711695833437145,-1.0538847107332199
1782986363853654300,8.525654296875,-0.4661176285803318,-2.3336676964774727,-0.46568416906651106
1782986363863728400,8.535728271484375,0.4990256264477968,-2.2859451374463737,0.5515053899433463
1782986363873803300,8.54580322265625,1.5675632049769161,-1.9471926366716623,1.3713890371002255
1782986363883877400,8.55587744140625,2.6474562902569767,-1.6083872366659342,1.900135117420554
1782986363893951200,8.565951171875,3.6004251233667133,-1.4110859644554554,2.0100681950405237
1782986363904026400,8.5760263671875,4.282839232006669,-1.1188735349290073,1.63898593467772
1782986363914100200,8.586100341796875,4.932645202508568,-0.8237376191712915,0.8899222290229052
1782986363924174300,8.59617431640625,5.673102919316292,-0.7447519068703055,0.1757538956604898
1782986363934248200,8.606248291015625,6.4467848603338,-0.708643505526334,-0.28509163773581386
1782986363944323300,8.6163232421875,7.075390221896767,-0.5902399750724434,-0.6005745412778108
1782986363954397200,8.626397216796875,7.516852717170119,-0.2958436256356537,-0.7557097195405512
1782986363964471000,8.636470947265625,7.750663811132311,0.13098448734655976,-0.7956415516301989
1782986363974546200,8.646546142578124,7.526778483378886,0.506733424346149,-0.7876393738951534
1782986363984620300,8.656620361328125,7.015694754868745,0.8449170391917228,-0.6165680830929428
1782986363994694100,8.666694091796876,6.320264512789249,1.1572466663345693,-0.4330314976669848
1782986364004769300,8.676769287109375,5.813799676251411,1.4812000957757234,-0.317996566863358
1782986364014843100,8.686843017578125,5.547047851195931,1.6955390120267868,-0.3370063877597451
1782986364024917200,8.696917236328124,5.5135085696876045,1.9212889646083116,-0.47733073118589814
1782986364034991400,8.706991455078125,5.538477591249347,2.198772611558437,-0.6276797711506485
1782986364045066200,8.717066162109376,5.596524706548452,2.4403441103890535,-0.7593350704308599
1782986364055140400,8.727140380859375,5.600210701584816,2.670891234119236,-0.916047069556266
1782986364065214200,8.737214111328125,5.466767861300706,2.9821140690639614,-1.017932449799031
1782986364075289300,8.747289306640624,5.268713724896312,3.3419995203688737,-1.1264707851249725
1782986364085363200,8.75736328125,4.9688341217428444,3.638408524802327,-1.2044837068710474
1782986364095437300,8.767437255859376,4.711421202918887,3.9060058607712387,-1.216981953916326
1782986364105511200,8.77751123046875,4.480521612489223,4.122666205707192,-1.3897078069925308
1782986364115586300,8.78758642578125,4.4277340251535175,4.26471876116544,-1.6747133738800883
1782986364125660200,8.79766015625,4.03076241351366,4.290545276339352,-1.8359815019398926
1782986364135734300,8.807734375,2.8572154775023457,4.120154222886264,-1.8863658275261521
1782986364145809200,8.81780908203125,1.498344122800231,3.471743798395991,-1.9857626058235764
1782986364155883300,8.82788330078125,0.66438979164958,2.4222207169383765,-1.8210694717511533
1782986364165957000,8.83795703125,-0.12350304554998874,1.256376025867462,-0.9737994396924972
1782986364176032300,8.8480322265625,-0.968376245599985,-0.24010581019222735,0.7114774868432432
1782986364186106000,8.858106201171875,-1.4284370583593844,-2.3532003722041845,2.50694131962955
1782986364196180200,8.86818017578125,-1.6731442248672246,-4.920042910566925,4.081942565652728
1782986364206254300,8.87825439453125,-3.4104911650538443,-7.259491236272454,5.24262475939393
1782986364216329200,8.8883291015625,-7.889837888544798,-8.59387346188426,5.17604537807107
1782986364226403300,8.8984033203125,-11.84892505890131,-8.58499632794559,3.6036323949754236
1782986364236477200,8.908477294921875,-12.68082830274105,-9.68350175923705,1.865424892436713
1782986364246552300,8.91855224609375,-10.295948597681521,-11.878144139122963,1.1998028555784375
1782986364256626200,8.928626220703125,-6.451059468913078,-12.925287047445773,0.6295443229135126
1782986364266700300,8.9387001953125,-3.309380568575859,-13.088452825820445,0.09014774230644107
1782986364276774100,8.948774169921874,-2.6345266660571096,-11.94952244516015,0.000951565103791654
1782986364286849300,8.958849365234375,-4.364633718118071,-8.66112738146782,-0.31770953008290376
1782986364296923100,8.968923095703126,-6.203349613457918,-4.921939684098959,-0.6937220499221235
1782986364306997200,8.978997314453125,-6.842299258902669,-2.279545937928557,-0.8511232003554702
1782986364317072100,8.989072021484375,-6.2247776014119385,-0.6407593252152204,-0.8719370749991386
1782986364327146200,8.999146240234374,-4.79336415759027,0.2876291933894157,-1.0808491438958794
1782986364337220000,9.00922021484375,-3.351839654120803,0.89129563626796,-1.4583932206839323
1782986364347295200,9.019295166015626,-2.179116309452057,1.4827195604279637,-1.6442114142410456
1782986364357369000,9.029369140625,-1.0136462969124316,1.8593495180457829,-1.6785989831417798
1782986364367443200,9.039443115234375,0.49530046844482417,1.8856532953426242,-1.6977081727594137
1782986364377517300,9.049517333984374,2.1168232271462677,1.7071806422427296,-1.546820861199498
1782986364387592200,9.05959228515625,3.753067169639468,1.4722484352961183,-1.2748884186357259
1782986364397666300,9.069666259765626,5.113841143092513,1.2886834274932741,-0.943607422785461
1782986364407740200,9.079740234375,6.068977383369207,1.230215748694539,-0.7319538731608539
1782986364417815300,9.089815185546875,6.603373598405718,1.164664541375637,-0.7233715574502945
1782986364427889200,9.09988916015625,6.750764884543418,1.1511755297273396,-0.6783923057779669
1782986364437963300,9.10996337890625,6.61066258637011,1.243582303006947,-0.5805453142058103
1782986364448038100,9.1200380859375,6.190725694206357,1.4361360884293912,-0.3943779784174636
1782986364458112300,9.1301123046875,5.513131553068757,1.7087608971714972,-0.3304430837213993
1782986364468186000,9.14018603515625,5.2511739765524865,1.9169205402657388,-0.4251052712449804
1782986364478260200,9.15026025390625,5.520936673861741,1.9408964591369031,-0.47973147218469525
1782986364488335000,9.160335205078125,6.002137889805436,1.7661697145670652,-0.3791058462120592
1782986364498409200,9.1704091796875,6.5304340344011775,1.6199559477761387,-0.24930980146508663
1782986364508483000,9.180483154296875,6.93754184013009,1.6333879685401915,-0.11537182547464035
1782986364518558200,9.19055810546875,7.130462705299258,1.6939803844079375,0.009875368320447159
1782986364528632000,9.200632080078124,7.032388115516304,1.7297972554594276,0.08817624130407348
1782986364538706200,9.2107060546875,6.870201411306858,1.8397110438570379,0.1444250202106312
1782986364548780300,9.2207802734375,6.73949647155404,2.0270181607976556,0.15043628898994066
1782986364558855200,9.230855224609375,6.578199994182587,2.126518983991444,0.06726654160311445
1782986364568929300,9.24092919921875,6.271003346014022,2.179609645926952,0.04360613668821752
1782986364579003100,9.251003173828124,5.282476292788982,2.281848077391088,-0.06049513863888569
1782986364589078300,9.261078369140625,4.225927258217334,2.5389628900513053,-0.39666839090958234
1782986364599152400,9.27115234375,3.7415754692882297,2.870850035101175,-0.7537938759818673
1782986364609226200,9.281226318359375,3.5803462119340894,2.908811224704981,-1.0455586348060517
1782986364619301400,9.29130126953125,3.8554192906111475,2.7666391345202923,-1.0742729073107242
1782986364629375200,9.301375244140624,4.286871264001727,2.5871803929924964,-1.0307651894956826
1782986364639449000,9.311448974609375,4.7075960916727775,2.5212933778479694,-1.0059645102381705
1782986364649524200,9.321524169921876,4.9118432374984025,2.5080308684319257,-0.9256012259736657
1782986364659598000,9.33159814453125,4.9193806472659105,2.4707062231659886,-0.8452221596181392
1782986364669672200,9.341672119140625,4.87465946200788,2.3566408680468798,-0.7905058692421764
1782986364679747000,9.3517470703125,4.275758918356895,2.262735088381171,-0.7035077500730752
1782986364689821200,9.3618212890625,2.1715181094080207,1.923430945073068,-0.43407077758684753
1782986364699895000,9.37189501953125,-0.7740197946697474,1.3083186868116259,0.11980159721616655
1782986364709969400,9.381969482421875,-3.4954636966794728,0.5177519542276859,0.7984894884072243
1782986364720044000,9.3920439453125,-5.661607127311825,-0.7854185560405254,1.4612719909906386
1782986364730118400,9.402118408203124,-7.050608247339725,-2.5566207118168474,2.0797293218962847
1782986364740192300,9.412192138671875,-7.8785875957339995,-4.2162487447679045,1.3421072669059038
1782986364750267100,9.42226708984375,-8.986161299622058,-5.66128154861927,-0.055871351295756176
1782986364760341000,9.432341064453125,-10.79773258292675,-6.409636740678549,-0.8015347013220191
1782986364770414800,9.442414794921875,-13.220269526207446,-6.203866330808401,0.06225443536241073
1782986364780490000,9.452489990234374,-13.911151018941402,-5.3758232695281505,1.8782019564233718
1782986364790563800,9.462563720703125,-12.353283278548716,-5.050988673338294,3.4002500492855905
1782986364800638000,9.472637939453126,-9.913341611480712,-5.902816514831781,3.9567151805281635
1782986364810711800,9.4827119140625,-8.576982532837986,-5.59059765458703,3.1197531919941306
1782986364820787000,9.492786865234375,-9.787413969132304,-2.8354025818839665,1.8051112935103475
1782986364830860800,9.50286083984375,-11.383215426599978,0.1557125397592783,0.9477191689532249
1782986364840935000,9.512934814453125,-11.48069964927435,1.4651239902436732,-0.06601042232848703
1782986364851009800,9.523009765625,-9.62122971971929,1.1792708666160703,-1.6597446450680493
1782986364861084000,9.533083984375,-6.92206428501308,0.3205693399608135,-2.9233839399367567
1782986364871157800,9.54315771484375,-5.169947645717859,-0.23453648562729357,-2.9125495344504713
1782986364881233000,9.55323291015625,-5.074955824381113,0.016260522188246248,-1.6436255771771073
1782986364891306800,9.563306640625,-5.8452837787956,0.6554670650035143,-0.29862025074213744
1782986364901381000,9.573381103515626,-5.721947321984172,1.0357195970326663,0.6776013015307486
1782986364911455000,9.583455078125,-4.210298896452784,0.5920512622781098,1.389437904009968
1782986364921530000,9.593530029296875,-1.7326427080184221,-0.2842776910044253,1.5814112591959535
1782986364931604000,9.60360400390625,0.9961819518923759,-1.271888944558799,1.2997665470436215
1782986364941677800,9.613677734375,3.361639748123288,-1.890159082329273,0.8505815677594393
1782986364951753000,9.6237529296875,5.234483538514375,-1.9950138337716459,0.6451249730788171
1782986364961827000,9.6338271484375,6.479280185747146,-1.7166218398049473,0.696568963785842
1782986364971901000,9.64390087890625,6.9651201674073935,-1.197313011524081,0.8945244621213525
1782986364981974800,9.653974853515624,7.018043948343395,-0.5616849117174745,1.0770479980472474
1782986364992050000,9.6640498046875,6.847865660858154,0.055767479929327964,1.2482768905639647
1782986365002123800,9.674123779296876,6.466595476219058,0.4037853833079338,1.2948280677281319
1782986365012198000,9.684197998046875,5.854725560879707,0.5172112714797258,1.0748944002099334
1782986365022272800,9.694272705078125,5.179322792306542,0.7581053094401955,0.5603512154283001
1782986365032347000,9.704346923828124,4.695165064644813,0.97002693541646,-0.14401443924889898
1782986365042421000,9.7144208984375,4.438952753782272,1.0532707435533404,-0.9440617424242198
1782986365052496000,9.724495849609376,4.5075306154459716,1.0697925470262766,-1.6093476061306893
1782986365062570000,9.734570068359375,4.770788753166794,1.3703949114963412,-1.7887920268721877
1782986365072644000,9.74464404296875,5.125368499279022,1.8293275970086453,-1.5628759239435195
1782986365082718000,9.754718017578124,5.564120566549897,2.1975395626321435,-1.0518217137888073
1782986365092793000,9.76479296875,6.013602702149749,2.3938240590155124,-0.6895313932992517
1782986365102867000,9.774866943359376,6.41976124432981,2.510040746949613,-0.7496244813427329
1782986365112941000,9.784941162109375,6.673580522575974,2.6876889319241046,-0.7529040144700556
1782986365123016000,9.795015869140625,7.034860058587789,2.4369737571731207,-0.6004132863014936
1782986365133090000,9.805090087890624,6.961987714600562,2.7735949450075625,-0.624273835164681
1782986365143164000,9.815163818359375,6.530608221924305,3.176838476523757,-0.6916276349261403
1782986365153239000,9.825239013671874,6.286778422772884,3.098031774051487,-0.8995183979511261
1782986365163313000,9.83531298828125,5.910068677917122,2.981765694017708,-1.1918516043130307
1782986365173386800,9.84538671875,5.301190345609188,3.0033500415772196,-1.321703945824504
