time,seconds_elapsed,z,y,x
1782986355388733400,0.0607333984375,0.5907050967216492,-0.49566859006881714,-0.12750975787639618
1782986355398807300,0.070807373046875,0.49416205286979675,-0.3170818090438843,-0.44332391023635864
1782986355408882400,0.08088232421875,0.3499007523059845,-0.3315680921077728,-0.7630065679550171
1782986355418956300,0.090956298828125,0.08216491341590881,-0.9473819732666016,-1.4128519296646118
1782986355429030400,0.101030517578125,-0.24903512001037598,-1.6696456670761108,-2.1620023250579834
1782986355439104300,0.111104248046875,-0.4258999228477478,-2.00587797164917,-2.585252523422241
1782986355449179400,0.121179443359375,-0.412140429019928,-2.0463428497314453,-2.6059272289276123
1782986355459253200,0.131253173828125,-0.23708444833755493,-1.8707726001739502,-2.317830801010132
1782986355469327400,0.141327392578125,0.017181649804115295,-1.6953028440475464,-1.974189281463623
1782986355479402200,0.15140234375,0.268011212348938,-1.5446091890335083,-1.6620253324508667
1782986355489476400,0.161476318359375,0.5002066493034363,-1.177316427230835,-1.305391550064087
1782986355499550500,0.171550537109375,0.6502912044525146,-0.6648344397544861,-0.949286937713623
1782986355509624300,0.181624267578125,0.6109728217124939,-0.24460521340370178,-0.6921310424804688
1782986355519699500,0.191699462890625,0.4426138997077942,0.08808884769678116,-0.5186554193496704
1782986355529773300,0.201773193359375,0.28520724177360535,0.3000951111316681,-0.37082839012145996
1782986355539847400,0.211847412109375,0.2009219229221344,0.33037737011909485,-0.21661007404327393
1782986355549922300,0.22192236328125,0.17523200809955597,0.1958395391702652,-0.07620874792337418
1782986355559996400,0.231996337890625,0.21533282101154327,-0.08360381424427032,0.014977351762354374
1782986355570070300,0.2420703125,0.29216793179512024,-0.2739359438419342,0.07543297111988068
1782986355580144400,0.252144287109375,0.33595991134643555,-0.2686495780944824,0.09748288244009018
1782986355590219300,0.26221923828125,0.31284233927726746,-0.1308927685022354,0.08393298089504242
1782986355600293400,0.27229345703125,0.22023703157901764,0.032704684883356094,0.06397604942321777
1782986355610367200,0.2823671875,0.08748351037502289,0.1719198375940323,0.028745627030730247
1782986355620442400,0.2924423828125,-0.056528255343437195,0.2641083598136902,-0.017792578786611557
1782986355630516200,0.30251611328125,-0.18843701481819153,0.37033891677856445,-0.002805373864248395
1782986355640590300,0.31259033203125,-0.30337560176849365,0.4962763488292694,0.09962140023708344
1782986355650664400,0.32266455078125,-0.3861897885799408,0.5825070738792419,0.259566068649292
1782986355660739300,0.3327392578125,-0.4257105588912964,0.5616534948348999,0.4332009553909302
1782986355670813400,0.3428134765625,-0.4272027313709259,0.4238370358943939,0.5657907128334045
1782986355680887300,0.35288720703125,-0.41202032566070557,0.2800295352935791,0.644357442855835
1782986355690962400,0.36296240234375,-0.37658241391181946,0.19785049557685852,0.661178469657898
1782986355701036500,0.37303662109375,-0.3479244112968445,0.1304387003183365,0.6533581018447876
1782986355711110400,0.3831103515625,-0.35548967123031616,0.07881545275449753,0.6526179909706116
1782986355721184300,0.393184326171875,-0.4025506377220154,0.11775059998035431,0.6649718880653381
1782986355731259400,0.40325927734375,-0.49280330538749695,0.23737527430057526,0.656173050403595
1782986355741331700,0.413331787109375,-0.612315833568573,0.37047019600868225,0.6056914925575256
1782986355751406000,0.423406005859375,-0.7180641293525696,0.486596018075943,0.52594393491745
1782986355761480700,0.433480712890625,-0.7484912872314453,0.5865383148193359,0.45327508449554443
1782986355771555000,0.44355517578125,-0.7449558973312378,0.650714635848999,0.3712766170501709
1782986355781629000,0.45362890625,-0.7604230046272278,0.6731464266777039,0.30701586604118347
1782986355791704000,0.4637041015625,-0.7319908738136292,0.7000105381011963,0.32013779878616333
1782986355801778000,0.47377783203125,-0.5907924771308899,0.7858900427818298,0.45554834604263306
1782986355811852000,0.48385205078125,-0.4005519449710846,0.9943385720252991,0.7114408612251282
1782986355821926000,0.49392578125,-0.21853527426719666,1.258376121520996,1.0377060174942017
1782986355832001000,0.5040009765625,0.01455737091600895,1.4777973890304565,1.3950122594833374
1782986355842075000,0.514074951171875,0.32783034443855286,1.5666625499725342,1.7475183010101318
1782986355852149000,0.52414892578125,0.6762261390686035,1.3998162746429443,2.007551908493042
1782986355862224000,0.534223876953125,0.896163821220398,0.9467340707778931,2.0374908447265625
1782986355872298000,0.544298095703125,0.8962548971176147,0.29906898736953735,1.7796493768692017
1782986355882371800,0.554371826171875,0.8012338280677795,-0.1925441473722458,1.3393985033035278
1782986355892446000,0.564446044921875,0.7245166897773743,-0.23985306918621063,0.8305328488349915
1782986355902520800,0.574520751953125,0.6294460892677307,-0.14619210362434387,0.24893657863140106
1782986355912595000,0.584594970703125,0.5505353212356567,-0.4185005724430084,-0.6173337697982788
1782986355922669000,0.5946689453125,0.48682478070259094,-1.1572848558425903,-1.6745493412017822
1782986355932744000,0.604743896484375,0.5542762279510498,-1.6723074913024902,-2.3169400691986084
1782986355942818000,0.614818115234375,0.8139954209327698,-1.586927056312561,-2.289175510406494
1782986355952892000,0.624891845703125,1.1073991060256958,-1.0273714065551758,-1.7243579626083374
1782986355962967000,0.634967041015625,1.2076694965362549,-0.5056315064430237,-0.9659980535507202
1782986355973041000,0.645041015625,0.9824371933937073,-0.10435197502374649,-0.40912413597106934
1782986355983115000,0.655114990234375,0.583389163017273,0.3582036793231964,-0.18595202267169952
1782986355993188900,0.66518896484375,0.11500035226345062,0.622163712978363,-0.30554312467575073
1782986356003264000,0.675263916015625,-0.3548728823661804,0.7001509070396423,-0.6565882563591003
1782986356013337900,0.685337890625,-0.6036357879638672,0.7544985413551331,-0.8524943590164185
1782986356023412000,0.695411865234375,-0.5999696850776672,0.742760956287384,-0.7194803953170776
1782986356033486800,0.70548681640625,-0.4044686555862427,0.5492023825645447,-0.4110985994338989
1782986356043561000,0.71556103515625,-0.14550846815109253,0.24969744682312012,-0.07708945870399475
1782986356053634800,0.725634765625,0.08910750597715378,-0.002427471335977316,0.2034284919500351
1782986356063709000,0.735708984375,0.25479528307914734,-0.10143128037452698,0.4013916254043579
1782986356073783800,0.74578369140625,0.30644887685775757,-0.08781453967094421,0.4828207194805145
1782986356083858000,0.75585791015625,0.25048574805259705,0.012959208339452744,0.42501306533813477
1782986356093932000,0.76593212890625,0.12574248015880585,0.18180255591869354,0.308772474527359
1782986356104007000,0.7760068359375,-0.03716627508401871,0.32013165950775146,0.19651146233081818
1782986356114081000,0.7860810546875,-0.20820140838623047,0.3539316952228546,0.11975836008787155
1782986356124155000,0.79615478515625,-0.3352741301059723,0.3137193024158478,0.07107231020927429
1782986356134229000,0.80622900390625,-0.4080143868923187,0.2484564185142517,0.03274276480078697
1782986356144304000,0.81630419921875,-0.4090713858604431,0.2001754343509674,-0.00920441746711731
1782986356154378000,0.8263779296875,-0.3610396981239319,0.1493157148361206,-0.015671636909246445
1782986356164451800,0.836451904296875,-0.27481240034103394,0.10302731394767761,0.036372389644384384
1782986356174527000,0.84652685546875,-0.16864973306655884,0.06094910576939583,0.10015376657247543
1782986356184600800,0.856600830078125,-0.08384936302900314,0.02052018791437149,0.16922497749328613
1782986356194675000,0.866675048828125,-0.07281428575515747,0.010861169546842575,0.2472345530986786
1782986356204748800,0.876748779296875,-0.13487686216831207,0.009104016236960888,0.3056110441684723
1782986356214824000,0.886823974609375,-0.2963126301765442,-0.02076253667473793,0.2126893699169159
1782986356224897800,0.896897705078125,-0.4240058660507202,-0.15510302782058716,0.058332547545433044
1782986356234972000,0.906971923828125,-0.4349147081375122,0.02353781647980213,0.0873226523399353
1782986356245046800,0.917046875,-0.41017821431159973,0.15298928320407867,0.22138725221157074
1782986356255121000,0.927120849609375,-0.4319351613521576,0.12446656078100204,0.3564004600048065
1782986356265195000,0.937195068359375,-0.40857791900634766,-0.13124030828475952,0.464672327041626
1782986356275269000,0.94726904296875,-0.30571064352989197,-0.5259194374084473,0.536325216293335
1782986356285344000,0.957343994140625,-0.23543675243854523,-1.066057801246643,0.4985107183456421
1782986356295418000,0.967418212890625,-0.25805792212486267,-1.3888381719589233,0.4928610920906067
1782986356305492000,0.977491943359375,-0.31935587525367737,-1.368587851524353,0.5741740465164185
1782986356315567000,0.987567138671875,-0.2817842662334442,-0.9292253851890564,0.6933819651603699
1782986356325641000,0.997640869140625,-0.06210944429039955,-0.35286083817481995,0.8327704668045044
1782986356335714800,1.00771484375,0.2902297079563141,0.14736256003379822,1.0297621488571167
1782986356345789000,1.017788818359375,0.6171196699142456,0.3082371950149536,1.2467029094696045
1782986356355863800,1.02786376953125,0.8287304639816284,-0.14515027403831482,1.2878639698028564
1782986356365938000,1.03793798828125,0.8678150177001953,-0.8843154311180115,1.063077688217163
1782986356376011800,1.04801171875,0.8336442708969116,-1.3096344470977783,0.6436349153518677
1782986356386087000,1.0580869140625,0.8403759002685547,-1.0703386068344116,0.1851663887500763
1782986356396160800,1.068160888671875,0.789609432220459,-0.8319504857063293,-0.45602717995643616
1782986356406235000,1.07823486328125,0.5330263376235962,-0.8881610035896301,-1.4004544019699097
1782986356416309800,1.088309814453125,0.07431177794933319,-0.6330453753471375,-2.2917516231536865
1782986356426384000,1.0983837890625,-0.31221461296081543,0.0782223641872406,-2.722156286239624
1782986356436458000,1.1084580078125,-0.5232035517692566,0.643621563911438,-2.7155630588531494
1782986356446532000,1.118531982421875,-0.4790531396865845,0.6617302894592285,-2.37949275970459
1782986356456607000,1.12860693359375,-0.2588571310043335,0.1674707531929016,-1.965664029121399
1782986356466681000,1.13868115234375,-0.000984836951829493,-0.38947051763534546,-1.5590773820877075
1782986356476755000,1.1487548828125,0.20149077475070953,-0.6373946070671082,-1.190250277519226
1782986356486830000,1.158830078125,0.34105026721954346,-0.6228066086769104,-0.8429788947105408
1782986356496904000,1.168904052734375,0.41325414180755615,-0.48508599400520325,-0.6258183717727661
1782986356506978000,1.17897802734375,0.37811028957366943,-0.2544003129005432,-0.5572246313095093
1782986356517052000,1.189052001953125,0.25399231910705566,0.07664524018764496,-0.6068020462989807
1782986356527127000,1.199126953125,0.07676614820957184,0.3998488783836365,-0.7418102025985718
1782986356537201000,1.209200927734375,-0.09064841270446777,0.6501737833023071,-0.8620050549507141
1782986356547274800,1.219274658203125,-0.24638953804969788,0.7806686758995056,-0.9624459147453308
1782986356557350000,1.229349853515625,-0.3755403459072113,0.7992181181907654,-1.0075228214263916
1782986356567423700,1.239423828125,-0.4846915900707245,0.7610810995101929,-0.9970464706420898
1782986356577497900,1.249497802734375,-0.5749839544296265,0.7014521360397339,-0.8966906070709229
1782986356587572000,1.259572021484375,-0.6406891942024231,0.5968927145004272,-0.6924245357513428
1782986356597646800,1.269646728515625,-0.6874473690986633,0.4061480462551117,-0.4732373356819153
1782986356607721000,1.279720947265625,-0.7419471144676208,0.14645148813724518,-0.27409839630126953
1782986356617795000,1.289795166015625,-0.7828242182731628,-0.09602905809879303,-0.11442750692367554
1782986356627870000,1.299869873046875,-0.7631080150604248,-0.2412741333246231,-0.06238428130745888
1782986356637944000,1.309944091796875,-0.6564292311668396,-0.2053598165512085,-0.06865682452917099
1782986356648018000,1.320017822265625,-0.5239657759666443,-0.0036884781438857317,-0.066329225897789
1782986356658093000,1.330093017578125,-0.43291041254997253,0.21059691905975342,-0.048645831644535065
1782986356668167000,1.3401669921875,-0.4084833562374115,0.3335508108139038,-0.01389877125620842
1782986356678241000,1.350240966796875,-0.45475420355796814,0.3896116614341736,0.03179255127906799
1782986356688315000,1.36031494140625,-0.538781464099884,0.4274764955043793,0.06641843914985657
1782986356698390000,1.37039013671875,-0.6373500823974609,0.44630637764930725,0.09994950145483017
1782986356708463900,1.3804638671875,-0.7367741465568542,0.44142958521842957,0.152517631649971
1782986356718537700,1.390537841796875,-0.8207274079322815,0.41035982966423035,0.2518106698989868
1782986356728612900,1.40061279296875,-0.8682501912117004,0.3757917284965515,0.40946847200393677
1782986356738687000,1.41068701171875,-0.8636034727096558,0.44091400504112244,0.6026043891906738
1782986356748761300,1.42076123046875,-0.8394526243209839,0.5029755234718323,0.7529270052909851
1782986356758835200,1.430835205078125,-0.8392168879508972,0.4375866651535034,0.7736208438873291
1782986356768910300,1.440910400390625,-0.8829683661460876,0.24594639241695404,0.6458354592323303
1782986356778984200,1.450984130859375,-0.97342848777771,-0.035416312515735626,0.3875511884689331
1782986356789058600,1.46105859375,-1.1345726251602173,-0.2643144726753235,0.11433376371860504
1782986356799133400,1.471133544921875,-1.3831098079681396,-0.24461720883846283,-0.12014025449752808
1782986356809207600,1.48120751953125,-1.5893033742904663,0.029025260359048843,-0.24577541649341583
1782986356819281400,1.491281494140625,-1.7090671062469482,0.43309763073921204,-0.19875118136405945
1782986356829355500,1.50135546875,-1.6742825508117676,0.7064911127090454,-0.02640364319086075
1782986356839430400,1.511430419921875,-1.4147859811782837,0.5258350372314453,0.20146679878234863
1782986356849504500,1.52150439453125,-1.1189016103744507,-0.11704006791114807,0.34555020928382874
1782986356859578400,1.531578369140625,-1.0112632513046265,-0.8135136961936951,0.21560552716255188
1782986356869653500,1.541653564453125,-0.9020012021064758,-1.126495599746704,-0.12258237600326538
1782986356879727400,1.551727294921875,-0.6927672624588013,-0.9709307551383972,-0.29215916991233826
1782986356889801500,1.561801513671875,-0.6367127895355225,-0.578316867351532,-0.34832069277763367
1782986356899875300,1.571875244140625,-0.7287279367446899,-0.08581344038248062,-0.4375360608100891
1782986356909950500,1.581950439453125,-0.9009034633636475,0.39247164130210876,-0.681115984916687
1782986356920024300,1.5920244140625,-1.141319751739502,0.5503448843955994,-1.0941269397735596
1782986356930098400,1.602098388671875,-1.2736834287643433,0.4081454277038574,-1.416418194770813
1782986356940173300,1.61217333984375,-1.2513374090194702,0.13791686296463013,-1.4309779405593872
1782986356950247400,1.622247314453125,-1.1304426193237305,-0.08843611925840378,-1.1562950611114502
1782986356960321500,1.632321533203125,-0.9574649930000305,-0.056658752262592316,-0.7650840878486633
1782986356970395400,1.6423955078125,-0.8214746713638306,0.08241605013608932,-0.37794941663742065
1782986356980470500,1.652470458984375,-0.7600019574165344,0.21652324497699738,-0.08566510677337646
1782986356990544400,1.66254443359375,-0.7820572257041931,0.3914966583251953,0.0925871878862381
1782986357000618500,1.672618408203125,-0.8935768008232117,0.44628214836120605,0.23420584201812744
1782986357010693400,1.682693359375,-1.0670874118804932,0.29671555757522583,0.4173857867717743
1782986357020767500,1.692767578125,-1.1308666467666626,0.08253882080316544,0.6240947246551514
1782986357030841300,1.70284130859375,-1.0081121921539307,-0.13208772242069244,0.7301527261734009
1782986357040916500,1.71291650390625,-0.7783642411231995,-0.22214092314243317,0.738584041595459
1782986357050990300,1.722990234375,-0.48154959082603455,-0.1367703676223755,0.7275398969650269
1782986357061064400,1.733064453125,-0.10828971862792969,-0.03651167079806328,0.7203171849250793
1782986357071138300,1.74313818359375,0.19483047723770142,-0.058452390134334564,0.6494054198265076
1782986357081213400,1.75321337890625,0.36198458075523376,-0.27144214510917664,0.5812489986419678
1782986357091287300,1.763287353515625,0.4045597314834595,-0.6737169027328491,0.511734664440155
1782986357101361400,1.773361328125,0.37758564949035645,-1.1153994798660278,0.4022590219974518
1782986357111436300,1.783436279296875,0.3549535572528839,-1.4134035110473633,0.2633187174797058
1782986357121510400,1.793510498046875,0.3546268045902252,-1.4973803758621216,0.11246449500322342
1782986357131584500,1.80358447265625,0.33058086037635803,-1.395501971244812,-0.04644020274281502
1782986357141658400,1.813658447265625,0.30721133947372437,-1.1690996885299683,-0.13734561204910278
1782986357151733500,1.8237333984375,0.2792380452156067,-0.9475439190864563,-0.20323540270328522
1782986357161807600,1.8338076171875,0.2143077701330185,-0.7031291127204895,-0.2771573066711426
1782986357171881500,1.843881591796875,0.13522067666053772,-0.5584939122200012,-0.30736634135246277
1782986357181956600,1.85395654296875,0.03548262640833855,-0.5768436193466187,-0.33170604705810547
1782986357192030500,1.864030517578125,-0.04248088225722313,-0.5927778482437134,-0.3288053274154663
1782986357202104300,1.874104248046875,-0.06316911429166794,-0.5793203711509705,-0.27783241868019104
1782986357212178400,1.884178466796875,-0.04662342742085457,-0.50209641456604,-0.18646708130836487
1782986357222253300,1.89425341796875,-0.05097876116633415,-0.40614911913871765,-0.09628845006227493
1782986357232327400,1.904327392578125,-0.054370298981666565,-0.30875223875045776,0.014939001761376858
1782986357242401300,1.9144013671875,-0.060021791607141495,-0.16838128864765167,0.16905640065670013
1782986357252476400,1.924476318359375,-0.04284173995256424,-0.09851911664009094,0.3577674627304077
1782986357262550300,1.93455029296875,-0.06498698890209198,-0.15244759619235992,0.5352218747138977
1782986357272624400,1.944624267578125,-0.16418202221393585,-0.28563761711120605,0.5778779983520508
1782986357282698500,1.954698486328125,-0.27718979120254517,-0.4399819076061249,0.4576117694377899
1782986357292773400,1.9647734375,-0.22351990640163422,-0.1583198606967926,0.46653735637664795
1782986357302847500,1.974847412109375,-0.1004863902926445,0.34940245747566223,0.5766486525535583
1782986357312921600,1.984921630859375,0.007275755982846022,0.9467718601226807,0.735589861869812
1782986357322996500,1.99499658203125,0.09850659966468811,1.4500550031661987,0.9139995574951172
1782986357333070600,2.005070556640625,0.15574698150157928,1.4636293649673462,0.9804658889770508
1782986357343144400,2.01514453125,0.24797305464744568,1.0048847198486328,0.9653292894363403
1782986357353218300,2.02521826171875,0.2166590690612793,-0.009061671793460846,0.7160523533821106
1782986357363293400,2.03529345703125,0.021801702678203583,-0.9615729451179504,0.23367933928966522
1782986357373367300,2.0453671875,-0.1537112593650818,-1.1252491474151611,-0.17436248064041138
1782986357383441400,2.05544140625,-0.21925219893455505,-0.7542386651039124,-0.324461966753006
1782986357393516500,2.0655166015625,-0.09673826396465302,-0.6510398387908936,-0.44591623544692993
1782986357403590400,2.07559033203125,0.0701117068529129,-0.47291749715805054,-0.8515025973320007
1782986357413664300,2.085664306640625,0.06627435982227325,0.23553875088691711,-1.39377760887146
1782986357423738400,2.09573828125,-0.13344168663024902,1.0500801801681519,-1.7689882516860962
1782986357433813200,2.105813232421875,-0.33962494134902954,1.3615509271621704,-1.7639117240905762
1782986357443887400,2.115887451171875,-0.35630297660827637,1.1152706146240234,-1.360158920288086
1782986357453961500,2.12596142578125,-0.24659833312034607,0.3551279902458191,-0.8065676093101501
1782986357464036400,2.136036376953125,-0.14048999547958374,-0.5206527709960938,-0.3409937918186188
1782986357474110500,2.1461103515625,-0.014838334172964096,-0.9725531339645386,-0.02827531285583973
1782986357484184600,2.1561845703125,0.09981847554445267,-0.663182258605957,0.0639377012848854
1782986357494259500,2.166259521484375,0.161631241440773,0.1038997694849968,-0.028175178915262222
1782986357504333600,2.17633349609375,0.16424059867858887,0.8955845832824707,-0.15030641853809357
1782986357514407400,2.186407470703125,0.08042799681425095,1.2944318056106567,-0.14966459572315216
1782986357524481500,2.1964814453125,-0.08516442775726318,1.0123071670532227,0.001186970854178071
1782986357534556400,2.206556396484375,-0.30063119530677795,0.32937178015708923,0.16180939972400665
1782986357544630500,2.216630615234375,-0.5374138951301575,-0.3028333783149719,0.17864990234375
1782986357554704400,2.226704345703125,-0.681499183177948,-0.65019690990448,0.10763218998908997
1782986357564779500,2.236779541015625,-0.6602005362510681,-0.7092596888542175,0.004465588368475437
1782986357574853400,2.246853271484375,-0.5393785238265991,-0.5077652335166931,-0.1624235361814499
1782986357584927200,2.25692724609375,-0.4499730169773102,-0.1794094443321228,-0.3881804943084717
1782986357595001300,2.26700146484375,-0.4260157644748688,0.08462806791067123,-0.571666955947876
1782986357605076200,2.277076171875,-0.4238838851451874,0.21184061467647552,-0.6417232751846313
1782986357615150300,2.287150390625,-0.3960205614566803,0.13981595635414124,-0.586163341999054
1782986357625224400,2.297224365234375,-0.3965659737586975,-0.08076968044042587,-0.4436432123184204
1782986357635299300,2.30729931640625,-0.4168957471847534,-0.36469727754592896,-0.2682170569896698
1782986357645373400,2.31737353515625,-0.4229089021682739,-0.6080271005630493,-0.12749963998794556
1782986357655447600,2.327447509765625,-0.3984789252281189,-0.788268506526947,-0.02533331885933876
1782986357665521400,2.337521484375,-0.33381420373916626,-0.868969738483429,0.027097664773464203
1782986357675596500,2.347596435546875,-0.2693406641483307,-0.8405559659004211,0.0020240023732185364
1782986357685670400,2.35767041015625,-0.22269831597805023,-0.7237520813941956,-0.07483881711959839
1782986357695744500,2.36774462890625,-0.16856637597084045,-0.5631179809570312,-0.14686773717403412
1782986357705819400,2.3778193359375,-0.15248088538646698,-0.49285125732421875,-0.16890113055706024
1782986357715893500,2.3878935546875,-0.19227756559848785,-0.38547471165657043,-0.05974934995174408
1782986357725967400,2.39796728515625,-0.27875733375549316,-0.3047412633895874,0.146763876080513
1782986357736041200,2.408041259765625,-0.38763001561164856,-0.27322009205818176,0.4037115275859833
1782986357746116000,2.4181162109375,-0.5253812074661255,-0.2892374098300934,0.6059415936470032
1782986357756190000,2.42818994140625,-0.6756149530410767,-0.29668864607810974,0.687473714351654
1782986357766264300,2.438264404296875,-0.7869691848754883,-0.2736445963382721,0.6856973767280579
1782986357776339000,2.4483388671875,-0.8018844723701477,-0.20394940674304962,0.6071434617042542
1782986357786413300,2.458413330078125,-0.7375177145004272,-0.17020688951015472,0.45084148645401
1782986357796487200,2.468487060546875,-0.6962062120437622,-0.21809078752994537,0.26495763659477234
1782986357806561300,2.478561279296875,-0.7473970055580139,-0.16794613003730774,0.10861169546842575
1782986357816636200,2.48863623046875,-0.8726451992988586,0.0267165657132864,-0.039689622819423676
1782986357826710300,2.498710205078125,-0.9731347560882568,0.2519366443157196,-0.24164538085460663
1782986357836784000,2.5087841796875,-0.8796905875205994,0.37233227491378784,-0.45826876163482666
1782986357846859300,2.518859375,-0.548797607421875,0.407956600189209,-0.5724843144416809
1782986357856933000,2.52893310546875,-0.12302445620298386,0.5455959439277649,-0.3425176739692688
1782986357867007200,2.53900732421875,0.27776315808296204,0.6886290311813354,0.4193519949913025
1782986357877081000,2.5490810546875,0.5778598785400391,0.3628775477409363,1.4528368711471558
1782986357887156200,2.55915625,0.7513089179992676,-0.8112419843673706,2.21156644821167
1782986357897230000,2.56922998046875,0.8092867136001587,-1.9974778890609741,2.568157434463501
1782986357907304200,2.57930419921875,0.7621617913246155,-2.2782208919525146,2.5140371322631836
1782986357917379000,2.589379150390625,0.6813087463378906,-1.9914727210998535,1.9251996278762817
1782986357927453200,2.599453125,0.5573005676269531,-1.5823073387145996,0.7402455806732178
1782986357937527300,2.60952734375,0.2555076777935028,-1.0158507823944092,-0.9375344514846802
1782986357947601200,2.61960107421875,-0.32647478580474854,-0.20494648814201355,-2.792414665222168
1782986357957676300,2.62967626953125,-0.9961436986923218,0.7102160453796387,-4.196868419647217
1782986357967750100,2.639750244140625,-1.3655332326889038,1.186653733253479,-4.673768997192383
1782986357977824300,2.64982421875,-1.2892119884490967,0.8667425513267517,-4.189761161804199
1782986357987899100,2.659899169921875,-1.0775346755981445,0.014087589457631111,-3.0353355407714844
1782986357997973200,2.66997314453125,-0.9732117056846619,-0.8422917723655701,-1.5390000343322754
1782986358008047000,2.680047119140625,-0.8627970814704895,-1.3520514965057373,-0.012821788899600506
1782986358018121200,2.690121337890625,-0.7097497582435608,-1.5289223194122314,1.255178689956665
1782986358028196000,2.700196044921875,-0.570466160774231,-1.416956901550293,2.0601277351379395
1782986358038270200,2.710270263671875,-0.45922616124153137,-1.1445624828338623,2.3536651134490967
1782986358048344000,2.720343994140625,-0.3929574191570282,-0.7299678921699524,2.1156721115112305
1782986358058419200,2.730419189453125,-0.3621954917907715,-0.2711225748062134,1.5773849487304688
1782986358068493000,2.7404931640625,-0.4285936951637268,-0.011262508109211922,0.9679186940193176
1782986358078567200,2.750567138671875,-0.7299258708953857,-0.037328995764255524,0.4154941439628601
1782986358088642000,2.76064208984375,-1.0672125816345215,-0.12610919773578644,-0.03038240596652031
1782986358098716200,2.770716064453125,-1.222154140472412,-0.25347912311553955,-0.39413532614707947
1782986358108790300,2.780790283203125,-1.275270938873291,-0.42541253566741943,-0.5847665071487427
1782986358118864100,2.790864013671875,-1.1980352401733398,-0.5569732189178467,-0.6219950914382935
1782986358128939300,2.800939208984375,-1.0183261632919312,-0.5730717778205872,-0.5736550092697144
1782986358139013400,2.811013427734375,-0.8774583339691162,-0.5589527487754822,-0.43299058079719543
1782986358149087200,2.821087158203125,-0.8030391931533813,-0.49473676085472107,-0.3331390917301178
1782986358159162400,2.831162353515625,-0.7392080426216125,-0.3890976905822754,-0.319457083940506
1782986358169236200,2.841236328125,-0.6948224306106567,-0.3253762423992157,-0.3635140359401703
1782986358179310000,2.85131005859375,-0.6782338619232178,-0.32308751344680786,-0.4144461750984192
1782986358189384200,2.86138427734375,-0.6587978601455688,-0.33033743500709534,-0.47286689281463623
1782986358199459000,2.871458984375,-0.6072153449058533,-0.2955416440963745,-0.4645591676235199
1782986358209533200,2.881533203125,-0.5675936341285706,-0.21439538896083832,-0.3780665993690491
1782986358219607000,2.89160693359375,-0.5764508247375488,-0.2221856564283371,-0.1970193237066269
1782986358229682200,2.90168212890625,-0.6226609349250793,-0.28567835688591003,-0.0075910743325948715
1782986358239756000,2.911756103515625,-0.6624032855033875,-0.3333236277103424,0.18785059452056885
1782986358249830100,2.921830078125,-0.6793478727340698,-0.3290782868862152,0.4077587127685547
1782986358259904300,2.931904296875,-0.6592420935630798,-0.2964252829551697,0.6225873827934265
1782986358269979100,2.941979248046875,-0.622693657875061,-0.22572340071201324,0.8018596768379211
1782986358280053200,2.95205322265625,-0.593632161617279,-0.10657943785190582,0.9172872304916382
1782986358290127400,2.96212744140625,-0.5898057818412781,0.008708802983164787,0.9450967311859131
1782986358300202200,2.9722021484375,-0.6222198605537415,0.07249843329191208,0.8993183374404907
1782986358310276400,2.9822763671875,-0.6902766823768616,0.14948269724845886,0.8064208626747131
1782986358320350200,2.99235009765625,-0.7858341336250305,0.2866562604904175,0.7059081196784973
1782986358330424000,3.002424072265625,-0.8858712315559387,0.475693017244339,0.5979358553886414
1782986358340499200,3.012499267578125,-0.9466509819030762,0.6894311308860779,0.4987733066082001
1782986358350573000,3.022572998046875,-0.9209117889404297,0.849458634853363,0.41065916419029236
1782986358360647200,3.032647216796875,-0.8367095589637756,0.7777841687202454,0.30352258682250977
1782986358370722000,3.04272216796875,-0.6689019203186035,0.60984867811203,0.2294880449771881
1782986358380796200,3.052796142578125,-0.35694268345832825,0.5742790102958679,0.31629857420921326
1782986358390870000,3.0628701171875,-0.005979595705866814,0.9037042856216431,0.585491955280304
1782986358400944000,3.072944091796875,0.27817249298095703,1.2100756168365479,0.8869210481643677
1782986358411019000,3.08301904296875,0.519513726234436,1.3507283926010132,1.287906289100647
1782986358421093000,3.093093017578125,0.6264721751213074,1.127555012702942,1.6478455066680908
1782986358431167200,3.103167236328125,0.6108614802360535,0.6154863238334656,1.7963730096817017
1782986358441242000,3.1132421875,0.519818127155304,0.13486620783805847,1.6193246841430664
1782986358451316200,3.123316162109375,0.40264278650283813,-0.31001752614974976,1.0919362306594849
1782986358461390300,3.133390380859375,0.26319780945777893,-1.0567185878753662,0.20895640552043915
1782986358471464200,3.143464111328125,0.03304370492696762,-1.8155940771102905,-1.1945185661315918
1782986358481539300,3.153539306640625,-0.24911661446094513,-1.443448781967163,-2.6116669178009033
1782986358491613200,3.16361328125,-0.47447118163108826,-0.03381655365228653,-3.3441693782806396
1782986358501687300,3.173687255859375,-0.5717489719390869,1.5707827806472778,-3.2733302116394043
1782986358511762200,3.18376220703125,-0.6738266348838806,2.40925669670105,-2.4590325355529785
1782986358521836300,3.193836181640625,-0.834374725818634,2.010561466217041,-1.3443522453308105
1782986358531910100,3.20391015625,-1.02094304561615,0.4432309567928314,-0.5140292644500732
1782986358541984000,3.21398388671875,-1.0637885332107544,-1.3102467060089111,-0.37375175952911377
1782986358552059100,3.22405908203125,-0.9540947675704956,-2.024117946624756,-0.841389000415802
1782986358562133000,3.234133056640625,-0.8005619049072266,-1.1193428039550781,-1.3227736949920654
1782986358572207000,3.24420703125,-0.7291348576545715,0.3743078112602234,-1.5458842515945435
1782986358582282000,3.254281982421875,-0.6476991772651672,1.3154220581054688,-1.4481561183929443
1782986358592356000,3.264356201171875,-0.5733945369720459,1.3454334735870361,-1.0863393545150757
1782986358602430200,3.27443017578125,-0.5096379518508911,0.8326346278190613,-0.5507283806800842
1782986358612505000,3.284505126953125,-0.40300631523132324,0.19129858911037445,0.030495857819914818
1782986358622579200,3.2945791015625,-0.2792963683605194,-0.4712466299533844,0.4926792085170746
1782986358632653300,3.3046533203125,-0.19138062000274658,-0.9280807375907898,0.789990246295929
1782986358642727200,3.31472705078125,-0.17837879061698914,-1.0449508428573608,0.896906852722168
1782986358652802300,3.32480224609375,-0.22400540113449097,-0.945920467376709,0.8080017566680908
1782986358662876200,3.334876220703125,-0.3043500483036041,-0.7257939577102661,0.6313209533691406
1782986358672950300,3.3449501953125,-0.39777639508247375,-0.46753257513046265,0.44177234172821045
1782986358683024100,3.355024169921875,-0.508666455745697,-0.2080077975988388,0.28328603506088257
1782986358693099300,3.365099365234375,-0.6202848553657532,-0.029036978259682655,0.15692144632339478
1782986358703173000,3.375173095703125,-0.7110685110092163,-0.03303065523505211,0.07007469236850739
1782986358713247000,3.3852470703125,-0.7753670811653137,-0.10707052797079086,0.02683880552649498
1782986358723322000,3.395322021484375,-0.7757023572921753,-0.18383854627609253,0.004593153949826956
1782986358733396200,3.405396240234375,-0.7038756012916565,-0.2512681782245636,0.027270769700407982
1782986358743473400,3.415473388671875,-0.5979273319244385,-0.2231002002954483,0.13133032619953156
1782986358753548500,3.425548583984375,-0.4855073094367981,-0.15740293264389038,0.27664145827293396
1782986358763622400,3.435622314453125,-0.4117950201034546,-0.17767386138439178,0.41343364119529724
1782986358773696800,3.44569677734375,-0.35018277168273926,-0.27463316917419434,0.5300800800323486
1782986358783770600,3.4557705078125,-0.28524744510650635,-0.3835276961326599,0.6400002241134644
1782986358793845800,3.465845703125,-0.22276543080806732,-0.4716002941131592,0.7860586047172546
1782986358803919600,3.475919677734375,-0.15090268850326538,-0.5858097076416016,0.9595345258712769
1782986358813993500,3.485993408203125,-0.044444162398576736,-0.7214245200157166,1.1531282663345337
1782986358824068600,3.496068603515625,0.02202221192419529,-0.8952072262763977,1.2968920469284058
1782986358834142500,3.506142578125,0.003276220755651593,-0.9158467054367065,1.395043134689331
1782986358844216600,3.516216552734375,-0.03991466015577316,-0.5278227925300598,1.5082669258117676
1782986358854290400,3.52629052734375,-0.15101560950279236,0.16944362223148346,1.536200761795044
1782986358864365600,3.536365478515625,-0.36293825507164,0.7149679064750671,1.3173720836639404
1782986358874439400,3.546439453125,-0.5866328477859497,1.0185999870300293,0.9029762148857117
1782986358884513500,3.556513427734375,-0.7454249262809753,1.2133857011795044,0.4802185297012329
1782986358894588400,3.56658837890625,-0.800667941570282,1.3495951890945435,0.22223199903964996
1782986358904662500,3.57666259765625,-0.7476553320884705,1.3440552949905396,0.16683132946491241
1782986358914736400,3.586736328125,-0.6064332127571106,1.292527437210083,0.3141283690929413
1782986358924810800,3.596810791015625,-0.35398951172828674,1.1964043378829956,0.6182640194892883
1782986358934885400,3.606885498046875,-0.009591640904545784,0.8891908526420593,0.9748849868774414
1782986358944959700,3.616959716796875,0.330740362405777,0.3108702600002289,1.4000812768936157
1782986358955033600,3.62703369140625,0.42739713191986084,-0.3997820317745209,1.7679083347320557
1782986358965108700,3.637108642578125,0.23479972779750824,-1.0626835823059082,1.7398252487182617
1782986358975182600,3.6471826171875,0.05512823164463043,-0.9909326434135437,1.4209141731262207
1782986358985256400,3.65725634765625,0.06351453065872192,-0.44901615381240845,0.9944728016853333
1782986358995330600,3.66733056640625,0.20003534853458405,-0.2780739665031433,0.4684641361236572
1782986359005405700,3.67740576171875,0.4442272484302521,-0.8153882622718811,-0.30686432123184204
1782986359015479600,3.6874794921875,0.7006832957267761,-1.4776519536972046,-1.2400282621383667
1782986359025553400,3.697553466796875,0.8589754104614258,-1.9108796119689941,-1.8926507234573364
1782986359035628500,3.707628662109375,0.936359167098999,-2.353877544403076,-2.0248029232025146
1782986359045702400,3.717702392578125,0.9304613471031189,-2.673874855041504,-1.6029713153839111
1782986359055776500,3.727776611328125,0.8383806943893433,-2.704258918762207,-1.0025086402893066
1782986359065850600,3.7378505859375,0.7129774689674377,-2.4031717777252197,-0.7006379961967468
1782986359075925500,3.747925537109375,0.5956109166145325,-1.9014495611190796,-0.8988735675811768
1782986359085999600,3.75799951171875,0.5145334005355835,-1.287152647972107,-1.4270151853561401
1782986359096073700,3.76807373046875,0.4580240249633789,-0.6440389156341553,-2.0567169189453125
1782986359106148600,3.778148681640625,0.3629683554172516,-0.09796012192964554,-2.566800594329834
1782986359116222700,3.78822265625,0.16601985692977905,0.3389442265033722,-2.844505548477173
1782986359126296600,3.798296630859375,-0.15649133920669556,0.6368939280509949,-2.8112401962280273
1782986359136371700,3.808371826171875,-0.609481692314148,0.9389946460723877,-2.422088384628296
1782986359146445600,3.818445556640625,-1.0323693752288818,1.0462230443954468,-1.8333379030227661
1782986359156519700,3.828519775390625,-1.296647548675537,0.8083471655845642,-1.2110317945480347
1782986359166593500,3.838593505859375,-1.313080072402954,0.45056211948394775,-0.5607706308364868
1782986359176668700,3.848668701171875,-1.099757194519043,0.2600347697734833,0.0934910699725151
1782986359186742500,3.858742431640625,-0.8092890977859497,0.09489109367132187,0.5445192456245422
1782986359196816400,3.86881640625,-0.5266033411026001,-0.06168120726943016,0.7689192891120911
1782986359206891500,3.8788916015625,-0.2767663598060608,-0.18212692439556122,0.8373686671257019
1782986359216965400,3.88896533203125,-0.10626012831926346,-0.2845933735370636,0.7668556571006775
1782986359227039500,3.89903955078125,-0.01661519519984722,-0.3675175607204437,0.6313851475715637
1782986359237113600,3.909113525390625,0.0008189220097847283,-0.38859912753105164,0.4775964021682739
1782986359247188500,3.9191884765625,-0.04722876474261284,-0.293121874332428,0.3389306664466858
1782986359257262600,3.9292626953125,-0.12950126826763153,-0.10975605994462967,0.27711042761802673
1782986359267336700,3.939336669921875,-0.2333456426858902,0.07434719800949097,0.2813991904258728
1782986359277411600,3.94941162109375,-0.3413730263710022,0.2252453714609146,0.34709617495536804
1782986359287485700,3.959485595703125,-0.41093242168426514,0.367983341217041,0.44309940934181213
1782986359297559600,3.9695595703125,-0.45211634039878845,0.5089125037193298,0.5207414627075195
1782986359307633700,3.979633544921875,-0.44303789734840393,0.6509671211242676,0.5763115286827087
1782986359317708500,3.98970849609375,-0.3839988112449646,0.7452179789543152,0.6509338021278381
1782986359327782700,3.99978271484375,-0.3105570673942566,0.7356284856796265,0.7476662397384644
1782986359337856500,4.0098564453125,-0.24355140328407288,0.6639087200164795,0.8792554140090942
1782986359347931600,4.019931640625,-0.184269979596138,0.5513361096382141,1.04618239402771
1782986359358005500,4.030005615234375,-0.15081454813480377,0.4114972651004791,1.1714524030685425
1782986359368079600,4.04007958984375,-0.13829049468040466,0.2643624246120453,1.2178657054901123
1782986359378153500,4.050153564453125,-0.10880158096551895,0.13097399473190308,1.1909661293029785
1782986359388228600,4.060228515625,-0.045335523784160614,0.10019370913505554,1.1161502599716187
1782986359398302500,4.070302490234375,0.06472306698560715,0.19434231519699097,0.989769697189331
1782986359408376600,4.08037646484375,0.19977276027202606,0.24380573630332947,0.8379449844360352
1782986359418451500,4.090451416015625,0.33467626571655273,0.19351060688495636,0.7611740231513977
1782986359428525600,4.100525634765625,0.42467084527015686,-0.030233003199100494,0.8569421172142029
1782986359438599700,4.110599609375,0.4394000172615051,-0.442626416683197,1.0830076932907104
1782986359448673500,4.120673583984375,0.46453598141670227,-0.9638068079948425,1.3760247230529785
1782986359458748700,4.130748779296875,0.5910236239433289,-1.1175992488861084,1.7422192096710205
1782986359468822500,4.140822509765625,0.8176748752593994,-0.46179717779159546,2.2209389209747314
1782986359478896600,4.150896728515625,1.0475707054138184,0.5284920930862427,2.607990026473999
1782986359488971500,4.160971435546875,1.2448219060897827,1.1608532667160034,2.620500087738037
1782986359499045600,4.171045654296875,1.3277593851089478,1.1564699411392212,2.0838558673858643
1782986359509119500,4.181119384765625,1.249199628829956,0.3699335753917694,1.0135918855667114
1782986359519194600,4.191194580078125,1.0826830863952637,-0.5853910446166992,-0.1803268939256668
1782986359529268500,4.2012685546875,1.033478021621704,-1.0561013221740723,-1.119642734527588
1782986359539342600,4.211342529296875,1.1140148639678955,-1.1344597339630127,-1.8274561166763306
1782986359549416400,4.22141650390625,1.1884140968322754,-0.847224235534668,-2.1975693702697754
1782986359559491600,4.23149169921875,1.0696346759796143,-0.5370128750801086,-2.3572986125946045
1782986359569565400,4.2415654296875,0.74007248878479,-0.7710407972335815,-2.7143988609313965
1782986359579639600,4.2516396484375,0.5359513163566589,-1.0059171915054321,-2.9198880195617676
1782986359589714400,4.26171435546875,0.5601480007171631,-0.9765971302986145,-2.5711517333984375
1782986359599788500,4.27178857421875,0.6455166935920715,-0.8914273977279663,-1.8047879934310913
1782986359609862700,4.281862548828125,0.6934061646461487,-0.9102452993392944,-0.9210864901542664
1782986359619936500,4.2919365234375,0.664614200592041,-0.9330192804336548,-0.22647708654403687
1782986359630011600,4.30201171875,0.5367337465286255,-0.759871780872345,0.06443944573402405
1782986359640085500,4.31208544921875,0.34028542041778564,-0.3968043327331543,-0.008506935089826584
1782986359650159600,4.32215966796875,0.17484131455421448,0.098860003054142,-0.23715102672576904
1782986359660234500,4.332234375,0.11279339343309402,0.7150142788887024,-0.47806963324546814
1782986359670308600,4.34230859375,0.1211400032043457,1.275491714477539,-0.6867802143096924
1782986359680382500,4.352382568359375,0.17584267258644104,1.568153977394104,-0.8095090985298157
1782986359690456600,4.36245654296875,0.21991798281669617,1.521085262298584,-0.8182775378227234
1782986359700531500,4.372531494140625,0.22612448036670685,1.1834592819213867,-0.7350356578826904
1782986359710605600,4.38260546875,0.2060903161764145,0.6777782440185547,-0.5786484479904175
1782986359720679400,4.392679443359375,0.19947688281536102,0.15368090569972992,-0.3469180166721344
1782986359730754600,4.402754638671875,0.18894994258880615,-0.3132852017879486,-0.0764034315943718
1782986359740828400,4.412828369140625,0.19900870323181152,-0.610212504863739,0.18784686923027039
1782986359750899200,4.422899169921875,0.14802993834018707,-0.8429176211357117,0.36091265082359314
1782986359760973000,4.43297314453125,0.017677530646324158,-0.9708612561225891,0.45991647243499756
1782986359771048200,4.443048095703125,-0.13132846355438232,-0.8008639216423035,0.6041244864463806
1782986359781122000,4.4531220703125,-0.24668514728546143,-0.2759447693824768,0.7516135573387146
1782986359791196200,4.463196044921875,-0.36051052808761597,0.1043061688542366,0.7836418151855469
1782986359801271000,4.47327099609375,-0.47693219780921936,0.3042440414428711,0.7177605032920837
1782986359811345200,4.48334521484375,-0.5739032030105591,0.4291614890098572,0.6140471696853638
1782986359821419000,4.4934189453125,-0.6657561659812927,0.44029057025909424,0.48904451727867126
1782986359831494100,4.503494140625,-0.77257239818573,0.3132426142692566,0.3580572009086609
1782986359841568000,4.513568115234375,-0.8202868700027466,0.21016308665275574,0.2684580981731415
1782986359851642000,4.52364208984375,-0.7813069820404053,0.23277412354946136,0.2355526089668274
1782986359861716000,4.533716064453125,-0.7172702550888062,0.26640957593917847,0.2233707755804062
1782986359871791000,4.543791015625,-0.6741877198219299,0.332941472530365,0.2584531307220459
1782986359881865000,4.553864990234375,-0.6366230845451355,0.3885064721107483,0.33546003699302673
1782986359891939000,4.56393896484375,-0.6021409630775452,0.4270645081996918,0.4571020305156708
1782986359902014000,4.574013916015625,-0.5708224773406982,0.49905240535736084,0.6363727450370789
1782986359912088000,4.584088134765625,-0.5687161684036255,0.5230051279067993,0.8050746321678162
1782986359922162200,4.594162109375,-0.6161316633224487,0.44761666655540466,0.9039029479026794
1782986359932236000,4.604236083984375,-0.646453857421875,0.3287171721458435,0.9298730492591858
1782986359942311200,4.614311279296875,-0.6103459000587463,0.218063622713089,0.8601959943771362
1782986359952385000,4.624385009765625,-0.4936999976634979,0.12415150552988052,0.6732742786407471
1782986359962459100,4.634459228515625,-0.29510781168937683,-0.020016318187117577,0.43604576587677
1782986359972534000,4.644533935546875,-0.017002152279019356,-0.17337551712989807,0.2386953979730606
1782986359982608100,4.654608154296875,0.2934587895870209,-0.18404041230678558,0.10279136151075363
1782986359992682000,4.664681884765625,0.5968471765518188,-0.0025893915444612503,0.0818682312965393
1782986360002756000,4.674756103515625,0.922904372215271,0.396710067987442,0.38714027404785156
1782986360012831000,4.6848310546875,1.1824650764465332,0.9530249834060669,1.0360718965530396
1782986360022905000,4.694905029296875,1.297754168510437,1.346848964691162,1.7193533182144165
1782986360032979000,4.70497900390625,1.2645671367645264,1.1455880403518677,2.0912880897521973
1782986360043054000,4.71505419921875,1.1458938121795654,0.5661563277244568,2.1042885780334473
1782986360053128000,4.7251279296875,0.9901363849639893,0.2490801215171814,1.8618947267532349
1782986360063202000,4.7352021484375,0.7596794962882996,0.2786739766597748,1.4108684062957764
1782986360073276200,4.745276123046875,0.44927874207496643,0.028368258848786354,0.49863457679748535
1782986360083351000,4.75535107421875,0.08983135223388672,-0.3527359366416931,-0.8149941563606262
1782986360093425200,4.765425048828125,-0.15385080873966217,-0.4223930537700653,-1.9478799104690552
1782986360103499000,4.7754990234375,-0.12023905664682388,-0.4581015110015869,-2.49513578414917
1782986360113574100,4.78557421875,0.31477606296539307,-0.8870145082473755,-2.3350651264190674
1782986360123648300,4.795648193359375,0.978646993637085,-1.7013365030288696,-1.573175072669983
1782986360133722000,4.80572216796875,1.470584511756897,-2.4307425022125244,-0.570466160774231
1782986360143797200,4.81579736328125,1.5281431674957275,-2.273897647857666,0.19793091714382172
1782986360153871000,4.82587109375,1.0173389911651611,-1.260717511177063,0.30457374453544617
1782986360163945000,4.835945068359375,0.1497868299484253,-0.43931424617767334,-0.22002051770687103
1782986360174019000,4.84601904296875,-0.7513296604156494,0.007891745306551456,-1.088644027709961
1782986360184094000,4.856093994140625,-1.4235759973526,0.5977624654769897,-1.9249954223632812
1782986360194168000,4.86616796875,-1.6694350242614746,1.3508719205856323,-2.3656792640686035
1782986360204242000,4.876241943359375,-1.499888300895691,1.7079371213912964,-2.4013195037841797
1782986360214317000,4.886317138671875,-1.0799312591552734,1.4137052297592163,-2.1339945793151855
1782986360224391000,4.896390869140625,-0.605215847492218,0.7875534296035767,-1.644523024559021
1782986360234465000,4.906465087890625,-0.2465256303548813,0.10836828500032425,-0.970650315284729
1782986360244539100,4.9165390625,-0.10041528940200806,-0.4561414420604706,-0.20702534914016724
1782986360254614000,4.926614013671875,-0.1598258763551712,-0.8127133846282959,0.4848628342151642
1782986360264688000,4.936688232421875,-0.36339443922042847,-0.9964704513549805,0.9801183938980103
1782986360274761000,4.946760986328125,-0.6174629330635071,-1.0139471292495728,1.2647762298583984
1782986360284836000,4.956836181640625,-0.8267240524291992,-0.89540696144104,1.3561838865280151
1782986360294910000,4.966909912109375,-0.9479540586471558,-0.5964612364768982,1.309041976928711
1782986360304984000,4.976984130859375,-0.9498363733291626,-0.22069962322711945,1.1890827417373657
1782986360315059000,4.987058837890625,-0.8206323385238647,0.044932588934898376,1.0253559350967407
1782986360325133000,4.997133056640625,-0.6455622315406799,0.15340739488601685,0.8241181373596191
1782986360335207000,5.00720703125,-0.5025419592857361,0.08983375132083893,0.6647007465362549
1782986360345282000,5.017281982421875,-0.42212194204330444,0.01774996891617775,0.5787413716316223
1782986360355356000,5.02735595703125,-0.3848781883716583,-0.0011968245962634683,0.5717889666557312
1782986360365430000,5.037429931640625,-0.3343936800956726,-0.057264089584350586,0.6119656562805176
1782986360375504100,5.047504150390625,-0.22651515901088715,-0.09138450771570206,0.619782030582428
1782986360385579000,5.0575791015625,-0.1715637594461441,-0.12879419326782227,0.6051884293556213
1782986360395653000,5.067653076171875,-0.1317542940378189,-0.08517934381961823,0.638691246509552
1782986360405727200,5.077727294921875,-0.1388569474220276,0.09367989003658295,0.7119580507278442
1782986360415802000,5.087802001953125,-0.16569282114505768,0.35372692346572876,0.76540207862854
1782986360425876200,5.097876220703125,-0.18568970263004303,0.6045993566513062,0.7847805619239807
1782986360435950000,5.1079501953125,-0.20212647318840027,0.7995600700378418,0.8123162984848022
1782986360446024000,5.11802392578125,-0.2920515537261963,0.839001476764679,0.819124162197113
1782986360456099000,5.12809912109375,-0.3913946747779846,0.6773723363876343,0.7562285661697388
1782986360466173000,5.1381728515625,-0.45155760645866394,0.4389621913433075,0.5894898772239685
1782986360476247000,5.1482470703125,-0.4952576756477356,0.24065335094928741,0.32396528124809265
1782986360486322200,5.158322265625,-0.5440630316734314,0.14596812427043915,-0.022724220529198647
1782986360496396000,5.16839599609375,-0.5426494479179382,0.3575035333633423,-0.384611576795578
1782986360506470000,5.178469970703125,-0.3646911382675171,1.1584404706954956,-0.6690305471420288
1782986360516544000,5.1885439453125,-0.02791738510131836,1.6175895929336548,-0.6747198700904846
1782986360526619000,5.198618896484375,0.4942730963230133,2.15181827545166,-0.47675004601478577
1782986360536693000,5.20869287109375,0.8495689034461975,2.092592477798462,-0.3087996542453766
1782986360546767000,5.21876708984375,0.7446355223655701,1.5013748407363892,-0.30167943239212036
1782986360556842000,5.228842041015625,0.24227921664714813,0.6343830823898315,-0.493354856967926
1782986360566916000,5.238916015625,-0.21633149683475494,0.10722179710865021,-0.7696005702018738
1782986360576990200,5.248990234375,-0.32043740153312683,-0.050391003489494324,-1.0882887840270996
1782986360587064000,5.25906396484375,-0.15720133483409882,-0.35889583826065063,-1.7780123949050903
1782986360597139200,5.26913916015625,-0.030858313664793968,-0.5955363512039185,-2.874717950820923
1782986360607213000,5.279213134765625,-0.06294994056224823,-0.32982558012008667,-3.8592734336853027
1782986360617288200,5.2892880859375,-0.05745503678917885,0.20024095475673676,-4.12098503112793
1782986360627362000,5.299362060546875,0.0701117068529129,0.3646136522293091,-3.6121015548706055
1782986360637436200,5.309436279296875,0.2849068343639374,-0.1568940132856369,-2.68214750289917
1782986360647511000,5.319510986328125,0.44140616059303284,-1.0808287858963013,-1.7539477348327637
1782986360657585200,5.329585205078125,0.5897077322006226,-1.7646150588989258,-0.9787801504135132
1782986360667659000,5.339658935546875,0.7977938652038574,-1.89176344871521,-0.36675402522087097
1782986360677734100,5.349734130859375,1.0244711637496948,-1.4706017971038818,0.02490987628698349
1782986360687808000,5.35980810546875,1.1885170936584473,-0.802460789680481,0.15860721468925476
1782986360697881900,5.3698818359375,1.1520379781723022,-0.2862299084663391,0.15579305589199066
1782986360707957000,5.37995703125,0.9227309823036194,0.022654712200164795,0.10131730139255524
1782986360718030800,5.39003076171875,0.6489524245262146,0.08943640440702438,-0.03396143019199371
1782986360728105000,5.40010498046875,0.41824865341186523,0.08565977960824966,-0.21064405143260956
1782986360738179000,5.410178955078125,0.26594406366348267,0.05699590966105461,-0.32603883743286133
1782986360748254000,5.42025390625,0.20225350558757782,0.014622085727751255,-0.3445983827114105
1782986360758328300,5.430328369140625,0.1727219671010971,0.006342051550745964,-0.2406909018754959
1782986360768402200,5.440402099609375,0.14854952692985535,0.016088688746094704,-0.05758180469274521
1782986360778477300,5.450477294921875,0.08518573641777039,0.08297557383775711,0.13121899962425232
1782986360788551200,5.46055126953125,-0.013577061705291271,0.1724681705236435,0.2818000018596649
1782986360798625300,5.470625244140625,-0.1336323618888855,0.25017470121383667,0.3887788951396942
1782986360808699100,5.48069921875,-0.25777721405029297,0.3049420714378357,0.44243067502975464
1782986360818774300,5.490774169921875,-0.38948118686676025,0.34159940481185913,0.4118810296058655
1782986360828848000,5.50084814453125,-0.5233891606330872,0.3713860809803009,0.294876366853714
1782986360838922200,5.510922119140625,-0.6793542504310608,0.39041274785995483,0.12323778122663498
1782986360848997000,5.5209970703125,-0.8706381916999817,0.3942660689353943,-0.0460982546210289
1782986360859071200,5.5310712890625,-1.0917730331420898,0.4048953056335449,-0.19877727329730988
1782986360869145000,5.54114501953125,-1.2794872522354126,0.47647786140441895,-0.2910875082015991
1782986360879219000,5.551218994140625,-1.3925464153289795,0.5339630246162415,-0.3473933935165405
1782986360889294000,5.561294189453125,-1.4140183925628662,0.5791025161743164,-0.3507708013057709
1782986360899368200,5.5713681640625,-1.3497132062911987,0.6810973286628723,-0.2893250286579132
1782986360909442300,5.5814423828125,-1.2423776388168335,0.7672902345657349,-0.16011136770248413
1782986360919517200,5.59151708984375,-1.1260732412338257,0.8173891305923462,0.0138993039727211
1782986360929591300,5.60159130859375,-1.0295490026474,0.80157870054245,0.22113771736621857
1782986360939665200,5.6116650390625,-0.9495327472686768,0.6792711615562439,0.43135911226272583
1782986360949740300,5.621740234375,-0.9012677669525146,0.48848551511764526,0.6325654983520508
1782986360959814100,5.631814208984375,-0.8724736571311951,0.3150061368942261,0.8168476819992065
1782986360969888300,5.64188818359375,-0.8514370918273926,0.2539720833301544,0.9937266111373901
1782986360979962000,5.651962158203125,-0.8134968876838684,0.3212725520133972,1.1107407808303833
1782986360990037200,5.662037353515625,-0.7245087027549744,0.4390258193016052,1.0888205766677856
1782986361000111000,5.672111083984375,-0.5730209350585938,0.4640081524848938,0.8710305094718933
1782986361010185200,5.682185302734375,-0.3587626814842224,0.44126901030540466,0.5598241686820984
1782986361020260000,5.692260009765625,-0.0001752359967213124,0.3421514928340912,0.28584161400794983
1782986361030334200,5.702334228515625,0.5581884384155273,0.24487367272377014,0.2269657701253891
1782986361040408000,5.712407958984375,1.2750171422958374,0.2410791963338852,0.5200985670089722
1782986361050482200,5.722482177734375,2.034125566482544,0.14925925433635712,1.005470633506775
1782986361060557000,5.73255712890625,2.6319773197174072,-0.17881742119789124,1.428588628768921
1782986361070631200,5.742631103515625,2.904916524887085,-0.41319236159324646,1.8294323682785034
1782986361080705300,5.752705322265625,2.5730767250061035,-0.427981436252594,2.0172805786132812
1782986361090780200,5.7627802734375,1.6688586473464966,-0.39256513118743896,1.7259340286254883
1782986361100854300,5.772854248046875,0.5769232511520386,-0.5204562544822693,0.9127188324928284
1782986361110928100,5.78292822265625,-0.37590599060058594,-1.0488790273666382,-0.5899375677108765
1782986361121003300,5.793003173828125,-1.031542181968689,-1.1401983499526978,-2.4020228385925293
1782986361131077400,5.803077392578125,-1.4801050424575806,-0.6511002779006958,-3.8461132049560547
1782986361141151200,5.813151123046875,-1.5675281286239624,-0.10035509616136551,-4.418527126312256
1782986361151225000,5.82322509765625,-1.0326910018920898,0.16394472122192383,-3.859393358230591
1782986361161300200,5.83330029296875,-0.24572907388210297,-0.26133280992507935,-2.58550763130188
1782986361171374000,5.8433740234375,0.20085720717906952,-1.1289600133895874,-1.147192358970642
1782986361181448200,5.8534482421875,0.17135284841060638,-2.099910259246826,0.11116567254066467
1782986361191523000,5.863523193359375,-0.16684012115001678,-2.5435826778411865,0.8867777585983276
1782986361201597200,5.87359716796875,-0.5220314860343933,-1.965352177619934,1.0966684818267822
1782986361211671000,5.883671142578125,-0.6897286176681519,-0.8033071160316467,0.7674657702445984
1782986361221745200,5.8937451171875,-0.6252521872520447,0.37366893887519836,0.07260655611753464
1782986361231820000,5.903820068359375,-0.40281668305397034,0.9401012063026428,-0.6755611300468445
1782986361241894100,5.91389404296875,-0.16865240037441254,0.8096113801002502,-1.1922074556350708
1782986361251968300,5.92396826171875,0.019513247534632683,0.3070923089981079,-1.3396188020706177
1782986361262043100,5.934043212890625,0.18870919942855835,-0.26026061177253723,-1.1741725206375122
1782986361272117200,5.9441171875,0.3701508939266205,-0.6204262375831604,-0.7882674336433411
1782986361282191400,5.95419140625,0.4885808527469635,-0.7291988134384155,-0.3540550172328949
1782986361292265200,5.96426513671875,0.42758089303970337,-0.5693918466567993,0.047214385122060776
1782986361302340400,5.97434033203125,0.21017560362815857,-0.2200665920972824,0.45095571875572205
1782986361312414200,5.984414306640625,-0.020378774031996727,-0.01531876903027296,0.7054257988929749
1782986361322488000,5.994488037109375,-0.1838129758834839,0.024164991453289986,0.7824977040290833
1782986361332563200,6.004563232421875,-0.2854098975658417,-0.017250359058380127,0.7780161499977112
1782986361342637000,6.014636962890625,-0.3607880175113678,-0.11368954926729202,0.7574690580368042
1782986361352711200,6.024711181640625,-0.39551323652267456,-0.25583603978157043,0.7020310759544373
1782986361362786000,6.0347861328125,-0.4171522259712219,-0.2774023115634918,0.6172395348548889
1782986361372860200,6.044860107421875,-0.460147887468338,-0.2640835642814636,0.5605075359344482
1782986361382934000,6.05493408203125,-0.5739567279815674,-0.3509652018547058,0.5403996109962463
1782986361393008000,6.065008056640625,-0.7148563265800476,-0.50516676902771,0.5361164212226868
1782986361403083000,6.0750830078125,-0.7883089780807495,-0.591016948223114,0.4893036484718323
1782986361413157000,6.0851572265625,-0.7829485535621643,-0.42613720893859863,0.4476211965084076
1782986361423231200,6.095231201171875,-0.7168803215026855,-0.12215067446231842,0.4307175576686859
1782986361433306000,6.10530615234375,-0.651533842086792,0.1949889361858368,0.4620397984981537
1782986361443380200,6.115380126953125,-0.6305326819419861,0.48388758301734924,0.5573793649673462
1782986361453454300,6.125454345703125,-0.6758934855461121,0.6934061646461487,0.6860414743423462
1782986361463528200,6.135528076171875,-0.7357727885246277,0.7479208111763,0.8300489783287048
1782986361473603300,6.145603271484375,-0.783269464969635,0.6455225348472595,0.9817284941673279
1782986361483677200,6.15567724609375,-0.7877388000488281,0.43607690930366516,1.1287094354629517
1782986361493751300,6.165751220703125,-0.7443934679031372,0.16980502009391785,1.2486073970794678
1782986361503826200,6.175826171875,-0.6441465020179749,-0.06361465901136398,1.3404052257537842
1782986361513900300,6.185900390625,-0.46641671657562256,-0.13216948509216309,1.4040685892105103
1782986361523974100,6.19597412109375,-0.2709742486476898,0.055802810937166214,1.3259875774383545
1782986361534049300,6.20604931640625,-0.144016295671463,0.35691019892692566,1.114938497543335
1782986361544123100,6.216123046875,-0.0748811662197113,0.8294833302497864,1.0044639110565186
1782986361554197000,6.226197021484375,0.054186806082725525,1.287015676498413,1.147894024848938
1782986361564271000,6.23627099609375,0.4355336129665375,1.365227460861206,1.5798454284667969
1782986361574346000,6.246345947265625,1.0043104887008667,1.011682152748108,2.2187135219573975
1782986361584420000,6.256420166015625,1.3992648124694824,0.15009255707263947,2.7269818782806396
1782986361594494200,6.266494140625,1.3068456649780273,-1.0698983669281006,2.714700222015381
1782986361604569000,6.276569091796875,0.7526546120643616,-1.9995074272155762,2.1621129512786865
1782986361614643200,6.286643310546875,0.16814027726650238,-2.116809844970703,1.213277816772461
1782986361624717300,6.29671728515625,0.07455546408891678,-1.3231867551803589,0.24469096958637238
1782986361634791200,6.306791259765625,0.2817150354385376,-0.1390702724456787,-0.6583467125892639
1782986361644866300,6.3168662109375,0.31937453150749207,0.948095440864563,-1.6094577312469482
1782986361654940200,6.326940185546875,0.1615862399339676,1.699798822402954,-2.482926368713379
1782986361665014300,6.33701416015625,0.16730085015296936,1.7061797380447388,-2.9617772102355957
1782986361675089200,6.347089111328125,0.5351443886756897,0.9292658567428589,-2.9136569499969482
1782986361685163300,6.357163330078125,0.9963594079017639,-0.45321834087371826,-2.412572145462036
1782986361695237000,6.367237060546875,1.1710106134414673,-1.9365836381912231,-1.7415051460266113
1782986361705312300,6.377312255859375,1.040968656539917,-2.8733773231506348,-1.1498304605484009
1782986361715386000,6.38738623046875,0.7888504266738892,-2.992306709289551,-0.8239607214927673
1782986361725460200,6.397460205078125,0.5549612045288086,-2.3362460136413574,-0.8436542749404907
1782986361735534000,6.4075341796875,0.3751051723957062,-1.045667290687561,-1.0801621675491333
1782986361745609200,6.417609130859375,0.229512557387352,0.44906142354011536,-1.3646788597106934
1782986361755683300,6.427683349609375,0.06438085436820984,1.679190754890442,-1.562932014465332
1782986361765757400,6.43775732421875,-0.10469232499599457,2.277942657470703,-1.6223047971725464
1782986361775832300,6.447832275390625,-0.24067439138889313,2.2090368270874023,-1.4437062740325928
1782986361785906400,6.457906494140625,-0.3405490517616272,1.6392699480056763,-1.087678074836731
1782986361795980500,6.46798046875,-0.4542276859283447,0.7826761603355408,-0.7007429003715515
1782986361806054400,6.478054443359375,-0.5684368014335632,-0.033957965672016144,-0.4055996835231781
1782986361816129500,6.488129638671875,-0.6517932415008545,-0.662667989730835,-0.25442934036254883
1782986361826203400,6.498203369140625,-0.6769129633903503,-1.0879708528518677,-0.25088414549827576
1782986361836277500,6.508277587890625,-0.6138956546783447,-1.1973007917404175,-0.35889264941215515
1782986361846352400,6.518352294921875,-0.4464653730392456,-1.013831615447998,-0.49871259927749634
1782986361856426500,6.528426513671875,-0.25447356700897217,-0.6702579855918884,-0.6284120082855225
1782986361866500400,6.538500244140625,-0.11121200770139694,-0.30944254994392395,-0.6683903336524963
1782986361876575500,6.548575439453125,-0.08553487807512283,-0.06075495854020119,-0.6023572087287903
1782986361886649300,6.5586494140625,-0.1759614497423172,0.041373804211616516,-0.46773791313171387
1782986361896723500,6.568723388671875,-0.33029189705848694,0.034568361937999725,-0.32799333333969116
1782986361906797300,6.57879736328125,-0.4692274034023285,-0.02581162378191948,-0.21099239587783813
1782986361916872400,6.58887255859375,-0.5563759207725525,-0.04544444754719734,-0.12227504700422287
1782986361926946300,6.5989462890625,-0.595341682434082,-0.004186222795397043,-0.05095053091645241
1782986361937020400,6.6090205078125,-0.6029021143913269,0.11838150769472122,0.039676304906606674
1782986361947095300,6.61909521484375,-0.5704826712608337,0.3346504271030426,0.19739963114261627
1782986361957169400,6.62916943359375,-0.49792909622192383,0.6023383140563965,0.3974589407444
1782986361967243500,6.639243408203125,-0.4172441065311432,0.8823856711387634,0.6131014823913574
1782986361977317400,6.6493173828125,-0.33543500304222107,1.1732454299926758,0.8440436124801636
1782986361987392500,6.659392578125,-0.262075275182724,1.403559684753418,1.0616090297698975
1782986361997466400,6.66946630859375,-0.21172529458999634,1.4888026714324951,1.2051347494125366
1782986362007540500,6.67954052734375,-0.20837797224521637,1.3563401699066162,1.2402434349060059
1782986362017615400,6.689615478515625,-0.2398541420698166,0.9584226608276367,1.193074107170105
1782986362027689500,6.699689453125,-0.33041998744010925,0.4219515025615692,1.093496561050415
1782986362037763300,6.709763427734375,-0.4401094615459442,0.03129054605960846,0.995526909828186
1782986362047837400,6.71983740234375,-0.5189800262451172,-0.1279449164867401,0.8451184630393982
1782986362057912300,6.729912353515625,-0.585553765296936,-0.09573931246995926,0.5536011457443237
1782986362067986400,6.739986328125,-0.570383608341217,0.008560198359191418,0.09537871927022934
1782986362078060300,6.750060302734375,-0.44255000352859497,0.010476343333721161,-0.4135926365852356
1782986362088135400,6.760135498046875,-0.18730464577674866,0.08175558596849442,-0.7472185492515564
1782986362098209300,6.770209228515625,0.09615529328584671,0.30414125323295593,-0.775634765625
1782986362108283400,6.780283447265625,0.2805408537387848,0.7208183407783508,-0.529979944229126
1782986362118358300,6.790358154296875,0.4287867844104767,0.6878814697265625,-0.19550904631614685
1782986362128432600,6.8004326171875,0.5489275455474854,-0.1866077035665512,0.1055181697010994
1782986362138506500,6.810506591796875,0.6199575066566467,-1.288509726524353,0.4439774453639984
1782986362148580400,6.820580322265625,0.6769523620605469,-1.8193936347961426,0.8195023536682129
1782986362158655500,6.830655517578125,0.7208428382873535,-1.827894926071167,1.0520598888397217
1782986362168729300,6.840729248046875,0.7144014835357666,-1.42194664478302,0.935232400894165
1782986362178803500,6.850803466796875,0.6894029378890991,-0.7931748628616333,0.38461264967918396
1782986362188878600,6.860878662109375,0.6549056768417358,-0.3725493252277374,-0.6262755990028381
1782986362198952400,6.870952392578125,0.6466911435127258,-0.35186588764190674,-1.8509584665298462
1782986362209026300,6.8810263671875,0.79932701587677,-0.3670395314693451,-2.6804585456848145
1782986362219100400,6.891100341796875,1.1243668794631958,-0.41651466488838196,-2.863832950592041
1782986362229175300,6.90117529296875,1.525572657585144,-0.7487162947654724,-2.606534481048584
1782986362239249400,6.91124951171875,1.8970556259155273,-1.1727256774902344,-2.148996591567993
1782986362249323300,6.9213232421875,2.155217170715332,-1.5043762922286987,-1.6936439275741577
1782986362259398400,6.9313984375,2.2541699409484863,-1.6528205871582031,-1.2710058689117432
1782986362269472300,6.94147216796875,2.0237834453582764,-1.5007543563842773,-0.7452009320259094
1782986362279546600,6.951546630859375,1.3721753358840942,-0.7271761298179626,0.055744756013154984
1782986362289621200,6.961621337890625,0.44891229271888733,0.3284788131713867,0.9408583045005798
1782986362299695600,6.971695556640625,-0.5103287696838379,1.070786714553833,1.7263225317001343
1782986362309769500,6.98176953125,-1.2451263666152954,1.383695125579834,2.34354829788208
1782986362319843600,6.991843505859375,-1.6519372463226318,1.3962417840957642,2.7392418384552
1782986362329918500,7.00191845703125,-1.7142823934555054,1.1774615049362183,2.8779733180999756
1782986362339992600,7.01199267578125,-1.5037221908569336,0.9241336584091187,2.8080368041992188
1782986362350066400,7.02206640625,-1.2061035633087158,0.6877546906471252,2.6652042865753174
1782986362360141600,7.0321416015625,-0.9813697934150696,0.34559255838394165,2.398098945617676
1782986362370215400,7.04221533203125,-0.8565905690193176,-0.10877255350351334,1.930462121963501
1782986362380289300,7.052289306640625,-0.752770185470581,-0.5128515958786011,1.2671160697937012
1782986362390363400,7.06236328125,-0.6532390713691711,-0.795220136642456,0.511066198348999
1782986362400438300,7.072438232421875,-0.5629850625991821,-0.8423128128051758,-0.16077157855033875
1782986362410512400,7.082512451171875,-0.5299032926559448,-0.6060001850128174,-0.6887720227241516
1782986362420586200,7.092586181640625,-0.6095235347747803,-0.33973705768585205,-1.0840994119644165
1782986362430661400,7.102661376953125,-0.7726839780807495,-0.18412962555885315,-1.3113216161727905
1782986362440735200,7.1127353515625,-0.9527344107627869,0.05380171164870262,-1.3675308227539062
1782986362450809600,7.1228095703125,-1.106432318687439,0.4164281189441681,-1.2533009052276611
1782986362460883500,7.132883544921875,-1.156240701675415,0.9660236239433289,-0.8915581703186035
1782986362470958600,7.14295849609375,-1.1200387477874756,1.53147554397583,-0.42562001943588257
1782986362481032400,7.153032470703125,-1.0756012201309204,1.6656415462493896,0.019148128107190132
1782986362491106600,7.1631064453125,-1.0218054056167603,1.4817156791687012,0.3766529858112335
1782986362501181400,7.173181396484375,-1.0036697387695312,1.2067619562149048,0.6461648941040039
1782986362511255600,7.183255615234375,-0.9595673084259033,1.0211635828018188,0.8716171979904175
1782986362521329400,7.193329345703125,-0.8657441139221191,0.8592172265052795,1.0120704174041748
1782986362531404500,7.203404541015625,-0.7415696978569031,0.6826006770133972,1.0270041227340698
1782986362541478400,7.213478515625,-0.6289928555488586,0.565464198589325,0.9583004117012024
1782986362551552500,7.223552490234375,-0.5496828556060791,0.6136705875396729,0.8964495658874512
1782986362561626400,7.23362646484375,-0.4752863645553589,0.7512117028236389,0.8528586626052856
1782986362571701500,7.243701416015625,-0.3342845141887665,0.8455166220664978,0.783927321434021
1782986362581775400,7.253775390625,-0.1399288773536682,0.8827428221702576,0.7098490595817566
1782986362591849200,7.26384912109375,0.051719654351472855,0.873668372631073,0.6863368153572083
1782986362601924400,7.27392431640625,0.2390109896659851,0.7734546661376953,0.7529363632202148
1782986362611998200,7.283998291015625,0.47116726636886597,0.5878304839134216,0.9090628623962402
1782986362622072600,7.294072509765625,0.7737841010093689,0.3355497717857361,1.1034914255142212
1782986362632146400,7.304146484375,1.1474735736846924,0.07963331043720245,1.2568652629852295
1782986362642221600,7.3142216796875,1.5637935400009155,-0.13903139531612396,1.3758835792541504
1782986362652295400,7.32429541015625,1.9050182104110718,-0.2800348401069641,1.449727177619934
1782986362662369500,7.33436962890625,1.9016504287719727,-0.4845706820487976,1.293890357017517
1782986362672444400,7.3444443359375,1.4949681758880615,-0.7157823443412781,0.7902083396911621
1782986362682518500,7.3545185546875,0.8263368010520935,-0.9589678049087524,-0.18577945232391357
1782986362692592400,7.36459228515625,0.1598636955022812,-0.9562497735023499,-1.4562021493911743
1782986362702667500,7.37466748046875,-0.31851884722709656,-0.18399859964847565,-2.6900014877319336
1782986362712741400,7.384741455078125,-0.6323872804641724,1.0368846654891968,-3.7310309410095215
1782986362722815500,7.3948154296875,-0.8284742832183838,1.9189479351043701,-4.463675498962402
1782986362732889300,7.404889404296875,-0.868363618850708,1.721472144126892,-4.75622034072876
1782986362742964500,7.414964599609375,-0.8003858923912048,0.22514736652374268,-4.634464740753174
1782986362753037800,7.425037841796875,-0.8765259385108948,-2.2374327182769775,-4.341150760650635
1782986362763112200,7.4351123046875,-1.248094916343689,-4.634728908538818,-3.9796969890594482
1782986362773187000,7.44518701171875,-1.5183112621307373,-5.486713886260986,-3.3570804595947266
1782986362783261200,7.45526123046875,-1.520957112312317,-3.940443277359009,-2.7440197467803955
1782986362793335000,7.4653349609375,-1.2534124851226807,-1.2610323429107666,-2.5309064388275146
1782986362803409200,7.4754091796875,-0.7874373197555542,1.2168209552764893,-2.6603357791900635
1782986362813484000,7.485484130859375,-0.3423336446285248,2.724872350692749,-2.745558261871338
1782986362823558100,7.49555810546875,-0.04945889487862587,3.2042152881622314,-2.4828407764434814
1782986362833632000,7.505632080078125,0.04357970133423805,2.745572090148926,-1.8388581275939941
1782986362843707100,7.51570703125,-0.04235810786485672,1.6527718305587769,-0.9383472204208374
1782986362853781000,7.525781005859375,-0.19904625415802002,0.4278533458709717,-0.021208083257079124
1782986362863855000,7.535855224609375,-0.30307304859161377,-0.44787630438804626,0.6555815935134888
1782986362873930000,7.545929931640625,-0.27315378189086914,-0.8751294016838074,1.0578187704086304
1782986362884004000,7.556004150390625,-0.2036452740430832,-0.8087359666824341,1.1857330799102783
1782986362894078000,7.566077880859375,-0.1991754174232483,-0.320389986038208,1.0374951362609863
1782986362904152000,7.576152099609375,-0.182555690407753,0.3038642704486847,0.7308169603347778
1782986362914227000,7.58622705078125,-0.11583659052848816,0.7593958377838135,0.3844781816005707
1782986362924301000,7.596301025390625,-0.024156734347343445,0.9443795680999756,0.08619827032089233
1782986362934375200,7.606375244140625,0.06227269396185875,0.8779485821723938,-0.09862884134054184
1782986362944450000,7.616449951171875,0.105202317237854,0.6574615240097046,-0.13633280992507935
1782986362954524200,7.626524169921875,0.10226032137870789,0.38058996200561523,-0.021868281066417694
1782986362964598000,7.636597900390625,0.05698791891336441,0.10732778906822205,0.23749297857284546
1782986362974672100,7.646672119140625,0.009013734757900238,-0.08933334052562714,0.629796028137207
1782986362984747000,7.6567470703125,-0.02587021328508854,-0.21297378838062286,1.1074576377868652
1782986362994821000,7.666821044921875,-0.05488908290863037,-0.3124833405017853,1.5872141122817993
1782986363004895000,7.67689501953125,-0.10020489990711212,-0.31481361389160156,1.969325304031372
1782986363014970000,7.68697021484375,-0.15259380638599396,-0.14351747930049896,2.2349140644073486
1782986363025044000,7.6970439453125,-0.16173164546489716,0.14960546791553497,2.3835484981536865
1782986363035118000,7.7071181640625,-0.13430453836917877,0.3961457312107086,2.4166815280914307
1782986363045193000,7.71719287109375,-0.09213818609714508,0.5360064506530762,2.361703634262085
1782986363055267000,7.72726708984375,-0.07737841457128525,0.5348541140556335,2.2609310150146484
1782986363065341000,7.7373408203125,-0.10979121178388596,0.3969063460826874,2.1251542568206787
1782986363075415000,7.7474150390625,-0.2366895079612732,0.15666337311267853,1.9426684379577637
1782986363085490000,7.757489990234375,-0.3962024748325348,-0.178278386592865,1.6302410364151
1782986363095564000,7.76756396484375,-0.42894256114959717,-0.5064317584037781,1.1775920391082764
1782986363105638100,7.77763818359375,-0.2677001655101776,-0.710329532623291,0.7265252470970154
1782986363115713000,7.787713134765625,0.014032728038728237,-0.7517483234405518,0.3227575421333313
1782986363125787100,7.797787109375,0.3206544518470764,-0.6472868919372559,-0.017351027578115463
1782986363135861200,7.807861328125,0.6729480624198914,-0.05957278236746788,-0.1628032922744751
1782986363145935000,7.81793505859375,1.0045791864395142,0.6146405339241028,-0.18761010468006134
1782986363156010200,7.82801025390625,1.2206177711486816,0.9579877853393555,-0.14410631358623505
1782986363166084000,7.838083984375,1.3472052812576294,1.1749272346496582,0.15190032124519348
1782986363176158000,7.848157958984375,1.3443548679351807,1.0343525409698486,0.5194991230964661
1782986363186233000,7.858233154296875,1.156854271888733,0.4708942770957947,0.7818827629089355
1782986363196307000,7.868306884765625,0.9153870344161987,-0.1943678855895996,0.9071144461631775
1782986363206381000,7.878381103515625,0.675447940826416,-1.5692857503890991,0.4115670323371887
1782986363216456000,7.8884560546875,0.4912552237510681,-2.8634583950042725,-0.8870158791542053
1782986363226530000,7.898530029296875,0.5345425009727478,-2.725677967071533,-2.289867639541626
1782986363236604000,7.90860400390625,0.6573339104652405,-1.4930354356765747,-3.162619113922119
1782986363246678000,7.918677978515625,0.7093265652656555,-0.22292709350585938,-3.2581639289855957
1782986363256753000,7.9287529296875,0.7901710867881775,0.40782129764556885,-2.8392276763916016
1782986363266827000,7.938826904296875,0.8707948327064514,0.18976406753063202,-2.4373929500579834
1782986363276901000,7.948901123046875,0.8925227522850037,-0.4001426100730896,-2.2663729190826416
1782986363286976000,7.95897607421875,0.8580251932144165,-0.6470658779144287,-2.1580851078033447
1782986363297050000,7.969050048828125,0.8107472062110901,-0.3990909457206726,-1.9557865858078003
1782986363307124200,7.979124267578125,0.7857358455657959,0.03400670364499092,-1.6587480306625366
1782986363317198000,7.989197998046875,0.7527424693107605,0.4060199558734894,-1.2784110307693481
1782986363327273200,7.999273193359375,0.6951239109039307,0.5065822601318359,-0.8147104978561401
1782986363337347000,8.00934716796875,0.6770277619361877,0.20731431245803833,-0.32654669880867004
1782986363347421000,8.0194208984375,0.693228542804718,-0.28060182929039,0.08005169034004211
1782986363357496000,8.02949609375,0.7033653259277344,-0.638394832611084,0.38870805501937866
1782986363367570200,8.039570068359374,0.698981523513794,-0.6642376184463501,0.6046425104141235
1782986363377644000,8.04964404296875,0.6597262620925903,-0.32998722791671753,0.7009642124176025
1782986363387719200,8.05971923828125,0.563209593296051,0.150313600897789,0.6582865715026855
1782986363397793000,8.06979296875,0.4128275215625763,0.5814365148544312,0.49865853786468506
1782986363407867000,8.079866943359375,0.2109801471233368,0.8972961902618408,0.32124805450439453
1782986363417941000,8.08994091796875,0.028300346806645393,1.0296489000320435,0.21574454009532928
1782986363428015900,8.100015869140625,-0.10962822288274765,0.9232580065727234,0.2177850604057312
1782986363438090000,8.110090087890624,-0.221797913312912,0.5423418283462524,0.27099156379699707
1782986363448164000,8.1201640625,-0.31547513604164124,0.03220214322209358,0.31364765763282776
1782986363458239000,8.130239013671876,-0.38262540102005005,-0.3907325863838196,0.36241868138313293
1782986363468313000,8.14031298828125,-0.38358014822006226,-0.597361147403717,0.4726085662841797
1782986363478387200,8.15038720703125,-0.304214745759964,-0.5717178583145142,0.6050150394439697
1782986363488461000,8.1604609375,-0.21065950393676758,-0.4702431261539459,0.713634192943573
1782986363498536200,8.1705361328125,-0.16360729932785034,-0.26369741559028625,0.8290913105010986
1782986363508610000,8.180610107421876,-0.19193321466445923,0.052128713577985764,0.9650685787200928
1782986363518684200,8.19068408203125,-0.32075589895248413,0.2856336236000061,1.0565537214279175
1782986363528759000,8.200759033203125,-0.5170628428459167,0.4417113661766052,1.115241289138794
1782986363538833200,8.210833251953124,-0.7049331665039062,0.5682789087295532,1.163374423980713
1782986363548907000,8.220906982421875,-0.8556321263313293,0.5597274899482727,1.1832773685455322
1782986363558982100,8.230982177734376,-0.9120075106620789,0.38974377512931824,1.169028878211975
1782986363569056000,8.241055908203125,-0.8597855567932129,0.14381122589111328,1.1271450519561768
1782986363579129900,8.2511298828125,-0.7164057493209839,-0.0790809690952301,1.0770752429962158
1782986363589204000,8.261203857421876,-0.5223057866096497,-0.32649290561676025,1.0095915794372559
1782986363599279000,8.271279052734375,-0.34416696429252625,-0.6830472946166992,0.888097882270813
1782986363609353000,8.28135302734375,-0.2027062326669693,-1.066603183746338,0.7826963663101196
1782986363619427000,8.291427001953124,-0.1329231560230255,-1.1376973390579224,0.712050199508667
1782986363629502000,8.301501953125,-0.2356410175561905,-0.7430738806724548,0.6558404564857483
1782986363639576000,8.311576171875,-0.4907526671886444,0.07561859488487244,0.7002803087234497
1782986363649650200,8.321650146484375,-0.7563273310661316,1.2247731685638428,1.0023741722106934
1782986363659724000,8.33172412109375,-0.8434401750564575,2.2272346019744873,1.3677228689193726
1782986363669799200,8.341799072265625,-0.6632959246635437,2.7618935108184814,1.5414525270462036
1782986363679873000,8.351873046875,-0.22836020588874817,2.436894178390503,1.4115747213363647
1782986363689947100,8.361947021484376,0.36140134930610657,1.1772329807281494,1.0960590839385986
1782986363700022000,8.37202197265625,0.8148399591445923,-0.29660317301750183,0.825552761554718
1782986363710096100,8.38209619140625,0.7715145945549011,-1.5488049983978271,0.5258230566978455
1782986363720170000,8.392169921875,0.34611427783966064,-2.354053497314453,0.09850287437438965
1782986363730245000,8.4022451171875,-0.044381577521562576,-2.9569482803344727,-0.6417368650436401
1782986363740319000,8.412319091796874,-0.3058249056339264,-3.1584653854370117,-1.7014245986938477
1782986363750393000,8.42239306640625,-0.5288028717041016,-2.5084030628204346,-2.6777091026306152
1782986363760467200,8.43246728515625,-0.7247925996780396,-1.0526407957077026,-3.1826303005218506
1782986363770542000,8.4425419921875,-0.819504976272583,0.5090379118919373,-3.245185613632202
1782986363780616200,8.4526162109375,-0.7069555521011353,1.3722784519195557,-3.0607872009277344
1782986363790690300,8.462690185546874,-0.45752307772636414,1.4791343212127686,-2.7767367362976074
1782986363800765200,8.47276513671875,-0.2331264615058899,1.101644515991211,-2.5374364852905273
1782986363810839300,8.48283935546875,-0.15489956736564636,0.7585300803184509,-2.3868837356567383
1782986363820913400,8.492913330078125,-0.2376279979944229,0.6661873459815979,-2.254206895828247
1782986363830988300,8.50298828125,-0.43172505497932434,0.8676309585571289,-2.082987070083618
1782986363841062400,8.5130625,-0.6167564392089844,1.20570969581604,-1.8605146408081055
1782986363851136300,8.52313623046875,-0.6989229321479797,1.4191902875900269,-1.5709880590438843
1782986363861210000,8.533210205078126,-0.6535460948944092,1.3703601360321045,-1.2285559177398682
1782986363871285200,8.54328515625,-0.4997618794441223,1.0956050157546997,-0.8081514239311218
1782986363881359000,8.553359130859375,-0.28465384244918823,0.7644761204719543,-0.3430039584636688
1782986363891433200,8.56343310546875,-0.05392075702548027,0.4675118029117584,0.15252429246902466
1782986363901508400,8.57350830078125,0.12469026446342468,0.17888346314430237,0.6201916337013245
1782986363911582200,8.583582275390626,0.1939108818769455,-0.049493517726659775,0.9884825348854065
1782986363921656000,8.593656005859375,0.17860622704029083,-0.1854521483182907,1.2151886224746704
1782986363931730200,8.603730224609375,0.10429365187883377,-0.24825455248355865,1.2997685670852661
1782986363941805000,8.61380517578125,0.022278141230344772,-0.22005008161067963,1.260628342628479
1782986363951879200,8.623879150390625,-0.03736202046275139,-0.12168755382299423,1.126717448234558
1782986363961953300,8.633953369140626,-0.06442373245954514,-0.011422031559050083,0.9416791200637817
1782986363972028200,8.644028076171875,-0.060020193457603455,0.11592287570238113,0.7870075106620789
1782986363982102300,8.654102294921875,-0.023258984088897705,0.2647826671600342,0.7381912469863892
1782986363992176400,8.66417626953125,0.02455487847328186,0.3562214970588684,0.8012367486953735
1782986364002251300,8.674251220703125,0.0569961741566658,0.3560880720615387,0.9487423300743103
1782986364012325400,8.684325439453126,0.07719731330871582,0.30329570174217224,1.1184719800949097
1782986364022399200,8.694399169921875,0.09402396529912949,0.23911137878894806,1.2734380960464478
1782986364032473300,8.704473388671875,0.11032677441835403,0.16393621265888214,1.408419132232666
1782986364042548200,8.71454833984375,0.1193021610379219,0.0779709666967392,1.5321415662765503
1782986364052622300,8.724622314453125,0.12298637628555298,0.039141278713941574,1.6401053667068481
1782986364062696200,8.7346962890625,0.13350346684455872,0.05531918257474899,1.7516236305236816
1782986364072771300,8.744771240234375,0.15203747153282166,0.14857083559036255,1.8790276050567627
1782986364082845200,8.75484521484375,0.19159846007823944,0.2754627466201782,2.0314528942108154
1782986364092919000,8.7649189453125,0.24156415462493896,0.32800769805908203,2.2013237476348877
1782986364102993200,8.7749931640625,0.24938638508319855,0.26644954085350037,2.36991286277771
1782986364113068000,8.785068115234376,0.22575882077217102,0.04826633259654045,2.500058174133301
1782986364123142100,8.79514208984375,0.23220127820968628,-0.3451478183269501,2.6511270999908447
1782986364133216300,8.80521630859375,0.2049638032913208,-0.6309223175048828,2.7398505210876465
1782986364143291100,8.815291015625,0.061643656343221664,-0.46390828490257263,2.6415531635284424
1782986364153365200,8.825365234375,-0.030853252857923508,0.0010687265312299132,2.336825132369995
1782986364163439400,8.835439453125,0.04603034257888794,0.6074417233467102,1.8663184642791748
1782986364173514200,8.84551416015625,0.2625304162502289,1.2073118686676025,1.3367321491241455
1782986364183588400,8.85558837890625,0.5754441022872925,1.3490338325500488,0.8396528959274292
1782986364193662200,8.865662109375,0.9252228736877441,0.5823915004730225,0.40429580211639404
1782986364203736300,8.875736328125,1.247320294380188,-0.779161274433136,0.37975558638572693
1782986364213811200,8.885811279296876,1.3926165103912354,-1.800681233406067,1.0246081352233887
1782986364223885300,8.89588525390625,1.3072235584259033,-2.191351890563965,1.8242754936218262
1782986364233959200,8.905959228515625,1.0256643295288086,-2.096909284591675,2.0751097202301025
1782986364244034300,8.916034423828124,0.7232961654663086,-1.8732192516326904,1.5559483766555786
1782986364254108200,8.926108154296875,0.46427473425865173,-1.7471897602081299,0.27179983258247375
1782986364264182300,8.936182373046876,0.27530160546302795,-1.5239214897155762,-1.5106650590896606
1782986364274256100,8.946256103515625,0.24892033636569977,-0.9879075884819031,-3.0502302646636963
1782986364284330200,8.956330322265625,0.2723950445652008,-0.3611914813518524,-3.8673267364501953
1782986364294405000,8.966405029296874,0.23003479838371277,0.01158821303397417,-3.9272525310516357
1782986364304479200,8.976479248046875,0.11722702533006668,-0.057074204087257385,-3.3630082607269287
1782986364314553300,8.98655322265625,-0.02232927456498146,-0.5493075847625732,-2.5076985359191895
1782986364324627200,8.996627197265624,-0.18986527621746063,-1.0652992725372314,-1.7263473272323608
1782986364334702300,9.006702392578125,-0.3089413344860077,-1.279297113418579,-1.1282691955566406
1782986364344776200,9.016776123046874,-0.34677445888519287,-1.0601671934127808,-0.6888487339019775
1782986364354850300,9.026850341796875,-0.36895033717155457,-0.6041764616966248,-0.4127819836139679
1782986364364925200,9.03692529296875,-0.40070614218711853,-0.11770746111869812,-0.27091965079307556
1782986364374999300,9.046999267578125,-0.4086700677871704,0.24388617277145386,-0.22959484159946442
1782986364385073200,9.0570732421875,-0.366900235414505,0.42094722390174866,-0.271445631980896
1782986364395147300,9.067147216796876,-0.3090020418167114,0.45094454288482666,-0.38844308257102966
1782986364405222100,9.07722216796875,-0.28748875856399536,0.39833325147628784,-0.5468726754188538
1782986364415296300,9.087296142578126,-0.32516077160835266,0.32864898443222046,-0.6943556070327759
1782986364425370000,9.0973701171875,-0.3965417444705963,0.3053481876850128,-0.8162980079650879
1782986364435445200,9.1074453125,-0.4675554633140564,0.34599122405052185,-0.8788889646530151
1782986364445519000,9.11751904296875,-0.4969474673271179,0.46789875626564026,-0.8220486044883728
1782986364455593200,9.12759326171875,-0.5085638761520386,0.622473955154419,-0.6540238857269287
1782986364465668000,9.137668212890626,-0.5434462428092957,0.6965066194534302,-0.45092031359672546
1782986364475742200,9.1477421875,-0.5917059183120728,0.6786198019981384,-0.28569114208221436
1782986364485816300,9.15781640625,-0.627701461315155,0.6068534255027771,-0.20916546881198883
1782986364495890200,9.16789013671875,-0.6453073620796204,0.5059473514556885,-0.21188189089298248
1782986364505965300,9.17796533203125,-0.6487314105033875,0.36760225892066956,-0.2774779498577118
1782986364516039200,9.1880390625,-0.6591712236404419,0.20248359441757202,-0.3711543679237366
1782986364526113300,9.19811328125,-0.6595158576965332,0.05288585275411606,-0.4434104561805725
1782986364536188200,9.208188232421875,-0.6465761065483093,-0.08730693906545639,-0.5000633597373962
1782986364546262300,9.21826220703125,-0.653256893157959,-0.18926632404327393,-0.579069197177887
1782986364556336000,9.228336181640625,-0.6714151501655579,-0.26829031109809875,-0.6662978529930115
1782986364566410200,9.23841015625,-0.659683883190155,-0.21246619522571564,-0.6624887585639954
1782986364576485000,9.248485107421875,-0.6097083687782288,-0.014509433880448341,-0.4764690697193146
1782986364586559200,9.258559326171875,-0.5865612030029297,0.1543874442577362,-0.163332998752594
1782986364596633000,9.268633056640626,-0.6116346120834351,0.2017267346382141,0.23597151041030884
1782986364606708200,9.278708251953125,-0.6727967858314514,0.1661950945854187,0.6401469707489014
1782986364616783000,9.288783203125,-0.7477943301200867,0.017057014629244804,0.9841488003730774
1782986364626857200,9.298857177734375,-0.8332386612892151,-0.23745755851268768,1.2092621326446533
1782986364636931000,9.30893115234375,-0.8990259170532227,-0.5306662917137146,1.3001283407211304
1782986364647006200,9.319006103515624,-0.9182973504066467,-0.7663943767547607,1.2767457962036133
1782986364657080000,9.329080078125,-0.8856038451194763,-0.8530184626579285,1.1241964101791382
1782986364667154400,9.339154541015626,-0.8204027414321899,-0.7445077300071716,0.8764188885688782
1782986364677229000,9.34922900390625,-0.6807252764701843,-0.4013788402080536,0.6395048499107361
1782986364687303400,9.359303466796876,-0.4442613422870636,0.07033168524503708,0.5330905318260193
1782986364697377300,9.369377197265624,-0.0842091515660286,0.48104971647262573,0.6064499616622925
1782986364707451100,9.379451171875,0.2984063923358917,0.666181206703186,0.7166449427604675
1782986364717526300,9.3895263671875,0.5951211452484131,0.5960375666618347,0.7984087467193604
1782986364727600000,9.39960009765625,0.6796696186065674,0.13498711585998535,0.754875123500824
1782986364737674200,9.40967431640625,0.40400925278663635,-0.5655661821365356,0.5614801049232483
1782986364747748900,9.419748779296874,-0.20480240881443024,-1.1616588830947876,0.2541678249835968
1782986364757823000,9.429822998046875,-0.7976660132408142,-1.1203687191009521,-0.001984853995963931
1782986364767896800,9.439896728515626,-0.9989194869995117,-0.6384481191635132,-0.10069838166236877
1782986364777972000,9.449971923828125,-0.8597392439842224,-0.43881356716156006,-0.3474551737308502
1782986364788045800,9.4600458984375,-0.6630661487579346,-0.5448036789894104,-1.034246802330017
1782986364798120000,9.470119873046874,-0.6553506851196289,-0.8389913439750671,-2.1882011890411377
1782986364808194000,9.480194091796875,-0.7144182324409485,-0.9297025799751282,-3.138890504837036
1782986364818269000,9.49026904296875,-0.6465592980384827,-0.7681488394737244,-3.3879785537719727
1782986364828343000,9.500343017578125,-0.44219446182250977,-0.6799758672714233,-3.015587329864502
1782986364838417000,9.5104169921875,-0.3007281422615051,-0.8597559928894043,-2.3138909339904785
1782986364848492000,9.520491943359374,-0.415542334318161,-1.1412920951843262,-1.7188643217086792
1782986364858566000,9.53056591796875,-0.7031323313713074,-1.2182930707931519,-1.5170150995254517
1782986364868640000,9.540639892578126,-0.8551154732704163,-0.9285129904747009,-1.4958871603012085
1782986364878715100,9.550715087890625,-0.7008944749832153,-0.29318180680274963,-1.3234549760818481
1782986364888789000,9.5607890625,-0.3159022927284241,0.42024680972099304,-0.9154940843582153
1782986364898862800,9.57086279296875,0.09981847554445267,0.959446370601654,-0.3608167767524719
1782986364908937000,9.58093701171875,0.3676198124885559,1.1331892013549805,0.2474593222141266
1782986364919011800,9.59101171875,0.4243720471858978,0.8995401859283447,0.7804281711578369
1782986364929086000,9.6010859375,0.31931087374687195,0.4786946773529053,1.1650691032409668
1782986364939159800,9.611159912109375,0.15897740423679352,0.13132978975772858,1.309352993965149
1782986364949235000,9.62123486328125,0.02460494451224804,-0.04482606053352356,1.155292272567749
1782986364959308800,9.631308837890625,-0.022292522713541985,0.02413196861743927,0.8092883229255676
1782986364969383000,9.6413828125,0.027116039767861366,0.2857595682144165,0.39922061562538147
1782986364979457000,9.65145703125,0.1607406735420227,0.5230315327644348,0.03538914769887924
1782986364989532000,9.661531982421875,0.34551477432250977,0.5835987329483032,-0.1947346031665802
1782986364999606000,9.67160595703125,0.48478105664253235,0.4891909956932068,-0.2546815574169159
1782986365009680100,9.68168017578125,0.5576600432395935,0.357637494802475,-0.15844076871871948
1782986365019755000,9.691755126953124,0.567927360534668,0.23002174496650696,0.07295916229486465
1782986365029829000,9.7018291015625,0.5165507197380066,0.12601038813591003,0.3888787627220154
1782986365039903000,9.711903076171875,0.4045836925506592,0.134921595454216,0.6928508877754211
1782986365049978000,9.72197802734375,0.2663230299949646,0.1960001289844513,0.9420676827430725
1782986365060052000,9.732052001953125,0.14679157733917236,0.3487502634525299,1.113205909729004
1782986365070125800,9.742125732421876,0.08470876514911652,0.5669382810592651,1.1830259561538696
1782986365080200000,9.752199951171875,0.10334636270999908,0.7573582530021667,1.1802083253860474
1782986365090274800,9.76227490234375,0.16106557846069336,0.9093999862670898,1.1480357646942139
1782986365100349000,9.772348876953124,0.1293119192123413,1.0372964143753052,1.216709017753601
1782986365110422800,9.7824228515625,0.007757255341857672,0.8935270309448242,1.1470797061920166
1782986365120498000,9.792497802734376,-0.033496707677841187,0.7723311185836792,1.0410746335983276
1782986365130571800,9.80257177734375,0.007158843334764242,0.6332123279571533,1.0072271823883057
1782986365140646000,9.81264599609375,0.025258751586079597,0.5623144507408142,0.9995431900024414
1782986365150720800,9.822720703125,0.0022144184913486242,0.47690796852111816,1.009568691253662
1782986365160795000,9.832794921875,-0.06361252814531326,0.43138840794563293,1.1224699020385742
1782986365170869000,9.842868896484376,-0.1664944440126419,0.36079680919647217,1.3642990589141846
