time,seconds_elapsed,z,y,x
1782987376754906000,0.060906005859375,-0.99365234375,0.0364532470703125,0.005615234375
1782987376764980200,0.070980224609375,-0.9908905029296875,0.034515380859375,0.005523681640625
1782987376775055000,0.08105517578125,-0.991912841796875,0.035614013671875,0.005035400390625
1782987376785129200,0.091129150390625,-0.9932098388671875,0.0351715087890625,0.0073394775390625
1782987376795203300,0.101203369140625,-0.9927520751953125,0.0351409912109375,0.00665283203125
1782987376805278200,0.1112783203125,-0.992919921875,0.03607177734375,0.0058441162109375
1782987376815352300,0.121352294921875,-0.9915618896484375,0.0338592529296875,0.0063934326171875
1782987376825427200,0.13142724609375,-0.9942626953125,0.033935546875,0.0048980712890625
1782987376835501300,0.141501220703125,-0.9930572509765625,0.033447265625,0.0059051513671875
1782987376845575400,0.151575439453125,-0.9928436279296875,0.0328369140625,0.00775146484375
1782987376855650300,0.161650390625,-0.9932098388671875,0.0314483642578125,0.00628662109375
1782987376865724400,0.171724365234375,-0.9940948486328125,0.0332489013671875,0.0064697265625
1782987376875798300,0.18179833984375,-0.9942169189453125,0.03240966796875,0.0066070556640625
1782987376885873400,0.191873291015625,-0.9943389892578125,0.0319366455078125,0.0059814453125
1782987376895947300,0.201947265625,-0.99462890625,0.0307464599609375,0.0057373046875
1782987376906022400,0.2120224609375,-0.9940338134765625,0.03045654296875,0.00604248046875
1782987376916096300,0.22209619140625,-0.993621826171875,0.0296783447265625,0.0083770751953125
1782987376926170400,0.23217041015625,-0.994415283203125,0.03094482421875,0.0089874267578125
1782987376936245200,0.242245361328125,-0.9945831298828125,0.0310516357421875,0.0078277587890625
1782987376946319400,0.2523193359375,-0.9944305419921875,0.030364990234375,0.010040283203125
1782987376956393200,0.262393310546875,-0.99237060546875,0.03179931640625,0.010894775390625
1782987376966468400,0.27246826171875,-0.993988037109375,0.0315399169921875,0.009002685546875
1782987376976542200,0.282542236328125,-0.9942169189453125,0.02947998046875,0.01214599609375
1782987376986617300,0.292617431640625,-0.9950408935546875,0.03094482421875,0.0100555419921875
1782987376996691200,0.302691162109375,-0.9935760498046875,0.0309906005859375,0.0101776123046875
1782987377006765300,0.312765380859375,-0.993896484375,0.031524658203125,0.00848388671875
1782987377016840200,0.322840087890625,-0.99383544921875,0.030731201171875,0.010162353515625
1782987377026914300,0.332914306640625,-0.9958038330078125,0.0302276611328125,0.0100555419921875
1782987377036988200,0.34298828125,-0.9939727783203125,0.0300140380859375,0.010101318359375
1782987377047063300,0.353063232421875,-0.9941558837890625,0.030181884765625,0.0098419189453125
1782987377057137200,0.36313720703125,-0.994720458984375,0.029449462890625,0.007293701171875
1782987377067212300,0.37321240234375,-0.99517822265625,0.03076171875,0.008758544921875
1782987377077286100,0.3832861328125,-0.99591064453125,0.028656005859375,0.009490966796875
1782987377087360300,0.3933603515625,-0.9935455322265625,0.0284423828125,0.0074462890625
1782987377097435100,0.40343505859375,-0.9947357177734375,0.0326385498046875,0.008209228515625
1782987377107509200,0.41350927734375,-0.9945831298828125,0.03277587890625,0.008270263671875
1782987377117583400,0.423583251953125,-0.9931182861328125,0.031463623046875,0.0084228515625
1782987377127658200,0.433658203125,-0.993316650390625,0.0315399169921875,0.009307861328125
1782987377137732400,0.443732421875,-0.991180419921875,0.044525146484375,0.005035400390625
1782987377147807200,0.45380712890625,-0.98834228515625,0.081451416015625,-0.01220703125
1782987377157881300,0.46388134765625,-0.9828643798828125,0.0225982666015625,0.0170745849609375
1782987377167955200,0.473955078125,-0.982696533203125,0.02069091796875,0.0186309814453125
1782987377178030300,0.4840302734375,-0.98883056640625,0.060394287109375,0.0015411376953125
1782987377188104400,0.4941044921875,-0.9946441650390625,0.0562591552734375,-0.0094451904296875
1782987377198178300,0.50417822265625,-0.9908599853515625,0.015411376953125,0.0070648193359375
1782987377208253400,0.51425341796875,-0.9966278076171875,0.030059814453125,-0.001983642578125
1782987377218327300,0.524327392578125,-0.9990386962890625,0.0290374755859375,-0.0009918212890625
1782987377228402400,0.53440234375,-1.0013580322265625,0.0267486572265625,-0.006011962890625
1782987377238476300,0.544476318359375,-0.997161865234375,0.0268707275390625,-0.00177001953125
1782987377248550100,0.554550048828125,-0.99310302734375,0.027801513671875,0.0094146728515625
1782987377258625300,0.564625244140625,-0.9921417236328125,0.029296875,0.0119476318359375
1782987377268699100,0.57469921875,-0.9895477294921875,0.0284423828125,0.012939453125
1782987377278773200,0.584773193359375,-0.9916839599609375,0.0310821533203125,0.0142059326171875
1782987377288848100,0.59484814453125,-0.99383544921875,0.039276123046875,0.012359619140625
1782987377298922200,0.604922119140625,-0.9928131103515625,0.0584259033203125,-0.0005035400390625
1782987377308997400,0.614997314453125,-0.9913177490234375,0.0287017822265625,0.0172119140625
1782987377319071200,0.6250712890625,-0.9894561767578125,0.0264129638671875,0.014678955078125
1782987377329145000,0.63514501953125,-0.988861083984375,0.026092529296875,0.011444091796875
1782987377339220200,0.64522021484375,-0.9937744140625,0.0290069580078125,0.01116943359375
1782987377349294000,0.655294189453125,-0.9976959228515625,0.0447235107421875,-0.0005035400390625
1782987377359368400,0.665368408203125,-0.9956817626953125,0.039398193359375,-0.000091552734375
1782987377369443000,0.675443115234375,-0.9929656982421875,0.0206451416015625,0.0123748779296875
1782987377379517400,0.685517333984375,-0.9918670654296875,0.023284912109375,0.0089874267578125
1782987377389592000,0.695592041015625,-0.9954376220703125,0.0435943603515625,-0.00286865234375
1782987377399666400,0.70566650390625,-0.9912261962890625,0.04290771484375,-0.0029296875
1782987377409740300,0.715740234375,-0.98992919921875,0.0205841064453125,0.0079803466796875
1782987377419815400,0.7258154296875,-0.9912872314453125,0.03826904296875,0.00177001953125
1782987377429889300,0.73588916015625,-0.9931640625,0.048187255859375,-0.003448486328125
1782987377439963400,0.74596337890625,-0.9911346435546875,0.0258026123046875,0.0073699951171875
1782987377450038300,0.756038330078125,-0.9922637939453125,0.0289764404296875,0.0060272216796875
1782987377460112400,0.7661123046875,-0.9940338134765625,0.0420989990234375,0.0041961669921875
1782987377470187300,0.776187255859375,-0.994140625,0.0320587158203125,0.011016845703125
1782987377480261400,0.786261474609375,-0.9925689697265625,0.02777099609375,0.0115509033203125
1782987377490334700,0.796334716796875,-0.995208740234375,0.0313873291015625,0.007659912109375
1782987377500409900,0.806409912109375,-0.9948577880859375,0.0381317138671875,0.00885009765625
1782987377510483700,0.816483642578125,-0.9938812255859375,0.034423828125,0.0110626220703125
1782987377520557800,0.826557861328125,-0.993804931640625,0.032379150390625,0.01116943359375
1782987377530632700,0.8366328125,-0.99102783203125,0.0379638671875,0.0087432861328125
1782987377540706800,0.846706787109375,-0.9930267333984375,0.037384033203125,0.0074310302734375
1782987377550781700,0.85678173828125,-0.991973876953125,0.033447265625,0.0084686279296875
1782987377560855800,0.866855712890625,-0.9942626953125,0.0323028564453125,0.006561279296875
1782987377570929700,0.8769296875,-0.993743896484375,0.0342254638671875,0.0048065185546875
1782987377581004800,0.8870048828125,-0.9943695068359375,0.032501220703125,0.0011749267578125
1782987377591078700,0.89707861328125,-0.9935760498046875,0.0303497314453125,0.0010528564453125
1782987377601152800,0.90715283203125,-0.9944305419921875,0.0322723388671875,0.0019989013671875
1782987377611227600,0.9172275390625,-0.9931640625,0.034912109375,0.0019989013671875
1782987377621302000,0.927302001953125,-0.989776611328125,0.03631591796875,0.005828857421875
1782987377631376600,0.937376708984375,-0.9896392822265625,0.0363311767578125,0.005889892578125
1782987377641451000,0.947450927734375,-0.990692138671875,0.038909912109375,0.0081634521484375
1782987377651524900,0.95752490234375,-0.9915771484375,0.035003662109375,0.0085906982421875
1782987377661600000,0.96760009765625,-0.992706298828125,0.033966064453125,0.00830078125
1782987377671673900,0.977673828125,-0.99468994140625,0.033538818359375,0.007080078125
1782987377681747700,0.987747802734375,-0.99542236328125,0.0347900390625,0.0067596435546875
1782987377691822800,0.99782275390625,-0.994781494140625,0.03326416015625,0.00628662109375
1782987377701896700,1.007896728515625,-0.9933319091796875,0.031982421875,0.0067901611328125
1782987377711971800,1.017971923828125,-0.9922943115234375,0.0321502685546875,0.00811767578125
1782987377722045700,1.028045654296875,-0.9941558837890625,0.0315093994140625,0.007171630859375
1782987377732119800,1.038119873046875,-0.99365234375,0.033233642578125,0.0064697265625
1782987377742195000,1.04819482421875,-0.9929962158203125,0.0339202880859375,0.00531005859375
1782987377752268800,1.058268798828125,-0.99395751953125,0.034210205078125,0.0029449462890625
1782987377762342700,1.0683427734375,-0.992340087890625,0.0358123779296875,0.0021820068359375
1782987377772417800,1.078417724609375,-0.9937896728515625,0.0343170166015625,0.0042572021484375
1782987377782491600,1.08849169921875,-0.9923858642578125,0.0353240966796875,0.003814697265625
1782987377792565800,1.098565673828125,-0.991302490234375,0.035614013671875,0.0065765380859375
1782987377802640600,1.108640625,-0.991180419921875,0.03424072265625,0.00811767578125
1782987377812714800,1.11871484375,-0.9923095703125,0.0347137451171875,0.005401611328125
1782987377822789600,1.12878955078125,-0.9918212890625,0.0353851318359375,0.0043487548828125
1782987377832863700,1.13886376953125,-0.993865966796875,0.0361785888671875,0.0024261474609375
1782987377842937600,1.1489375,-0.99462890625,0.0351715087890625,0.002685546875
1782987377853012700,1.1590126953125,-0.992095947265625,0.035003662109375,0.0023956298828125
1782987377863086600,1.169086669921875,-0.9931182861328125,0.034149169921875,0.006256103515625
1782987377873161700,1.17916162109375,-0.9929046630859375,0.0340118408203125,0.00634765625
1782987377883235600,1.189235595703125,-0.991546630859375,0.035614013671875,0.0060272216796875
1782987377893310000,1.19931005859375,-0.9918212890625,0.03448486328125,0.0066070556640625
1782987377903384600,1.209384521484375,-0.993194580078125,0.035064697265625,0.006195068359375
1782987377913459000,1.219458984375,-0.993560791015625,0.0343017578125,0.00543212890625
1782987377923532800,1.22953271484375,-0.994598388671875,0.03350830078125,0.0068817138671875
1782987377933608000,1.23960791015625,-0.9942779541015625,0.032440185546875,0.0068817138671875
1782987377943681800,1.249681884765625,-0.993316650390625,0.0319976806640625,0.00885009765625
1782987377953756000,1.259755859375,-0.9910888671875,0.032257080078125,0.00958251953125
1782987377963830800,1.269830810546875,-0.9915618896484375,0.032745361328125,0.0105743408203125
1782987377973905000,1.27990478515625,-0.9925384521484375,0.0330047607421875,0.0109405517578125
1782987377983979800,1.289979736328125,-0.992767333984375,0.033477783203125,0.011199951171875
1782987377994054000,1.300053955078125,-0.99395751953125,0.0345611572265625,0.01123046875
1782987378004127700,1.310127685546875,-0.9925689697265625,0.0322418212890625,0.00872802734375
1782987378014203000,1.320202880859375,-0.9944610595703125,0.0308837890625,0.0074462890625
1782987378024276700,1.33027685546875,-0.994598388671875,0.029144287109375,0.0078582763671875
1782987378034350800,1.340350830078125,-0.994873046875,0.0273895263671875,0.0053558349609375
1782987378044425700,1.35042578125,-0.9947509765625,0.027191162109375,0.0082550048828125
1782987378054499800,1.360499755859375,-0.99468994140625,0.027984619140625,0.00848388671875
1782987378064574700,1.37057470703125,-0.994476318359375,0.02886962890625,0.0089111328125
1782987378074648800,1.38064892578125,-0.994140625,0.0290374755859375,0.0081329345703125
1782987378084722700,1.39072265625,-0.9948272705078125,0.0317535400390625,0.006134033203125
1782987378094797800,1.4007978515625,-0.99481201171875,0.0323333740234375,0.007232666015625
1782987378104871700,1.41087158203125,-0.9941864013671875,0.0333099365234375,0.009124755859375
1782987378114945800,1.42094580078125,-0.992706298828125,0.03167724609375,0.00982666015625
1782987378125020700,1.431020751953125,-0.9930877685546875,0.0309600830078125,0.011566162109375
1782987378135094800,1.4410947265625,-0.99066162109375,0.0313568115234375,0.0107421875
1782987378145169700,1.451169677734375,-0.9934844970703125,0.0321807861328125,0.008880615234375
1782987378155243800,1.461243896484375,-0.9920501708984375,0.03338623046875,0.01092529296875
1782987378165318000,1.47131787109375,-0.993804931640625,0.03338623046875,0.0089111328125
1782987378175392800,1.481392822265625,-0.9946746826171875,0.0333099365234375,0.0076904296875
1782987378185467000,1.491466796875,-0.9929656982421875,0.03338623046875,0.009796142578125
1782987378195540700,1.501540771484375,-0.9918975830078125,0.0328521728515625,0.0078277587890625
1782987378205615900,1.511615966796875,-0.9923553466796875,0.0322723388671875,0.007781982421875
1782987378215689700,1.521689697265625,-0.99334716796875,0.031890869140625,0.0086669921875
1782987378225764900,1.531764892578125,-0.992584228515625,0.0322418212890625,0.0082244873046875
1782987378235839000,1.5418388671875,-0.9937286376953125,0.0308380126953125,0.006072998046875
1782987378245912800,1.551912841796875,-0.995635986328125,0.0319976806640625,0.0043182373046875
1782987378255988000,1.561988037109375,-0.9946441650390625,0.032470703125,0.004302978515625
1782987378266061800,1.572061767578125,-0.993988037109375,0.0319061279296875,0.005218505859375
1782987378276135700,1.5821357421875,-0.992645263671875,0.032806396484375,0.0055999755859375
1782987378286210800,1.5922109375,-0.9933319091796875,0.0329132080078125,0.007598876953125
1782987378296284700,1.60228466796875,-0.992156982421875,0.03350830078125,0.0080108642578125
1782987378306359800,1.61235986328125,-0.9925384521484375,0.03240966796875,0.0087127685546875
1782987378316433700,1.62243359375,-0.9913330078125,0.03387451171875,0.006927490234375
1782987378326507800,1.6325078125,-0.9946136474609375,0.03302001953125,0.0063934326171875
1782987378336582700,1.642582763671875,-0.99420166015625,0.0340423583984375,0.007080078125
1782987378346656800,1.65265673828125,-0.9929351806640625,0.035186767578125,0.0083465576171875
1782987378356730600,1.662730712890625,-0.9933624267578125,0.033416748046875,0.0075225830078125
1782987378366805800,1.6728056640625,-0.99249267578125,0.0324249267578125,0.00640869140625
1782987378376879600,1.682879638671875,-0.9940032958984375,0.03228759765625,0.0076751708984375
1782987378386953700,1.69295361328125,-0.99200439453125,0.0325469970703125,0.007965087890625
1782987378397028600,1.703028564453125,-0.9916839599609375,0.0349884033203125,0.0049896240234375
1782987378407102700,1.713102783203125,-0.993011474609375,0.0330810546875,0.005645751953125
1782987378417177600,1.723177490234375,-0.993988037109375,0.0323486328125,0.007568359375
1782987378427251700,1.733251708984375,-0.9932708740234375,0.0340728759765625,0.0064697265625
1782987378437325800,1.743325927734375,-0.993011474609375,0.0356292724609375,0.0067291259765625
1782987378447400700,1.753400634765625,-0.991912841796875,0.033050537109375,0.008880615234375
1782987378457474800,1.763474853515625,-0.991607666015625,0.035125732421875,0.0070953369140625
1782987378467549000,1.773548828125,-0.9918975830078125,0.0345458984375,0.007720947265625
1782987378477623800,1.783623779296875,-0.9947052001953125,0.0352630615234375,0.00677490234375
1782987378487698000,1.793697998046875,-0.9944000244140625,0.0336151123046875,0.00457763671875
1782987378497773000,1.80377294921875,-0.992889404296875,0.0340576171875,0.0057220458984375
1782987378507847000,1.813846923828125,-0.9915313720703125,0.033294677734375,0.0058135986328125
1782987378517921000,1.823921142578125,-0.9931488037109375,0.0322723388671875,0.0058441162109375
1782987378527996000,1.833995849609375,-0.9935455322265625,0.029541015625,0.0041351318359375
1782987378538070000,1.844070068359375,-0.9927215576171875,0.031158447265625,0.005035400390625
1782987378548143900,1.854143798828125,-0.9929046630859375,0.0340576171875,0.005401611328125
1782987378558219000,1.864218994140625,-0.992767333984375,0.03515625,0.005828857421875
1782987378568292900,1.87429296875,-0.9939117431640625,0.03466796875,0.0070343017578125
1782987378578368000,1.884367919921875,-0.996002197265625,0.0367279052734375,0.0062103271484375
1782987378588441900,1.89444189453125,-0.994415283203125,0.0369110107421875,0.00830078125
1782987378598516000,1.904515869140625,-0.992462158203125,0.0344696044921875,0.007476806640625
1782987378608590800,1.9145908203125,-0.9925079345703125,0.0335235595703125,0.0063934326171875
1782987378618665000,1.9246650390625,-0.9913330078125,0.0353240966796875,0.0093841552734375
1782987378628738800,1.93473876953125,-0.99078369140625,0.035552978515625,0.0092926025390625
1782987378638814000,1.94481396484375,-0.991607666015625,0.0371246337890625,0.0081787109375
1782987378648887800,1.9548876953125,-0.9921112060546875,0.03729248046875,0.0066986083984375
1782987378658963000,1.964962890625,-0.992279052734375,0.035369873046875,0.0059967041015625
1782987378669036800,1.975036865234375,-0.992889404296875,0.0354461669921875,0.00445556640625
1782987378679111000,1.98511083984375,-0.993133544921875,0.03619384765625,0.00592041015625
1782987378689185800,1.995185791015625,-0.9927520751953125,0.0348663330078125,0.003326416015625
1782987378699260000,2.005260009765625,-0.99285888671875,0.034820556640625,0.0031585693359375
1782987378709334000,2.015333984375,-0.9916534423828125,0.0350189208984375,0.00396728515625
1782987378719409000,2.025408935546875,-0.9927215576171875,0.0344085693359375,0.000640869140625
1782987378729483000,2.03548291015625,-0.993896484375,0.03350830078125,0.0011444091796875
1782987378739558000,2.045557861328125,-0.993438720703125,0.0315399169921875,0.001739501953125
1782987378749632000,2.055632080078125,-0.9932861328125,0.03375244140625,0.0005340576171875
1782987378759706000,2.0657060546875,-0.994049072265625,0.0322723388671875,0.0003204345703125
1782987378769781000,2.075781005859375,-0.994232177734375,0.031646728515625,0.000335693359375
1782987378779855000,2.085855224609375,-0.9927978515625,0.03021240234375,0.0017852783203125
1782987378789929000,2.095928955078125,-0.9934234619140625,0.0307769775390625,0.004974365234375
1782987378800004000,2.106004150390625,-0.992523193359375,0.03179931640625,0.00677490234375
1782987378810078000,2.116077880859375,-0.9914703369140625,0.0338287353515625,0.0094146728515625
1782987378820152000,2.126152099609375,-0.9912567138671875,0.0352630615234375,0.0117034912109375
1782987378830227000,2.13622705078125,-0.9924468994140625,0.0354156494140625,0.0130767822265625
1782987378840301000,2.146301025390625,-0.9933013916015625,0.0343170166015625,0.01116943359375
1782987378850376000,2.1563759765625,-0.9941558837890625,0.0342254638671875,0.0128173828125
1782987378860450000,2.166449951171875,-0.9938507080078125,0.0338134765625,0.013427734375
1782987378870524000,2.17652392578125,-0.9918670654296875,0.0342559814453125,0.013519287109375
1782987378880599000,2.18659912109375,-0.990692138671875,0.0318603515625,0.017608642578125
1782987378890673000,2.1966728515625,-0.9912109375,0.0305328369140625,0.0178985595703125
1782987378900747000,2.2067470703125,-0.9918975830078125,0.032562255859375,0.0165557861328125
1782987378910822000,2.21682177734375,-0.9942474365234375,0.0296478271484375,0.013763427734375
1782987378920896000,2.22689599609375,-0.9968109130859375,0.0265655517578125,0.009765625
1782987378930971000,2.236970947265625,-0.99639892578125,0.026123046875,0.00811767578125
1782987378941045000,2.247044921875,-0.9963226318359375,0.0240631103515625,0.0081787109375
1782987378951118800,2.257118896484375,-0.995849609375,0.0243377685546875,0.0077362060546875
1782987378961194000,2.267194091796875,-0.993408203125,0.0221405029296875,0.00921630859375
1782987378971267800,2.277267822265625,-0.9940643310546875,0.022613525390625,0.0091094970703125
1782987378981342000,2.287342041015625,-0.9947967529296875,0.0242919921875,0.007415771484375
1782987378991416800,2.297416748046875,-0.9962310791015625,0.024658203125,0.00726318359375
1782987379001491000,2.307490966796875,-0.997467041015625,0.02545166015625,0.0087890625
1782987379011565800,2.31756591796875,-0.9980926513671875,0.025543212890625,0.010772705078125
1782987379021640000,2.327639892578125,-0.995819091796875,0.028564453125,0.01226806640625
1782987379031714000,2.337714111328125,-0.9936981201171875,0.028839111328125,0.015167236328125
1782987379041789000,2.347788818359375,-0.994140625,0.0276031494140625,0.0162200927734375
1782987379051863000,2.357863037109375,-0.9949188232421875,0.029022216796875,0.0186309814453125
1782987379061937000,2.36793701171875,-0.9953765869140625,0.0282745361328125,0.0174560546875
1782987379072012000,2.378011962890625,-0.9952392578125,0.0268096923828125,0.01641845703125
1782987379082086000,2.3880859375,-0.9970703125,0.0262908935546875,0.0158538818359375
1782987379092160000,2.398159912109375,-0.99554443359375,0.0244140625,0.013763427734375
1782987379102235000,2.40823486328125,-0.995697021484375,0.022979736328125,0.0113983154296875
1782987379112309000,2.41830908203125,-0.99578857421875,0.0211944580078125,0.0116119384765625
1782987379122384000,2.4283837890625,-0.9962005615234375,0.021026611328125,0.00994873046875
1782987379132458000,2.4384580078125,-0.9964447021484375,0.02203369140625,0.0096893310546875
1782987379142531800,2.44853173828125,-0.9948272705078125,0.0247650146484375,0.008148193359375
1782987379152607000,2.45860693359375,-0.9953765869140625,0.0264434814453125,0.008575439453125
1782987379162680800,2.468680908203125,-0.993621826171875,0.0289306640625,0.005828857421875
1782987379172755000,2.4787548828125,-0.9935150146484375,0.0299835205078125,0.0067138671875
1782987379182829800,2.488829833984375,-0.993865966796875,0.032623291015625,0.0085601806640625
1782987379192904000,2.498904052734375,-0.9909515380859375,0.0720367431640625,-0.004302978515625
1782987379202978800,2.508978759765625,-0.969085693359375,0.130401611328125,-0.030670166015625
1782987379213053000,2.519052978515625,-0.9653472900390625,0.0023956298828125,0.0382843017578125
1782987379223126800,2.529126708984375,-0.97802734375,0.040496826171875,0.0183258056640625
1782987379233202000,2.539201904296875,-0.971466064453125,0.106689453125,-0.02362060546875
1782987379243275800,2.54927587890625,-0.98382568359375,0.01971435546875,-0.005279541015625
1782987379253350100,2.55935009765625,-0.992218017578125,0.0033721923828125,-0.00762939453125
1782987379263424800,2.5694248046875,-1.00799560546875,0.037689208984375,-0.019866943359375
1782987379273499100,2.5794990234375,-1.010467529296875,0.0284576416015625,-0.0242156982421875
1782987379283573800,2.58957373046875,-1.0053558349609375,0.02532958984375,-0.0160980224609375
1782987379293648100,2.599648193359375,-0.9988250732421875,0.027252197265625,-0.0039520263671875
1782987379303722000,2.609721923828125,-0.9815826416015625,0.03106689453125,0.016510009765625
1782987379313797000,2.619797119140625,-0.9819488525390625,0.0337066650390625,0.0255584716796875
1782987379323871000,2.62987109375,-0.982513427734375,0.035552978515625,0.023956298828125
1782987379333945000,2.639945068359375,-0.9885711669921875,0.04534912109375,0.0186004638671875
1782987379344020000,2.65002001953125,-0.9949951171875,0.0508880615234375,0.0139007568359375
1782987379354094000,2.660093994140625,-0.9999542236328125,0.0510406494140625,0.00372314453125
1782987379364169000,2.6701689453125,-0.9990081787109375,0.0458984375,0.0025787353515625
1782987379374243000,2.6802431640625,-0.9943084716796875,0.0406341552734375,0.009613037109375
1782987379384317000,2.69031689453125,-0.987518310546875,0.034759521484375,0.017333984375
1782987379394392000,2.70039208984375,-0.984161376953125,0.0272064208984375,0.016510009765625
1782987379404466000,2.7104658203125,-0.985198974609375,0.022735595703125,0.01446533203125
1782987379414540000,2.7205400390625,-0.99359130859375,0.01898193359375,0.0108795166015625
1782987379424615000,2.730614990234375,-1.0032501220703125,0.017913818359375,-0.0004425048828125
1782987379434689000,2.74068896484375,-1.0084075927734375,0.014251708984375,-0.0054168701171875
1782987379444763000,2.750762939453125,-1.0091094970703125,0.0125579833984375,-0.005401611328125
1782987379454838000,2.760838134765625,-1.0035858154296875,0.0117645263671875,0.0018463134765625
1782987379464912000,2.770911865234375,-0.994415283203125,0.013519287109375,0.010009765625
1782987379474987000,2.780987060546875,-0.9876861572265625,0.0158233642578125,0.01641845703125
1782987379485060600,2.791060546875,-0.9865264892578125,0.0230560302734375,0.01959228515625
1782987379495134700,2.801134765625,-0.98968505859375,0.031341552734375,0.0197601318359375
1782987379505209600,2.811209716796875,-0.993927001953125,0.0366973876953125,0.0146484375
1782987379515283700,2.82128369140625,-0.9985809326171875,0.0409088134765625,0.0105133056640625
1782987379525357800,2.83135791015625,-0.9974212646484375,0.042388916015625,0.01068115234375
1782987379535432700,2.8414326171875,-0.994049072265625,0.04156494140625,0.015167236328125
1782987379545506800,2.8515068359375,-0.9892425537109375,0.0391082763671875,0.0200347900390625
1782987379555581700,2.861581787109375,-0.9874725341796875,0.0347747802734375,0.02239990234375
1782987379565655800,2.87165576171875,-0.98541259765625,0.03399658203125,0.02130126953125
1782987379575729700,2.881729736328125,-0.9874267578125,0.03448486328125,0.015960693359375
1782987379585804800,2.8918046875,-0.993316650390625,0.0343780517578125,0.0078125
1782987379595878700,2.901878662109375,-0.997222900390625,0.0431976318359375,-0.0053253173828125
1782987379605952800,2.911952880859375,-0.9953460693359375,0.0738983154296875,-0.02655029296875
1782987379616027600,2.922027587890625,-0.99169921875,0.0159912109375,0.0005340576171875
1782987379626101800,2.932101806640625,-0.9878387451171875,0.0200653076171875,0.0041656494140625
1782987379636176600,2.9421767578125,-0.985870361328125,0.0222320556640625,0.0094146728515625
1782987379646250800,2.952250732421875,-0.996246337890625,0.0560150146484375,-0.021484375
1782987379656324600,2.96232470703125,-0.989349365234375,0.06298828125,-0.0214691162109375
1782987379666399700,2.972399658203125,-0.99005126953125,0.0164947509765625,-0.0012359619140625
1782987379676473600,2.9824736328125,-0.99151611328125,0.0218353271484375,-0.009033203125
1782987379686547700,2.992547607421875,-0.996917724609375,0.023681640625,-0.0047454833984375
1782987379696622600,3.00262255859375,-0.998199462890625,0.0307159423828125,-0.00360107421875
1782987379706696700,3.01269677734375,-0.99884033203125,0.0372161865234375,-0.0040130615234375
1782987379716770600,3.0227705078125,-0.9969024658203125,0.03411865234375,0.008026123046875
1782987379726845700,3.032845703125,-0.99090576171875,0.0350799560546875,0.01177978515625
1782987379736919600,3.04291943359375,-0.991912841796875,0.0332489013671875,0.0156097412109375
1782987379746994700,3.05299462890625,-0.98779296875,0.0348663330078125,0.0243072509765625
1782987379757068500,3.063068603515625,-0.990325927734375,0.0391387939453125,0.0232696533203125
1782987379767142700,3.073142578125,-0.9915771484375,0.042266845703125,0.0185699462890625
1782987379777217500,3.083217529296875,-0.993072509765625,0.0418548583984375,0.0180206298828125
1782987379787291600,3.093291748046875,-0.9952545166015625,0.037628173828125,0.0172882080078125
1782987379797365800,3.10336572265625,-0.9949798583984375,0.03533935546875,0.01141357421875
1782987379807440600,3.113440673828125,-0.99212646484375,0.0338134765625,0.0127410888671875
1782987379817514800,3.1235146484375,-0.9921112060546875,0.0294342041015625,0.013153076171875
1782987379827589600,3.133589599609375,-0.99151611328125,0.029815673828125,0.0087432861328125
1782987379837663700,3.143663818359375,-0.994232177734375,0.02703857421875,0.00384521484375
1782987379847737600,3.153737548828125,-0.9970855712890625,0.027557373046875,-0.00030517578125
1782987379857812700,3.163812744140625,-0.9981842041015625,0.0288543701171875,-0.00244140625
1782987379867886600,3.173886474609375,-0.9982147216796875,0.0263824462890625,-0.0013275146484375
1782987379877960700,3.183960693359375,-0.9958648681640625,0.0289459228515625,-0.0024871826171875
1782987379888035600,3.19403564453125,-0.9929351806640625,0.02789306640625,-0.0002593994140625
1782987379898109700,3.204109619140625,-0.993316650390625,0.0299530029296875,0.0030670166015625
1782987379908183600,3.21418359375,-0.992034912109375,0.0402984619140625,0.0010223388671875
1782987379918258700,3.2242587890625,-0.9877166748046875,0.0637664794921875,-0.005157470703125
1782987379928332500,3.23433251953125,-0.9856719970703125,0.0316925048828125,0.0146026611328125
1782987379938407700,3.24440771484375,-0.9867401123046875,0.0288238525390625,0.01422119140625
1782987379948481500,3.2544814453125,-0.9909515380859375,0.0405731201171875,0.0057830810546875
1782987379958555600,3.2645556640625,-0.994659423828125,0.04949951171875,-0.0001678466796875
1782987379968630500,3.274630615234375,-0.9951171875,0.033233642578125,0.004608154296875
1782987379978704600,3.28470458984375,-0.99609375,0.0348968505859375,0.0037994384765625
1782987379988778500,3.294778564453125,-0.9949188232421875,0.03253173828125,0.0082855224609375
1782987379998853600,3.304853515625,-0.994140625,0.03070068359375,0.007659912109375
1782987380008927500,3.314927490234375,-0.9907379150390625,0.03009033203125,0.008056640625
1782987380019002600,3.325002685546875,-0.990325927734375,0.0289459228515625,0.00836181640625
1782987380029076500,3.335076416015625,-0.9934844970703125,0.0280609130859375,0.008331298828125
1782987380039150600,3.345150634765625,-0.994354248046875,0.0293121337890625,0.0061187744140625
1782987380049225500,3.3552255859375,-0.9940338134765625,0.0323486328125,0.003021240234375
1782987380059299600,3.365299560546875,-0.99725341796875,0.033111572265625,0.0069580078125
1782987380069373700,3.375373779296875,-0.994873046875,0.0316314697265625,0.0080413818359375
1782987380079448600,3.385448486328125,-0.9935302734375,0.030853271484375,0.0103607177734375
1782987380089522700,3.395522705078125,-0.992706298828125,0.0308685302734375,0.0124053955078125
1782987380099597600,3.40559765625,-0.989898681640625,0.03143310546875,0.0138702392578125
1782987380109671700,3.415671630859375,-0.9931182861328125,0.032318115234375,0.010955810546875
1782987380119745800,3.425745849609375,-0.994232177734375,0.0309906005859375,0.0094146728515625
1782987380129820700,3.435820556640625,-0.995086669921875,0.0334320068359375,0.0082855224609375
1782987380139894800,3.445894775390625,-0.9939422607421875,0.0343170166015625,0.0074005126953125
1782987380149968600,3.45596875,-0.994354248046875,0.0494842529296875,-0.00018310546875
1782987380160043800,3.466043701171875,-0.992401123046875,0.03717041015625,0.00830078125
1782987380170117600,3.47611767578125,-0.9893035888671875,0.0255889892578125,0.011810302734375
1782987380180191700,3.486191650390625,-0.98956298828125,0.0408477783203125,0.0054473876953125
1782987380190266600,3.4962666015625,-0.99029541015625,0.0533447265625,-0.0060882568359375
1782987380200340700,3.5063408203125,-0.991546630859375,0.0289459228515625,0.00396728515625
1782987380210415600,3.51641552734375,-0.9923858642578125,0.0266876220703125,0.0032196044921875
1782987380220489700,3.52648974609375,-0.9947509765625,0.03643798828125,-0.00152587890625
1782987380230563600,3.5365634765625,-0.9975738525390625,0.0330810546875,-0.0034942626953125
1782987380240638700,3.546638671875,-0.9962310791015625,0.026153564453125,0.0035552978515625
1782987380250712600,3.556712646484375,-0.9948577880859375,0.029937744140625,0.006103515625
1782987380260786400,3.566786376953125,-0.9935150146484375,0.0301666259765625,0.007781982421875
1782987380270861600,3.576861572265625,-0.9926910400390625,0.03216552734375,0.008880615234375
1782987380280935700,3.586935791015625,-0.9933929443359375,0.0455780029296875,0.0071563720703125
1782987380291010600,3.597010498046875,-0.9911041259765625,0.0432281494140625,0.0112762451171875
1782987380301084700,3.607084716796875,-0.9895477294921875,0.0324249267578125,0.016387939453125
1782987380311158800,3.61715869140625,-0.99072265625,0.0335845947265625,0.0134429931640625
1782987380321233700,3.627233642578125,-0.9933929443359375,0.03778076171875,0.0091094970703125
1782987380331307800,3.637307861328125,-0.99462890625,0.0362091064453125,0.008087158203125
1782987380341381600,3.647381591796875,-0.99591064453125,0.0312652587890625,0.0057525634765625
1782987380351456800,3.657456787109375,-0.993927001953125,0.030548095703125,0.006805419921875
1782987380361530600,3.667530517578125,-0.993743896484375,0.0309600830078125,0.0073394775390625
1782987380371604700,3.677604736328125,-0.994232177734375,0.02801513671875,0.0053558349609375
1782987380381679600,3.6876796875,-0.9928131103515625,0.028167724609375,0.0053558349609375
1782987380391753700,3.697753662109375,-0.9936676025390625,0.03875732421875,0.0042724609375
1782987380401828900,3.707828857421875,-0.993804931640625,0.0462646484375,-0.0021514892578125
1782987380411902700,3.71790283203125,-0.99249267578125,0.0302734375,0.0073699951171875
1782987380421976600,3.7279765625,-0.9906463623046875,0.0284576416015625,0.0083770751953125
1782987380432051700,3.7380517578125,-0.9931488037109375,0.0406036376953125,0.0022125244140625
1782987380442125600,3.74812548828125,-0.9912872314453125,0.0384979248046875,0.0027618408203125
1782987380452199700,3.75819970703125,-0.9925994873046875,0.0282745361328125,0.0069732666015625
1782987380462274600,3.768274658203125,-0.9937591552734375,0.03216552734375,0.005645751953125
1782987380472348700,3.7783486328125,-0.9942474365234375,0.0340576171875,0.0035400390625
1782987380482423600,3.788423583984375,-0.9937896728515625,0.033660888671875,0.00469970703125
1782987380492498000,3.798497802734375,-0.9935150146484375,0.0311737060546875,0.0091400146484375
1782987380502572000,3.808572021484375,-0.9921112060546875,0.0305938720703125,0.0093994140625
1782987380512647000,3.81864697265625,-0.992401123046875,0.0328826904296875,0.007598876953125
1782987380522721000,3.828720947265625,-0.991668701171875,0.037872314453125,0.0086517333984375
1782987380532795000,3.838794921875,-0.992431640625,0.0378875732421875,0.0088043212890625
1782987380542870000,3.8488701171875,-0.993194580078125,0.03350830078125,0.012847900390625
1782987380552943900,3.85894384765625,-0.992462158203125,0.0330810546875,0.0100250244140625
1782987380563019000,3.86901904296875,-0.9927215576171875,0.03558349609375,0.00799560546875
1782987380573092900,3.8790927734375,-0.99371337890625,0.03399658203125,0.005218505859375
1782987380583167000,3.8891669921875,-0.9937896728515625,0.0313568115234375,0.0043182373046875
1782987380593241900,3.899241943359375,-0.9947967529296875,0.0319366455078125,0.00372314453125
1782987380603316000,3.90931591796875,-0.9935455322265625,0.033294677734375,0.0040130615234375
1782987380613390000,3.91939013671875,-0.9926910400390625,0.0313568115234375,0.0047149658203125
1782987380623465000,3.92946484375,-0.992645263671875,0.0320587158203125,0.0049896240234375
1782987380633539000,3.9395390625,-0.9926605224609375,0.0354766845703125,0.0042266845703125
1782987380643613200,3.94961328125,-0.9917449951171875,0.036163330078125,0.0041656494140625
1782987380653688000,3.95968798828125,-0.9902191162109375,0.036956787109375,0.0052490234375
1782987380663762200,3.96976220703125,-0.9912261962890625,0.033782958984375,0.00579833984375
1782987380673837000,3.979837158203125,-0.991455078125,0.0356903076171875,0.0068511962890625
1782987380683911200,3.9899111328125,-0.9942169189453125,0.035919189453125,0.008087158203125
1782987380693985000,3.999985107421875,-0.9951324462890625,0.03271484375,0.006378173828125
1782987380704060200,4.01006005859375,-0.9949493408203125,0.0323333740234375,0.0067138671875
1782987380714134000,4.020134033203125,-0.9937896728515625,0.0334014892578125,0.00836181640625
1782987380724208000,4.0302080078125,-0.993499755859375,0.033477783203125,0.0093994140625
1782987380734283000,4.040282958984375,-0.993408203125,0.03369140625,0.009124755859375
1782987380744357000,4.050357177734375,-0.9920501708984375,0.034149169921875,0.0084228515625
1782987380754432000,4.060431884765625,-0.99200439453125,0.0338897705078125,0.0081939697265625
1782987380764506000,4.070506103515625,-0.993682861328125,0.0352935791015625,0.008087158203125
1782987380774580000,4.080580078125,-0.9918365478515625,0.0360870361328125,0.0077667236328125
1782987380784655000,4.090655029296875,-0.99322509765625,0.0342559814453125,0.004791259765625
1782987380794729000,4.10072900390625,-0.993408203125,0.033843994140625,0.0046539306640625
1782987380804803000,4.110802978515625,-0.9929046630859375,0.0335693359375,0.00439453125
1782987380814878000,4.1208779296875,-0.992095947265625,0.0333251953125,0.0048065185546875
1782987380824952000,4.1309521484375,-0.993316650390625,0.0338287353515625,0.0042266845703125
1782987380835027000,4.14102685546875,-0.9927215576171875,0.0334625244140625,0.0035552978515625
1782987380845101000,4.15110107421875,-0.9936065673828125,0.032958984375,0.0040435791015625
1782987380855175000,4.1611748046875,-0.992767333984375,0.033721923828125,0.0056304931640625
1782987380865250000,4.17125,-0.9929656982421875,0.0336456298828125,0.0052032470703125
1782987380875324000,4.181323974609375,-0.992340087890625,0.035491943359375,0.0062408447265625
1782987380885398000,4.19139794921875,-0.9931182861328125,0.03466796875,0.007049560546875
1782987380895473000,4.201472900390625,-0.992950439453125,0.0337982177734375,0.0072784423828125
1782987380905547300,4.21154736328125,-0.9921722412109375,0.03472900390625,0.0069427490234375
1782987380915621000,4.22162109375,-0.9927978515625,0.03314208984375,0.0061492919921875
1782987380925696300,4.2316962890625,-0.9935150146484375,0.032440185546875,0.0069732666015625
1782987380935770000,4.24177001953125,-0.9921722412109375,0.0328369140625,0.00677490234375
1782987380945845200,4.25184521484375,-0.9935302734375,0.0330047607421875,0.005889892578125
1782987380955919000,4.261919189453125,-0.9940338134765625,0.03338623046875,0.00726318359375
1782987380965993000,4.271992919921875,-0.9937744140625,0.0351715087890625,0.0046844482421875
1782987380976068000,4.282068115234375,-0.9934234619140625,0.0351715087890625,0.005615234375
1782987380986142000,4.292141845703125,-0.9926300048828125,0.035797119140625,0.005584716796875
1782987380996216000,4.302216064453125,-0.9925994873046875,0.033721923828125,0.006927490234375
1782987381006291000,4.312291015625,-0.992767333984375,0.0330810546875,0.0061798095703125
1782987381016365000,4.322364990234375,-0.992279052734375,0.033172607421875,0.0054473876953125
1782987381026440200,4.332440185546875,-0.9935760498046875,0.03472900390625,0.0060882568359375
1782987381036514000,4.34251416015625,-0.9927215576171875,0.033782958984375,0.0047760009765625
1782987381046588000,4.352587890625,-0.9938201904296875,0.0325164794921875,0.00506591796875
1782987381056663000,4.3626630859375,-0.992706298828125,0.0327911376953125,0.0061492919921875
1782987381066737000,4.37273681640625,-0.9931182861328125,0.0326385498046875,0.008697509765625
1782987381076811000,4.38281103515625,-0.993743896484375,0.033599853515625,0.0069580078125
1782987381086886000,4.392885986328125,-0.99200439453125,0.0349884033203125,0.0064544677734375
1782987381096960000,4.4029599609375,-0.9932403564453125,0.0331878662109375,0.0073394775390625
1782987381107033900,4.413033935546875,-0.9926300048828125,0.03338623046875,0.0056304931640625
1782987381117109000,4.42310888671875,-0.9943084716796875,0.03411865234375,0.0065155029296875
1782987381127182800,4.433182861328125,-0.99407958984375,0.033935546875,0.005523681640625
1782987381137258000,4.443258056640625,-0.99298095703125,0.0330810546875,0.0056610107421875
1782987381147331800,4.453331787109375,-0.9921722412109375,0.0334930419921875,0.0051727294921875
1782987381157406200,4.46340625,-0.991973876953125,0.03125,0.0063934326171875
1782987381167480800,4.473480712890625,-0.993133544921875,0.0329742431640625,0.0074920654296875
1782987381177555200,4.48355517578125,-0.994842529296875,0.03436279296875,0.00482177734375
1782987381187629000,4.493629150390625,-0.991180419921875,0.0344696044921875,0.0087432861328125
1782987381197704200,4.5037041015625,-0.993865966796875,0.035186767578125,0.0072021484375
1782987381207778000,4.513778076171875,-0.9928436279296875,0.0330963134765625,0.0088653564453125
1782987381217853200,4.523853271484375,-0.9930572509765625,0.034912109375,0.006103515625
1782987381227927000,4.533927001953125,-0.9922332763671875,0.0333251953125,0.00750732421875
1782987381238001200,4.544001220703125,-0.9944610595703125,0.034149169921875,0.0068511962890625
1782987381248076000,4.554075927734375,-0.99261474609375,0.0335693359375,0.005340576171875
1782987381258150100,4.564150146484375,-0.993408203125,0.032318115234375,0.0067901611328125
1782987381268224000,4.57422412109375,-0.9936981201171875,0.033203125,0.0077056884765625
1782987381278299100,4.584299072265625,-0.99322509765625,0.0338287353515625,0.0042572021484375
1782987381288373000,4.594373046875,-0.9954071044921875,0.0338592529296875,0.0057525634765625
1782987381298447000,4.604447021484375,-0.9927520751953125,0.0353851318359375,0.005035400390625
1782987381308522000,4.61452197265625,-0.991424560546875,0.0361175537109375,0.0056304931640625
1782987381318596000,4.62459619140625,-0.9917755126953125,0.0341644287109375,0.0072784423828125
1782987381328671000,4.6346708984375,-0.9921875,0.0347442626953125,0.007568359375
1782987381338745000,4.6447451171875,-0.992431640625,0.0353546142578125,0.0070343017578125
1782987381348819000,4.65481884765625,-0.993133544921875,0.0341949462890625,0.0068206787109375
1782987381358894000,4.66489404296875,-0.9927978515625,0.032958984375,0.0066680908203125
1782987381368968000,4.674968017578125,-0.9921875,0.03350830078125,0.007232666015625
1782987381379041800,4.685041748046875,-0.993927001953125,0.0341033935546875,0.0059356689453125
1782987381389117000,4.695116943359375,-0.9938812255859375,0.03387451171875,0.0059661865234375
1782987381399191000,4.70519091796875,-0.9938812255859375,0.0325164794921875,0.00653076171875
1782987381409265200,4.71526513671875,-0.992523193359375,0.0351104736328125,0.0065155029296875
1782987381419340000,4.725340087890625,-0.99261474609375,0.0355224609375,0.007080078125
1782987381429414100,4.7354140625,-0.9932403564453125,0.0349884033203125,0.0074462890625
1782987381439489000,4.745489013671875,-0.993072509765625,0.03485107421875,0.00482177734375
1782987381449563100,4.755563232421875,-0.9920501708984375,0.0340423583984375,0.0065155029296875
1782987381459637000,4.765636962890625,-0.9930572509765625,0.0322418212890625,0.006134033203125
1782987381469712100,4.775712158203125,-0.993316650390625,0.0331573486328125,0.0068206787109375
1782987381479786000,4.785785888671875,-0.992279052734375,0.0322265625,0.0070037841796875
1782987381489859800,4.79585986328125,-0.9939422607421875,0.0331268310546875,0.0047454833984375
1782987381499934700,4.805934814453125,-0.992828369140625,0.03436279296875,0.0059967041015625
1782987381510008800,4.8160087890625,-0.9940643310546875,0.034423828125,0.0078582763671875
1782987381520083700,4.826083740234375,-0.9931488037109375,0.0337982177734375,0.0063629150390625
1782987381530157800,4.83615771484375,-0.99273681640625,0.034088134765625,0.007598876953125
1782987381540231700,4.846231689453125,-0.993682861328125,0.034393310546875,0.0066070556640625
1782987381550306800,4.856306884765625,-0.9925079345703125,0.033477783203125,0.0073394775390625
1782987381560380700,4.866380615234375,-0.9922637939453125,0.03289794921875,0.0054473876953125
1782987381570454800,4.876454833984375,-0.9925994873046875,0.0335693359375,0.0055999755859375
1782987381580529700,4.88652978515625,-0.9931182861328125,0.0330810546875,0.005401611328125
1782987381590603800,4.896603759765625,-0.9925689697265625,0.0324249267578125,0.0058135986328125
1782987381600678700,4.9066787109375,-0.9925079345703125,0.0330352783203125,0.006561279296875
1782987381610752800,4.916752685546875,-0.995086669921875,0.033416748046875,0.00677490234375
1782987381620826600,4.92682666015625,-0.992828369140625,0.0336151123046875,0.0062713623046875
1782987381630901800,4.93690185546875,-0.9938201904296875,0.0340576171875,0.0059967041015625
1782987381640975600,4.9469755859375,-0.9930267333984375,0.0345458984375,0.0052642822265625
1782987381651049700,4.9570498046875,-0.9926910400390625,0.034637451171875,0.0068817138671875
1782987381661124600,4.96712451171875,-0.9940338134765625,0.0340576171875,0.006927490234375
1782987381671198700,4.97719873046875,-0.993743896484375,0.0346527099609375,0.007537841796875
1782987381681272800,4.98727294921875,-0.9937744140625,0.034820556640625,0.00506591796875
1782987381691347700,4.99734765625,-0.992034912109375,0.033721923828125,0.0055389404296875
1782987381701421800,5.007421875,-0.9937896728515625,0.03265380859375,0.006195068359375
1782987381711496700,5.01749658203125,-0.9939422607421875,0.0344696044921875,0.005157470703125
1782987381721570800,5.02757080078125,-0.9933929443359375,0.0326385498046875,0.0070648193359375
1782987381731645000,5.03764501953125,-0.99298095703125,0.0327301025390625,0.006072998046875
1782987381741719800,5.0477197265625,-0.99163818359375,0.0336456298828125,0.0062103271484375
1782987381751794000,5.0577939453125,-0.9945220947265625,0.03314208984375,0.0067291259765625
1782987381761867800,5.06786767578125,-0.9917755126953125,0.0354461669921875,0.0070648193359375
1782987381771943000,5.07794287109375,-0.9928131103515625,0.0326385498046875,0.0079498291015625
1782987381782016800,5.088016845703125,-0.992401123046875,0.0329132080078125,0.0070648193359375
1782987381792091000,5.0980908203125,-0.993011474609375,0.034423828125,0.0079193115234375
1782987381802165800,5.108165771484375,-0.99298095703125,0.03515625,0.00634765625
1782987381812240000,5.118239990234375,-0.992431640625,0.033538818359375,0.006103515625
1782987381822314800,5.128314697265625,-0.991973876953125,0.03424072265625,0.0047454833984375
1782987381832388900,5.138388916015625,-0.9949798583984375,0.034027099609375,0.005950927734375
1782987381842462700,5.148462646484375,-0.9935760498046875,0.0346221923828125,0.005645751953125
1782987381852537900,5.158537841796875,-0.9930572509765625,0.0343170166015625,0.004852294921875
1782987381862611700,5.16861181640625,-0.9941558837890625,0.0332183837890625,0.006011962890625
1782987381872685600,5.178685546875,-0.993804931640625,0.034515380859375,0.0071563720703125
1782987381882760700,5.1887607421875,-0.9934539794921875,0.035919189453125,0.006378173828125
1782987381892834600,5.19883447265625,-0.99444580078125,0.0341033935546875,0.0077667236328125
1782987381902909700,5.20890966796875,-0.993621826171875,0.0345458984375,0.006256103515625
1782987381912983800,5.21898388671875,-0.99346923828125,0.0353851318359375,0.0052642822265625
1782987381923058000,5.229057861328125,-0.9937744140625,0.0333404541015625,0.00567626953125
1782987381933132800,5.2391328125,-0.993499755859375,0.03277587890625,0.007232666015625
1782987381943207000,5.24920703125,-0.99261474609375,0.0341796875,0.0076141357421875
1782987381953280800,5.25928076171875,-0.9927825927734375,0.0345001220703125,0.0057373046875
1782987381963356000,5.26935595703125,-0.99365234375,0.0351715087890625,0.00628662109375
1782987381973429800,5.2794296875,-0.9941253662109375,0.032623291015625,0.0072784423828125
1782987381983504000,5.28950390625,-0.9925384521484375,0.0343170166015625,0.0068511962890625
1782987381993578800,5.299578857421875,-0.9943084716796875,0.0349273681640625,0.0066375732421875
1782987382003652900,5.30965283203125,-0.99224853515625,0.0336761474609375,0.0075836181640625
1782987382013727700,5.319727783203125,-0.99237060546875,0.03472900390625,0.0054931640625
1782987382023801900,5.3298017578125,-0.994110107421875,0.0338287353515625,0.0066070556640625
1782987382033875700,5.339875732421875,-0.9948272705078125,0.0326995849609375,0.006988525390625
1782987382043950800,5.349950927734375,-0.9923553466796875,0.03363037109375,0.006317138671875
1782987382054024700,5.360024658203125,-0.9935455322265625,0.0353240966796875,0.005859375
1782987382064098800,5.370098876953125,-0.9933624267578125,0.033416748046875,0.0057373046875
1782987382074173700,5.380173583984375,-0.9937896728515625,0.033905029296875,0.0065155029296875
1782987382084247800,5.390247802734375,-0.99151611328125,0.0327606201171875,0.0070343017578125
1782987382094322700,5.40032275390625,-0.9929351806640625,0.0325927734375,0.005523681640625
1782987382104396800,5.410396728515625,-0.9933013916015625,0.0351104736328125,0.0066375732421875
1782987382114470700,5.420470703125,-0.9935150146484375,0.0343170166015625,0.006744384765625
1782987382124545800,5.4305458984375,-0.9923858642578125,0.034576416015625,0.0068511962890625
1782987382134619600,5.44061962890625,-0.99163818359375,0.033172607421875,0.0058746337890625
1782987382144693800,5.45069384765625,-0.9926605224609375,0.032684326171875,0.0072174072265625
1782987382154768600,5.4607685546875,-0.9946136474609375,0.033660888671875,0.0052490234375
1782987382164842800,5.4708427734375,-0.992401123046875,0.034423828125,0.005157470703125
1782987382174916900,5.480916748046875,-0.9918365478515625,0.0349884033203125,0.006500244140625
1782987382184991700,5.49099169921875,-0.993438720703125,0.035400390625,0.006683349609375
1782987382195065900,5.50106591796875,-0.992401123046875,0.0345458984375,0.0058746337890625
1782987382205140700,5.511140625,-0.993621826171875,0.03369140625,0.0065155029296875
1782987382215214800,5.52121484375,-0.9919281005859375,0.0339202880859375,0.0063018798828125
1782987382225289000,5.5312890625,-0.9925537109375,0.0346832275390625,0.006744384765625
1782987382235363800,5.54136376953125,-0.992950439453125,0.0345458984375,0.00665283203125
1782987382245438000,5.55143798828125,-0.9933013916015625,0.034423828125,0.0055389404296875
1782987382255511800,5.56151171875,-0.992401123046875,0.03253173828125,0.00567626953125
1782987382265587000,5.5715869140625,-0.9923095703125,0.0338287353515625,0.0071258544921875
1782987382275660800,5.581660888671875,-0.9945068359375,0.033111572265625,0.00518798828125
1782987382285736000,5.59173583984375,-0.9940338134765625,0.0339202880859375,0.00555419921875
1782987382295809800,5.601809814453125,-0.99200439453125,0.0330657958984375,0.005035400390625
1782987382305884000,5.6118837890625,-0.9933319091796875,0.0337371826171875,0.004791259765625
1782987382315958800,5.621958740234375,-0.9935150146484375,0.0338134765625,0.0057830810546875
1782987382326033000,5.632032958984375,-0.9936676025390625,0.03466796875,0.006072998046875
1782987382336106800,5.642106689453125,-0.9933013916015625,0.034027099609375,0.0069732666015625
1782987382346182000,5.652181884765625,-0.9922637939453125,0.03424072265625,0.0061798095703125
1782987382356255700,5.662255859375,-0.992340087890625,0.034332275390625,0.006378173828125
1782987382366329600,5.67232958984375,-0.9925079345703125,0.0337982177734375,0.0067596435546875
1782987382376404700,5.68240478515625,-0.9936981201171875,0.032989501953125,0.0073394775390625
1782987382386478600,5.692478515625,-0.992218017578125,0.0340576171875,0.0075225830078125
1782987382396553700,5.7025537109375,-0.9931182861328125,0.032745361328125,0.00531005859375
1782987382406627800,5.7126279296875,-0.9940032958984375,0.0335845947265625,0.005462646484375
1782987382416701700,5.72270166015625,-0.9939727783203125,0.03460693359375,0.005615234375
1782987382426776800,5.73277685546875,-0.991363525390625,0.032623291015625,0.004974365234375
1782987382436850700,5.7428505859375,-0.9935760498046875,0.03387451171875,0.0049896240234375
1782987382446924800,5.7529248046875,-0.99200439453125,0.0330657958984375,0.0042877197265625
1782987382456999700,5.762999755859375,-0.9929962158203125,0.0336456298828125,0.00494384765625
1782987382467073800,5.77307373046875,-0.9924163818359375,0.033233642578125,0.006011962890625
1782987382477148000,5.78314794921875,-0.993438720703125,0.034332275390625,0.0067291259765625
1782987382487222500,5.793222412109375,-0.992767333984375,0.0345458984375,0.0070037841796875
1782987382497296600,5.803296630859375,-0.9913177490234375,0.033203125,0.006195068359375
1782987382507371500,5.81337158203125,-0.9929656982421875,0.0327301025390625,0.0069427490234375
1782987382517445600,5.823445556640625,-0.993896484375,0.0326995849609375,0.0057830810546875
1782987382527519500,5.83351953125,-0.9918060302734375,0.0327301025390625,0.0076751708984375
1782987382537594600,5.8435947265625,-0.9921417236328125,0.03485107421875,0.007598876953125
1782987382547668500,5.85366845703125,-0.9921417236328125,0.0352783203125,0.0067901611328125
1782987382557742600,5.86374267578125,-0.9933624267578125,0.034759521484375,0.006683349609375
1782987382567817500,5.8738173828125,-0.995025634765625,0.034515380859375,0.0072479248046875
1782987382577891600,5.8838916015625,-0.994171142578125,0.03387451171875,0.0074462890625
1782987382587966500,5.893966552734375,-0.993072509765625,0.033538818359375,0.006927490234375
1782987382598040600,5.90404052734375,-0.99285888671875,0.0334320068359375,0.0059814453125
1782987382608114400,5.914114501953125,-0.9935760498046875,0.033905029296875,0.005035400390625
1782987382618189600,5.924189453125,-0.993621826171875,0.033477783203125,0.00421142578125
1782987382628263400,5.934263427734375,-0.991790771484375,0.03204345703125,0.003875732421875
1782987382638337500,5.944337646484375,-0.9933319091796875,0.033843994140625,0.0057220458984375
1782987382648412400,5.954412353515625,-0.994384765625,0.0348968505859375,0.0074920654296875
1782987382658485500,5.964485595703125,-0.9922637939453125,0.034698486328125,0.00677490234375
1782987382668560400,5.974560302734375,-0.9923248291015625,0.0338134765625,0.007598876953125
1782987382678634800,5.984634765625,-0.9933013916015625,0.0342254638671875,0.0056915283203125
1782987382688708600,5.99470849609375,-0.993743896484375,0.0349884033203125,0.0087890625
1782987382698783700,6.00478369140625,-0.9937591552734375,0.0334930419921875,0.0072479248046875
1782987382708857600,6.014857666015625,-0.9932861328125,0.0319366455078125,0.0072784423828125
1782987382718931500,6.024931396484375,-0.9931182861328125,0.032867431640625,0.006744384765625
1782987382729006600,6.035006591796875,-0.993438720703125,0.0338134765625,0.0052947998046875
1782987382739080400,6.04508056640625,-0.9929351806640625,0.033935546875,0.0059356689453125
1782987382749155600,6.055155517578125,-0.9929046630859375,0.0343780517578125,0.0056915283203125
1782987382759229400,6.0652294921875,-0.9926605224609375,0.033538818359375,0.005889892578125
1782987382769303600,6.075303466796875,-0.99249267578125,0.0343017578125,0.0043487548828125
1782987382779378400,6.08537841796875,-0.9923248291015625,0.0347442626953125,0.006439208984375
1782987382789452500,6.09545263671875,-0.9915771484375,0.034393310546875,0.00628662109375
1782987382799526400,6.1055263671875,-0.9916534423828125,0.0341644287109375,0.0065155029296875
1782987382809601500,6.1156015625,-0.99298095703125,0.0341033935546875,0.0050201416015625
1782987382819675400,6.12567529296875,-0.9940032958984375,0.0334930419921875,0.00665283203125
1782987382829749500,6.13574951171875,-0.9916839599609375,0.0333709716796875,0.0055084228515625
1782987382839824400,6.145824462890625,-0.993438720703125,0.033721923828125,0.007293701171875
1782987382849898500,6.1558984375,-0.99383544921875,0.0345458984375,0.0043487548828125
1782987382859973400,6.165973388671875,-0.994659423828125,0.03399658203125,0.00628662109375
1782987382870047500,6.176047607421875,-0.99420166015625,0.0339813232421875,0.0060882568359375
1782987382880121300,6.186121337890625,-0.9931640625,0.034576416015625,0.0050506591796875
1782987382890196500,6.196196533203125,-0.9917449951171875,0.0345458984375,0.00714111328125
1782987382900270300,6.206270263671875,-0.9926605224609375,0.0333251953125,0.006561279296875
1782987382910344700,6.2163447265625,-0.9937744140625,0.0342559814453125,0.007232666015625
1782987382920419300,6.22641943359375,-0.9935150146484375,0.033660888671875,0.0066070556640625
1782987382930493700,6.23649365234375,-0.9935150146484375,0.0345306396484375,0.0070648193359375
1782987382940567600,6.246567626953125,-0.993438720703125,0.033966064453125,0.0069580078125
1782987382950642700,6.256642578125,-0.9925384521484375,0.031829833984375,0.007171630859375
1782987382960716500,6.266716552734375,-0.9931488037109375,0.0337677001953125,0.005218505859375
1782987382970791700,6.276791748046875,-0.9927825927734375,0.0345611572265625,0.0058441162109375
1782987382980865500,6.286865478515625,-0.993560791015625,0.034515380859375,0.0053863525390625
1782987382990939600,6.296939697265625,-0.9942474365234375,0.0335235595703125,0.00604248046875
1782987383001014500,6.3070146484375,-0.9928741455078125,0.0331268310546875,0.0050201416015625
1782987383011088600,6.317088623046875,-0.9910125732421875,0.035125732421875,0.0062408447265625
1782987383021162500,6.32716259765625,-0.9912567138671875,0.03302001953125,0.005035400390625
1782987383031237600,6.337237548828125,-0.9936981201171875,0.0347137451171875,0.006866455078125
1782987383041311500,6.3473115234375,-0.993499755859375,0.0329437255859375,0.00567626953125
1782987383051386600,6.35738671875,-0.9932403564453125,0.0335540771484375,0.0027618408203125
1782987383061460500,6.36746044921875,-0.9939422607421875,0.0325927734375,0.0047607421875
1782987383071534600,6.37753466796875,-0.993988037109375,0.03228759765625,0.006256103515625
1782987383081609500,6.387609375,-0.994110107421875,0.0334930419921875,0.00732421875
1782987383091683600,6.39768359375,-0.9935150146484375,0.0348968505859375,0.0068359375
1782987383101757400,6.40775732421875,-0.992645263671875,0.0343475341796875,0.0079803466796875
1782987383111832600,6.41783251953125,-0.9925994873046875,0.03350830078125,0.007568359375
1782987383121906400,6.427906494140625,-0.9931793212890625,0.0346221923828125,0.005889892578125
1782987383131981600,6.437981689453125,-0.9925079345703125,0.034393310546875,0.006927490234375
1782987383142055400,6.448055419921875,-0.9931182861328125,0.0335540771484375,0.0062103271484375
1782987383152129500,6.458129638671875,-0.9923858642578125,0.0325164794921875,0.0073699951171875
1782987383162204400,6.468204345703125,-0.9932403564453125,0.033538818359375,0.006988525390625
1782987383172278500,6.478278564453125,-0.9931640625,0.0331573486328125,0.006744384765625
1782987383182352600,6.4883525390625,-0.993255615234375,0.0337066650390625,0.0079345703125
1782987383192427500,6.498427490234375,-0.9919281005859375,0.0343170166015625,0.0054473876953125
1782987383202501600,6.508501708984375,-0.9931182861328125,0.03240966796875,0.0067291259765625
1782987383212575500,6.518575439453125,-0.99395751953125,0.0325775146484375,0.0052337646484375
1782987383222650600,6.528650634765625,-0.99383544921875,0.03399658203125,0.0049591064453125
1782987383232724500,6.538724365234375,-0.993255615234375,0.0337066650390625,0.005401611328125
1782987383242799600,6.548799560546875,-0.9920196533203125,0.03302001953125,0.0056304931640625
1782987383252873500,6.55887353515625,-0.9934234619140625,0.034210205078125,0.0048828125
1782987383262947600,6.568947509765625,-0.992584228515625,0.03472900390625,0.005035400390625
1782987383273022500,6.5790224609375,-0.9934234619140625,0.033355712890625,0.00762939453125
1782987383283096600,6.5890966796875,-0.9945220947265625,0.0331878662109375,0.0061492919921875
1782987383293170400,6.59917041015625,-0.993927001953125,0.0342864990234375,0.0038299560546875
1782987383303245600,6.60924560546875,-0.994354248046875,0.0344085693359375,0.0059051513671875
1782987383313319400,6.6193193359375,-0.9923553466796875,0.0326690673828125,0.006744384765625
1782987383323394600,6.62939453125,-0.9920501708984375,0.0345916748046875,0.006011962890625
1782987383333468400,6.639468505859375,-0.993682861328125,0.034149169921875,0.007965087890625
1782987383343542500,6.64954248046875,-0.9925384521484375,0.0336456298828125,0.0067138671875
1782987383353617400,6.659617431640625,-0.99407958984375,0.0338592529296875,0.0072174072265625
1782987383363691500,6.66969140625,-0.99359130859375,0.0341796875,0.0062255859375
1782987383373765400,6.679765380859375,-0.9923858642578125,0.033782958984375,0.004608154296875
1782987383383840500,6.689840576171875,-0.9935760498046875,0.0330047607421875,0.0052642822265625
1782987383393914400,6.699914306640625,-0.992462158203125,0.0353546142578125,0.006256103515625
1782987383403988500,6.709988525390625,-0.99462890625,0.034881591796875,0.005096435546875
1782987383414063400,6.7200634765625,-0.993743896484375,0.0336456298828125,0.00701904296875
1782987383424137500,6.730137451171875,-0.9920196533203125,0.0336151123046875,0.006805419921875
1782987383434212400,6.74021240234375,-0.991973876953125,0.0327606201171875,0.0067901611328125
1782987383444286500,6.750286376953125,-0.9943695068359375,0.0333251953125,0.0059967041015625
1782987383454360600,6.760360595703125,-0.99237060546875,0.0325164794921875,0.00592041015625
1782987383464435500,6.770435546875,-0.99395751953125,0.0340728759765625,0.0050811767578125
1782987383474509600,6.780509521484375,-0.9935455322265625,0.03521728515625,0.0062103271484375
1782987383484583700,6.790583740234375,-0.99273681640625,0.0346527099609375,0.0059814453125
1782987383494658600,6.800658447265625,-0.9919281005859375,0.032867431640625,0.0055694580078125
1782987383504732400,6.810732421875,-0.992095947265625,0.033050537109375,0.006378173828125
1782987383514807600,6.8208076171875,-0.9919281005859375,0.0333404541015625,0.005859375
1782987383524881400,6.83088134765625,-0.991729736328125,0.0343017578125,0.00701904296875
1782987383534955500,6.84095556640625,-0.99163818359375,0.0335693359375,0.0081939697265625
1782987383545030400,6.851030517578125,-0.992340087890625,0.0343780517578125,0.0059356689453125
1782987383555104500,6.8611044921875,-0.9919586181640625,0.033477783203125,0.004364013671875
1782987383565178400,6.871178466796875,-0.9924163818359375,0.033660888671875,0.0061187744140625
1782987383575253500,6.88125341796875,-0.99267578125,0.03582763671875,0.0072784423828125
1782987383585327400,6.891327392578125,-0.9938201904296875,0.0373687744140625,0.00518798828125
1782987383595401500,6.9014013671875,-0.993255615234375,0.0338287353515625,0.0069580078125
1782987383605476400,6.911476318359375,-0.9930572509765625,0.0335540771484375,0.00665283203125
1782987383615550500,6.921550537109375,-0.991546630859375,0.03497314453125,0.007659912109375
1782987383625625300,6.931625244140625,-0.99298095703125,0.033355712890625,0.0061187744140625
1782987383635699500,6.941699462890625,-0.99407958984375,0.0353851318359375,0.00653076171875
1782987383645773300,6.951773193359375,-0.9936370849609375,0.0333404541015625,0.0053863525390625
1782987383655848400,6.961848388671875,-0.9932861328125,0.034515380859375,0.006195068359375
1782987383665922300,6.97192236328125,-0.9934234619140625,0.0340576171875,0.004730224609375
1782987383675996400,6.981996337890625,-0.9926910400390625,0.0341644287109375,0.00555419921875
1782987383686071300,6.9920712890625,-0.99346923828125,0.03460693359375,0.005279541015625
1782987383696145400,7.0021455078125,-0.9920654296875,0.0350799560546875,0.0057373046875
1782987383706220300,7.01222021484375,-0.99395751953125,0.0334625244140625,0.005828857421875
1782987383716294400,7.02229443359375,-0.992584228515625,0.03387451171875,0.005126953125
1782987383726368500,7.032368408203125,-0.993438720703125,0.033935546875,0.0047149658203125
1782987383736443400,7.042443359375,-0.99359130859375,0.034698486328125,0.0059967041015625
1782987383746517500,7.052517578125,-0.9939727783203125,0.034515380859375,0.0054473876953125
1782987383756591600,7.062591552734375,-0.9919891357421875,0.0335540771484375,0.0053863525390625
1782987383766666500,7.07266650390625,-0.992919921875,0.033233642578125,0.0049591064453125
1782987383776740600,7.08274072265625,-0.9929656982421875,0.0352935791015625,0.0060577392578125
1782987383786814500,7.092814453125,-0.9920501708984375,0.033172607421875,0.005859375
1782987383796889600,7.1028896484375,-0.9918060302734375,0.0340423583984375,0.005401611328125
1782987383806963500,7.11296337890625,-0.992156982421875,0.0343475341796875,0.005767822265625
1782987383817038600,7.12303857421875,-0.992645263671875,0.0344390869140625,0.006439208984375
1782987383827112400,7.133112548828125,-0.9929046630859375,0.0346527099609375,0.0073394775390625
1782987383837186300,7.143186279296875,-0.9915008544921875,0.0346221923828125,0.0069122314453125
1782987383847261400,7.153261474609375,-0.9942626953125,0.0350189208984375,0.0071563720703125
1782987383857335300,7.163335205078125,-0.99212646484375,0.033935546875,0.006072998046875
1782987383867409400,7.173409423828125,-0.99371337890625,0.0329742431640625,0.00531005859375
1782987383877484500,7.183484619140625,-0.9934844970703125,0.033447265625,0.0068359375
1782987383887558400,7.193558349609375,-0.992889404296875,0.0341033935546875,0.0066680908203125
1782987383897633500,7.203633544921875,-0.99212646484375,0.0326995849609375,0.0058135986328125
1782987383907707400,7.213707275390625,-0.9930877685546875,0.0330657958984375,0.0066375732421875
1782987383917781200,7.22378125,-0.992919921875,0.033233642578125,0.0069732666015625
1782987383927856400,7.2338564453125,-0.992950439453125,0.033294677734375,0.004669189453125
1782987383937930200,7.24393017578125,-0.9937591552734375,0.0325775146484375,0.007232666015625
1782987383948004600,7.254004638671875,-0.992645263671875,0.033538818359375,0.006683349609375
1782987383958079200,7.264079345703125,-0.9927215576171875,0.03369140625,0.004974365234375
1782987383968153600,7.274153564453125,-0.9941558837890625,0.034393310546875,0.007110595703125
1782987383978227500,7.2842275390625,-0.99237060546875,0.03289794921875,0.005584716796875
1782987383988302600,7.294302490234375,-0.9932861328125,0.034393310546875,0.0054473876953125
1782987383998376400,7.30437646484375,-0.9935150146484375,0.034576416015625,0.005645751953125
1782987384008451600,7.31445166015625,-0.9931488037109375,0.0321044921875,0.006683349609375
1782987384018525400,7.324525390625,-0.9937591552734375,0.0352020263671875,0.007232666015625
1782987384028599600,7.334599609375,-0.9922027587890625,0.03387451171875,0.0070648193359375
1782987384038674400,7.34467431640625,-0.99176025390625,0.03338623046875,0.006378173828125
1782987384048748500,7.35474853515625,-0.9924163818359375,0.034088134765625,0.0055084228515625
1782987384058822400,7.364822509765625,-0.992340087890625,0.03546142578125,0.0066986083984375
1782987384068897500,7.3748974609375,-0.9931182861328125,0.0346221923828125,0.0060272216796875
1782987384078971400,7.384971435546875,-0.99237060546875,0.034149169921875,0.00640869140625
1782987384089046500,7.395046630859375,-0.99395751953125,0.0357513427734375,0.0053253173828125
1782987384099120400,7.405120361328125,-0.99322509765625,0.034454345703125,0.005096435546875
1782987384109194500,7.415194580078125,-0.9918060302734375,0.033843994140625,0.006134033203125
1782987384119269400,7.425269287109375,-0.9938507080078125,0.0340118408203125,0.004669189453125
1782987384129343500,7.435343505859375,-0.9927215576171875,0.0336456298828125,0.0053863525390625
1782987384139417300,7.445417236328125,-0.9915771484375,0.0331573486328125,0.00579833984375
1782987384149492500,7.455492431640625,-0.99371337890625,0.034912109375,0.006439208984375
1782987384159566300,7.46556640625,-0.9949951171875,0.033843994140625,0.0058441162109375
1782987384169640400,7.475640380859375,-0.99267578125,0.03399658203125,0.0074462890625
1782987384179715300,7.48571533203125,-0.991729736328125,0.0328521728515625,0.005279541015625
1782987384189789400,7.49578955078125,-0.9921112060546875,0.03375244140625,0.007049560546875
1782987384199864300,7.5058642578125,-0.9925384521484375,0.0323944091796875,0.007568359375
1782987384209938400,7.5159384765625,-0.9927825927734375,0.0337066650390625,0.005096435546875
1782987384220012500,7.526012451171875,-0.993499755859375,0.0338134765625,0.0063629150390625
1782987384230087400,7.53608740234375,-0.9945526123046875,0.033294677734375,0.007354736328125
1782987384240161500,7.54616162109375,-0.9937896728515625,0.035064697265625,0.0059051513671875
1782987384250235600,7.556235595703125,-0.993194580078125,0.034698486328125,0.007415771484375
1782987384260310500,7.566310546875,-0.9925689697265625,0.034515380859375,0.0068206787109375
1782987384270384600,7.576384521484375,-0.9919281005859375,0.033172607421875,0.005615234375
1782987384280459500,7.58645947265625,-0.992767333984375,0.034393310546875,0.00665283203125
1782987384290533600,7.59653369140625,-0.9928131103515625,0.0341949462890625,0.006378173828125
1782987384300607500,7.606607421875,-0.9925384521484375,0.03350830078125,0.0072784423828125
1782987384310682600,7.6166826171875,-0.9937286376953125,0.03387451171875,0.0052032470703125
1782987384320756500,7.626756591796875,-0.9926605224609375,0.0345611572265625,0.00531005859375
1782987384330830300,7.636830322265625,-0.9925689697265625,0.03460693359375,0.005706787109375
1782987384340905500,7.646905517578125,-0.9945831298828125,0.033538818359375,0.0080108642578125
1782987384350979300,7.656979248046875,-0.9940338134765625,0.0329742431640625,0.0057525634765625
1782987384361053400,7.667053466796875,-0.9929656982421875,0.0337982177734375,0.00555419921875
1782987384371128600,7.677128662109375,-0.99285888671875,0.0331268310546875,0.006256103515625
1782987384381202400,7.687202392578125,-0.9934234619140625,0.0337677001953125,0.00799560546875
1782987384391277600,7.697277587890625,-0.9942779541015625,0.0348358154296875,0.0073089599609375
1782987384401351400,7.707351318359375,-0.991912841796875,0.0331878662109375,0.00555419921875
1782987384411425300,7.71742529296875,-0.9927215576171875,0.0354156494140625,0.0045623779296875
1782987384421500400,7.72750048828125,-0.992889404296875,0.03363037109375,0.0057373046875
1782987384431574300,7.73757421875,-0.993499755859375,0.0341949462890625,0.00579833984375
1782987384441648400,7.7476484375,-0.9942779541015625,0.0340576171875,0.0053558349609375
1782987384451723300,7.75772314453125,-0.99224853515625,0.0323638916015625,0.0058746337890625
1782987384461797400,7.76779736328125,-0.9930572509765625,0.0340728759765625,0.0066070556640625
1782987384471872300,7.777872314453125,-0.993255615234375,0.0346527099609375,0.005889892578125
1782987384481946400,7.7879462890625,-0.9931640625,0.03509521484375,0.0056304931640625
1782987384492020500,7.7980205078125,-0.9920196533203125,0.03387451171875,0.006500244140625
1782987384502095600,7.808095703125,-0.99310302734375,0.032135009765625,0.0076446533203125
1782987384512169500,7.81816943359375,-0.99267578125,0.0337066650390625,0.007293701171875
1782987384522243800,7.828243896484375,-0.9933929443359375,0.0334320068359375,0.0070037841796875
1782987384532318700,7.838318603515625,-0.9925689697265625,0.0341949462890625,0.008331298828125
1782987384542392800,7.848392822265625,-0.9933013916015625,0.0326385498046875,0.006256103515625
1782987384552466700,7.858466796875,-0.99371337890625,0.0339508056640625,0.00628662109375
1782987384562541800,7.868541748046875,-0.9946746826171875,0.0334625244140625,0.0052032470703125
1782987384572615700,7.87861572265625,-0.9931182861328125,0.0338592529296875,0.0071258544921875
1782987384582690800,7.88869091796875,-0.9922027587890625,0.0342559814453125,0.0062713623046875
1782987384592764700,7.8987646484375,-0.99237060546875,0.0340423583984375,0.0076141357421875
1782987384602838800,7.9088388671875,-0.9932098388671875,0.0344390869140625,0.0067901611328125
1782987384612913700,7.91891357421875,-0.9923248291015625,0.034820556640625,0.006317138671875
1782987384622987800,7.92898779296875,-0.9911956787109375,0.034027099609375,0.00665283203125
1782987384633061600,7.9390615234375,-0.9930572509765625,0.034912109375,0.005035400390625
1782987384643136800,7.94913671875,-0.9936065673828125,0.0327911376953125,0.0068511962890625
1782987384653210600,7.959210693359375,-0.991455078125,0.0335235595703125,0.005706787109375
1782987384663285800,7.96928564453125,-0.99310302734375,0.0341644287109375,0.0064849853515625
1782987384673359600,7.979359619140625,-0.9922943115234375,0.0337066650390625,0.0054779052734375
1782987384683433500,7.98943359375,-0.9931640625,0.0316314697265625,0.006988525390625
1782987384693508600,7.999508544921875,-0.993377685546875,0.03375244140625,0.0074462890625
1782987384703582700,8.009582763671874,-0.9942169189453125,0.0331268310546875,0.0070037841796875
1782987384713656600,8.019656494140625,-0.9918670654296875,0.0341644287109375,0.0068359375
1782987384723731700,8.029731689453126,-0.9929351806640625,0.032379150390625,0.0066375732421875
1782987384733805600,8.0398056640625,-0.99359130859375,0.0334625244140625,0.0052032470703125
1782987384743879700,8.049879638671875,-0.99249267578125,0.034698486328125,0.0058441162109375
1782987384753954600,8.05995458984375,-0.992462158203125,0.0333709716796875,0.006683349609375
1782987384764028700,8.070028564453125,-0.9940948486328125,0.0328216552734375,0.008056640625
1782987384774103600,8.080103515625,-0.9936981201171875,0.0342254638671875,0.007476806640625
1782987384784177700,8.090177734375,-0.9947967529296875,0.0334930419921875,0.004974365234375
1782987384794251800,8.100251708984375,-0.9920806884765625,0.0341949462890625,0.0070953369140625
1782987384804326700,8.11032666015625,-0.9918975830078125,0.03399658203125,0.008209228515625
1782987384814400800,8.12040087890625,-0.9931793212890625,0.0345916748046875,0.0072174072265625
1782987384824474600,8.130474609375,-0.993408203125,0.032440185546875,0.0075531005859375
1782987384834549800,8.1405498046875,-0.9942474365234375,0.0339813232421875,0.0072479248046875
1782987384844623600,8.15062353515625,-0.993072509765625,0.033843994140625,0.00634765625
1782987384854698800,8.16069873046875,-0.9933624267578125,0.0326080322265625,0.00628662109375
1782987384864772600,8.170772705078125,-0.9931640625,0.0318756103515625,0.005767822265625
1782987384874846700,8.1808466796875,-0.9940185546875,0.0323028564453125,0.006591796875
1782987384884921600,8.190921630859375,-0.992706298828125,0.0340423583984375,0.0059814453125
1782987384894995700,8.20099560546875,-0.9918365478515625,0.0337982177734375,0.005218505859375
1782987384905069600,8.211069580078124,-0.9929046630859375,0.0328826904296875,0.006103515625
1782987384915144700,8.221144775390625,-0.993011474609375,0.0350494384765625,0.0062713623046875
1782987384925218600,8.231218505859376,-0.9911041259765625,0.03485107421875,0.00640869140625
1782987384935292700,8.241292724609375,-0.9923858642578125,0.034393310546875,0.0060882568359375
1782987384945367600,8.251367431640626,-0.9923248291015625,0.03302001953125,0.0073699951171875
1782987384955441700,8.261441650390625,-0.99371337890625,0.032440185546875,0.005401611328125
1782987384965516500,8.2715166015625,-0.9929351806640625,0.0345001220703125,0.0075531005859375
1782987384975590700,8.281590576171874,-0.9926300048828125,0.0336151123046875,0.0055084228515625
1782987384985664500,8.29166455078125,-0.9934844970703125,0.034454345703125,0.00604248046875
1782987384995739600,8.30173974609375,-0.9928741455078125,0.0332794189453125,0.0061492919921875
1782987385005813500,8.3118134765625,-0.9946746826171875,0.0345916748046875,0.006256103515625
1782987385015887600,8.3218876953125,-0.9921875,0.0352783203125,0.0067596435546875
1782987385025962500,8.33196240234375,-0.9926605224609375,0.0335845947265625,0.0069580078125
1782987385036036600,8.34203662109375,-0.992645263671875,0.0342254638671875,0.0062103271484375
1782987385046111500,8.352111572265626,-0.9929046630859375,0.0337677001953125,0.007049560546875
1782987385056185600,8.362185546875,-0.9935150146484375,0.0345306396484375,0.006622314453125
1782987385066259700,8.372259765625,-0.9924163818359375,0.0351104736328125,0.008087158203125
1782987385076334600,8.38233447265625,-0.9933624267578125,0.0349273681640625,0.0064239501953125
1782987385086408700,8.39240869140625,-0.993499755859375,0.0341339111328125,0.0044097900390625
1782987385096482800,8.40248291015625,-0.9930267333984375,0.0343475341796875,0.0055389404296875
1782987385106557700,8.4125576171875,-0.9934234619140625,0.0335845947265625,0.0053253173828125
1782987385116631800,8.4226318359375,-0.9927978515625,0.0336456298828125,0.0073394775390625
1782987385126705700,8.43270556640625,-0.9927825927734375,0.0342254638671875,0.0077667236328125
1782987385136780800,8.44278076171875,-0.9913330078125,0.0339508056640625,0.006622314453125
1782987385146854700,8.452854736328124,-0.9929351806640625,0.0353240966796875,0.00616455078125
1782987385156929800,8.4629296875,-0.992340087890625,0.0345458984375,0.005706787109375
1782987385167003600,8.473003662109376,-0.9932098388671875,0.0336456298828125,0.0063934326171875
1782987385177077500,8.483077392578124,-0.993682861328125,0.032989501953125,0.0069427490234375
1782987385187152600,8.493152587890625,-0.9937744140625,0.0323944091796875,0.0055694580078125
1782987385197226800,8.503226806640624,-0.9939422607421875,0.0335235595703125,0.00677490234375
1782987385207300600,8.513300537109375,-0.9921722412109375,0.032562255859375,0.0057373046875
1782987385217375700,8.523375732421876,-0.99298095703125,0.0326995849609375,0.0066070556640625
1782987385227449600,8.53344970703125,-0.9932708740234375,0.0325775146484375,0.005645751953125
1782987385237524700,8.543524658203125,-0.9933929443359375,0.0328521728515625,0.0057373046875
1782987385247598600,8.5535986328125,-0.9912872314453125,0.032623291015625,0.0061798095703125
1782987385257672400,8.56367236328125,-0.9923858642578125,0.034759521484375,0.0071258544921875
1782987385267747600,8.57374755859375,-0.993255615234375,0.034088134765625,0.00689697265625
1782987385277821400,8.583821533203125,-0.992156982421875,0.0329132080078125,0.00653076171875
1782987385287895600,8.5938955078125,-0.993743896484375,0.034881591796875,0.0069732666015625
1782987385297970400,8.603970458984374,-0.9940032958984375,0.0340576171875,0.00677490234375
1782987385308044800,8.614044921875,-0.9927520751953125,0.033905029296875,0.007293701171875
1782987385318118700,8.62411865234375,-0.99365234375,0.03399658203125,0.0066375732421875
1782987385328193800,8.63419384765625,-0.991973876953125,0.0341644287109375,0.0045623779296875
1782987385338267600,8.644267578125,-0.993316650390625,0.033538818359375,0.00537109375
1782987385348342800,8.6543427734375,-0.9931488037109375,0.03363037109375,0.0061187744140625
1782987385358416600,8.664416748046875,-0.9931488037109375,0.0353240966796875,0.0059967041015625
1782987385368490800,8.67449072265625,-0.9933013916015625,0.03399658203125,0.007293701171875
1782987385378565600,8.684565673828125,-0.9924163818359375,0.0333251953125,0.00665283203125
1782987385388639700,8.6946396484375,-0.9925537109375,0.035003662109375,0.00726318359375
1782987385398713600,8.704713623046874,-0.9936676025390625,0.0345001220703125,0.0057220458984375
1782987385408788700,8.714788818359375,-0.9923095703125,0.0341339111328125,0.0050048828125
1782987385418862600,8.724862548828124,-0.9922332763671875,0.03216552734375,0.006927490234375
1782987385428937700,8.734937744140625,-0.9939727783203125,0.03411865234375,0.0063018798828125
1782987385439011600,8.745011474609376,-0.9920196533203125,0.0342559814453125,0.0061798095703125
1782987385449085700,8.755085693359375,-0.9930877685546875,0.03253173828125,0.0060272216796875
1782987385459160600,8.76516064453125,-0.9937744140625,0.034393310546875,0.0062255859375
1782987385469234700,8.775234619140624,-0.992462158203125,0.0347747802734375,0.00653076171875
1782987385479308500,8.78530859375,-0.9936676025390625,0.033721923828125,0.007080078125
1782987385489383700,8.7953837890625,-0.9936065673828125,0.0334320068359375,0.0074310302734375
1782987385499458000,8.8054580078125,-0.991455078125,0.0347900390625,0.00653076171875
1782987385509532000,8.815531982421875,-0.99298095703125,0.0345611572265625,0.005279541015625
1782987385519607000,8.82560693359375,-0.993438720703125,0.03338623046875,0.0043182373046875
1782987385529681000,8.835680908203125,-0.9936065673828125,0.033416748046875,0.0051116943359375
1782987385539756000,8.845756103515624,-0.9932861328125,0.034027099609375,0.0057830810546875
1782987385549830000,8.855829833984375,-0.993011474609375,0.0338287353515625,0.0048370361328125
1782987385559904000,8.865904052734376,-0.99298095703125,0.0332489013671875,0.0051727294921875
1782987385569979000,8.875978759765625,-0.994140625,0.033843994140625,0.00579833984375
1782987385580053000,8.886052978515625,-0.992034912109375,0.0330810546875,0.005584716796875
1782987385590127000,8.896127197265624,-0.992645263671875,0.0347137451171875,0.0062713623046875
1782987385600202000,8.906201904296875,-0.9930572509765625,0.0337371826171875,0.00689697265625
1782987385610276000,8.916276123046876,-0.9936981201171875,0.03375244140625,0.00653076171875
1782987385620351000,8.92635107421875,-0.992034912109375,0.0334014892578125,0.005340576171875
1782987385630425000,8.936425048828125,-0.9918060302734375,0.0328826904296875,0.00494384765625
1782987385640499200,8.946499267578124,-0.994293212890625,0.0336456298828125,0.0068817138671875
1782987385650574000,8.956573974609375,-0.994232177734375,0.0325927734375,0.0072021484375
1782987385660648200,8.966648193359376,-0.9930877685546875,0.0335540771484375,0.0050201416015625
1782987385670722000,8.97672216796875,-0.9932098388671875,0.0340118408203125,0.005584716796875
1782987385680797200,8.986797119140626,-0.9940338134765625,0.0349273681640625,0.0043182373046875
1782987385690871000,8.99687109375,-0.9926300048828125,0.03387451171875,0.0056610107421875
1782987385700945200,9.006945068359375,-0.99346923828125,0.0329437255859375,0.005035400390625
1782987385711020000,9.01702001953125,-0.993072509765625,0.034423828125,0.0065765380859375
1782987385721094100,9.02709423828125,-0.9925079345703125,0.0340728759765625,0.0057830810546875
1782987385731169000,9.0371689453125,-0.9932708740234375,0.0337677001953125,0.0055999755859375
1782987385741243100,9.0472431640625,-0.9925689697265625,0.0349884033203125,0.0057525634765625
1782987385751317000,9.05731689453125,-0.993194580078125,0.0335693359375,0.00689697265625
1782987385761392000,9.06739208984375,-0.9932098388671875,0.032257080078125,0.00714111328125
1782987385771466000,9.077466064453125,-0.993682861328125,0.033172607421875,0.0059967041015625
1782987385781540000,9.0875400390625,-0.9941864013671875,0.0350799560546875,0.00823974609375
1782987385791615000,9.097614990234375,-0.99298095703125,0.0336151123046875,0.0048065185546875
1782987385801689000,9.107689208984375,-0.9924774169921875,0.03509521484375,0.0070037841796875
1782987385811763000,9.117762939453126,-0.9927520751953125,0.0350494384765625,0.0074462890625
1782987385821838000,9.127838134765625,-0.9918670654296875,0.03277587890625,0.006927490234375
1782987385831912000,9.137911865234376,-0.991485595703125,0.0341033935546875,0.0067138671875
1782987385841987000,9.147987060546875,-0.993072509765625,0.034576416015625,0.00604248046875
1782987385852061000,9.15806103515625,-0.99285888671875,0.0346832275390625,0.0055389404296875
1782987385862135300,9.16813525390625,-0.9942474365234375,0.034820556640625,0.0051727294921875
1782987385872210000,9.1782099609375,-0.9941558837890625,0.034881591796875,0.005645751953125
1782987385882284300,9.1882841796875,-0.9944610595703125,0.032958984375,0.0052642822265625
1782987385892358100,9.198358154296875,-0.9924774169921875,0.0336456298828125,0.0046234130859375
1782987385902433300,9.208433349609376,-0.99365234375,0.0323944091796875,0.0055084228515625
1782987385912507100,9.218507080078124,-0.992919921875,0.0334930419921875,0.0071868896484375
1782987385922582300,9.228582275390625,-0.9937286376953125,0.03521728515625,0.0068359375
1782987385932656000,9.23865625,-0.9929656982421875,0.0333404541015625,0.00579833984375
1782987385942730000,9.24872998046875,-0.9925689697265625,0.0340576171875,0.00732421875
1782987385952805000,9.25880517578125,-0.9917755126953125,0.0340118408203125,0.00628662109375
1782987385962879200,9.268879150390624,-0.9936676025390625,0.033660888671875,0.0071258544921875
1782987385972953000,9.278953125,-0.993804931640625,0.0356292724609375,0.006378173828125
1782987385983028200,9.2890283203125,-0.9934539794921875,0.0338287353515625,0.0062103271484375
1782987385993102000,9.29910205078125,-0.994476318359375,0.0326385498046875,0.006866455078125
1782987386003176000,9.309176025390625,-0.99371337890625,0.032562255859375,0.006927490234375
1782987386013251000,9.3192509765625,-0.9930572509765625,0.0350799560546875,0.0067901611328125
1782987386023325000,9.329324951171875,-0.99285888671875,0.03399658203125,0.0079193115234375
1782987386033400000,9.339400146484374,-0.99285888671875,0.0326690673828125,0.0053558349609375
1782987386043474000,9.349473876953125,-0.992401123046875,0.0347442626953125,0.006439208984375
1782987386053548000,9.359548095703126,-0.993988037109375,0.0337982177734375,0.0053863525390625
1782987386063623000,9.369622802734375,-0.992584228515625,0.03350830078125,0.0053863525390625
1782987386073697000,9.379697021484375,-0.993377685546875,0.033111572265625,0.0048980712890625
1782987386083771000,9.38977099609375,-0.993743896484375,0.0340728759765625,0.0045928955078125
1782987386093846000,9.399845947265625,-0.99163818359375,0.03472900390625,0.0058135986328125
1782987386103919900,9.409919921875,-0.9933929443359375,0.0330810546875,0.00775146484375
1782987386113995000,9.4199951171875,-0.993988037109375,0.03363037109375,0.0073089599609375
1782987386124068900,9.43006884765625,-0.9926910400390625,0.0330657958984375,0.006927490234375
1782987386134143200,9.440143310546874,-0.992034912109375,0.0347900390625,0.00531005859375
1782987386144217900,9.4502177734375,-0.992584228515625,0.0340728759765625,0.0063934326171875
1782987386154292200,9.460292236328126,-0.9917144775390625,0.035064697265625,0.0069732666015625
1782987386164366000,9.470365966796875,-0.993255615234375,0.033172607421875,0.007476806640625
1782987386174441200,9.480441162109376,-0.9938812255859375,0.0336456298828125,0.0075836181640625
1782987386184515000,9.49051513671875,-0.99273681640625,0.03326416015625,0.006988525390625
1782987386194589200,9.500589111328125,-0.9931488037109375,0.0341949462890625,0.0073394775390625
1782987386204664000,9.5106640625,-0.9922637939453125,0.0330352783203125,0.0073089599609375
1782987386214738200,9.52073828125,-0.9924774169921875,0.033477783203125,0.005157470703125
1782987386224813000,9.53081298828125,-0.9932708740234375,0.0333404541015625,0.005096435546875
1782987386234887200,9.54088720703125,-0.99249267578125,0.0348052978515625,0.0064849853515625
1782987386244961000,9.5509609375,-0.993682861328125,0.0343017578125,0.006072998046875
1782987386255036200,9.5610361328125,-0.993194580078125,0.0330047607421875,0.0054931640625
1782987386265110000,9.571110107421875,-0.9932403564453125,0.0350494384765625,0.0049896240234375
1782987386275184000,9.58118408203125,-0.99200439453125,0.0338287353515625,0.0072479248046875
1782987386285259000,9.591259033203125,-0.99273681640625,0.034454345703125,0.005950927734375
1782987386295333000,9.6013330078125,-0.9930419921875,0.0332489013671875,0.0048675537109375
1782987386305408000,9.611407958984374,-0.9947357177734375,0.03436279296875,0.0062408447265625
1782987386315482000,9.621482177734375,-0.9926300048828125,0.034210205078125,0.0068511962890625
1782987386325556000,9.631555908203126,-0.993621826171875,0.0330352783203125,0.00860595703125
1782987386335631000,9.641631103515625,-0.9923248291015625,0.03369140625,0.00726318359375
1782987386345705000,9.651705078125,-0.993011474609375,0.03424072265625,0.005279541015625
1782987386355779000,9.661779052734374,-0.9918975830078125,0.0352630615234375,0.0049591064453125
1782987386365854000,9.67185400390625,-0.9927978515625,0.0341033935546875,0.0059967041015625
1782987386375928000,9.681927978515626,-0.9933013916015625,0.032745361328125,0.0052032470703125
1782987386386002200,9.692002197265625,-0.992706298828125,0.034393310546875,0.0065765380859375
1782987386396077000,9.7020771484375,-0.992401123046875,0.032928466796875,0.00628662109375
1782987386406151200,9.712151123046874,-0.9937286376953125,0.0332794189453125,0.0059814453125
1782987386416226000,9.72222607421875,-0.99334716796875,0.0349578857421875,0.00665283203125
1782987386426300200,9.732300048828124,-0.9936981201171875,0.033477783203125,0.006591796875
1782987386436374000,9.7423740234375,-0.994049072265625,0.03369140625,0.0057830810546875
1782987386446449200,9.75244921875,-0.9924163818359375,0.0335540771484375,0.0057373046875
1782987386456523300,9.762523193359375,-0.9935455322265625,0.0337982177734375,0.0064239501953125
1782987386466597000,9.77259716796875,-0.9935760498046875,0.03472900390625,0.0059356689453125
1782987386476672300,9.78267236328125,-0.9936981201171875,0.0346527099609375,0.0062408447265625
1782987386486746000,9.79274609375,-0.993072509765625,0.0337982177734375,0.0057830810546875
1782987386496819700,9.80281982421875,-0.993682861328125,0.0328521728515625,0.007080078125
1782987386506894800,9.812894775390625,-0.9935302734375,0.0344696044921875,0.008514404296875
1782987386516968700,9.82296875,-0.9938201904296875,0.0344390869140625,0.00799560546875
1782987386527043800,9.8330439453125,-0.993804931640625,0.0334625244140625,0.0056915283203125
1782987386537117700,9.84311767578125,-0.9935150146484375,0.0340423583984375,0.00579833984375
1782987386547191800,9.85319189453125,-0.993988037109375,0.0343017578125,0.0074310302734375
1782987386557266700,9.8632666015625,-0.9932708740234375,0.034912109375,0.0076446533203125
1782987386567340800,9.8733408203125,-0.9936065673828125,0.0341644287109375,0.006072998046875
1782987386577414700,9.88341455078125,-0.993194580078125,0.0335845947265625,0.005859375
1782987386587489800,9.89348974609375,-0.9919586181640625,0.03338623046875,0.0073089599609375
1782987386597563600,9.903563720703126,-0.9923858642578125,0.03436279296875,0.00726318359375
1782987386607638800,9.913638671875,-0.9926300048828125,0.035003662109375,0.006256103515625
1782987386617712600,9.923712646484375,-0.9926300048828125,0.0322723388671875,0.0045013427734375
1782987386627786800,9.933786865234374,-0.9934844970703125,0.0334014892578125,0.007110595703125
1782987386637861600,9.943861572265625,-0.994781494140625,0.03338623046875,0.0046234130859375
1782987386647935700,9.953935791015626,-0.9925079345703125,0.0329742431640625,0.0048065185546875
1782987386658009900,9.964009765625,-0.993621826171875,0.0337677001953125,0.0060577392578125
1782987386668084700,9.974084716796876,-0.9937591552734375,0.034271240234375,0.006072998046875
1782987386678158800,9.984158935546875,-0.994476318359375,0.0351715087890625,0.005706787109375
1782987386688232700,9.994232666015625,-0.9928131103515625,0.0352325439453125,0.0062713623046875
1782987386698307800,10.004307861328124,-0.9930267333984375,0.03436279296875,0.0073394775390625
1782987386708382000,10.0143818359375,-0.9931182861328125,0.0343170166015625,0.0081787109375
1782987386718456800,10.024456787109376,-0.9923553466796875,0.0346832275390625,0.0063018798828125
1782987386728531000,10.034531005859375,-0.99395751953125,0.0341949462890625,0.0050201416015625
1782987386738604800,10.044604736328125,-0.9945526123046875,0.0343170166015625,0.005279541015625
1782987386748680000,10.054679931640624,-0.993408203125,0.0338287353515625,0.0063018798828125
1782987386758753800,10.06475390625,-0.993377685546875,0.0337982177734375,0.0063934326171875
1782987386768827600,10.07482763671875,-0.9926300048828125,0.0342254638671875,0.007049560546875
1782987386778902800,10.08490283203125,-0.9929046630859375,0.033355712890625,0.006683349609375
1782987386788976600,10.0949765625,-0.99188232421875,0.0343780517578125,0.00640869140625
1782987386799050800,10.10505078125,-0.99298095703125,0.0344085693359375,0.006256103515625
1782987386809125600,10.115125732421875,-0.99249267578125,0.0334014892578125,0.0067138671875
1782987386819199700,10.12519970703125,-0.9939117431640625,0.033660888671875,0.0065765380859375
1782987386829275000,10.13527490234375,-0.9918365478515625,0.034576416015625,0.00701904296875
1782987386839348700,10.1453486328125,-0.9932708740234375,0.0340118408203125,0.0057220458984375
1782987386849422600,10.155422607421874,-0.994110107421875,0.0333251953125,0.007049560546875
1782987386859497700,10.165497802734375,-0.992919921875,0.032257080078125,0.006011962890625
1782987386869571600,10.175571533203126,-0.993072509765625,0.0333709716796875,0.005706787109375
1782987386879646000,10.18564599609375,-0.99237060546875,0.0343780517578125,0.006500244140625
1782987386889720600,10.195720458984376,-0.9953765869140625,0.0338897705078125,0.0062408447265625
1782987386899795000,10.205794921875,-0.992401123046875,0.0329437255859375,0.007598876953125
1782987386909869600,10.21586962890625,-0.992706298828125,0.033599853515625,0.004547119140625
1782987386919944000,10.22594384765625,-0.9927825927734375,0.0351104736328125,0.0051422119140625
1782987386930017800,10.236017822265625,-0.9952392578125,0.0341949462890625,0.006500244140625
1782987386940093000,10.246093017578126,-0.9937744140625,0.0335235595703125,0.0057525634765625
1782987386950166800,10.256166748046875,-0.9948272705078125,0.0318756103515625,0.0069427490234375
1782987386960241000,10.266240966796875,-0.992706298828125,0.033660888671875,0.00732421875
1782987386970315800,10.276315673828124,-0.9935150146484375,0.033660888671875,0.0063629150390625
1782987386980390000,10.286389892578125,-0.9922027587890625,0.0325469970703125,0.004608154296875
1782987386990463700,10.296463623046876,-0.9953765869140625,0.0326690673828125,0.0066986083984375
1782987387000539000,10.306538818359375,-0.99346923828125,0.034027099609375,0.0066070556640625
1782987387010612700,10.31661279296875,-0.99652099609375,0.035125732421875,0.006195068359375
1782987387020688000,10.32668798828125,-0.985809326171875,0.0304718017578125,0.01055908203125
1782987387030761700,10.33676171875,-1.0003814697265625,0.0378875732421875,0.004180908203125
1782987387040836900,10.3468369140625,-0.989288330078125,0.031097412109375,0.0092926025390625
1782987387050910700,10.35691064453125,-0.9959259033203125,0.035858154296875,0.0069427490234375
1782987387060984800,10.36698486328125,-0.992431640625,0.032318115234375,0.0075225830078125
1782987387071059700,10.377059814453125,-0.9938507080078125,0.034942626953125,0.0072021484375
1782987387081133800,10.3871337890625,-0.992828369140625,0.0330810546875,0.0062103271484375
1782987387091207700,10.397207763671876,-0.99395751953125,0.033966064453125,0.0055389404296875
1782987387101282800,10.40728271484375,-0.9935760498046875,0.0335540771484375,0.007293701171875
