time,seconds_elapsed,z,y,x
1782987376761202400,0.067202392578125,0.0008379720384255052,0.004261752124875784,0.005932328756898642
1782987376771277300,0.07727734375,0.00031787168700248003,0.003616003319621086,0.002432500012218952
1782987376781351400,0.087351318359375,0.0007703427691012621,0.003636243287473917,0.0054993960075080395
1782987376791425300,0.09742529296875,0.00013817416038364172,0.00428338348865509,0.00340214348398149
1782987376801500400,0.10750048828125,-0.0022626654244959354,0.0065792943350970745,0.00468631973490119
1782987376811574300,0.11757421875,0.0005034588975831866,0.0030053602531552315,0.004389653913676739
1782987376821648400,0.1276484375,0.0006376822711899877,0.0038234833627939224,0.0026732468977570534
1782987376831723300,0.13772314453125,-0.0011913999915122986,0.004868661053478718,0.004541315138339996
1782987376841797400,0.14779736328125,0.0001814595889300108,0.004293152131140232,0.0028400879818946123
1782987376851872300,0.157872314453125,-0.001086122589185834,0.0017843050882220268,0.004637842532247305
1782987376861946400,0.1679462890625,-0.0026584528386592865,0.0022146720439195633,0.004693502560257912
1782987376872020200,0.178020263671875,-0.001528657623566687,0.0024451534263789654,0.0036515279207378626
1782987376882095400,0.188095458984375,0.001227181521244347,0.0034241313114762306,0.004189752973616123
1782987376892169200,0.198169189453125,0.00021899095736443996,-0.00017341552302241325,0.002810355741530657
1782987376902243300,0.208243408203125,0.0003252511378377676,0.002180286217480898,0.0003626445250120014
1782987376912318200,0.218318115234375,-0.00011871743481606245,-0.0016370017547160387,0.0002679309109225869
1782987376922392300,0.228392333984375,0.0007372224936261773,-0.0004676077514886856,0.0026581177953630686
1782987376932467200,0.23846728515625,-0.0013805633643642068,0.0011240735184401274,0.00021006331371609122
1782987376942541300,0.248541259765625,-0.0006135730072855949,-0.002420593984425068,0.000611934345215559
1782987376952615200,0.258615234375,0.0006702548125758767,0.0010874697472900152,-0.0008563867304474115
1782987376962690300,0.268690185546875,0.0010910342680290341,-0.0007178870728239417,-0.000054775293392594904
1782987376972764200,0.27876416015625,0.0010524586541578174,-0.000009129289537668228,-0.0014310198603197932
1782987376982838300,0.28883837890625,0.0016479414189234376,-0.0015215384773910046,0.00034317810786888003
1782987376992913200,0.2989130859375,-0.00032525527058169246,0.00009206868708133698,-0.003056862624362111
1782987377002987300,0.3089873046875,0.0022332435473799706,-0.002215826651081443,-0.00008717161108506843
1782987377013061400,0.319061279296875,0.0003087614895775914,-0.0023752020206302404,-0.0039488752372562885
1782987377023136300,0.32913623046875,-0.0007021744386292994,-0.004799744114279747,-0.0024860010016709566
1782987377033210400,0.33921044921875,-0.0037021436728537083,-0.001350299222394824,-0.004592174664139748
1782987377043285200,0.34928515625,-0.001763894921168685,-0.004134900402277708,-0.0073173874989151955
1782987377053359400,0.359359375,-0.0011723461793735623,-0.0034038606099784374,-0.00642817560583353
1782987377063433200,0.36943310546875,-0.0014375969767570496,-0.004512800835072994,-0.006562665104866028
1782987377073508400,0.37950830078125,0.0003560419427230954,-0.005517611280083656,-0.0050257546827197075
1782987377083582200,0.389582275390625,-0.0014747574459761381,-0.004765389021486044,-0.007445072755217552
1782987377093656300,0.39965625,-0.001079997280612588,-0.005115944892168045,-0.008367438800632954
1782987377103731500,0.4097314453125,0.0012769002933055162,-0.00550529919564724,-0.008393803611397743
1782987377113805300,0.419805419921875,-0.0011605460895225406,-0.005952388048171997,-0.009739961475133896
1782987377123880400,0.42988037109375,0.0006288317963480949,-0.006434153765439987,-0.0061646681278944016
1782987377133954300,0.439954345703125,0.00428803451359272,-0.009422307834029198,-0.008142426609992981
1782987377144028200,0.450028076171875,0.007163182832300663,0.022065045312047005,0.006753698457032442
1782987377154103300,0.460103271484375,-0.004181287717074156,0.010998217388987541,-0.010810965672135353
1782987377164177200,0.47017724609375,-0.012683696113526821,0.014761263504624367,-0.0016510224668309093
1782987377174252300,0.480252197265625,-0.005890833213925362,0.00957481935620308,-0.0034360885620117188
1782987377184326100,0.490326171875,0.00003629818093031645,0.006995813921093941,0.010093568824231625
1782987377194400300,0.500400146484375,-0.0024936425033956766,-0.0005929244216531515,0.0031144379172474146
1782987377204475100,0.51047509765625,-0.003595658577978611,0.00007712701335549355,0.0015500971348956227
1782987377214549200,0.52054931640625,-0.0008311132551170886,0.001951814629137516,0.0016657888190820813
1782987377224623000,0.530623046875,-0.00047318439465016127,-0.0075074671767652035,0.0015336960786953568
1782987377234698200,0.5406982421875,0.003739322070032358,-0.0026152986101806164,0.003636975772678852
1782987377244772000,0.550772216796875,0.0027094772085547447,-0.004679515026509762,-0.0031423671171069145
1782987377254847200,0.56084716796875,0.0005227944348007441,0.0020722243934869766,-0.000953705282881856
1782987377264921000,0.570921142578125,-0.002166998339816928,-0.0025036188308149576,-0.005322887562215328
1782987377274995200,0.5809951171875,-0.004729448352009058,-0.0013669573236256838,-0.0020064087584614754
1782987377285070000,0.591070068359375,0.0014695917489007115,-0.00327697629109025,-0.0026972326450049877
1782987377295144200,0.601144287109375,0.004891118034720421,0.00909065455198288,0.0033827023580670357
1782987377305218300,0.61121826171875,-0.0025931638665497303,0.008649369701743126,-0.0018288373248651624
1782987377315293400,0.62129345703125,-0.002956049283966422,0.009301932528614998,-0.003483930602669716
1782987377325367300,0.6313671875,-0.0027746879495680332,0.005733296740800142,-0.0034258735831826925
1782987377335441400,0.64144140625,-0.001363949617370963,0.00415451405569911,-0.0007747478666715324
1782987377345516300,0.651516357421875,-0.0011556904064491391,0.0015257077757269144,0.004462891258299351
1782987377355590400,0.66159033203125,0.002935682889074087,0.001876890193670988,0.002519770758226514
1782987377365665300,0.671665283203125,0.0006301843095570803,0.0008473119232803583,0.0005724673392251134
1782987377375739400,0.681739501953125,-0.0003291271859779954,-0.006495318841189146,-0.0038790488615632057
1782987377385813200,0.691813232421875,0.0008506531594321132,0.0016467634122818708,0.0026520872488617897
1782987377395888400,0.701888427734375,0.002376680262386799,0.00018466683104634285,0.00015670906577724963
1782987377405962200,0.711962158203125,-0.0006465401966124773,0.0024408968165516853,-0.00016073972801677883
1782987377416036400,0.722036376953125,0.0005232068942859769,-0.0012013387167826295,0.0009094775305129588
1782987377426111200,0.732111328125,-0.0015926745254546404,0.0019755461253225803,0.005203292239457369
1782987377436185300,0.742185302734375,0.0010278759291395545,-0.00029000500217080116,-0.0007861571502871811
1782987377446260200,0.75226025390625,-0.0010033170692622662,0.0007667373865842819,0.0012951032258570194
1782987377456334300,0.762334228515625,-0.0008379984647035599,0.0007982857059687376,0.0032635305542498827
1782987377466408200,0.772408203125,0.00018119323067367077,-0.002387121319770813,0.0004826579533983022
1782987377476483300,0.7824833984375,0.000525457551702857,-0.00010011577978730202,0.002431438770145178
1782987377486556700,0.792556640625,0.002543068490922451,-0.0019158590584993362,-0.0013385319616645575
1782987377496630800,0.802630859375,0.0012638114858418703,-0.0014099820982664824,0.0007285120082087815
1782987377506705700,0.81270556640625,0.002452912973240018,-0.004558371379971504,-0.0018182690255343914
1782987377516779800,0.82277978515625,0.0021046537440270185,-0.0011126560857519507,-0.0028149697463959455
1782987377526854700,0.832854736328125,0.0023629802744835615,0.000015459023416042328,-0.00041359756141901016
1782987377536928800,0.8429287109375,0.0007706762989982963,0.0020831371657550335,0.002182185649871826
1782987377547003000,0.8530029296875,-0.0005009831511415541,-0.0024327849969267845,0.0008300986373797059
1782987377557077800,0.863077880859375,-0.0015093381516635418,-0.00012181117199361324,-0.00026990711921826005
1782987377567151900,0.87315185546875,0.0012478325515985489,0.00008005648851394653,0.0022188168950378895
1782987377577225700,0.883225830078125,0.0014040378155186772,0.0007261971477419138,-0.0010674550430849195
1782987377587300900,0.89330078125,-0.00025404623011127114,0.00017731962725520134,-0.0025556294713169336
1782987377597374700,0.903374755859375,-0.001490881433710456,0.0023715002462267876,0.00005668064841302112
1782987377607449900,0.913449951171875,0.0007597559597343206,-0.0002322725486010313,0.0003136756713502109
1782987377617523700,0.923523681640625,-0.0015424237353727221,0.0004449703264981508,0.0012532055843621492
1782987377627597800,0.933597900390625,0.00018703308887779713,0.0005877157673239708,0.0024356490466743708
1782987377637672700,0.943672607421875,0.0003714882768690586,0.0017371056601405144,-0.00042061653221026063
1782987377647746800,0.953746826171875,-0.0018269511638209224,0.0030841324478387833,0.0006273373728618026
1782987377657820700,0.963820556640625,-0.0016842879122123122,0.0016416464932262897,0.001679165638051927
1782987377667895800,0.973895751953125,-0.0011798852356150746,0.002669893205165863,0.0037255387287586927
1782987377677969700,0.9839697265625,0.0009170055855065584,0.0007858551107347012,0.0031403214670717716
1782987377688044800,0.994044921875,-0.00014852522872388363,0.0013637610245496035,0.0004939383361488581
1782987377698118700,1.00411865234375,-0.0006571669946424663,0.0034198365174233913,-0.00017118125106208026
1782987377708192800,1.01419287109375,0.00018252769950777292,0.0011529538314789534,0.0011705192737281322
1782987377718267600,1.024267578125,0.0003162183566018939,0.0025468524545431137,-0.00042684469372034073
1782987377728341800,1.034341796875,-0.000029726303182542324,0.0010994242038577795,-0.002034861361607909
1782987377738415600,1.04441552734375,0.000024110078811645508,0.0000017595011740922928,0.0023581001441925764
1782987377748490800,1.05449072265625,-0.001441427506506443,0.001827090047299862,0.0020004375837743282
1782987377758564600,1.064564697265625,0.0001158443046733737,-0.0003277299692854285,0.0008613342652097344
1782987377768639700,1.0746396484375,0.002149700652807951,0.000682673417031765,0.0032475264742970467
1782987377778713600,1.084713623046875,0.002735310234129429,-0.0005654635606333613,0.003494230331853032
1782987377788788000,1.0947880859375,0.0013302263105288148,-0.0004924929235130548,0.002363718580454588
1782987377798862600,1.104862548828125,0.00024158658925443888,0.0031274245120584965,0.001583324745297432
1782987377808937000,1.11493701171875,0.0003265413688495755,0.00038064015097916126,0.0026017173659056425
1782987377819010800,1.1250107421875,-0.002592508215457201,0.0027800300158560276,0.0037049115635454655
1782987377829086000,1.1350859375,0.0023684282787144184,0.0035574068315327168,-0.00023044145200401545
1782987377839159800,1.145159912109375,0.003226090222597122,0.0011902677360922098,0.002887218724936247
1782987377849235000,1.15523486328125,0.004067915491759777,0.0004134236369282007,0.000954030139837414
1782987377859308800,1.165308837890625,0.0020223380997776985,-0.0004099593497812748,0.0009207730763591826
1782987377869383000,1.1753828125,-0.0004567986470647156,0.003119261935353279,0.004183677956461906
1782987377879457800,1.185457763671875,-0.00031452247640118003,0.0031612771563231945,0.004908540286123753
1782987377889532000,1.195531982421875,-0.001882858108729124,0.004095780663192272,0.004235292784869671
1782987377899605800,1.205605712890625,-0.0015833941288292408,0.002247157972306013,0.004720418713986874
1782987377909681000,1.215680908203125,-0.001515217125415802,0.0048583876341581345,0.0033544835168868303
1782987377919754800,1.225754638671875,0.00045767263509333134,0.005665237549692392,0.0031269548926502466
1782987377929830000,1.235829833984375,0.0011961671989411116,0.004820216912776232,0.008863403461873531
1782987377939903700,1.24590380859375,0.0005499395774677396,0.00513681024312973,0.0035295551642775536
1782987377949977900,1.255977783203125,0.0001392801059409976,0.002528244163841009,0.006053965538740158
1782987377960052700,1.266052734375,-0.0011046199360862374,0.005037619266659021,0.005242946557700634
1782987377970126800,1.276126953125,0.0003393460065126419,0.00644483370706439,0.003702308051288128
1782987377980200700,1.28620068359375,-0.0021764561533927917,0.006364878732711077,0.003583995858207345
1782987377990275800,1.29627587890625,-0.0006102512124925852,0.0033871978521347046,0.006365668028593063
1782987378000349700,1.306349609375,-0.0007511656731367111,0.003906900528818369,0.005722351372241974
1782987378010424800,1.3164248046875,0.00015590700786560774,0.0015904831234365702,0.002736148424446583
1782987378020498700,1.326498779296875,0.0010436055017635226,0.0029122098349034786,0.0022953953593969345
1782987378030572800,1.33657275390625,0.0013211070327088237,0.0024799788370728493,0.0028605181723833084
1782987378040647700,1.346647705078125,-0.0005114141968078911,0.0022669262252748013,0.0026639767456799746
1782987378050721800,1.3567216796875,-0.0008035629289224744,0.00031642685644328594,-0.00011050427565351129
1782987378060796000,1.3667958984375,-0.0002564261667430401,-0.0012264623073861003,0.00010031492274720222
1782987378070870800,1.376870849609375,-0.0012465894687920809,0.0006196410395205021,0.0002518487744964659
1782987378080945000,1.38694482421875,0.0012665942776948214,0.002342411782592535,-0.0007729782373644412
1782987378091019800,1.397019775390625,0.002259420696645975,0.00012213434092700481,-0.00014127642498351634
1782987378101094000,1.407093994140625,-0.0014091241173446178,0.0014150089118629694,-0.000876918900758028
1782987378111167700,1.417167724609375,0.0016734849195927382,-0.0013040786143392324,0.0005912817432545125
1782987378121243000,1.427242919921875,-0.0013840701431035995,-0.002411243040114641,0.00047640519915148616
1782987378131316700,1.437316650390625,0.0006774829234927893,-0.0017590350471436977,-0.0043154205195605755
1782987378141390800,1.447390869140625,-0.0003039331058971584,0.0004515661858022213,-0.0012536621652543545
1782987378151466000,1.457466064453125,0.0008209861116483808,-0.00078999949619174,-0.004124016966670752
1782987378161539800,1.467539794921875,0.00005137373227626085,-0.0013321302831172943,0.0020964061841368675
1782987378171615000,1.477614990234375,0.0004069057758897543,-0.0034203147515654564,-0.002011786215007305
1782987378181688800,1.487688720703125,0.0009598789038136601,-0.0017220447771251202,0.001114488230086863
1782987378191762700,1.4977626953125,-0.0014689239906147122,0.0004356482531875372,-0.002925793407484889
1782987378201837800,1.507837890625,-0.000341360573656857,-0.0010467874817550182,-0.00007687952893320471
1782987378211911700,1.51791162109375,0.0008554640226066113,-0.002935501281172037,0.000037902715121163055
1782987378221985800,1.52798583984375,0.0003884875914081931,-0.000013892306014895439,-0.00441932724788785
1782987378232060700,1.538060791015625,-0.0026629623025655746,-0.0006213592132553458,-0.0015023670857772231
1782987378242134800,1.548134765625,-0.0001932698069140315,-0.0032815919257700443,-0.001965723931789398
1782987378252208600,1.558208740234375,-0.0014457544311881065,-0.0018560017924755812,-0.0009254931937903166
1782987378262283800,1.56828369140625,0.0008692506235092878,-0.0028097396716475487,-0.0005980085115879774
1782987378272357600,1.578357666015625,-0.0016154786571860313,-0.002278705360367894,-0.0011719197500497103
1782987378282432800,1.588432861328125,-0.00030764355324208736,-0.0016656708903610706,-0.005522237624973059
1782987378292506600,1.598506591796875,0.0003080792957916856,-0.0007985456613823771,-0.005880699027329683
1782987378302580700,1.608580810546875,-0.0010116378543898463,-0.0023596954997628927,-0.00324812950566411
1782987378312655600,1.618655517578125,-0.0011692970292642713,-0.0019226707518100739,-0.0007910971762612462
1782987378322729700,1.628729736328125,0.00019370869267731905,-0.0007228563772514462,-0.0035519611556082964
1782987378332803800,1.638803955078125,0.001403848989866674,-0.0016512343427166343,-0.0012568491511046886
1782987378342878700,1.648878662109375,0.00013352138921618462,-0.0024784724228084087,-0.0021559670567512512
1782987378352952800,1.658952880859375,0.002405197825282812,-0.0024987123906612396,-0.0010129385627806187
1782987378363027700,1.66902783203125,0.0018087513744831085,-0.0025755867827683687,-0.0038850975688546896
1782987378373101800,1.679101806640625,0.0006880932487547398,0.000942981569096446,-0.004117857664823532
1782987378383176000,1.689176025390625,-0.0010387827642261982,-0.0002446393482387066,0.00039155263220891356
1782987378393250800,1.699250732421875,-0.002647864632308483,-0.002391413552686572,-0.002543783513829112
1782987378403325000,1.709324951171875,0.00020368339028209448,-0.0006949487142264843,-0.003571738488972187
1782987378413398800,1.719398681640625,-0.0012152488343417645,0.00007390580140054226,-0.0007487877737730742
1782987378423474000,1.729473876953125,0.00026289024390280247,-0.0009401724673807621,-0.003484832588583231
1782987378433547800,1.7395478515625,0.000317751313559711,-0.002450717380270362,-0.0009606884559616446
1782987378443623000,1.749622802734375,0.0010835726279765368,-0.00037048954982310534,0.0026963725686073303
1782987378453696800,1.75969677734375,0.0009541430044919252,0.0010577638167887926,0.0007772987009957433
1782987378463771000,1.76977099609375,0.00030420999974012375,-0.0026221356820315123,0.0026141502894461155
1782987378473845800,1.779845703125,-0.000033212476409971714,0.0012293278705328703,-0.0024551767855882645
1782987378483920000,1.789919921875,-0.001563116442412138,-0.00003955024294555187,0.001523439772427082
1782987378493994000,1.799993896484375,0.00004490022547543049,0.0028742142021656036,-0.0003921720781363547
1782987378504068900,1.81006884765625,0.0020290371030569077,-0.0012074944097548723,0.002731303684413433
1782987378514143000,1.82014306640625,0.001491078524850309,-0.00032545544672757387,0.000800245557911694
1782987378524217900,1.8302177734375,-0.00048306118696928024,0.0004582533147186041,0.0037784066516906023
1782987378534292000,1.8402919921875,-0.002749411389231682,0.00030512153171002865,0.00243217870593071
1782987378544365800,1.85036572265625,0.0003264578990638256,-0.00022469949908554554,0.0004237689427100122
1782987378554441000,1.86044091796875,-0.00009006040636450052,0.007466775830835104,0.004886427894234657
1782987378564514800,1.870514892578125,-0.00016745616449043155,-0.0005349279381334782,-0.0013229725882411003
1782987378574589000,1.8805888671875,-0.0010002265917137265,0.002152201719582081,0.003503474174067378
1782987378584663800,1.890663818359375,-0.0015733388718217611,-0.0006228121928870678,-0.0002811439917422831
1782987378594738000,1.900738037109375,0.0018491084920242429,-0.0005561128491535783,0.004484718665480614
1782987378604812800,1.910812744140625,-0.0005686969379894435,-0.00004640617407858372,0.002029472030699253
1782987378614887000,1.920886962890625,0.00006007542833685875,0.0000851538497954607,0.003126427996903658
1782987378624961000,1.9309609375,-0.002487397752702236,0.0026864921674132347,0.00001771428833308164
1782987378635036000,1.941035888671875,-0.0020961794070899487,0.0021088523790240288,0.0024273423478007317
1782987378645110000,1.951110107421875,-0.001876468537375331,0.0023765000514686108,0.0030601094476878643
1782987378655184100,1.96118408203125,-0.0008516840753145516,0.0032955571077764034,0.0041544027626514435
1782987378665259000,1.971259033203125,0.0014128410257399082,0.001783506479114294,0.002890808740630746
1782987378675333000,1.9813330078125,-0.0012647011317312717,0.0037832739762961864,0.004223720636218786
1782987378685407000,1.991406982421875,-0.000987853854894638,0.0036767441779375076,0.008000649511814117
1782987378695482000,2.001482177734375,-0.0014448523288592696,0.0028458377346396446,0.006770802661776543
1782987378705556000,2.011555908203125,-0.0012954489793628454,0.004093528725206852,0.005992360413074493
1782987378715631000,2.021631103515625,-0.0008235429995693266,0.0072921160608530045,0.0053442129865288734
1782987378725705000,2.031705078125,-0.0022878246381878853,0.005231439135968685,0.006005058530718088
1782987378735779000,2.041779052734375,-0.0006169575499370694,0.004138211719691753,0.006972052156925201
1782987378745854000,2.05185400390625,0.0007306641200557351,0.0037554544396698475,0.0056715793907642365
1782987378755928000,2.061927978515625,0.0015826093731448054,0.006412756163626909,0.005305660888552666
1782987378766002000,2.072001953125,0.0036406763829290867,0.003965199459344149,0.006604611873626709
1782987378776077000,2.0820771484375,0.0019359871512278914,0.0043103452771902084,0.005056782625615597
1782987378786151000,2.09215087890625,0.0010612644255161285,0.0048569682985544205,0.006378142163157463
1782987378796226000,2.10222607421875,0.0007347610080614686,0.005053509958088398,0.006454042159020901
1782987378806300000,2.1122998046875,-0.00018859741976484656,0.005285114515572786,0.008708329871296883
1782987378816373800,2.122373779296875,-0.0024554801639169455,0.0052172038704156876,0.004283488262444735
1782987378826449000,2.132448974609375,0.00001003278885036707,0.004921032581478357,0.007551942951977253
1782987378836523000,2.14252294921875,0.0002585056936368346,0.0058478121645748615,0.005868292413651943
1782987378846596900,2.152596923828125,0.0007220697589218616,0.0072568911127746105,0.005992395803332329
1782987378856672000,2.162672119140625,0.001479206490330398,0.0032008965499699116,0.0047231330536305904
1782987378866745900,2.172745849609375,0.0024005379527807236,0.0053778220899403095,0.010797339491546154
1782987378876821000,2.182821044921875,-0.0005326677928678691,0.0062635899521410465,0.00776399951428175
1782987378886894800,2.192894775390625,0.00020685000345110893,0.007893949747085571,0.007617748808115721
1782987378896969000,2.202968994140625,-0.0014376519247889519,0.007718713488429785,0.007690452970564365
1782987378907043800,2.2130439453125,-0.001609286293387413,0.005133974831551313,0.005324867554008961
1782987378917118000,2.223117919921875,0.000455728848464787,0.0061789993196725845,0.0043671950697898865
1782987378927192000,2.233192138671875,0.0025153798051178455,0.004674219060689211,0.0059335906989872456
1782987378937267000,2.243266845703125,0.0014083037385717034,0.0035434411838650703,0.0039042620919644833
1782987378947341000,2.253341064453125,0.0010748162167146802,0.00036681839264929295,0.0035785753279924393
1782987378957415000,2.263414794921875,0.0010351351229473948,0.003743973094969988,0.00004509324935497716
1782987378967490000,2.273489990234375,-0.0011640008306130767,0.0005673842970281839,-0.00008457695366814733
1782987378977564000,2.28356396484375,-0.0011850398732349277,0.0004861578345298767,-0.0025482673663645983
1782987378987639000,2.29363916015625,-0.0014418094651773572,-0.003467127215117216,-0.0006915888516232371
1782987378997713000,2.303712890625,-0.0002535069943405688,-0.0020207646302878857,-0.00469858106225729
1782987379007787000,2.313787109375,0.001964045688509941,-0.004887065850198269,-0.004549658391624689
1782987379017862000,2.32386181640625,0.002186952158808708,-0.004371211398392916,-0.003671880578622222
1782987379027936000,2.33393603515625,0.001495984150096774,-0.004614741541445255,-0.003820322919636965
1782987379038009900,2.344009765625,0.0009204749949276447,-0.006173489615321159,-0.006416105665266514
1782987379048085000,2.3540849609375,-0.0015332791954278946,-0.007518208585679531,-0.009570730850100517
1782987379058158800,2.364158935546875,-0.0011415282497182488,-0.0062651908956468105,-0.008422375656664371
1782987379068234000,2.37423388671875,-0.0022786776535212994,-0.007325277663767338,-0.01171736791729927
1782987379078307800,2.384307861328125,0.0006521312752738595,-0.009508270770311356,-0.009883780963718891
1782987379088382000,2.3943818359375,0.003277168609201908,-0.0115986168384552,-0.014265788719058037
1782987379098456800,2.404456787109375,0.00031307025346904993,-0.013001834973692894,-0.014224776066839695
1782987379108531000,2.414531005859375,0.0009642530931159854,-0.013885913416743279,-0.016275599598884583
1782987379118604800,2.424604736328125,0.0015541432658210397,-0.016035884618759155,-0.015669463202357292
1782987379128680000,2.434679931640625,0.0008978382684290409,-0.015120912343263626,-0.01876278780400753
1782987379138753800,2.44475390625,-0.0011871505994349718,-0.015731574967503548,-0.019555343315005302
1782987379148829000,2.454828857421875,-0.000006223330274224281,-0.016728810966014862,-0.022034892812371254
1782987379158902800,2.46490283203125,-0.0003849248168990016,-0.018079031258821487,-0.024609370157122612
1782987379168977000,2.474976806640625,-0.00010660337284207344,-0.01687563955783844,-0.023074684664607048
1782987379179051800,2.4850517578125,0.0005096520762890577,-0.019535336643457413,-0.024022504687309265
1782987379189126000,2.4951259765625,0.01849948987364769,-0.02257891744375229,-0.01628321036696434
1782987379199200000,2.505199951171875,0.01539797242730856,0.06816243380308151,0.020707828924059868
1782987379209275000,2.51527490234375,-0.016627132892608643,0.02961057424545288,-0.027083609253168106
1782987379219349000,2.525348876953125,-0.016936324536800385,0.03671722114086151,0.003935293294489384
1782987379229423000,2.535423095703125,-0.0018058635760098696,0.03984173387289047,0.02855497971177101
1782987379239498000,2.545498046875,-0.0054024625569581985,0.022139165550470352,0.001283944002352655
1782987379249572000,2.555572021484375,-0.021169956773519516,0.03272148221731186,0.0125426622107625
1782987379259647000,2.56564697265625,-0.011163394898176193,0.005183595698326826,0.0005038428353145719
1782987379269721000,2.57572119140625,0.006103049032390118,0.014502491801977158,0.020984075963497162
1782987379279795000,2.585794921875,0.017295515164732933,-0.0071705784648656845,-0.0031167317647486925
1782987379289870000,2.5958701171875,0.013418784365057945,-0.0011806992115452886,0.009633791632950306
1782987379299944000,2.60594384765625,0.008951864205300808,-0.005500879138708115,0.0006988857639953494
1782987379310017800,2.616017822265625,-0.0005062000709585845,0.0036819512024521828,-0.0013668889878317714
1782987379320093000,2.626093017578125,-0.012263789772987366,0.004182359203696251,0.0021926918998360634
1782987379330167000,2.6361669921875,-0.010829616338014603,0.008891034871339798,0.0014983543660491705
1782987379340242000,2.646241943359375,-0.00290032010525465,0.010002104565501213,0.011122219264507294
1782987379350316000,2.65631591796875,0.004266921430826187,0.005887049250304699,0.00885753519833088
1782987379360390000,2.666389892578125,0.009330122731626034,0.008376305922865868,0.01051242370158434
1782987379370465000,2.676465087890625,0.010054522193968296,0.004661436192691326,0.008097675628960133
1782987379380539000,2.686538818359375,0.004191040527075529,0.008163226768374443,0.01376781240105629
1782987379390612700,2.69661279296875,-0.003079039044678211,0.00795395765453577,0.011233367025852203
1782987379400687900,2.70668798828125,-0.006580031011253595,0.011478651314973831,0.009652248583734035
1782987379410761700,2.71676171875,-0.00902809202671051,0.01001092791557312,0.005267268046736717
1782987379420836900,2.7268369140625,-0.005662122741341591,0.006914203986525536,0.003946872428059578
1782987379430910700,2.73691064453125,-0.0012539569288492203,-0.000997483846731484,0.0010509765706956387
1782987379440985000,2.746985107421875,0.005382640287280083,-0.007658049464225769,-0.0005328053375706077
1782987379451060000,2.75706005859375,0.008413502015173435,-0.009244345128536224,-0.0032725196797400713
1782987379461134000,2.767134033203125,0.0074241370894014835,-0.010856889188289642,-0.006369509734213352
1782987379471208000,2.7772080078125,0.0035096826031804085,-0.007265740539878607,-0.008222105912864208
1782987379481283000,2.787282958984375,-0.0047519756481051445,-0.006435100920498371,-0.012515388429164886
1782987379491356700,2.797356689453125,-0.006559401284903288,-0.006504403427243233,-0.013609199784696102
1782987379501430800,2.8074306640625,-0.0060629877261817455,-0.007890844717621803,-0.009321244433522224
1782987379511505700,2.817505615234375,-0.00034831551602110267,-0.006773175671696663,-0.011435313150286674
1782987379521579800,2.827579833984375,0.004090375266969204,-0.008034981787204742,-0.007721801288425922
1782987379531654700,2.837654541015625,0.007527511566877365,-0.007568719796836376,-0.008007877506315708
1782987379541728800,2.847728759765625,0.0033330325968563557,-0.006182011682540178,-0.006957526318728924
1782987379551802600,2.857802734375,0.0005984382005408406,-0.004082317464053631,-0.007928729057312012
1782987379561877800,2.867877685546875,-0.004350514151155949,-0.004122797399759293,-0.0063683828338980675
1782987379571951600,2.87795166015625,-0.006004213821142912,-0.004190500825643539,-0.005791344214230776
1782987379582025700,2.888025634765625,-0.005736300256103277,-0.0007688717450946569,-0.007526659872382879
1782987379592100600,2.8981005859375,0.005235104355961084,-0.009563872590661049,-0.009484788402915001
1782987379602174700,2.9081748046875,0.007123018614947796,0.01738092675805092,0.0010216485243290663
1782987379612249600,2.91824951171875,-0.0014827403938397765,0.009585675783455372,-0.008108639158308506
1782987379622323700,2.92832373046875,-0.0029650558717548847,0.02048759162425995,-0.0004214243090245873
1782987379632397600,2.9383974609375,-0.008261242881417274,0.013651080429553986,-0.008100837469100952
1782987379642472700,2.94847265625,-0.0015287719434127212,0.008689077571034431,0.010411327704787254
1782987379652546600,2.958546630859375,0.005440720822662115,0.004398459568619728,0.0192897729575634
1782987379662620700,2.96862060546875,0.00444361288100481,0.000586765818297863,0.00466352142393589
1782987379672695600,2.978695556640625,0.00024349975865334272,0.003094370011240244,0.005926615558564663
1782987379682769700,2.988769775390625,-0.0027139405719935894,0.0023566745221614838,0.0019316076068207622
1782987379692844500,2.998844482421875,-0.0006797562236897647,0.0026354468427598476,0.0004143535334151238
1782987379702918700,3.008918701171875,0.005627408158034086,-0.00034276593942195177,-0.00194281036965549
1782987379712992800,3.01899267578125,0.003790297545492649,-0.005552647635340691,0.00008870016608852893
1782987379723067600,3.029067626953125,0.004473398439586163,-0.0029693813994526863,0.0001677960535744205
1782987379733141800,3.039141845703125,-0.002120506949722767,-0.004051896743476391,-0.0030646640807390213
1782987379743215600,3.049215576171875,-0.0034899041056632996,-0.00036315247416496277,0.002815595595166087
1782987379753290800,3.059290771484375,-0.0014704486820846796,0.0008657765574753284,0.001154712401330471
1782987379763364600,3.069364501953125,-0.0014853624161332846,0.005527906119823456,0.0019653786439448595
1782987379773439700,3.079439697265625,0.0009079148294404149,0.0022005890496075153,0.0024777778889983892
1782987379783513600,3.089513671875,0.002248017583042383,0.003020842559635639,0.0025645969435572624
1782987379793587700,3.099587646484375,0.004486510064452887,-0.005131661891937256,0.005127616226673126
1782987379803662600,3.10966259765625,0.0016688854666426778,0.0011270325630903244,0.003593635279685259
1782987379813736700,3.11973681640625,-0.002579143038019538,0.0004120625089854002,0.002922879299148917
1782987379823810600,3.129810546875,-0.00110934441909194,0.0007476205937564373,0.003228077432140708
1782987379833885700,3.1398857421875,-0.0013971718726679683,0.00046452926471829414,0.00003386474782018922
1782987379843959600,3.14995947265625,-0.0017431164160370827,-0.0007658511167392135,-0.002199461916461587
1782987379854033700,3.16003369140625,-0.003736348357051611,-0.004674515686929226,-0.0022904733195900917
1782987379864108500,3.170108642578125,0.0001811617985367775,-0.006550712510943413,-0.002654527546837926
1782987379874182700,3.1801826171875,0.0007326597115024924,-0.003840972203761339,-0.00338880461640656
1782987379884257500,3.190257568359375,0.002908195834606886,-0.004680134356021881,-0.00449481513351202
1782987379894331600,3.20033154296875,-0.00022255361545830965,-0.005045907571911812,-0.005435530096292496
1782987379904405500,3.210405517578125,0.0014312693383544683,-0.003185955574735999,-0.002676228992640972
1782987379914480600,3.220480712890625,0.0028006876818835735,0.009381944313645363,0.005343786906450987
1782987379924554500,3.230554443359375,-0.0016523837111890316,0.006214646622538567,-0.002117857802659273
1782987379934628600,3.240628662109375,-0.006588429678231478,0.008998923003673553,-0.0019520111382007599
1782987379944703500,3.250703369140625,-0.004046708811074495,0.008909706026315689,-0.0026146057061851025
1782987379954777600,3.260777587890625,-0.0034539510961622,0.01141074113547802,0.005139505956321955
1782987379964852500,3.2708525390625,-0.004314418416470289,0.005353115499019623,-0.0017764574149623513
1782987379974926600,3.280926513671875,0.000011559226550161839,0.006003191694617271,0.0033914234954863787
1782987379985000700,3.291000732421875,0.002432106528431177,0.0002065554726868868,0.0018292131135240197
1782987379995075600,3.30107568359375,0.0020022112876176834,0.0021086442284286022,0.0036034630611538887
1782987380005149700,3.311149658203125,-0.0009493703255429864,0.0028234366327524185,0.0037874875124543905
1782987380015223800,3.321223876953125,0.001276724156923592,0.0028651603497564793,-0.00043476620339788496
1782987380025298700,3.331298583984375,-0.005374254193156958,0.0025242757983505726,0.0040278928354382515
1782987380035372800,3.341372802734375,-0.0018032619263976812,-0.0006331985350698233,-0.0005945980083197355
1782987380045447700,3.35144775390625,-0.0026064713019877672,0.002877380233258009,-0.0023967591114342213
1782987380055521800,3.361521728515625,0.0025887610390782356,-0.0020878156647086143,0.0017077205702662468
1782987380065595600,3.371595703125,0.0010342736495658755,-0.0000947057269513607,-0.0011666291393339634
1782987380075670800,3.3816708984375,0.0023766099475324154,0.0014456952922046185,0.000035281715099699795
1782987380085744600,3.39174462890625,0.004088755697011948,0.0014275859575718641,-0.002206034492701292
1782987380095818800,3.40181884765625,0.0012030574725940824,-0.00025896518491208553,-0.0036920523270964622
1782987380105893600,3.4118935546875,-0.0017653018003329635,-0.0009572460548952222,-0.003720814362168312
1782987380115967700,3.4219677734375,-0.002018875442445278,0.001063797390088439,-0.004049757495522499
1782987380126041600,3.43204150390625,-0.0005946170422248542,-0.0021911179646849632,-0.004344036802649498
1782987380136116700,3.44211669921875,0.0008440634701400995,-0.003985526505857706,-0.0037194828037172556
1782987380146190600,3.452190673828125,0.006918200757354498,-0.002480307826772332,-0.003098699962720275
1782987380156265700,3.462265625,0.0018868331098929048,-0.0064174639992415905,-0.0009164384100586176
1782987380166339600,3.472339599609375,0.0005256914300844073,-0.0033476382959634066,-0.0028727964963763952
1782987380176413400,3.482413330078125,-0.00043204164830967784,-0.0024828517343848944,-0.004243206698447466
1782987380186488600,3.492488525390625,0.0019408349180594087,0.00388476625084877,0.0024642308708280325
1782987380196562700,3.502562744140625,-0.003729365300387144,0.001090700738132,-0.001494739088229835
1782987380206636500,3.512636474609375,-0.00003236497286707163,0.0027993847616016865,0.002393209608271718
1782987380216711700,3.522711669921875,0.000025448855012655258,0.0024793860502541065,0.001662843395024538
1782987380226785500,3.53278564453125,-0.0010874861618503928,0.0023443633690476418,-0.0022453453857451677
1782987380236859600,3.542859619140625,0.0018967700889334083,0.0014915012288838625,-0.00022945291129872203
1782987380246934500,3.5529345703125,0.0047178566455841064,0.0002944101579487324,0.0008398062200285494
1782987380257008600,3.563008544921875,0.002395989838987589,-0.0016429807292297482,-0.0006379133556038141
1782987380267083500,3.57308349609375,0.001542713143862784,-0.0018110261298716068,-0.0013718805275857449
1782987380277157600,3.58315771484375,0.0006120203761383891,-0.0012314035557210445,-0.0011485873255878687
1782987380287231700,3.593231689453125,-0.0014039925299584866,0.0019374918192625046,0.0006085663917474449
1782987380297306600,3.603306640625,-0.0005696857115253806,0.0004853291902691126,0.00030661566415801644
1782987380307380700,3.613380615234375,-0.0026615988463163376,0.0011276835575699806,-0.0006164359510876238
1782987380317454600,3.62345458984375,-0.0009543484775349498,0.004594823345541954,0.0005976733518764377
1782987380327529700,3.63352978515625,-0.00201987917535007,0.0019271345809102058,0.00000964737955655437
1782987380337603600,3.643603515625,-0.00006753788329660892,0.0004617483355104923,0.003191986819729209
1782987380347678700,3.6536787109375,-0.00021268014097586274,0.001352841965854168,0.0009000704158097506
1782987380357752600,3.663752685546875,-0.001431628712452948,0.00034539587795734406,0.001153396675363183
1782987380367826700,3.67382666015625,0.0015069032087922096,-0.000294295372441411,-0.0008580888970755041
1782987380377901600,3.683901611328125,-0.0014195417752489448,-0.0004900083877146244,-0.003345188684761524
1782987380387975700,3.6939755859375,0.0008990062633529305,-0.002598166698589921,-0.0019504912197589874
1782987380398049500,3.704049560546875,0.0010437596356496215,-0.0003764400025829673,0.004435073584318161
1782987380408124700,3.714124755859375,0.0020847893320024014,-0.002118679927662015,0.00381855177693069
1782987380418198500,3.724198486328125,-0.002266388153657317,-0.0003229954745620489,0.0004887387622147799
1782987380428273700,3.734273681640625,0.000221270602196455,0.0005116392858326435,-0.0008186069317162037
1782987380438347500,3.744347412109375,0.000246632844209671,0.0025735176168382168,0.0036073196679353714
1782987380448421600,3.754421630859375,-0.00031396251870319247,0.0016747007612138987,0.0011239218292757869
1782987380458496500,3.76449658203125,-0.0025675701908767223,0.002672437112778425,0.0006239339709281921
1782987380468570600,3.774570556640625,-0.0010804610792547464,-0.00039232848212122917,0.0007696088287048042
1782987380478644700,3.784644775390625,0.001200578990392387,0.00037714559584856033,0.0015326832653954625
1782987380488720000,3.794719970703125,0.003252012189477682,-0.0012026414042338729,0.0014956652885302901
1782987380498794000,3.8047939453125,-0.00006927771028131247,-0.001765840919688344,-0.0023786495439708233
1782987380508868000,3.8148681640625,-0.00010576308704912663,-0.00020309793762862682,-0.0014047316508367658
1782987380518943000,3.82494287109375,0.0007954481989145279,0.0008314847946166992,0.0007380106253549457
1782987380529017000,3.83501708984375,-0.0015137788141146302,0.0032488363794982433,0.0009643794037401676
1782987380539092000,3.845092041015625,-0.0000552469864487648,0.0007160513196140528,-0.0011407029815018177
1782987380549166000,3.855166015625,0.00032878085039556026,-0.001612883061170578,-0.0007822414627298713
1782987380559240200,3.865240234375,-0.0016104490496218204,0.0022267699241638184,0.002531154081225395
1782987380569315000,3.875315185546875,-0.0003342622658237815,0.0019692424684762955,0.0014818686759099364
1782987380579389200,3.88538916015625,0.00037456885911524296,0.0000669166911393404,0.0013148626312613487
1782987380589463000,3.895463134765625,0.00005072855856269598,0.00006931368261575699,-0.0025232851039618254
1782987380599538200,3.9055380859375,0.0007120732916519046,-0.0005556120304390788,-0.0023977302480489016
1782987380609612000,3.915612060546875,-0.001458669314160943,0.00038075540214776993,-0.0008893157355487347
1782987380619687200,3.925687255859375,-0.0007191094919107854,0.000026555033400654793,0.0005543838487938046
1782987380629761000,3.935760986328125,-0.0011191163212060928,0.0012891595251858234,0.0005365406977944076
1782987380639835100,3.945835205078125,-0.00007650966290384531,0.0009472996462136507,0.00001359013003821019
1782987380649910000,3.955909912109375,-0.0007154019549489021,0.0032786307856440544,-0.0012362312991172075
1782987380659984100,3.965984130859375,0.00047304423060268164,-0.00058097077999264,-0.0008313273428939283
1782987380670058000,3.97605810546875,-0.0012207261752337217,0.002283525187522173,0.0012677762424573302
1782987380680133000,3.986133056640625,-0.0002744036610238254,-0.0015786192379891872,-0.0006055010599084198
1782987380690207000,3.99620703125,-0.00018598668975755572,0.0030065453611314297,0.002304002409800887
1782987380700281000,4.006281005859375,-0.000584763300139457,-0.0006595341255888343,-0.0007777977734804153
1782987380710356000,4.01635595703125,0.0005137906409800053,0.0007551370654255152,-0.0015128301456570625
1782987380720430000,4.02643017578125,0.0024616464506834745,-0.0014887230936437845,0.0016010740073397756
1782987380730505000,4.0365048828125,-0.00034718954702839255,-0.0013089596759527922,0.0025289193727076054
1782987380740579000,4.0465791015625,-0.0003657695488072932,-0.0006354473298415542,-0.0004599622334353626
1782987380750653000,4.05665283203125,0.0014260051539167762,-0.003003263846039772,-0.00032387470128014684
1782987380760728000,4.06672802734375,-0.0010404102504253387,0.0016650515608489513,-0.0003073118859902024
1782987380770802000,4.076802001953125,0.00016706704627722502,0.0009689014405012131,0.0021467909682542086
1782987380780876000,4.0868759765625,-0.0019693407230079174,-0.0002936157397925854,0.00132716482039541
1782987380790951000,4.096950927734375,0.0003385546151548624,0.0014012199826538563,0.0016022693598642945
1782987380801025000,4.10702490234375,-0.0030027497559785843,0.003597765229642391,-0.0020084702409803867
1782987380811100000,4.117099853515625,-0.0014908731682226062,0.00047574169002473354,0.001257630530744791
1782987380821174000,4.127174072265625,0.00041004992090165615,0.00012225238606333733,-0.0014950905460864305
1782987380831248100,4.137248046875,0.002217803616076708,-0.0006623149383813143,-0.0013590031303465366
1782987380841323300,4.1473232421875,0.0015736058121547103,-0.0004589393502101302,-0.0008626841590739787
1782987380851397000,4.157397216796875,0.0017019702354446054,-0.000627517350949347,-0.0008176767150871456
1782987380861471000,4.167470947265625,0.0015388611936941743,-0.0007352554239332676,-0.0003842772275675088
1782987380871546000,4.177546142578125,0.0003801198909059167,0.0018189824186265469,0.0016186862485483289
1782987380881620000,4.187619873046875,0.00040839100256562233,0.0001441484782844782,-0.0009821138810366392
1782987380891694000,4.197694091796875,-0.0006222522351890802,0.0010434978175908327,-0.000022310552594717592
1782987380901769000,4.20776904296875,0.0012299128575250506,-0.0005181768210604787,0.0003619990311563015
1782987380911843000,4.217843017578125,0.0017662736354395747,-0.001167189097031951,0.002644061576575041
1782987380921918000,4.22791796875,-0.0015795589424669743,-0.0005645441124215722,0.0012184449005872011
1782987380931992000,4.237991943359375,0.0014034477062523365,-0.0024924064055085182,-0.0018186239758506417
1782987380942066000,4.24806591796875,0.00010237307287752628,-0.0009961281903088093,-0.00014898294466547668
1782987380952141000,4.25814111328125,0.0020954827778041363,-0.0015268961433321238,0.00007818469748599455
1782987380962215000,4.26821484375,0.0016433597775176167,-0.0010372879914939404,0.002834676532074809
1782987380972289000,4.2782890625,-0.0009087474900297821,-0.00042396201752126217,-0.001397885149344802
1782987380982364000,4.288364013671875,-0.0009356460068374872,0.0024379314854741096,0.0008426667773164809
1782987380992438000,4.29843798828125,-0.0012413769727572799,-0.0016146005364134908,0.0021686546970158815
1782987381002513000,4.308512939453125,-0.00003033410757780075,0.0012498635333031416,-0.0010620345128700137
1782987381012587000,4.3185869140625,-0.00006042781751602888,0.003658692818135023,0.004307430703192949
1782987381022660900,4.328660888671875,-0.0030505843460559845,-0.0018678102642297745,-0.005849787965416908
1782987381032736000,4.338736083984375,0.000032291049137711525,0.000677905511111021,0.0023780479095876217
1782987381042809900,4.348809814453125,-0.0014149327762424946,0.00041431328281760216,-0.0009761519031599164
1782987381052884200,4.35888427734375,-0.0007028036052361131,-0.0003654601750895381,0.0026353609282523394
1782987381062958800,4.368958740234375,0.0001201132545247674,-0.0008195291738957167,-0.000784670643042773
1782987381073033200,4.379033203125,-0.0008817680063657463,-0.0018898536218330264,-0.0028089391998946667
1782987381083107800,4.38910791015625,-0.0002426495193503797,-0.004024734254926443,-0.002645232016220689
1782987381093182200,4.39918212890625,0.0003693448379635811,-0.000567152164876461,-0.004635412245988846
1782987381103256000,4.409256103515625,-0.001799329649657011,0.001188937807455659,0.00296073779463768
1782987381113331200,4.419331298828125,0.0012164338259026408,0.002103733830153942,-0.0022089905105531216
1782987381123405000,4.429405029296875,0.0014490693574771285,0.003819670993834734,0.0007362664327956736
1782987381133479200,4.439479248046875,0.001277828007005155,0.0023799659684300423,-0.0016169026494026184
1782987381143554000,4.449553955078125,0.002231427002698183,0.0016810884699225426,0.001260293647646904
1782987381153628200,4.459628173828125,0.002281494438648224,-0.0036407061852514744,-0.004009036812931299
1782987381163702000,4.469701904296875,0.0017724413191899657,-0.004220683593302965,-0.002968737855553627
1782987381173777200,4.479777099609375,0.0031660734675824642,0.0019218972884118557,0.0009042972233146429
1782987381183851000,4.48985107421875,-0.003616075497120619,-0.0022550637368112803,-0.002651090966537595
1782987381193926100,4.499926025390625,-0.000499378249514848,0.003122657537460327,0.0024632434360682964
1782987381204000000,4.51,-0.0003556515439413488,-0.0006807766621932387,-0.0037133165169507265
1782987381214074000,4.52007421875,0.0006907044444233179,0.0007008712273091078,-0.0012003578012809157
1782987381224149000,4.53014892578125,-0.0023403209634125233,0.002378543373197317,0.000761739443987608
1782987381234223000,4.54022314453125,-0.00013256026431918144,-0.00007129833102226257,0.0025692267809063196
1782987381244297000,4.550296875,-0.00032862945226952434,0.0036210254766047,0.0016409364761784673
1782987381254372000,4.5603720703125,0.0006554085994139314,-0.002683741971850395,0.0011663611512631178
1782987381264446000,4.570446044921875,0.0002880939282476902,0.0018694102764129639,0.00024089192447718233
1782987381274521000,4.58052099609375,0.00034055812284350395,-0.001180708291940391,0.00032824359368532896
1782987381284595000,4.590594970703125,0.00027531490195542574,-0.00014362111687660217,0.000060900139942532405
1782987381294668800,4.600668701171875,-0.0005428082076832652,-0.000048279762268066406,-0.00039689725963398814
1782987381304744000,4.610743896484375,0.002170686610043049,0.0010436160955578089,0.00009978229354601353
1782987381314818000,4.620818115234375,0.00019195792265236378,0.0005338871851563454,0.00012668021372519433
1782987381324892200,4.63089208984375,-0.0004978826618753374,-0.0003719722153618932,0.001101010711863637
1782987381334967000,4.640967041015625,-0.00140708580147475,-0.0003176437458023429,0.0005939449183642864
1782987381345041200,4.651041259765625,0.00015389511827379465,-0.0005522384308278561,-0.0013762357411906123
1782987381355115000,4.661114990234375,-0.0003252075402997434,-0.0025674523785710335,0.0011689472012221813
1782987381365190100,4.671190185546875,0.00035375438164919615,-0.0016043041832745075,-0.0013861937914043665
1782987381375264000,4.681263916015625,0.0006317883962765336,-0.0011920469114556909,-0.000813347811345011
1782987381385339100,4.691339111328125,0.0013281231513246894,-0.0010321097215637565,-0.002943463856354356
1782987381395413000,4.7014130859375,0.000732374144718051,0.0013913668226450682,-0.0021959145087748766
1782987381405487000,4.711487060546875,0.0013090105494484305,-0.001601494150236249,-0.003207932226359844
1782987381415562000,4.72156201171875,-0.00046279054367914796,0.0015176001470535994,0.0010099823120981455
1782987381425636000,4.731635986328125,-0.002516276203095913,-0.0012947783106938004,-0.0008362348307855427
1782987381435710000,4.7417099609375,0.0009700680384412408,-0.0027733654715120792,0.0018804558785632253
1782987381445785000,4.75178515625,0.000338143901899457,0.001844312995672226,0.000025342633307445794
1782987381455859000,4.76185888671875,-0.001060281996615231,-0.0003847527550533414,-0.001774954260326922
1782987381465934000,4.77193408203125,-0.002162524964660406,0.001986764371395111,-0.004763813689351082
1782987381476008000,4.782008056640625,-0.0019444120116531849,0.0003798126708716154,0.00029752383125014603
1782987381486081800,4.792081787109375,0.00023856316693127155,-0.0014019645750522614,0.00023160876298788935
1782987381496156700,4.80215673828125,-0.001146280555985868,0.000752266263589263,-0.0009774663485586643
1782987381506230800,4.812230712890625,-0.0016216153744608164,-0.0008474626811221242,-0.0009001931175589561
1782987381516304600,4.8223046875,-0.000006674439646303654,0.002210112288594246,0.003413595026358962
1782987381526379800,4.8323798828125,-0.0004654337535612285,-0.00024230428971350193,-0.0012271676678210497
1782987381536453600,4.84245361328125,-0.0010822218609973788,0.0016235064249485731,0.0014160196296870708
1782987381546527700,4.85252783203125,-0.0022040079347789288,0.0017615198157727718,-0.0009674584143795073
1782987381556602600,4.8626025390625,-0.000690533546730876,0.0018177125602960587,0.002731139538809657
1782987381566676700,4.8726767578125,-0.0012961557367816567,0.0011341054923832417,0.0006454118993133307
1782987381576751600,4.882751708984375,-0.00029826920945197344,0.0009908275678753853,0.0016899036709219217
1782987381586825700,4.89282568359375,0.0013838453451171517,-0.0009138659806922078,0.0006832123617641628
1782987381596899800,4.90289990234375,-0.00029767455998808146,-0.0031594433821737766,0.000782281975261867
1782987381606974700,4.912974609375,0.0017876004567369819,-0.0008620219305157661,0.0018557076109573245
1782987381617048800,4.923048828125,-0.00035704305628314614,0.00047994498163461685,-0.0020463562104851007
1782987381627123000,4.933123046875,-0.0005423992406576872,0.0009400798007845879,0.00039226521039381623
1782987381637197800,4.94319775390625,0.000874402467161417,0.0004479277413338423,-0.0019374680705368519
1782987381647272000,4.95327197265625,0.0018161990446969867,-0.00030065758619457483,0.0007978910580277443
1782987381657346800,4.963346923828125,0.0001836811425164342,0.0015385213773697615,0.0021137588191777468
1782987381667421000,4.9734208984375,-0.0012384054716676474,0.0011386026162654161,-0.0007487950497306883
1782987381677494800,4.983494873046875,-0.0007465195958502591,0.0014001249801367521,0.0016997152706608176
1782987381687570000,4.99356982421875,-0.001071552513167262,-0.00000510108657181263,-0.00033554498804733157
1782987381697643800,5.003643798828125,-0.0004446443635970354,0.0008074294310063124,0.0005419665831141174
1782987381707717600,5.013717529296875,-0.0005949698970653117,-0.00048079993575811386,0.0023833070881664753
1782987381717792800,5.023792724609375,0.0014612567611038685,-0.0015175684820860624,-0.0005866502178832889
1782987381727867000,5.033866943359375,0.00003467535134404898,0.0019774811808019876,0.001348522724583745
1782987381737940700,5.043940673828125,0.0000676985364407301,0.0027769620064646006,0.001384209142997861
1782987381748015900,5.054015869140625,0.0014808947453275323,-0.0012802162673324347,0.0004653149517253041
1782987381758089700,5.06408984375,0.0025032823905348778,0.0010670940391719341,-0.0017099549295380712
1782987381768164900,5.074164794921875,0.00023567676544189453,0.001992079196497798,0.0018457123078405857
1782987381778238700,5.08423876953125,-0.0008698013843968511,0.000653308117762208,-0.0008480750257149339
1782987381788312600,5.0943125,0.0022449346724897623,0.0014868979342281818,-0.002535707550123334
1782987381798387700,5.1043876953125,-0.0015599236357957125,-0.00009954697452485561,0.0003745949943549931
1782987381808461600,5.114461669921875,0.0022523701190948486,-0.001429439289495349,0.0024921679869294167
1782987381818535700,5.12453564453125,0.00014687480870634317,-0.00023394636809825897,-0.000017861115338746458
1782987381828610600,5.134610595703125,0.0007578254444524646,0.0015777118969708681,-0.0008597801206633449
1782987381838684700,5.1446845703125,-0.0010219650575891137,-0.0006375055527314544,-0.001976177329197526
1782987381848759800,5.154759765625,-0.00039321259828284383,-0.00194923160597682,-0.0020567411556839943
1782987381858833700,5.164833740234375,-0.0008811036823317409,0.0010457593016326427,-0.0025084130465984344
1782987381868907800,5.17490771484375,0.0010409795213490725,-0.0016226655570790172,0.0007561732782050967
1782987381878982700,5.184982666015625,0.0022199610248208046,-0.0015355802606791258,0.003366870107129216
1782987381889056800,5.195056884765625,0.0018823763821274042,-0.0013075280003249645,-0.0025170554872602224
1782987381899131000,5.205130859375,-0.0006132717826403677,0.0009247337002307177,-0.0012762887636199594
1782987381909205800,5.215205810546875,-0.00010976672638207674,0.00042839767411351204,-0.0007854221039451659
1782987381919279900,5.22527978515625,0.0013547054259106517,0.0013024471700191498,0.000927789427805692
1782987381929353700,5.235353759765625,-0.000060865539126098156,0.0006172433495521545,-0.0023513503838330507
1782987381939428900,5.245428955078125,0.0024851164780557156,-0.0009771912591531873,-0.0016283022705465555
1782987381949502700,5.255502685546875,0.000028633163310587406,-0.0006250811275094748,0.001525455736555159
1782987381959577900,5.265577880859375,-0.0004091905429959297,0.0005126211326569319,0.000419711199356243
1782987381969651700,5.275651611328125,-0.00027879851404577494,-0.001470130868256092,0.0007850708207115531
1782987381979725800,5.285725830078125,0.0007963195675984025,0.002305965404957533,0.0011842786334455013
1782987381989800700,5.29580078125,-0.00021003768779337406,0.0012270878069102764,-0.0012697774218395352
1782987381999874800,5.305874755859375,0.0014863958349451423,0.00042574270628392696,0.0005534226074814796
1782987382009948700,5.31594873046875,-0.00024151563411578536,0.0015192464925348759,0.0004455334274098277
1782987382020023800,5.32602392578125,-0.00019198085647076368,-0.00006293738260865211,0.00032995225046761334
1782987382030097700,5.33609765625,-0.00024192570708692074,-0.00047484179958701134,-0.00016790814697742462
1782987382040172800,5.3461728515625,-0.0003364679287187755,0.0003262369427829981,-0.001900560688227415
1782987382050246700,5.35624658203125,0.0014848270220682025,0.00004104152321815491,0.00212373910471797
1782987382060320800,5.36632080078125,0.0011495350627228618,0.0008578330744057894,-0.0016398403095081449
1782987382070395600,5.376395751953125,-0.0015786660369485617,-0.0015393801731988788,-0.0027638208121061325
1782987382080469800,5.3864697265625,-0.0008383071981370449,0.0011038072407245636,0.0017742057098075747
1782987382090543900,5.3965439453125,-0.00020313606364652514,-0.0017775787273421884,-0.00030756572959944606
1782987382100618800,5.40661865234375,-0.0009224558598361909,0.003546879393979907,-0.0003472468233667314
1782987382110692900,5.41669287109375,0.00197363318875432,0.0014689560048282146,-0.002716425573453307
1782987382120767000,5.42676708984375,-0.0023638573475182056,0.0003988977987319231,-0.0016231980407610536
1782987382130841900,5.436841796875,0.0023705116473138332,-0.0008597873384132981,-0.0025035033468157053
1782987382140916000,5.446916015625,-0.0016820203745737672,0.00079536740668118,-0.0007056033937260509
1782987382150990800,5.456990966796875,-0.0005022501572966576,-0.000717381713911891,-0.0018270756117999554
1782987382161065000,5.46706494140625,-0.000010896939784288406,-0.0001325514167547226,-0.0008451680769212544
1782987382171138800,5.477138916015625,-0.0016724588349461555,-0.0007990193553268909,-0.0006946883513592184
1782987382181214000,5.4872138671875,0.0005576722323894501,0.0008912889752537012,0.0004488729755394161
1782987382191287800,5.497287841796875,0.0003812640206888318,-0.0005411715246737003,-0.002620002254843712
1782987382201362000,5.50736181640625,-0.0008216857677325606,-0.0026416066102683544,0.0030109856743365526
1782987382211436800,5.517436767578125,-0.0006418258417397738,-0.0035107885487377644,-0.0009582086931914091
1782987382221511000,5.527510986328125,0.001892438274808228,0.00043947831727564335,-0.0012871089857071638
1782987382231584800,5.537584716796875,-0.0016903122887015343,-0.0005144659662619233,0.00008388624701183289
1782987382241660000,5.547659912109375,-0.0013272773940116167,0.00003608758561313152,0.0014917881926521659
1782987382251733800,5.557733642578125,-0.0009703129180707037,0.0015746732242405415,-0.0021798580419272184
1782987382261809000,5.567808837890625,-0.0008715096628293395,0.0012388487812131643,0.0001999426749534905
1782987382271882800,5.5778828125,0.0007416040170937777,-0.0009419750422239304,0.0014747112290933728
1782987382281956600,5.58795654296875,0.0009282917017117143,0.0011129199992865324,0.0008754999144002795
1782987382292031700,5.59803173828125,0.0017839912325143814,-0.0010168446460738778,-0.0028530701529234648
1782987382302105600,5.608105712890625,-0.0019023563945665956,-0.0004916692851111293,-0.0014008482685312629
1782987382312179700,5.6181796875,-0.0010720147984102368,-0.00022918451577425003,-0.0014995420351624489
1782987382322254600,5.628254638671875,0.0007735558319836855,0.0019394275732338428,-0.0026148739270865917
1782987382332328700,5.63832861328125,-0.0027461231220513582,0.002134110312908888,-0.002847901312634349
1782987382342403800,5.64840380859375,0.0004936123732477427,0.000321828993037343,-0.0017309715040028095
1782987382352477700,5.658477783203125,0.0003955377032980323,0.0012158211320638657,-0.0003227383131161332
1782987382362551800,5.6685517578125,-0.00005693326238542795,0.0009356567170470953,0.001156114973127842
1782987382372626700,5.678626708984375,-0.0008073424687609076,0.00018820399418473244,-0.00027826736913993955
1782987382382700800,5.68870068359375,0.0003878842107951641,0.002748034195974469,0.00006128566747065634
1782987382392775000,5.69877490234375,-0.0001430165721103549,0.0011564206797629595,-0.00022614806948695332
1782987382402849800,5.708849853515625,-0.0005741823697462678,0.00031539425253868103,0.0011371240252628922
1782987382412924000,5.718923828125,0.002540037501603365,-0.0011101298732683063,0.0010689544724300504
1782987382422997800,5.728997802734375,0.0004241561982780695,0.00003316509537398815,-0.000705509795807302
1782987382433073000,5.739072998046875,0.00043752556666731834,0.00016543222591280937,-0.0005702503258362412
1782987382443146800,5.749146728515625,0.0022905529476702213,0.0016983477398753166,-0.0016309873899444938
1782987382453222000,5.759221923828125,-0.0017307940870523453,0.0009358585812151432,-0.00181596539914608
1782987382463295700,5.769295654296875,0.00028655037749558687,-0.0009214299498125911,0.0005409321747720242
1782987382473369900,5.779369873046875,-0.00025997107150033116,0.000870788237079978,0.00006201822543516755
1782987382483444700,5.78944482421875,0.0012473780661821365,0.0018183407373726368,-0.002693820744752884
1782987382493518600,5.7995185546875,-0.0009930357336997986,-0.0005067958263680339,-0.0026825792156159878
1782987382503592400,5.809592529296875,0.0014738504542037845,0.001176321879029274,0.00007112919411156327
1782987382513667600,5.81966748046875,0.0004566970746964216,0.0015580409672111273,0.002442214172333479
1782987382523741400,5.829741455078125,-0.0000852562952786684,0.0015790800098329782,-0.0036740016657859087
1782987382533816600,5.839816650390625,0.0007830752292647958,-0.0023445556871593,0.0009831063216552138
1782987382543890400,5.849890380859375,-0.0011594344396144152,0.0006959752645343542,0.0015961660537868738
1782987382553964500,5.859964599609375,-0.00030848017195239663,-0.00007567135617136955,-0.0020353011786937714
1782987382564039400,5.870039306640625,0.001835364499129355,0.0006055652629584074,0.0005013596965000033
1782987382574113500,5.880113525390625,-0.0003644199459813535,0.000677499221637845,-0.0010588630102574825
1782987382584187400,5.8901875,0.000190316466614604,-0.0003816400421783328,0.00009481835877522826
1782987382594262500,5.900262451171875,-0.00007382850162684917,0.0006000117864459753,0.0008946770103648305
1782987382604336400,5.91033642578125,0.00034348887857049704,-0.0005968126934021711,0.0013239786494523287
1782987382614410800,5.92041064453125,-0.0004389607347548008,-0.00108813657425344,-0.0008646233472973108
1782987382624485400,5.9304853515625,-0.00007304234895855188,-0.00014218175783753395,-6.939153536222875e-7
1782987382634559700,5.940559814453125,-0.0009606881067156792,0.0022125078830868006,-0.0006078609148971736
1782987382644634400,5.95063427734375,0.002512606792151928,-0.001822713646106422,-0.000003855981049127877
1782987382654708700,5.960708740234375,0.0011839900398626924,0.0008017111103981733,-0.0005402048700489104
1782987382664782600,5.970782470703125,0.0018218172481283545,0.0007726827170699835,-0.0005828154389746487
1782987382674856400,5.9808564453125,0.0006185913225635886,0.0032891128212213516,-0.00203555915504694
1782987382684930600,5.9909306640625,-0.0013745183823630214,0.0004560421220958233,-0.0015543259214609861
1782987382695005400,6.00100537109375,-0.0005820613005198538,-0.0005548611516132951,-0.00046046689385548234
1782987382705079600,6.01107958984375,0.0019000048050656915,0.0006275824271142483,-0.00266343355178833
1782987382715154400,6.021154541015625,-0.001425079652108252,0.0005746346432715654,-0.00371610838919878
1782987382725228500,6.031228515625,0.00008546526078134775,0.002364545362070203,0.0001843573700170964
1782987382735302400,6.041302490234375,0.00012017390690743923,-0.0021816773805767298,-0.0020955975633114576
1782987382745377500,6.05137744140625,-0.0016614808700978756,0.00019652536138892174,0.0026504218112677336
1782987382755451400,6.061451416015625,0.00010721874423325062,-0.0014040542300790548,0.0010604752460494637
1782987382765525500,6.071525390625,0.0010390587849542499,-0.00032014772295951843,0.0008831087034195662
1782987382775600400,6.081600341796875,-0.002721160650253296,0.0011361041106283665,0.0015140912728384137
1782987382785674500,6.091674560546875,-0.0007773194811306894,0.0008096005767583847,-0.0009671759326010942
1782987382795748400,6.101748291015625,-0.0017223998438566923,0.001396609703078866,0.0014567860634997487
1782987382805823500,6.111823486328125,0.0011988214682787657,0.0012373526114970446,-0.0003850561042781919
1782987382815897300,6.1218974609375,-0.0014268209924921393,0.0005115438252687454,0.0014118653489276767
1782987382825972500,6.131972412109375,-0.00011707830708473921,0.002078547840937972,0.002169268438592553
1782987382836046300,6.14204638671875,0.0005379858193919063,0.00020812125876545906,0.002403931925073266
1782987382846120700,6.15212060546875,0.0019425369100645185,0.0008017397485673428,-0.00020676486019510776
1782987382856195300,6.1621953125,0.0008121618302538991,0.0019131344743072987,0.0007063216180540621
1782987382866269700,6.172269775390625,0.0006403879960998893,-0.000376917771063745,0.003617955604568124
1782987382876343600,6.182343505859375,-0.000945246429182589,0.00038970052264630795,0.00047900713980197906
1782987382886418700,6.192418701171875,0.0007493229350075126,0.0011561582796275616,-0.0011886642314493656
1782987382896492500,6.202492431640625,-0.0015586328227072954,-0.001007445272989571,-0.0021804990246891975
1782987382906567700,6.212567626953125,0.0014187813503667712,-0.0007062418153509498,-0.0009735542698763311
1782987382916641500,6.2226416015625,0.0003135752631351352,-0.001971045508980751,0.00007168993761297315
1782987382926715600,6.232715576171875,-0.0001173241762444377,-0.0005662280600517988,0.00015850899217184633
1782987382936790500,6.24279052734375,-0.0016846805810928345,0.00017899437807500362,0.00009232555021299049
1782987382946864600,6.25286474609375,-0.002709997585043311,0.0013614378403872252,0.0008768928237259388
1782987382956938500,6.2629384765625,-0.0005873327027074993,-0.002977688331156969,0.0018680593930184841
1782987382967013600,6.273013671875,-0.001764449873007834,-0.003827236592769623,-0.00042465594015084207
1782987382977087500,6.28308740234375,-0.002585512585937977,0.00030421814881265163,-0.0006774951471015811
1782987382987161600,6.29316162109375,-0.004169560968875885,-0.0002726225648075342,-0.0025494310539215803
1782987382997236500,6.303236572265625,-0.00023069139569997787,-0.000617002253420651,0.00012071402306901291
1782987383007310600,6.313310546875,0.00034748087637126446,0.0002008546143770218,0.0007265831809490919
1782987383017385500,6.323385498046875,-0.0017002251697704196,-0.0035411107819527388,-0.0026193854864686728
1782987383027459600,6.33345947265625,-0.0037146401591598988,-0.003957362845540047,0.0011937286471948028
1782987383037534500,6.343534423828125,-0.001512222341261804,-0.0033813570626080036,-0.0011247284710407257
1782987383047609600,6.353609619140625,0.001963469199836254,-0.0009299173252657056,-0.0008775870082899928
1782987383057683500,6.363683349609375,0.000004035537131130695,0.001497676596045494,0.001527043990790844
1782987383067757600,6.373757568359375,0.002694627270102501,0.0009714360348880291,0.0005275597213767469
1782987383077832400,6.38383251953125,0.0019134946633130312,0.005221382714807987,0.0014676337596029043
1782987383087906600,6.393906494140625,0.003965194337069988,0.0032082994002848864,0.00048599252477288246
1782987383097980400,6.40398046875,0.0024549560621380806,0.004975973628461361,0.00007892159919720143
1782987383108055600,6.4140556640625,0.002979865064844489,-0.0014113513752818108,-0.0009802175918594003
1782987383118129400,6.42412939453125,0.0003798622637987137,0.00005726516246795654,0.002884408924728632
1782987383128204500,6.43420458984375,-0.0010419994359835982,-0.0004213049542158842,-0.0008123249281197786
1782987383138278400,6.4442783203125,-0.0009360896656289697,-0.0016082131769508123,-0.0000412146036978811
1782987383148352500,6.4543525390625,0.00028390437364578247,-0.002458027796819806,0.00017103934078477323
1782987383158427400,6.464427490234375,0.00023179047275334597,0.00020979344844818115,0.0012681855587288737
1782987383168501500,6.47450146484375,0.001799859805032611,-0.0010102007072418928,-0.0013891166308894753
1782987383178575600,6.48457568359375,0.0002115479437634349,0.0000714627094566822,-0.0009227887494489551
1782987383188650500,6.494650390625,0.0011670900275930762,-0.0000012416858226060867,0.0004924150416627526
1782987383198724600,6.504724609375,-0.00048355921171605587,0.0012908303178846836,-0.00023924819834064692
1782987383208798500,6.514798583984375,0.00003469199873507023,-0.001370466547086835,0.0015269602881744504
1782987383218873600,6.52487353515625,-0.0004818144952878356,0.00016160611994564533,0.0013885783264413476
1782987383228947700,6.53494775390625,-0.0012602565111592412,-0.0003228229470551014,0.0024538428988307714
1782987383239022600,6.545022705078125,-0.0005632654065266252,0.0013703324366360903,0.0009554849821142852
1782987383249096700,6.5550966796875,0.0006886866176500916,0.00017297524027526379,-0.00010338787251384929
1782987383259170600,6.565170654296875,0.001015517394989729,-0.0007212965283542871,0.0006315927603282034
1782987383269245700,6.57524560546875,0.0025252634659409523,-0.0009921400342136621,0.0023040578234940767
1782987383279319600,6.585319580078125,-0.0025814506225287914,0.002204543212428689,0.00023635418619960546
1782987383289393400,6.595393310546875,0.00018397578969597816,0.0009627111721783876,0.002551972633227706
1782987383299468500,6.605468505859375,0.0006775216897949576,0.0005894287023693323,-0.0011113142827525735
1782987383309542400,6.61554248046875,0.0007875103037804365,-0.00037809787318110466,-0.0005049125757068396
1782987383319617500,6.625617431640625,0.00005993456579744816,0.0008758592884987593,0.0013783560134470463
1782987383329691400,6.63569140625,-0.0004886765382252634,0.0012345872819423676,0.00029365046066232026
1782987383339765500,6.645765625,0.00040585885290056467,-0.00020653544925153255,-0.002053693635389209
1782987383349840600,6.655840576171875,0.000472704297862947,0.0010728472843766212,-0.00044487809645943344
1782987383359914500,6.66591455078125,-0.000321410596370697,0.0016082469373941422,-0.00039560586446896195
1782987383369988400,6.67598828125,0.0008136285468935966,-0.0003622259246185422,-0.00006697177741443738
1782987383380063500,6.6860634765625,0.00021140638273209333,-0.001121494802646339,-0.0025438060984015465
1782987383390137300,6.696137451171875,0.0004939676728099585,-0.00008153030648827553,0.0013255004305392504
1782987383400211500,6.70621142578125,0.0008721575140953064,-0.0019086915999650955,-0.0011330810375511646
1782987383410286300,6.716286376953125,-0.00026368058752268553,0.0000098496675491333,-0.0024502805899828672
1782987383420360400,6.7263603515625,-0.002013684483245015,-0.001171636744402349,0.0002886158472392708
1782987383430435300,6.736435302734375,-0.0009430937934666872,0.0001783196348696947,-0.00012097833678126335
1782987383440509400,6.746509521484375,-0.0011201741872355342,-0.0021836154628545046,0.0005497579695656896
1782987383450583600,6.75658349609375,0.00041753496043384075,-0.0003574858419597149,-0.0010987387504428625
1782987383460658400,6.766658447265625,-0.00169326551258564,0.000977970426902175,0.0002845084818545729
1782987383470732500,6.776732666015625,-0.0014397324994206429,-0.0007200611289590597,0.000488506630063057
1782987383480806700,6.786806640625,-0.00007152464240789413,0.00225905142724514,-0.0003602494252845645
1782987383490881500,6.796881591796875,0.0008177049458026886,0.0013887304812669754,0.0011518934043124318
1782987383500955400,6.806955322265625,-0.00031458947341889143,-0.000004594679921865463,-0.00005773128941655159
1782987383511030500,6.817030517578125,0.0004952778108417988,-0.0008157935226336122,-0.0007256520912051201
1782987383521104400,6.8271044921875,-0.0004894754965789616,0.0018320211675018072,-0.004633539821952581
1782987383531178500,6.837178466796875,0.001413086662068963,-0.00004444224759936333,0.0005359221249818802
1782987383541253400,6.84725341796875,-0.00007783446926623583,0.002772918436676264,0.002735758665949106
1782987383551327500,6.857327392578125,-0.0014528245665133,0.0004999102093279362,0.0009503754554316401
1782987383561401300,6.8674013671875,0.0012046019546687603,-0.00020286324433982372,0.002210218459367752
1782987383571476500,6.8774765625,0.0011870248708873987,0.0003329648170620203,0.003777754958719015
1782987383581550300,6.88755029296875,-0.002935613039880991,-0.0017428240971639752,-0.0004033756849821657
1782987383591624400,6.89762451171875,-0.00008017162326723337,-0.002352687995880842,0.0011838683858513832
1782987383601699300,6.90769921875,0.0003896099515259266,-0.0016732392832636833,-0.00021492810628842562
1782987383611773400,6.9177734375,0.0008503368590027094,-0.0008199624717235565,0.0014556729001924396
1782987383621848300,6.927848388671875,0.0000685590784996748,-0.0024322466924786568,0.0017669439548626542
1782987383631922400,6.93792236328125,-0.0015378596726804972,0.0015387928579002619,-0.0019761286675930023
1782987383641996300,6.947996337890625,-0.001611407846212387,0.003400019370019436,0.00040740089025348425
1782987383652071400,6.958071533203125,0.0005079356487840414,-0.002225642092525959,-0.0006195140304043889
1782987383662145300,6.968145263671875,-0.0004912991425953805,-0.0006258027860894799,0.0005543231964111328
1782987383672219400,6.978219482421875,-0.00026732729747891426,-0.0009112936677411199,0.002336776815354824
1782987383682294300,6.988294189453125,-0.0013702556025236845,0.00006571877747774124,-0.000133876979816705
1782987383692368400,6.998368408203125,0.00025267479941248894,-0.002466681180521846,-0.00012588751269504428
1782987383702443300,7.008443359375,-0.00037446024361997843,-0.0019874880090355873,-0.0026567955501377583
1782987383712517400,7.018517333984375,-0.000530787801835686,0.0006117571610957384,0.0010162360267713666
1782987383722591500,7.028591552734375,-0.0015823272988200188,-0.004233335144817829,-0.001858309842646122
1782987383732666400,7.038666259765625,0.0013303719460964203,-0.000795993022620678,0.0005033813649788499
1782987383742740500,7.048740478515625,0.0010513814631849527,0.0015973495319485664,-0.0007584064733237028
1782987383752814600,7.058814697265625,0.002135021612048149,0.00390551146119833,0.004109585657715797
1782987383762889500,7.068889404296875,0.003939381800591946,0.00948869064450264,0.004254066850990057
1782987383772963600,7.078963623046875,-0.0010913294972851872,-0.00129231798928231,0.0015064835315570235
1782987383783037400,7.089037353515625,-0.0002859262749552727,0.0035417687613517046,-0.00018686024122871459
1782987383793112600,7.099112548828125,0.001525555970147252,-0.003862085286527872,-0.0012316183419898152
1782987383803186400,7.1091865234375,-0.002015539910644293,0.0017689317464828491,0.00009501532622380182
1782987383813261600,7.119261474609375,-0.0005265664658509195,-0.0026809440460056067,-0.004371372051537037
1782987383823335400,7.12933544921875,0.0014865250559523702,0.0007646225858479738,0.0016007822705432773
1782987383833409500,7.139409423828125,0.0011869195150211453,-0.0011640386655926704,-0.003468811046332121
1782987383843484400,7.149484375,-0.0034552235156297684,0.0010793132241815329,0.001534238806925714
1782987383853558500,7.15955859375,-0.002515926491469145,7.329508662223816e-7,0.0005552609218284488
1782987383863632400,7.16963232421875,0.0017118689138442278,-0.002531318226829171,-0.0017497725784778595
1782987383873707500,7.17970751953125,0.0010426165536046028,-0.0008950720075517893,-0.0015396492090076208
1782987383883781400,7.189781494140625,0.0002197677968069911,0.0008955171797424555,-0.0022690745536237955
1782987383893856500,7.1998564453125,-0.0001773095573298633,0.0012545112986117601,0.00018156626902054995
1782987383903930400,7.209930419921875,0.000888715498149395,-0.0006033527897670865,-0.001691538142040372
1782987383914004200,7.220004150390625,-0.0008814877364784479,0.0016528770793229342,0.0027394292410463095
1782987383924079400,7.230079345703125,-0.0007730061770416796,-0.0012447298504412174,-0.0016621674876660109
1782987383934153500,7.240153564453125,0.0014672448160126805,0.0012898005079478025,0.0006558478344231844
1782987383944227600,7.2502275390625,-0.001050101825967431,-0.0013148660073056817,0.001502452534623444
1782987383954302500,7.260302490234375,-0.0005717980675399303,0.0021041003055870533,0.0018225645180791616
1782987383964376600,7.27037646484375,-0.00012394890654832125,0.003453470766544342,-0.0011362124932929873
1782987383974450400,7.280450439453125,-0.0014733726857230067,-0.0011141165159642696,-0.00045577489072456956
1782987383984525600,7.290525634765625,0.0007797643775120378,0.0002892992924898863,-0.0008473108755424619
1782987383994599400,7.300599365234375,0.0013603335246443748,0.0008568188641220331,-0.00011920266115339473
1782987384004674600,7.310674560546875,-0.0009976908331736922,0.0023269515950232744,-0.00013378137373365462
1782987384014748400,7.32074853515625,0.002477201633155346,0.0003620712086558342,0.0005192257231101394
1782987384024822500,7.330822509765625,-0.002304579596966505,0.002523148665204644,-0.0006292966427281499
1782987384034897400,7.3408974609375,0.0012475447729229927,0.0011343101505190134,-0.0003688395081553608
1782987384044971500,7.350971435546875,0.0007562108803540468,0.0010775048285722733,-0.0006938096485100687
1782987384055045400,7.36104541015625,0.0036332234740257263,0.0020841797813773155,0.0005104717565700412
1782987384065120500,7.37112060546875,-0.00006564927753061056,-0.0002750025596469641,-0.000053733943786937743
1782987384075194400,7.3811943359375,0.00006324774585664272,-0.000174068845808506,-0.0009621381759643555
1782987384085269500,7.39126953125,0.00077679508831352,-0.0002218368463218212,-0.0006726306164637208
1782987384095343400,7.40134326171875,-0.000041328021325170994,-0.001235968666151166,0.0004389728419482708
1782987384105417500,7.41141748046875,0.0023316529113799334,0.0020850414875894785,0.0011141179129481316
1782987384115492400,7.421492431640625,-0.00003509828820824623,0.000626161927357316,-0.001511758891865611
1782987384125566500,7.43156640625,-0.001274168025702238,0.00023932009935379028,0.0017188662895932794
1782987384135640300,7.441640380859375,-0.0009071844397112727,-0.001605984172783792,-0.00013522649533115327
1782987384145715500,7.451715576171875,0.00022379809524863958,0.0020990236662328243,0.0011167752090841532
1782987384155789300,7.461789306640625,-0.000046246335841715336,0.0008401472587138414,0.00005816873817821033
1782987384165863400,7.471863525390625,-0.0000996873714029789,-0.0015058594290167093,0.0013573208125308156
1782987384175938300,7.481938232421875,-0.00046480674063786864,0.00023664673790335655,-0.0014603035524487495
1782987384186012400,7.492012451171875,0.0016635708743706346,-0.0014707177178934216,0.0015367668820545077
1782987384196087300,7.50208740234375,0.0016353413229808211,-0.0013700502458959818,-0.001511487178504467
1782987384206161400,7.512161376953125,0.0012585847871378064,-0.0004896458704024553,-0.0018796294461935759
1782987384216235500,7.522235595703125,0.0009043844183906913,0.00033859722316265106,0.00010921922512352467
1782987384226310400,7.532310302734375,-0.0001906034303829074,-0.00011471705511212349,-0.0003136663872282952
1782987384236384500,7.542384521484375,-0.00007528858259320259,-0.0002100581768900156,0.0015931569505482912
1782987384246458600,7.552458740234375,0.00022793759126216173,-0.0023399528581649065,-0.0004856901941820979
1782987384256533500,7.562533447265625,-0.0016509225824847817,-0.0017937385709956288,0.0023564351722598076
1782987384266607600,7.572607666015625,0.00022700533736497164,0.0008871653117239475,0.0007459204643964767
1782987384276682500,7.5826826171875,-0.0003205405664630234,-0.0007362976903095841,0.00023512617917731404
1782987384286756600,7.592756591796875,0.0008132823277264833,-0.00022420077584683895,0.002193247666582465
1782987384296830500,7.60283056640625,-0.0008306870004162192,0.0009494542609900236,-0.0019397122086957097
1782987384306905600,7.612905517578125,0.0013784361071884632,-0.0027797429356724024,0.0027121822349727154
1782987384316979500,7.6229794921875,0.00017894827760756016,-0.00047344539780169725,-0.002876461250707507
1782987384327053600,7.633053466796875,0.0004853591090068221,0.0011726145166903734,-0.00028553290758281946
1782987384337128400,7.64312841796875,0.0013282495783641934,-0.0015592561103403568,0.00009769598545972258
1782987384347202600,7.65320263671875,0.0014024495612829924,0.0006690630689263344,-0.0006551459664478898
1782987384357276400,7.6632763671875,0.0009140258189290762,0.0010698686819523573,0.0006298292428255081
1782987384367351600,7.6733515625,-0.0015813057543709874,0.00123306130990386,0.0003415060054976493
1782987384377425400,7.68342529296875,0.000490367179736495,0.001133991638198495,-0.0006851425860077143
1782987384387500500,7.69350048828125,-0.0010712894145399332,-0.001226990483701229,0.0005736398161388934
1782987384397574400,7.703574462890625,-0.00021082209423184395,-0.0008919648826122284,0.0021984344348311424
1782987384407648300,7.713648193359375,-0.00027034495724365115,-0.0006604606751352549,0.0004120331723242998
1782987384417723400,7.723723388671875,-0.0005798042984679341,0.0010394349228590727,0.0002248129458166659
1782987384427797500,7.733797607421875,0.00029338907916098833,0.00142342085018754,0.001685034716501832
1782987384437871400,7.743871337890625,0.00042601453606039286,0.0010604318231344223,0.0007305577746592462
1782987384447946500,7.753946533203125,0.0011988612823188305,0.000254280399531126,-0.00019656405493151397
1782987384458020400,7.764020263671875,0.002181567717343569,0.00017491821199655533,0.0010364794870838523
1782987384468095500,7.774095458984375,0.0019388836808502674,0.0000833156518638134,-0.002198306145146489
1782987384478169300,7.78416943359375,-0.0026492103934288025,0.0004276623949408531,0.0007562047685496509
1782987384488243500,7.794243408203125,0.0008235586574301124,-0.0008370302384719253,0.0006948111113160849
1782987384498318600,7.804318603515625,-0.0029485425911843777,0.0006072020623832941,0.0005778983468189836
1782987384508392400,7.814392333984375,-0.0009216141188517213,-0.0008180368458852172,-0.0015318775549530983
1782987384518466800,7.824466796875,0.00025497039314359426,0.0013889246620237827,-0.0019124433165416121
1782987384528541400,7.83454150390625,-0.0012228140840306878,-0.0022773039527237415,-0.000543308793567121
1782987384538615800,7.84461572265625,-0.0011708824895322323,0.00044204993173480034,-0.0028474756982177496
1782987384548689700,7.854689697265625,0.0006203355733305216,-0.00041733006946742535,-0.0021157092414796352
1782987384558764800,7.864764892578125,0.0004901069914922118,-0.0022477207239717245,0.0007301446748897433
1782987384568838700,7.874838623046875,0.00018940074369311333,-0.00158392870798707,0.0006666539120487869
1782987384578913800,7.884913818359375,-0.00037971680285409093,-0.001672611921094358,-0.00025985980755649507
1782987384588987600,7.894987548828125,0.0011233245022594929,0.00009832112118601799,-0.002101910999044776
1782987384599061800,7.905061767578125,0.0008796451147645712,-0.0006771913031116128,0.0002925369481090456
1782987384609136600,7.91513671875,0.000031977659091353416,0.002424330450594425,-0.0033932693768292665
1782987384619210800,7.925210693359375,-0.002015993231907487,-0.0026050491724163294,-0.00021851515339221805
1782987384629284600,7.93528466796875,-0.0011928892927244306,-0.0010548591380938888,-0.0010195743525400758
1782987384639359700,7.94535986328125,0.00015387125313282013,-0.0010753654642030597,0.00040228740544989705
1782987384649433600,7.95543359375,-0.000166048645041883,0.0021507353521883488,-0.00041638960829004645
1782987384659508700,7.9655087890625,-0.0020893835462629795,-0.0015976640861481428,-0.0010113398311659694
1782987384669582600,7.97558251953125,-0.0007414513966068625,-0.0001718814019113779,0.0014909848105162382
1782987384679656700,7.98565673828125,0.00017307803500443697,-0.001008380320854485,0.0010827223304659128
1782987384689731600,7.995731689453125,0.0007295930990949273,-0.000006312038749456406,0.002423597266897559
1782987384699805700,8.0058056640625,0.00023770728148519993,-0.0016188559820875525,-0.0014044304843991995
1782987384709879600,8.015879638671874,0.00037211610469967127,-0.0015026398468762636,-0.0001222703722305596
1782987384719954700,8.02595458984375,0.0001995433121919632,-0.0007585525745525956,-0.0009110986720770597
1782987384730028500,8.036028564453124,0.0009757699444890022,-0.0005605173064395785,0.00018066467600874603
1782987384740102700,8.0461025390625,0.0010085268877446651,0.0025577780324965715,0.0018318245420232415
1782987384750177500,8.056177490234376,-0.002550840610638261,0.0006246974226087332,0.0016246403101831675
1782987384760251600,8.066251708984375,0.002095842733979225,0.001602343749254942,0.0024643349461257458
1782987384770326500,8.076326416015625,-0.0004273286904208362,-0.0004890384152531624,0.0005949587794020772
1782987384780400600,8.086400634765624,-0.001333602354861796,0.002936585573479533,-0.00217499490827322
1782987384790474800,8.096474853515625,-0.0006244073156267405,0.0003267633728682995,0.001040202914737165
1782987384800549600,8.106549560546876,-0.0005820631049573421,0.0016231902409344912,-0.00122348393779248
1782987384810623700,8.116623779296875,0.003125323448330164,0.0004077234771102667,0.0024367645382881165
1782987384820697600,8.126697509765625,-0.000031650764867663383,0.0003346719313412905,-0.0010968947317451239
1782987384830772700,8.136772705078124,-0.00202949158847332,0.00036582909524440765,-0.0002039526734733954
1782987384840846600,8.1468466796875,0.0006187557009980083,0.000390330096706748,-0.000718209077604115
1782987384850921700,8.156921630859374,0.0025398372672498226,-0.0014197612181305885,0.002287768991664052
1782987384860995800,8.166995849609375,-0.0024783574044704437,0.0003738778177648783,0.00111011927947402
1782987384871069700,8.177069580078125,0.001363334129564464,-0.00027741212397813797,-0.00034704222343862057
1782987384881144800,8.187144775390625,0.0023676124401390553,-0.0027818488888442516,-0.0015694332541897893
1782987384891218700,8.19721875,-0.0016152795869857073,0.0023761417251080275,-0.002353532239794731
1782987384901292500,8.20729248046875,-0.0004682561266236007,0.0013095454778522253,0.00026701836031861603
1782987384911367700,8.21736767578125,-0.0011011973256245255,-0.0015546111389994621,0.0026198825798928738
1782987384921441500,8.227441650390626,-0.0015587283996865153,0.003034281777217984,-0.00031119256163947284
1782987384931515600,8.237515625,-0.002290843753144145,0.0018990407697856426,-0.0006397576653398573
1782987384941590500,8.247590576171875,-0.0009944170014932752,-0.0000312186311930418,-0.0023343272041529417
1782987384951664600,8.25766455078125,-0.0008515751687809825,0.0007198841776698828,0.0012241457588970661
1782987384961739500,8.267739501953125,-0.00043958419701084495,-0.0010769505752250552,0.0016001840122044086
1782987384971813600,8.277813720703126,-0.000012681237421929836,-0.0011625161860138178,-0.00019719009287655354
1782987384981887500,8.287887451171875,-0.00026674679247662425,0.0015302060637623072,-0.0007276917458511889
1782987384991962600,8.297962646484375,-0.001560764852911234,-0.0009840227430686355,-0.0022957143373787403
1782987385002036500,8.308036376953124,-0.0002837791107594967,-0.0010740376310423017,-0.0009287135908380151
1782987385012110600,8.318110595703125,0.000004743342287838459,-0.0016075163148343563,0.00036666024243459105
1782987385022185500,8.328185546875,-0.00003706838469952345,0.00015895836986601353,-0.001948159420862794
1782987385032259600,8.338259521484375,-0.0009361929260194302,0.0015549154486507177,-0.001383800059556961
1782987385042334500,8.34833447265625,0.00002840394154191017,0.0004457088652998209,0.00041090414742939174
1782987385052408600,8.35840869140625,-0.00006046309135854244,0.0006773138884454966,0.0019411519169807434
1782987385062482700,8.368482666015625,0.0011440846137702465,-0.002240978181362152,-0.0015388007741421461
1782987385072557600,8.3785576171875,0.000305238994769752,-0.001232512528076768,-0.00048087595496326685
1782987385082631700,8.388631591796875,0.0011521242558956146,-0.0011361060896888375,-0.0025687941815704107
1782987385092705800,8.398705810546875,0.00043348956387490034,-0.00043446803465485573,0.0026503719855099916
1782987385102780700,8.40878076171875,0.002053224015980959,-0.0016302273143082857,-0.0009608744876459241
1782987385112854800,8.418854736328125,0.0015251210425049067,0.0013998185750097036,-0.00006889658106956631
1782987385122928600,8.4289287109375,-0.00014255050336942077,0.0013843721244484186,-0.00041777067235670984
1782987385133003800,8.439003662109375,0.0015504441689699888,0.001209550304338336,0.0018098625587299466
1782987385143077600,8.44907763671875,-0.0003928644582629204,-0.0005063243443146348,-0.001321748597547412
1782987385153152800,8.45915283203125,-0.0013934590388089418,0.0008136634714901447,0.0004076304903719574
1782987385163226600,8.4692265625,-0.0003356514498591423,0.0003739756066352129,-0.000642453960608691
1782987385173300700,8.47930078125,-0.002539512701332569,0.001977832056581974,0.0005193191464059055
1782987385183375600,8.489375732421875,-0.0008018000517040491,0.0008182916790246964,-0.0011406291741877794
1782987385193449700,8.49944970703125,-0.00015660468488931656,0.0018720049411058426,0.0003137307649012655
1782987385203523600,8.509523681640625,0.002031714655458927,-0.0012625354574993253,-0.00027429519104771316
1782987385213598700,8.5195986328125,0.0020451457239687443,-0.0024888243060559034,0.001528805703856051
1782987385223672600,8.529672607421874,0.000987338018603623,0.0005407875869423151,-0.00011782669753301889
1782987385233747700,8.539747802734375,-0.0011482702102512121,0.000742064556106925,0.0016253367066383362
1782987385243821600,8.549821533203126,0.00023257883731275797,-0.0010124258697032928,0.001190975192002952
1782987385253895700,8.559895751953125,-0.0002705011866055429,0.0009617980103939772,-0.0015982654877007008
1782987385263970600,8.569970458984375,0.0008994253585115075,-0.0003969467943534255,0.0004262695729266852
1782987385274044700,8.580044677734374,-0.0005795388133265078,-0.0009898410644382238,-0.0008613556856289506
1782987385284118500,8.590118408203125,-0.0012029848294332623,-0.00176375568844378,0.0010699687991291285
1782987385294193700,8.600193603515624,-0.0008320915512740612,-0.002295330399647355,-0.0010466288076713681
1782987385304267500,8.610267578125,-0.0007484682719223201,0.0008397428318858147,0.00008361679647350684
1782987385314341600,8.620341552734375,0.001818436081521213,0.00033028912730515003,0.002200425136834383
1782987385324416500,8.63041650390625,-0.00037254655035212636,-0.0004920950159430504,0.000008110957423923537
1782987385334490600,8.64049072265625,0.0013482769718393683,-0.001509794150479138,0.0022087078541517258
1782987385344565500,8.6505654296875,-0.0026619110722094774,-0.002667204011231661,0.0018776770448312163
1782987385354640000,8.660639892578125,-0.0013782833702862263,0.0009126658551394939,-0.0028315831441432238
1782987385364713700,8.670713623046876,-0.0008099647238850594,0.0012689968571066856,0.0034851685632020235
1782987385374788900,8.680788818359375,-0.0024339703377336264,0.002340434119105339,-0.000489315832965076
1782987385384862700,8.69086279296875,-0.0007460588240064681,-0.0006324525456875563,-0.000617413897998631
1782987385394936600,8.7009365234375,-0.0005626652855426073,0.00035918899811804295,-0.0007382651674561203
1782987385405011700,8.71101171875,-0.0025858688168227673,-0.00009860843420028687,0.0010772118112072349
1782987385415085600,8.72108544921875,0.0008688512025400996,-0.0003089827951043844,0.002268988871946931
1782987385425160700,8.73116064453125,-0.0012134744320064783,0.0017104921862483025,-0.00016647196025587618
1782987385435234600,8.741234619140625,-0.0004798241425305605,-0.000339407823048532,-0.002966634463518858
1782987385445308700,8.75130859375,0.00018277030903846025,-0.00046617421321570873,-0.0034779615234583616
1782987385455383600,8.761383544921875,-0.0014695184072479606,-0.0013693913351744413,0.002096789423376322
1782987385465457700,8.771457763671876,-0.002133710775524378,-0.0009155888110399246,0.0016413888661190867
1782987385475531500,8.781531494140625,-0.00016401999164372683,0.0024745394475758076,0.00010057086183223873
1782987385485606700,8.791606689453126,-0.00035283807665109634,-0.001391038647852838,-0.00030023488216102123
1782987385495681000,8.801680908203124,-0.0015193085419014096,0.003281608922407031,-0.0000742756892577745
1782987385505755100,8.811755126953125,-0.0022333019878715277,0.0010717180557549,0.0016570453299209476
1782987385515830000,8.821830078125,0.0003157947212457657,0.002124346327036619,0.001931820879690349
1782987385525904100,8.831904052734375,-0.00088236149167642,0.0001546724233776331,0.0029829705599695444
1782987385535979000,8.84197900390625,-0.0026393397711217403,0.0016264717560261488,-0.002567931078374386
1782987385546053000,8.85205322265625,0.00025924481451511383,-0.00020897900685667992,0.00007179428212111816
1782987385556127000,8.862126953125,-0.0008580105495639145,0.002249546116217971,0.0004986200947314501
1782987385566202000,8.8722021484375,-0.0009775864891707897,0.0005278124008327723,0.003309320192784071
1782987385576276000,8.88227587890625,0.0022662505507469177,0.001814552117139101,-0.00015509374497924
1782987385586350000,8.89235009765625,0.0013471938436850905,0.00027710944414138794,-0.0019527275580912828
1782987385596425000,8.902425048828125,0.0008508015889674425,0.001390818739309907,0.0014069722965359688
1782987385606499000,8.9124990234375,-0.001399835804477334,0.0004336787387728691,0.0003694047045428306
1782987385616574000,8.922573974609374,-0.0012938983272761106,0.002027059206739068,-0.0013458577450364828
1782987385626648000,8.93264794921875,-0.00032876868499442935,-0.0004262445727363229,0.000834472244605422
1782987385636722200,8.94272216796875,0.0005325330421328545,-0.000836610677652061,0.0005931971245445311
1782987385646797000,8.952797119140625,0.0015581162879243493,0.00019190204329788685,0.0008672364056110382
1782987385656871200,8.96287109375,0.0014027258148416877,-0.0011297655291855335,-0.0018557017901912332
1782987385666945000,8.972945068359374,-0.0005999713321216404,0.00005560740828514099,-0.0017654206603765488
1782987385677020200,8.983020263671875,-0.002353043993934989,0.0003737423103302717,-0.0001770005328580737
1782987385687094000,8.993093994140626,-0.00020893302280455828,0.0012531180400401354,-0.0002560964203439653
1782987385697168100,9.003168212890625,0.0006610519485548139,-0.002054153708741069,-0.0006875680410303175
1782987385707243000,9.013242919921876,0.00176253542304039,-0.0002072514034807682,0.00045359646901488304
1782987385717317000,9.023317138671874,-0.0016043351497501135,0.0006408886983990669,0.0004318325954955071
1782987385727392000,9.03339208984375,-0.0015665182145312428,-0.001262738835066557,0.0015453002415597439
1782987385737466000,9.043466064453124,-0.0020807525143027306,0.0015762050170451403,-0.001356720458716154
1782987385747540000,9.0535400390625,-0.00302510941401124,-0.0008544621523469687,0.0011383951641619205
1782987385757615000,9.063614990234376,0.002167271450161934,0.00007505319081246853,0.0010967348935082555
1782987385767689000,9.07368896484375,0.00046125054359436035,-0.0003617051988840103,0.0003870025393553078
1782987385777763000,9.08376318359375,0.0008180288132280111,-0.0017036589561030269,0.0025909102987498045
1782987385787838000,9.093837890625,-0.00008132075890898705,0.0012873371597379446,0.0037211559247225523
1782987385797912000,9.103912109375,-0.000610845279879868,-0.0004530443111434579,-0.0022402594331651926
1782987385807986000,9.11398583984375,0.0004126074491068721,-0.00045277795288711786,0.0008231745450757444
1782987385818061000,9.12406103515625,0.0011433166218921542,0.0012249669525772333,0.0014274268178269267
1782987385828135000,9.134135009765625,0.0002721967175602913,-0.0011673506814986467,-0.0032557419035583735
1782987385838210000,9.1442099609375,-0.001396827050484717,0.0006046125199645758,-0.0008427304564975202
1782987385848284000,9.154283935546875,-0.00009960122406482697,-0.00027902424335479736,0.0015879366546869278
1782987385858358300,9.164358154296876,0.0003555180737748742,0.0018392058555036783,-0.002563967602327466
1782987385868433000,9.174432861328125,-0.0012365196598693728,-0.0016197075601667166,0.0026441102381795645
1782987385878507300,9.18450732421875,-0.0014278502203524113,0.0006583058275282383,0.0027627376839518547
1782987385888581000,9.1945810546875,0.0008922956185415387,0.001735022058710456,-0.000686588347889483
1782987385898656300,9.20465625,0.0025942479260265827,-0.002295187208801508,0.0011886147549375892
1782987385908730000,9.214730224609376,-0.00043536414159461856,-0.0011271246476098895,-0.0019200932001695037
1782987385918805200,9.22480517578125,-0.0013562575913965702,-0.00010056956671178341,-0.0004387458902783692
1782987385928879000,9.234879150390626,-0.001034281449392438,0.0028118633199483156,0.0011338507756590843
1782987385938953200,9.244953125,-0.0012456602416932583,0.0007999301888048649,0.0005073558422736824
1782987385949028000,9.255028076171875,-0.00008319038897752762,0.00014665676280856133,-0.0024471550714224577
1782987385959102200,9.265102294921874,-0.00026351737324148417,-0.001690139528363943,-0.000444392382632941
1782987385969176000,9.275176025390625,-0.0005287682288326323,-0.0016813511028885841,-0.0015639852499589324
1782987385979251200,9.285251220703126,0.0005976109532639384,0.00070715113542974,-0.0017057933146134019
1782987385989325000,9.295324951171875,0.0023587592877447605,-0.0010558614740148187,0.0014282146003097296
1782987385999399200,9.305399169921875,-0.00016364461043849587,-0.001312203356064856,-0.0012194343144074082
1782987386009474000,9.31547412109375,-0.0020805879030376673,0.0025392603129148483,-0.0008609727956354618
1782987386019548200,9.325548095703125,0.000690604792907834,-0.0011726227821782231,0.0016705052694305778
1782987386029623000,9.335623046875,-0.00036374072078615427,0.000984271289780736,0.0005333354347385466
1782987386039697200,9.345697265625,0.0002605029148980975,-0.001264504506252706,-0.0008301784400828183
1782987386049771000,9.35577099609375,-0.0013589654117822647,-0.001205116044729948,0.0032002495136111975
1782987386059846100,9.36584619140625,-0.0014006855199113488,0.0005679740570485592,-0.0027816554065793753
1782987386069920000,9.375919921875,0.002320549450814724,-0.0006570800906047225,0.0017324024811387062
1782987386079993900,9.385993896484376,0.0002648642985150218,0.0023795603774487972,-0.0004916220786981285
1782987386090069000,9.396069091796875,-0.0007519305218011141,0.0012152264825999737,0.0002940104459412396
1782987386100142800,9.406142822265625,-0.00024123064940795302,0.0009884056635200977,0.0001166585716418922
1782987386110218000,9.416218017578124,-0.0007019574986770749,0.003517609555274248,-0.0004868137475568801
1782987386120291800,9.426291748046875,-0.0009355369256809354,-0.002215093234553933,-0.00101005332544446
1782987386130366200,9.4363662109375,-0.00103860127273947,0.0010467465035617352,0.0001247196487383917
1782987386140441000,9.446441162109375,-0.0015673884190618992,0.0010511628352105618,-0.0017098848475143313
1782987386150515200,9.45651513671875,0.0004907023394480348,-0.0002825481351464987,0.0017415719339624047
1782987386160589000,9.466589111328124,0.001452223863452673,0.0013782258611172438,0.0009345008293166757
1782987386170664200,9.476664306640625,-0.0008333008736371994,0.0021577333100140095,0.0021869854535907507
1782987386180738000,9.486738037109374,-0.0013535674661397934,0.0007915806490927935,0.00021220603957772255
1782987386190812200,9.496812255859375,-0.0015580982435494661,-0.00023320387117564678,-0.0000370658453903161
1782987386200887000,9.506886962890626,-0.0026042265817523003,0.0018646325916051865,0.0004489100247155875
1782987386210961200,9.516961181640625,0.00030847254674881697,0.001918428111821413,0.0013546510599553585
1782987386221036000,9.5270361328125,-0.0002577089471742511,0.0018197251483798027,0.0001411049597663805
1782987386231110100,9.537110107421874,-0.0006976631702855229,0.0024373126216232777,0.00016001339827198535
1782987386241184000,9.54718408203125,0.00015427288599312305,0.0007451965939253569,-0.0010045671369880438
1782987386251259100,9.557259033203126,0.00034122681245207787,0.0009249600116163492,0.0008117087418213487
1782987386261333000,9.5673330078125,-0.000416640832554549,0.00025138678029179573,-0.00007419714529532939
1782987386271407000,9.577406982421875,-0.000041667837649583817,-0.0007334501715376973,0.0007873354479670525
1782987386281482000,9.58748193359375,-0.0008407374261878431,-0.0005673874402418733,0.0009799717226997018
1782987386291556000,9.59755615234375,-0.0007507225964218378,0.0017450351733714342,-0.0014509616885334253
1782987386301631000,9.607630859375,-0.0005989874480292201,-0.00011113868094980717,0.0005790573777630925
1782987386311705000,9.617705078125,0.0010029040277004242,-0.00048637809231877327,0.000019527273252606392
1782987386321779000,9.627779052734375,0.0016207360895350575,0.002383265644311905,0.00009447615593671799
1782987386331854000,9.63785400390625,0.00043562939390540123,-0.00001757405698299408,0.0021669482812285423
1782987386341928000,9.647927978515625,0.0001896223984658718,0.0013911614660173655,-0.0022382622119039297
1782987386352002000,9.658001953125,0.0004482152871787548,-0.0020392562728375196,-0.0013298577396199107
1782987386362077000,9.668076904296875,0.002394284587353468,0.0003487414214760065,-0.00005953698564553633
1782987386372151000,9.678151123046876,0.00010716181714087725,0.0014875091146677732,-0.0018020432908087969
1782987386382225200,9.68822509765625,-0.0007155390921980143,-0.0007266823668032885,0.0009323006961494684
1782987386392300000,9.698300048828125,-0.0007171370089054108,0.002897080732509494,0.00047024228842929006
1782987386402374100,9.7083740234375,-0.0011302587809041142,-0.00021142768673598766,0.0012760094832628965
1782987386412449000,9.718448974609375,-0.0012836568057537079,-0.0006764156278222799,0.0004738653951790184
1782987386422523100,9.728523193359376,-0.0009012543596327305,-0.0011751693673431873,0.0003116095904260874
1782987386432597200,9.73859716796875,0.0017091762274503708,-0.00214748946018517,0.0009193429723381996
1782987386442672000,9.748672119140625,-0.0009516882710158825,-0.001641429727897048,0.0034290554467588663
1782987386452746200,9.758746337890624,0.00048801652155816555,-0.0005985358729958534,-0.002076497534289956
1782987386462820000,9.768820068359375,0.0003796099917963147,-0.0013558360515162349,0.0006406496977433562
1782987386472895200,9.778895263671876,-0.0014656943967565894,-0.0008839239599183202,0.0025128519628196955
1782987386482969000,9.788968994140625,0.0014426631387323141,0.0011043755803257227,-0.0015009078197181225
1782987386493042700,9.799042724609375,-0.0005501802661456168,0.0034586098045110703,0.002216066000983119
1782987386503117800,9.809117919921874,0.0004352051764726639,0.0003169120755046606,0.0012874833773821592
1782987386513191700,9.819191650390625,0.0001377301523461938,-0.000024238834157586098,-0.0009074938716366887
1782987386523266800,9.829266845703126,0.001558177056722343,0.001963226590305567,0.00005988817065372132
1782987386533340700,9.839340576171875,0.00016614270862191916,-0.0016759829595685005,0.0005584319587796926
1782987386543414800,9.849414794921875,-0.0003649578429758549,0.0005942569114267826,-0.0009411695646122098
1782987386553489700,9.85948974609375,-0.0008547132019884884,0.0006632327567785978,0.0013483499642461538
1782987386563563800,9.869563720703125,0.0009256147313863039,0.002118602627888322,0.00008003880066098645
1782987386573637600,9.8796376953125,0.00093227275647223,0.00016650534234941006,-0.0005298250471241772
1782987386583712800,9.889712646484375,0.0015415814705193043,0.00019160518422722816,0.00013303017476573586
1782987386593786600,9.89978662109375,-0.00260629178956151,-0.00019508576951920986,-0.000014775258023291826
1782987386603861800,9.90986181640625,0.002573750214651227,-0.00027376855723559856,0.00144253543112427
1782987386613935600,9.919935546875,-0.00010006345110014081,0.0008937614038586617,-0.0003385867166798562
1782987386624009700,9.930009765625,0.0006693702889606357,-0.00018587475642561913,-0.0016495534218847752
1782987386634084600,9.940084716796875,0.00010957382619380951,-0.0005062530981376767,0.0012993647251278162
1782987386644158700,9.95015869140625,-0.00030260655330494046,0.00007008458487689495,0.0007301306468434632
1782987386654232800,9.96023291015625,0.0007725115865468979,-0.0011997106485068798,0.003974926192313433
1782987386664307000,9.970306884765625,-0.0004841263289563358,-0.001725521171465516,-0.0004711155779659748
1782987386674380800,9.980380859375,0.0003473125398159027,0.0002396253403276205,0.0018945703050121665
1782987386684456000,9.9904560546875,0.000652676448225975,-0.002319152234122157,-0.001477220794185996
1782987386694529800,10.00052978515625,-0.00004054431337863207,-0.00007650419138371944,-0.0010146297281607985
1782987386704603600,10.010603759765624,-0.0004465599195100367,-0.0024239043705165386,0.002015421399846673
1782987386714678800,10.0206787109375,-0.0020676259882748127,0.0010706956963986158,-0.001986510818824172
1782987386724752600,10.030752685546876,0.0008653305703774095,-0.000454952591098845,-0.00198365468531847
1782987386734826800,10.04082666015625,0.002012354088947177,-0.0016387277282774448,0.0016086831456050277
1782987386744901600,10.050901611328126,0.0006947835208848119,0.0011017879005521536,-0.000013751618098467588
1782987386754975700,10.060975830078124,0.0011762831127271056,0.00020350376144051552,-0.00010323383321519941
1782987386765051000,10.07105078125,0.0041560339741408825,-0.0002294026780873537,0.0012970097595825791
1782987386775124700,10.081124755859374,-0.00025948695838451385,0.0013399980962276459,-0.0003538837772794068
1782987386785198600,10.091198486328125,-0.001235717791132629,0.0005677444860339165,0.00014459333033300936
1782987386795273700,10.101273681640626,0.0018144005443900824,0.00023005553521215916,-0.0022639695089310408
1782987386805347600,10.11134765625,-0.0013094970490783453,0.0003784145228564739,0.0010804045014083385
1782987386815421700,10.121421630859375,-0.000326790614053607,0.0016087950207293034,0.0005126186297275126
1782987386825496600,10.13149658203125,0.0014073759084567428,-0.0018955294508486986,-0.0008294353610835969
1782987386835570700,10.14157080078125,0.0008260078029707074,0.0018896213732659817,-0.0014116023667156696
1782987386845644800,10.151644775390626,0.0014738284517079592,0.0019427428487688303,0.0007333901012316346
1782987386855719700,10.1617197265625,0.0015808874741196632,0.0009113005362451077,-0.0003851375658996403
1782987386865793800,10.171793701171875,-0.0010185728315263987,-0.0005752386059612036,-0.0034077258314937353
1782987386875868700,10.18186865234375,0.00048424897249788046,-0.0010692549403756857,0.0009316288051195443
1782987386885942800,10.19194287109375,0.0026448662392795086,0.0005321740172803402,0.0013286418979987502
1782987386896017000,10.202016845703126,-0.0013243090361356735,0.000743629178032279,0.0010833648266270757
1782987386906091800,10.212091796875,-0.0003832452348433435,0.00021218415349721909,0.0035572578199207783
1782987386916166000,10.222165771484375,0.0013973441673442721,0.0008311027195304632,0.0025228860322386026
1782987386926239700,10.23223974609375,0.0008666497888043523,-0.0003113625571131706,0.0002975123352371156
1782987386936315000,10.24231494140625,-0.0010439020115882158,0.003456477541476488,0.0008522487478330731
1782987386946388700,10.252388671875,-0.0011977753601968288,-0.0027368722949177027,0.001051541417837143
1782987386956462800,10.262462890625,0.00027362105902284384,0.0028746745083481073,0.002745311940088868
1782987386966537700,10.272537841796876,-0.00122149009257555,0.0001029307022690773,0.004612419288605452
1782987386976611800,10.28261181640625,0.0011164990719407797,-0.001171658281236887,-0.0028686663135886192
1782987386986686700,10.292686767578125,-0.001237558084540069,0.00010231579653918743,-0.0016704541631042957
1782987386996760800,10.3027607421875,0.0005076113156974316,-0.00041407113894820213,0.0020726188085973263
1782987387006834700,10.312834716796875,0.00009271095041185617,0.01937931217253208,0.017831582576036453
1782987387016909800,10.322909912109376,0.0012389355106279254,-0.009287752211093903,-0.013605969958007336
1782987387026983700,10.332983642578125,-0.003467598930001259,0.004109250381588936,0.009290531277656555
1782987387037057800,10.343057861328125,-0.0012340055545791984,0.002360618906095624,0.0028499432373791933
1782987387047132700,10.353132568359374,-0.000019279075786471367,-0.0011888352455571294,-0.002313912846148014
1782987387057206800,10.363206787109375,-0.002127970103174448,0.0025044362992048264,0.0018326289718970656
1782987387067281700,10.37328173828125,0.0010184929706156254,-0.007030956447124481,-0.005240673664957285
1782987387077355800,10.383355712890625,0.0011423297692090273,-0.004012262914329767,-0.004035060293972492
1782987387087430000,10.393429931640625,-0.0018476970726624131,-0.0059787314385175705,-0.0019993276800960302
1782987387097504800,10.4035048828125,0.00167246931232512,0.0003907510545104742,0.0010736939730122685
