time,seconds_elapsed,z,y,x
1782985881508166100,0.063166259765625,-1.3780252933502197,0.5282182693481445,0.9721128940582275
1782985881518240300,0.073240234375,-1.1971009969711304,0.6982296705245972,0.9020848274230957
1782985881528313000,0.08331298828125,-0.8824698328971863,0.4733949899673462,0.8622295260429382
1782985881538387000,0.093386962890625,-0.481365829706192,-0.03500645235180855,1.0247697830200195
1782985881548461300,0.10346142578125,-0.09383275359869003,-0.44643741846084595,1.4319534301757812
1782985881558535200,0.11353515625,0.21136896312236786,-0.8650141358375549,1.893425464630127
1782985881568609300,0.123609375,0.3845229148864746,-1.1834919452667236,2.253469467163086
1782985881578683100,0.13368310546875,0.36353933811187744,-1.8832924365997314,2.153974771499634
1782985881588757200,0.14375732421875,0.21942290663719177,-2.5215907096862793,1.6435251235961914
1782985881598830300,0.153830322265625,0.02219291962683201,-2.279022455215454,1.0274754762649536
1782985881608904200,0.163904296875,-0.10139240324497223,-1.5766714811325073,0.44258302450180054
1782985881618978300,0.173978271484375,-0.1676827371120453,-1.0184040069580078,-0.08651172369718552
1782985881629052200,0.18405224609375,-0.2850636839866638,-0.8973718285560608,-0.6933097839355469
1782985881639126000,0.1941259765625,-0.467731237411499,-1.329736590385437,-1.6049047708511353
1782985881649200000,0.2042001953125,-0.7833845615386963,-1.9917593002319336,-2.750788927078247
1782985881659274000,0.21427392578125,-0.8939813375473022,-2.16371750831604,-3.4230384826660156
1782985881669347300,0.224347412109375,-0.8947568535804749,-2.0064778327941895,-3.3238022327423096
1782985881679421200,0.234421142578125,-1.039614200592041,-1.762598991394043,-2.48344349861145
1782985881689495000,0.2444951171875,-1.3208495378494263,-1.4714065790176392,-1.228727102279663
1782985881699569200,0.254569091796875,-1.692878246307373,-1.4417997598648071,-0.12628549337387085
1782985881709643000,0.26464306640625,-2.050832748413086,-1.518763780593872,0.5291043519973755
1782985881719717400,0.27471728515625,-2.288330554962158,-1.4566867351531982,0.7338071465492249
1782985881729791200,0.284791259765625,-2.407155752182007,-1.2580254077911377,0.6117286086082458
1782985881739864000,0.294864013671875,-2.430971145629883,-0.9855773448944092,0.4001053273677826
1782985881749938200,0.304938232421875,-2.3920581340789795,-0.9362145662307739,0.26063770055770874
1782985881760012000,0.315011962890625,-2.3155453205108643,-1.2744687795639038,0.3033923804759979
1782985881770086400,0.32508642578125,-2.277254343032837,-1.6887335777282715,0.4644395709037781
1782985881780160300,0.33516015625,-2.2785990238189697,-2.0340933799743652,0.5931983590126038
1782985881790234000,0.345234130859375,-2.2765557765960693,-2.259469747543335,0.6138617992401123
1782985881800308200,0.35530810546875,-2.2294507026672363,-2.168623447418213,0.4856415390968323
1782985881810381000,0.365381103515625,-2.0983402729034424,-1.849787950515747,0.23170407116413116
1782985881820455200,0.375455078125,-2.0610716342926025,-1.6150755882263184,-0.0635392963886261
1782985881830529300,0.385529296875,-2.1984951496124268,-1.5620547533035278,-0.27980154752731323
1782985881840603100,0.39560302734375,-2.3578524589538574,-1.5596163272857666,-0.31361332535743713
1782985881850677200,0.40567724609375,-2.479797124862671,-1.4992374181747437,-0.16960874199867249
1782985881860751000,0.415751220703125,-2.5876564979553223,-1.5478278398513794,-0.06481042504310608
1782985881870824200,0.42582421875,-2.667619466781616,-1.6378493309020996,-0.06401653587818146
1782985881880898300,0.435898193359375,-2.791459321975708,-1.8483130931854248,-0.13369600474834442
1782985881890972200,0.44597216796875,-2.963352918624878,-2.1618387699127197,-0.2012827843427658
1782985881901046300,0.45604638671875,-2.8703975677490234,-2.4088258743286133,-0.27971020340919495
1782985881911120100,0.4661201171875,-2.494413375854492,-2.527547836303711,-0.3540715277194977
1782985881921194000,0.476194091796875,-2.0661208629608154,-2.389549970626831,-0.34591078758239746
1782985881931268000,0.48626806640625,-1.7002488374710083,-2.0344996452331543,-0.33604058623313904
1782985881941341200,0.496341064453125,-1.441426396369934,-1.6495558023452759,-0.35859277844429016
1782985881951415000,0.5064150390625,-1.3645659685134888,-1.3193472623825073,-0.4050638675689697
1782985881961489200,0.5164892578125,-1.3997387886047363,-1.0630420446395874,-0.4962555766105652
1782985881971563000,0.52656298828125,-1.4900639057159424,-0.9094234108924866,-0.6196861267089844
1782985881981637000,0.53663720703125,-1.6213098764419556,-0.8708813786506653,-0.7025211453437805
1782985881991711200,0.546711181640625,-1.7336674928665161,-0.9294770359992981,-0.725956380367279
1782985882001785300,0.556785400390625,-1.772749662399292,-0.9835889935493469,-0.697106122970581
1782985882011858200,0.566858154296875,-1.7511578798294067,-0.9872851967811584,-0.6429339647293091
1782985882021932000,0.57693212890625,-1.6677961349487305,-0.9264048337936401,-0.5888347625732422
1782985882032006100,0.587006103515625,-1.5250957012176514,-0.8924335241317749,-0.5563561916351318
1782985882042080300,0.597080322265625,-1.364547848701477,-0.899229109287262,-0.5045459866523743
1782985882052154000,0.607154052734375,-1.2641316652297974,-0.8340378403663635,-0.38242781162261963
1782985882062228200,0.617228271484375,-1.2515181303024292,-0.6997151970863342,-0.21721114218235016
1782985882072302000,0.627302001953125,-1.290982723236084,-0.49629339575767517,-0.10830570012331009
1782985882082375200,0.637375244140625,-1.3145283460617065,-0.22938790917396545,-0.048117462545633316
1782985882092449300,0.64744921875,-1.3743623495101929,0.016577377915382385,-0.05885319784283638
1782985882102523100,0.657523193359375,-1.4622317552566528,0.2131415754556656,-0.12445458024740219
1782985882112597200,0.66759716796875,-1.4526145458221436,0.40180495381355286,-0.25908297300338745
1782985882122671000,0.677671142578125,-1.2490653991699219,0.42624637484550476,-0.4464379549026489
1782985882132745200,0.6877451171875,-0.7811605334281921,0.46186563372612,-0.36070677638053894
1782985882142819000,0.697819091796875,-0.07435465604066849,0.34539735317230225,0.3373228907585144
1782985882152892200,0.70789208984375,0.6846129298210144,-0.2532415986061096,1.613393783569336
1782985882162966300,0.71796630859375,1.2947449684143066,-1.2072069644927979,2.944957971572876
1782985882173040000,0.7280400390625,1.5219690799713135,-2.1691198348999023,3.4837210178375244
1782985882183114200,0.7381142578125,1.2458975315093994,-3.028913736343384,2.8504581451416016
1782985882193188000,0.74818798828125,0.7230748534202576,-3.276746988296509,1.0610196590423584
1782985882203262200,0.75826220703125,0.2998836636543274,-2.4995648860931396,-1.417409896850586
1782985882213335300,0.768335205078125,0.057798583060503006,-1.117328405380249,-3.644418478012085
1782985882223409200,0.7784091796875,-0.1776679903268814,-0.02376897819340229,-4.732876300811768
1782985882233483000,0.78848291015625,-0.6625468134880066,0.16087409853935242,-4.634490013122559
1782985882243557000,0.79855712890625,-1.2378559112548828,-0.034749992191791534,-3.678281307220459
1782985882253631200,0.80863134765625,-1.6284010410308838,-0.27801963686943054,-2.3804311752319336
1782985882263705300,0.818705322265625,-1.857555627822876,-0.5003752112388611,-1.137281060218811
1782985882273779200,0.828779296875,-2.0327579975128174,-0.6009593605995178,-0.18280550837516785
1782985882283851800,0.838851806640625,-2.1829657554626465,-0.4453790783882141,0.3441792130470276
1782985882293926000,0.84892578125,-2.3602941036224365,0.011202054098248482,0.3863477110862732
1782985882304000000,0.859,-2.500976800918579,0.5000582933425903,0.1358046978712082
1782985882314074000,0.86907421875,-2.6323049068450928,0.7802137732505798,-0.15908712148666382
1782985882324148000,0.87914794921875,-2.6492490768432617,0.5673680901527405,-0.3521828055381775
1782985882334221800,0.889221923828125,-2.356011152267456,-0.04518372192978859,-0.44865715503692627
1782985882344296000,0.8992958984375,-1.9328516721725464,-0.7551193237304688,-0.41292259097099304
1782985882354369000,0.909369140625,-1.5437231063842773,-1.6180142164230347,-0.26613128185272217
1782985882364443000,0.91944287109375,-1.2529700994491577,-2.414834499359131,-0.02124563418328762
1782985882374517000,0.92951708984375,-1.1084212064743042,-2.9892807006835938,0.24010740220546722
1782985882384590800,0.9395908203125,-1.0935934782028198,-3.38358998298645,0.4408801794052124
1782985882394665000,0.9496650390625,-1.1801095008850098,-3.4865939617156982,0.5585314631462097
1782985882404738800,0.95973876953125,-1.3096717596054077,-3.345629930496216,0.6003324389457703
1782985882414813000,0.96981298828125,-1.4467811584472656,-3.141376495361328,0.5889481902122498
1782985882424886000,0.979885986328125,-1.5335527658462524,-3.014422655105591,0.5599938035011292
1782985882434960000,0.9899599609375,-1.550520658493042,-2.990809679031372,0.5941115617752075
1782985882445034000,1.000033935546875,-1.4787745475769043,-3.1081056594848633,0.7001727223396301
1782985882455107800,1.01010791015625,-1.3581067323684692,-3.207021713256836,0.8292228579521179
1782985882465182000,1.020181884765625,-1.3037196397781372,-3.094792366027832,0.8587932586669922
1782985882475256000,1.030256103515625,-1.3319240808486938,-2.726426601409912,0.7158944606781006
1782985882485330000,1.040329833984375,-1.4401277303695679,-2.266967296600342,0.4282216429710388
1782985882495402800,1.05040283203125,-1.6385189294815063,-1.866428256034851,0.07654430717229843
1782985882505476900,1.060476806640625,-1.8498591184616089,-1.5109684467315674,-0.24415966868400574
1782985882515551000,1.070551025390625,-1.9973044395446777,-1.265114665031433,-0.5065670609474182
1782985882525625000,1.080625,-2.0675466060638428,-1.1439472436904907,-0.6972251534461975
1782985882535699000,1.090698974609375,-2.0731444358825684,-1.1289012432098389,-0.8247394561767578
1782985882545773000,1.10077294921875,-2.049750328063965,-1.1373732089996338,-0.9197754263877869
1782985882555846000,1.110845947265625,-2.03951096534729,-1.1227666139602661,-1.0173454284667969
1782985882565920000,1.120919921875,-2.0302679538726807,-1.112849235534668,-1.1070595979690552
1782985882575994000,1.130994140625,-2.0297324657440186,-1.032957673072815,-1.206094741821289
1782985882586068000,1.14106787109375,-2.0574443340301514,-1.0380202531814575,-1.3260401487350464
1782985882596141800,1.151141845703125,-2.1019105911254883,-0.9189586043357849,-1.4217724800109863
1782985882606216000,1.1612158203125,-2.1350529193878174,-0.7648990154266357,-1.441983699798584
1782985882616289800,1.171289794921875,-2.211459159851074,-0.6262138485908508,-1.467078685760498
1782985882626363100,1.181363037109375,-2.3730568885803223,-0.46075642108917236,-1.5003511905670166
1782985882636437000,1.19143701171875,-2.5697097778320312,-0.1979285329580307,-1.556658387184143
1782985882646510800,1.2015107421875,-2.6935415267944336,0.03069319762289524,-1.6395378112792969
1782985882656585000,1.2115849609375,-2.7414193153381348,0.10626012831926346,-1.7461979389190674
1782985882666658800,1.221658935546875,-2.7035727500915527,0.08522088825702667,-1.812473177909851
1782985882676733000,1.23173291015625,-2.6045172214508057,0.022542594000697136,-1.7715778350830078
1782985882686807000,1.24180712890625,-2.493363857269287,-0.08748084306716919,-1.569440245628357
1782985882696879900,1.2518798828125,-2.4021949768066406,-0.15345054864883423,-1.107888102531433
1782985882706954000,1.2619541015625,-2.3907787799835205,-0.2562355101108551,-0.34606873989105225
1782985882717027800,1.27202783203125,-2.363013505935669,-0.4448520243167877,0.6602618098258972
1782985882727101700,1.282101806640625,-2.220529794692993,-0.8445730805397034,1.4648669958114624
1782985882737176000,1.292176025390625,-2.059274435043335,-1.7475165128707886,1.5974856615066528
1782985882747250000,1.30225,-1.9632978439331055,-2.929654359817505,1.1503257751464844
1782985882757324000,1.312323974609375,-1.822432279586792,-3.5654749870300293,0.39267855882644653
1782985882767396900,1.32239697265625,-1.6318018436431885,-3.2527551651000977,-0.2688530385494232
1782985882777470700,1.332470703125,-1.4650230407714844,-2.811561107635498,-0.7435353994369507
1782985882787545000,1.342545166015625,-1.453118920326233,-2.4567480087280273,-1.0412105321884155
1782985882797619000,1.352618896484375,-1.7019442319869995,-1.471189022064209,-1.0207406282424927
1782985882807693000,1.362693115234375,-2.185353994369507,-0.25668957829475403,-0.7630007266998291
1782985882817767000,1.372766845703125,-2.8177390098571777,0.42595556378364563,-0.39065828919410706
1782985882827840800,1.3828408203125,-3.3028500080108643,0.2440560758113861,0.21132396161556244
1782985882837914000,1.3929140625,-3.5352721214294434,-0.7922163605690002,0.9413057565689087
1782985882847988000,1.402988037109375,-3.546841621398926,-2.170341730117798,1.4418703317642212
1782985882858062000,1.41306201171875,-3.319803476333618,-3.162377119064331,1.3788551092147827
1782985882868136000,1.423135986328125,-2.83233642578125,-3.3520359992980957,0.5816511511802673
1782985882878209800,1.433209716796875,-2.4931423664093018,-2.8826253414154053,-0.7861302495002747
1782985882888284000,1.443283935546875,-2.2143969535827637,-1.9481747150421143,-2.0789473056793213
1782985882898357800,1.453357666015625,-1.9365324974060059,-1.2531629800796509,-2.798109769821167
1782985882908430800,1.463430908203125,-1.7497581243515015,-1.2149358987808228,-2.6827895641326904
1782985882918505000,1.4735048828125,-1.5449564456939697,-1.6997716426849365,-1.9232507944107056
1782985882928578800,1.483578857421875,-1.2798742055892944,-2.2653257846832275,-0.8082994818687439
1782985882938653000,1.49365283203125,-1.081316351890564,-2.6667611598968506,0.2933732867240906
1782985882948726800,1.503726806640625,-1.111338496208191,-2.6249516010284424,1.0477917194366455
1782985882958801200,1.51380126953125,-1.39892578125,-2.299086093902588,1.2504017353057861
1782985882968874000,1.5238740234375,-1.8299144506454468,-1.9538986682891846,0.937256395816803
1782985882978947800,1.53394775390625,-2.2446718215942383,-1.5439841747283936,0.34619975090026855
1782985882989022000,1.54402197265625,-2.399315595626831,-1.1327531337738037,-0.3884334862232208
1782985882999095800,1.554095703125,-2.290005922317505,-0.7995970845222473,-1.2165607213974
1782985883009170000,1.564169921875,-2.083441972732544,-0.6348611116409302,-2.02077317237854
1782985883019244000,1.574244140625,-1.8737667798995972,-0.614689826965332,-2.6918294429779053
1782985883029318000,1.58431787109375,-1.7088420391082764,-0.5654082894325256,-3.240001916885376
1782985883039391000,1.594390869140625,-1.589317798614502,-0.41486695408821106,-3.6626551151275635
1782985883049464800,1.60446484375,-1.4981391429901123,-0.2054080218076706,-3.859431743621826
1782985883059539000,1.6145390625,-1.448472261428833,-0.004670917987823486,-3.7592670917510986
1782985883069613000,1.624613037109375,-1.4230414628982544,0.4337376058101654,-3.2149391174316406
1782985883079687000,1.63468701171875,-1.4430389404296875,0.8373695015907288,-2.493319511413574
1782985883089761000,1.644760986328125,-1.5309556722640991,0.9428354501724243,-1.7988427877426147
1782985883099835000,1.6548349609375,-1.600454330444336,1.0149644613265991,-1.1627217531204224
1782985883109908000,1.664907958984375,-1.5877952575683594,0.9135997891426086,-0.6878979802131653
1782985883119982000,1.674982177734375,-1.5346367359161377,0.6974281072616577,-0.36659184098243713
1782985883130056000,1.685055908203125,-1.5266051292419434,0.35232847929000854,-0.14529913663864136
1782985883140129800,1.6951298828125,-1.4688524007797241,0.02911713905632496,0.021412348374724388
1782985883150204000,1.705203857421875,-1.2879270315170288,-0.2530865967273712,0.08923719823360443
1782985883160277800,1.71527783203125,-1.0242544412612915,-0.3680557906627655,0.10941889882087708
1782985883170351000,1.72535107421875,-0.7734621167182922,-0.46551841497421265,0.10896749794483185
1782985883180425000,1.735425048828125,-0.5982328057289124,-0.5186474323272705,0.10388299077749252
1782985883190498800,1.745498779296875,-0.4925798773765564,-0.5353419780731201,0.1283758133649826
1782985883200573000,1.755572998046875,-0.43870678544044495,-0.5137874484062195,0.18922105431556702
1782985883210646800,1.765646728515625,-0.41633543372154236,-0.5494551062583923,0.307384192943573
1782985883220721000,1.775720947265625,-0.44783344864845276,-0.6511991024017334,0.4856148958206177
1782985883230795000,1.785794921875,-0.488802433013916,-0.8051369786262512,0.6674619317054749
1782985883240867800,1.795867919921875,-0.4729102849960327,-0.9567912220954895,0.7804492115974426
1782985883250942000,1.80594189453125,-0.39794445037841797,-0.9950222373008728,0.7779287695884705
1782985883261015800,1.816015869140625,-0.27438440918922424,-0.8552057147026062,0.615227997303009
1782985883271090000,1.82608984375,-0.16242273151874542,-0.4905116558074951,0.3490362763404846
1782985883281164300,1.836164306640625,-0.15456241369247437,-0.04158419370651245,0.06991330534219742
1782985883291238400,1.84623828125,-0.1672971099615097,0.3469547629356384,-0.07599649578332901
1782985883301312500,1.8563125,-0.2117018699645996,0.4585944712162018,-0.1259121298789978
1782985883311385300,1.86638525390625,-0.3160612881183624,0.22550556063652039,-0.046061236411333084
1782985883321459500,1.87645947265625,-0.3229450285434723,-0.23948875069618225,0.26127928495407104
1782985883331533300,1.886533203125,-0.15178605914115906,-0.8812980651855469,0.6553703546524048
1782985883341607400,1.896607421875,0.09574543684720993,-1.6242648363113403,0.7847208976745605
1782985883351681500,1.906681640625,0.31867918372154236,-1.7888625860214233,0.4605180621147156
1782985883361755400,1.91675537109375,0.2564253807067871,-1.5869078636169434,-0.2506985366344452
1782985883371828200,1.926828125,-0.15188246965408325,-1.6526203155517578,-1.1697686910629272
1782985883381902300,1.93690234375,-0.580702006816864,-1.7269158363342285,-1.9196743965148926
1782985883391976400,1.9469765625,-0.879340648651123,-2.0803399085998535,-2.7143521308898926
1782985883402050600,1.957050537109375,-1.1254758834838867,-1.9851242303848267,-3.4052343368530273
1782985883412124400,1.96712451171875,-1.2948092222213745,-1.0049721002578735,-3.659050464630127
1782985883422198500,1.977198486328125,-1.2095422744750977,0.08855809271335602,-3.2906606197357178
1782985883432272400,1.9872724609375,-0.9365171194076538,0.5155376195907593,-2.461482524871826
1782985883442345500,1.997345458984375,-0.6273174285888672,0.003862116253003478,-1.3759371042251587
1782985883452419600,2.007419677734375,-0.42187801003456116,-0.8732063174247742,-0.1593497097492218
1782985883462493400,2.017493408203125,-0.5544280409812927,-1.2166075706481934,0.8875524997711182
1782985883472567300,2.0275673828125,-1.1015721559524536,-0.8710038661956787,1.4885342121124268
1782985883482641400,2.037641357421875,-1.849410057067871,-0.06393663585186005,1.4698002338409424
1782985883492715300,2.04771533203125,-2.477893114089966,0.8556030988693237,1.0400166511535645
1782985883502789400,2.057789306640625,-2.903883457183838,1.3546104431152344,0.7236988544464111
1782985883512862500,2.067862548828125,-2.9294373989105225,0.8541750907897949,0.6046459674835205
1782985883522936300,2.077936279296875,-2.4358928203582764,-0.28981342911720276,0.5979315638542175
1782985883533010400,2.088010498046875,-1.7319992780685425,-1.4359993934631348,0.6991905570030212
1782985883543084300,2.098084228515625,-1.1716537475585938,-2.2257556915283203,0.7755343317985535
1782985883553158400,2.108158447265625,-0.8539029359817505,-2.4586193561553955,0.6940855383872986
1782985883563232500,2.118232421875,-0.8594239354133606,-2.1110994815826416,0.3967905044555664
1782985883573305300,2.128305419921875,-1.2445955276489258,-1.4500927925109863,-0.06651191413402557
1782985883583379500,2.13837939453125,-1.929885983467102,-0.7287138104438782,-0.5640764236450195
1782985883593453300,2.148453369140625,-2.6820828914642334,0.013998639769852161,-0.9697371125221252
1782985883603527400,2.15852734375,-3.2049808502197266,0.7324358820915222,-1.1823500394821167
1782985883613601500,2.1686015625,-3.383960008621216,1.1252148151397705,-1.1641286611557007
1782985883623675400,2.17867529296875,-3.333311080932617,1.0277037620544434,-0.923736572265625
1782985883633749500,2.18874951171875,-3.12337589263916,0.565678596496582,-0.5428779125213623
1782985883643822300,2.198822265625,-2.816864013671875,0.000015712650565546937,-0.1781843900680542
1782985883653896400,2.208896484375,-2.4721455574035645,-0.3811582624912262,0.07544521987438202
1782985883663970600,2.218970458984375,-2.1657960414886475,-0.5099844336509705,0.18608598411083221
1782985883674044400,2.22904443359375,-1.9894689321517944,-0.4453313946723938,0.16709497570991516
1782985883684118500,2.239118408203125,-1.9411157369613647,-0.25066444277763367,0.12077781558036804
1782985883694192400,2.2491923828125,-1.990927815437317,-0.09609963744878769,0.11464615166187286
1782985883704265500,2.259265380859375,-2.084188461303711,-0.01847434788942337,0.13745053112506866
1782985883714339600,2.269339599609375,-2.158057689666748,-0.017257817089557648,0.11240297555923462
1782985883724413400,2.279413330078125,-2.1775052547454834,-0.13149091601371765,0.03816576302051544
1782985883734487600,2.289487548828125,-2.125717878341675,-0.2557564079761505,-0.06788397580385208
1782985883744561400,2.2995615234375,-2.035909414291382,-0.35570403933525085,-0.14380696415901184
1782985883754635300,2.30963525390625,-1.9299321174621582,-0.46568620204925537,-0.1808139830827713
1782985883764709400,2.31970947265625,-1.8295588493347168,-0.47315236926078796,-0.22454576194286346
1782985883774782500,2.329782470703125,-1.7545949220657349,-0.4320392906665802,-0.29700905084609985
1782985883784856300,2.339856201171875,-1.7222234010696411,-0.40807217359542847,-0.3621848523616791
1782985883794930400,2.349930419921875,-1.6976476907730103,-0.4902037978172302,-0.3937494158744812
1782985883805004300,2.36000439453125,-1.6466255187988281,-0.5701553821563721,-0.3849191963672638
1782985883815078400,2.370078369140625,-1.573468804359436,-0.607908308506012,-0.3780069649219513
1782985883825152500,2.380152587890625,-1.4651434421539307,-0.5839300155639648,-0.36854633688926697
1782985883835225300,2.390225341796875,-1.3299474716186523,-0.622170090675354,-0.34053733944892883
1782985883845299500,2.400299560546875,-1.1891824007034302,-0.6337655186653137,-0.32522842288017273
1782985883855373300,2.410373291015625,-1.0248181819915771,-0.7194316387176514,-0.36243146657943726
1782985883865447400,2.420447509765625,-0.8083154559135437,-0.8241527676582336,-0.5000492334365845
1782985883875521500,2.430521484375,-0.5543708205223083,-0.6729046106338501,-0.6056944131851196
1782985883885595400,2.440595458984375,-0.34299224615097046,-0.3954525291919708,-0.5912238955497742
1782985883895669500,2.45066943359375,-0.29817256331443787,-0.06954285502433777,-0.22203147411346436
1782985883905742300,2.460742431640625,-0.407245010137558,0.12245214730501175,0.6111946702003479
1782985883915816200,2.470816162109375,-0.5060914158821106,0.04862000048160553,1.6338181495666504
1782985883925890600,2.480890625,-0.4418863356113434,-0.5636822581291199,2.1124918460845947
1782985883935964400,2.49096435546875,-0.22716523706912994,-2.014307975769043,1.3271663188934326
1782985883946038500,2.50103857421875,0.15973800420761108,-3.254671335220337,-0.26977208256721497
1782985883956112400,2.5111123046875,0.6784586310386658,-3.7009050846099854,-1.7297515869140625
1782985883966186500,2.5211865234375,0.9845424294471741,-3.4800326824188232,-2.3766732215881348
1782985883976259600,2.531259521484375,0.9323620200157166,-2.9086194038391113,-2.239868640899658
1782985883986333400,2.54133349609375,0.652951180934906,-2.7835652828216553,-2.443760871887207
1782985883996407600,2.551407470703125,0.6504733562469482,-2.9765686988830566,-3.1736502647399902
1782985884006481400,2.5614814453125,0.9260562062263489,-3.1354730129241943,-3.6786036491394043
1782985884016555300,2.57155517578125,1.159968614578247,-2.995905637741089,-3.5102667808532715
1782985884026629400,2.58162939453125,1.1162149906158447,-2.3741233348846436,-2.8129830360412598
1782985884036703200,2.591703125,0.642491340637207,-0.8784742951393127,-2.0718116760253906
1782985884046776600,2.601776611328125,-0.24256311357021332,1.3312492370605469,-1.6744686365127563
1782985884056850400,2.611850341796875,-1.1837878227233887,3.411151885986328,-1.5197504758834839
1782985884066924300,2.62192431640625,-1.783576488494873,4.745526313781738,-1.3937733173370361
1782985884076998400,2.631998291015625,-1.8868200778961182,5.070427417755127,-1.2206878662109375
1782985884087072300,2.642072265625,-1.7629159688949585,4.6438117027282715,-0.7668678760528564
1782985884097146600,2.652146728515625,-1.7146246433258057,3.530212640762329,0.026909643784165382
1782985884107219500,2.662219482421875,-1.6794040203094482,1.9298794269561768,0.7959865927696228
1782985884117293300,2.672293212890625,-1.584598183631897,0.45744559168815613,1.277901291847229
1782985884127367400,2.682367431640625,-1.5708359479904175,-0.6485095620155334,1.4251583814620972
1782985884137441300,2.692441162109375,-1.6514948606491089,-1.2842856645584106,1.2234686613082886
1782985884147515600,2.702515625,-1.8290752172470093,-1.3085460662841797,0.7043275237083435
1782985884157589500,2.712589599609375,-2.104013204574585,-0.8934705853462219,-0.0830051377415657
1782985884167663400,2.722663330078125,-2.45674467086792,-0.28040289878845215,-1.0723785161972046
1782985884177736400,2.732736328125,-2.7508091926574707,0.3433871865272522,-2.03513765335083
1782985884187810300,2.742810302734375,-2.8854377269744873,0.8131943941116333,-2.7630505561828613
1782985884197884400,2.752884521484375,-2.8830249309539795,0.9756178855895996,-3.161058187484741
1782985884207958500,2.76295849609375,-2.7923548221588135,0.8315760493278503,-3.180528402328491
1782985884218032400,2.773032470703125,-2.6494905948638916,0.43828654289245605,-2.8692359924316406
1782985884228106500,2.7831064453125,-2.4734489917755127,-0.04701331630349159,-2.2795279026031494
1782985884238180400,2.793180419921875,-2.33188533782959,-0.2628609240055084,-1.4745222330093384
1782985884248253400,2.80325341796875,-2.217996120452881,-0.3869365453720093,-0.6314751505851746
1782985884258327600,2.81332763671875,-2.0606095790863037,-0.42345911264419556,0.07098469138145447
1782985884268401400,2.8234013671875,-1.8084994554519653,-0.508384644985199,0.5397737622261047
1782985884278475500,2.8334755859375,-1.479934811592102,-0.5734350085258484,0.8091724514961243
1782985884288549000,2.843549072265625,-1.1377754211425781,-0.5212586522102356,0.9629446864128113
1782985884298623000,2.853623046875,-0.872623860836029,-0.5051769018173218,1.022507667541504
1782985884308696000,2.863696044921875,-0.7793391942977905,-0.5807552933692932,1.019309401512146
1782985884318770200,2.873770263671875,-0.8641193509101868,-0.7325596809387207,0.9739699363708496
1782985884328844000,2.883843994140625,-1.0339707136154175,-0.9418674111366272,0.8760031461715698
1782985884338918000,2.89391796875,-1.2178890705108643,-1.1184333562850952,0.7411446571350098
1782985884348992000,2.903991943359375,-1.3725886344909668,-1.1819535493850708,0.594603955745697
1782985884359066000,2.914066162109375,-1.4932866096496582,-1.118377923965454,0.4756624102592468
1782985884369140200,2.92414013671875,-1.6703029870986938,-0.9161478877067566,0.4040665030479431
1782985884379213000,2.934213134765625,-1.9103407859802246,-0.6170256733894348,0.37379568815231323
1782985884389287000,2.944286865234375,-2.1655917167663574,-0.3997330069541931,0.34637364745140076
1782985884399361000,2.954361083984375,-2.3409063816070557,-0.34713560342788696,0.31705331802368164
1782985884409435100,2.96443505859375,-2.4297282695770264,-0.42322397232055664,0.33597880601882935
1782985884419509200,2.97450927734375,-2.4668400287628174,-0.6120713949203491,0.484391450881958
1782985884429583000,2.9845830078125,-2.551429033279419,-0.9217243194580078,0.790882408618927
1782985884439656000,2.994656005859375,-2.665879964828491,-1.165755033493042,1.2371211051940918
1782985884449730000,3.00472998046875,-2.6935269832611084,-1.4059394598007202,1.5671299695968628
1782985884459804200,3.01480419921875,-2.6449215412139893,-1.5744248628616333,1.7907196283340454
1782985884469878300,3.024878173828125,-2.5511059761047363,-1.5643000602722168,2.0519542694091797
1782985884479952100,3.0349521484375,-2.3019204139709473,-1.523349404335022,2.3696329593658447
1782985884490026000,3.04502587890625,-1.9487563371658325,-1.266107201576233,2.818061113357544
1782985884500100000,3.05510009765625,-1.818610429763794,-0.9694987535476685,3.561825752258301
1782985884510173200,3.065173095703125,-1.9723173379898071,-1.1584830284118652,4.486377239227295
1782985884520247000,3.0752470703125,-2.1501924991607666,-2.1150195598602295,5.02338981628418
1782985884530321200,3.085321044921875,-2.1092002391815186,-3.4654335975646973,4.5297441482543945
1782985884540395000,3.09539501953125,-1.7889318466186523,-4.001285552978516,3.1702582836151123
1782985884550469000,3.10546923828125,-1.3684855699539185,-3.214216470718384,1.7671597003936768
1782985884560543000,3.11554296875,-1.0342433452606201,-1.8676724433898926,0.9595129489898682
1782985884570616000,3.125615966796875,-0.9636898636817932,-1.4906277656555176,0.772276759147644
1782985884580690200,3.135690185546875,-1.2120040655136108,-1.844077706336975,0.7180556058883667
1782985884590764000,3.145763916015625,-1.5605794191360474,-2.2667438983917236,0.26402631402015686
1782985884600838100,3.155838134765625,-1.8262357711791992,-2.148813009262085,-0.6842997670173645
1782985884610912000,3.165912109375,-1.9101669788360596,-1.6351572275161743,-2.0660414695739746
1782985884620986000,3.175986083984375,-1.6511942148208618,-0.840950608253479,-3.3836822509765625
1782985884631060200,3.186060302734375,-1.300532341003418,-0.1399800032377243,-4.191640377044678
1782985884641133000,3.196133056640625,-1.0692572593688965,0.15092507004737854,-4.2526350021362305
1782985884651207000,3.20620703125,-1.004281997680664,0.05438894033432007,-3.617288589477539
1782985884661281000,3.216281005859375,-1.004296898841858,0.02417990379035473,-2.3529930114746094
1782985884671355100,3.226355224609375,-1.1562875509262085,-0.08624540269374847,-0.9492499232292175
1782985884681429200,3.23642919921875,-1.4320296049118042,-0.20200608670711517,0.20381012558937073
1782985884691503000,3.246503173828125,-1.7504019737243652,-0.35679858922958374,0.8886992335319519
1782985884701577200,3.2565771484375,-1.9844603538513184,-0.3278484344482422,1.155285120010376
1782985884711650000,3.266650146484375,-2.153590679168701,-0.21168135106563568,1.182706356048584
1782985884721724200,3.27672412109375,-2.312671422958374,-0.2927977740764618,1.0078176259994507
1782985884731798300,3.28679833984375,-2.395372152328491,-0.4509730339050293,0.6156714558601379
1782985884741872000,3.2968720703125,-2.4533755779266357,-0.5430382490158081,0.05167198181152344
1782985884751946000,3.306946044921875,-2.5379254817962646,-0.43239057064056396,-0.5413793921470642
1782985884762020000,3.31702001953125,-2.616288423538208,-0.2123498171567917,-1.1094260215759277
1782985884772093200,3.32709326171875,-2.691817045211792,0.11782383918762207,-1.5372620820999146
1782985884782167300,3.337167236328125,-2.7374866008758545,0.4353480041027069,-1.7514773607254028
1782985884792241200,3.3472412109375,-2.694685220718384,0.5703471302986145,-1.7920082807540894
1782985884802315000,3.35731494140625,-2.566344738006592,0.46199026703834534,-1.725517988204956
1782985884812389000,3.36738916015625,-2.38891863822937,0.1427060216665268,-1.6139520406723022
1782985884822463000,3.377462890625,-2.1769790649414062,-0.2718474864959717,-1.503483533859253
1782985884832537000,3.387537109375,-1.9307973384857178,-0.6458117365837097,-1.4202814102172852
1782985884842610200,3.397610107421875,-1.672417163848877,-0.8753594756126404,-1.3687840700149536
1782985884852684000,3.40768408203125,-1.4621154069900513,-0.9249443411827087,-1.3682900667190552
1782985884862758100,3.417758056640625,-1.3285375833511353,-0.9039839506149292,-1.4133976697921753
1782985884872832000,3.42783203125,-1.2409089803695679,-0.7612105011940002,-1.461381196975708
1782985884882906000,3.437906005859375,-1.1800826787948608,-0.6103498935699463,-1.4920705556869507
1782985884892980200,3.447980224609375,-1.116723895072937,-0.47634363174438477,-1.4869093894958496
1782985884903053000,3.458052978515625,-1.0347387790679932,-0.3798077702522278,-1.4120410680770874
1782985884913127200,3.468127197265625,-0.9461483955383301,-0.36775776743888855,-1.2760778665542603
1782985884923201000,3.478200927734375,-0.8681201934814453,-0.40113383531570435,-1.060102105140686
1782985884933275000,3.48827490234375,-0.7978031635284424,-0.45357123017311096,-0.8179987072944641
1782985884943349200,3.498349365234375,-0.7405776977539062,-0.5090904235839844,-0.574139416217804
1782985884953423000,3.508423095703125,-0.714001476764679,-0.5530964732170105,-0.3649744987487793
1782985884963497200,3.518497314453125,-0.7069060206413269,-0.5753900408744812,-0.1856316477060318
1782985884973570000,3.528570068359375,-0.7066186666488647,-0.5831707715988159,-0.017227722331881523
1782985884983644000,3.538643798828125,-0.7061685919761658,-0.5308007597923279,0.1380886286497116
1782985884993718300,3.54871826171875,-0.716167151927948,-0.4276863634586334,0.28261783719062805
1782985885003792100,3.558792236328125,-0.7533661723136902,-0.3113323152065277,0.36105087399482727
1782985885013866200,3.5688662109375,-0.842961311340332,-0.22306877374649048,0.34499308466911316
1782985885023940000,3.578940185546875,-1.0336908102035522,-0.1271102875471115,0.24135670065879822
1782985885034014000,3.589013916015625,-1.3331505060195923,-0.117940753698349,0.07760477811098099
1782985885044087300,3.59908740234375,-1.6770639419555664,-0.09759766608476639,-0.12552303075790405
1782985885054161200,3.6091611328125,-1.962591290473938,0.10272717475891113,-0.2770411968231201
1782985885064235000,3.619235107421875,-2.1021370887756348,0.3356032967567444,-0.39657264947891235
1782985885074309000,3.62930908203125,-2.139043092727661,0.5645321011543274,-0.4054068922996521
1782985885084383000,3.639383056640625,-2.101653814315796,0.6680792570114136,-0.1975591480731964
1782985885094457000,3.64945703125,-1.9259374141693115,0.3250119090080261,0.20516939461231232
1782985885104530200,3.6595302734375,-1.752502679824829,-0.7366447448730469,0.8154047727584839
1782985885114604000,3.66960400390625,-1.8375153541564941,-2.4171359539031982,1.4375813007354736
1782985885124678100,3.67967822265625,-2.1116678714752197,-4.124983787536621,1.4592649936676025
1782985885134752000,3.689751953125,-2.153360366821289,-4.611274242401123,0.500227689743042
1782985885144826000,3.699826171875,-1.8130462169647217,-3.5730113983154297,-0.8812996745109558
1782985885154900000,3.70989990234375,-1.3713276386260986,-1.8155328035354614,-1.503981351852417
1782985885164974000,3.71997412109375,-1.0719891786575317,-0.5157416462898254,-0.9276285171508789
1782985885175047200,3.730047119140625,-1.0813459157943726,-0.602660596370697,-0.03960892930626869
1782985885185121000,3.74012109375,-1.3946468830108643,-1.5080472230911255,0.5544115304946899
1782985885195195100,3.750195068359375,-1.92703378200531,-2.0197255611419678,0.5273338556289673
1782985885205269000,3.76026904296875,-2.3049747943878174,-1.5231273174285889,-0.013493970967829227
1782985885215343000,3.770343017578125,-2.5536751747131348,-0.5753391981124878,-0.6169335246086121
1782985885225417200,3.780417236328125,-2.76902437210083,0.15167634189128876,-0.9240220785140991
1782985885235490000,3.790489990234375,-2.912555456161499,0.2990564703941345,-0.9583480954170227
1782985885245564000,3.80056396484375,-2.7688686847686768,0.19709202647209167,-0.93934565782547
1782985885255638000,3.810637939453125,-2.298229694366455,0.17054803669452667,-1.0057768821716309
1782985885265712000,3.820712158203125,-1.7173330783843994,0.3096452057361603,-1.003758430480957
1782985885275786200,3.8307861328125,-1.3275631666183472,0.3283613622188568,-0.7877670526504517
1782985885285860600,3.840860595703125,-1.1452820301055908,0.15290166437625885,-0.27704066038131714
1782985885295934500,3.8509345703125,-1.085790991783142,-0.11917991936206818,0.3235016465187073
1782985885306007300,3.86100732421875,-1.2754597663879395,-0.42029982805252075,0.870749831199646
1782985885316081400,3.871081298828125,-1.6548012495040894,-0.6547781229019165,1.2084718942642212
1782985885326155500,3.881155517578125,-2.0083038806915283,-0.790798544883728,1.3335694074630737
1782985885336229600,3.891229736328125,-2.1590702533721924,-0.735302746295929,1.2360752820968628
1782985885346303500,3.901303466796875,-2.14919114112854,-0.6076169610023499,0.8529934287071228
1782985885356377300,3.91137744140625,-2.042092800140381,-0.44528213143348694,0.24666491150856018
1782985885366450400,3.921450439453125,-1.7893388271331787,-0.27812668681144714,-0.4763745367527008
1782985885376524500,3.931524658203125,-1.4634627103805542,-0.12626633048057556,-1.1416726112365723
1782985885386598400,3.941598388671875,-1.1501747369766235,-0.11124423146247864,-1.6204917430877686
1782985885396672500,3.951672607421875,-0.9219924807548523,-0.22419501841068268,-1.8878041505813599
1782985885406746400,3.961746337890625,-0.8252249360084534,-0.4804587662220001,-1.9744106531143188
1782985885416820500,3.971820556640625,-0.873896598815918,-0.663496196269989,-1.8409864902496338
1782985885426894300,3.981894287109375,-1.055141806602478,-0.46932780742645264,-1.356137752532959
1782985885436967400,3.991967529296875,-1.3098664283752441,-0.5518016219139099,-0.9426860213279724
1782985885447041500,4.00204150390625,-1.5603280067443848,-0.5633049011230469,-0.6971743106842041
1782985885457114400,4.0121142578125,-1.6575645208358765,-0.4218745529651642,-0.5652527213096619
1782985885467188500,4.0221884765625,-1.6030975580215454,-0.26563701033592224,-0.4763990342617035
1782985885477262600,4.0322626953125,-1.4670217037200928,-0.18448515236377716,-0.3724079132080078
1782985885487336400,4.04233642578125,-1.295367956161499,-0.22981774806976318,-0.23516857624053955
1782985885497410600,4.05241064453125,-1.1328072547912598,-0.4782975912094116,-0.10147256404161453
1782985885507484400,4.062484375,-0.9651436805725098,-0.823096513748169,0.05440545082092285
1782985885517557500,4.0725576171875,-0.809931218624115,-1.108966588973999,0.23373205959796906
1782985885527631600,4.082631591796875,-0.6771342754364014,-1.2299226522445679,0.42463597655296326
1782985885537705500,4.09270556640625,-0.5936721563339233,-1.323236107826233,0.6170719861984253
1782985885547779600,4.102779541015625,-0.5451269745826721,-1.4218661785125732,0.7694479823112488
1782985885557853400,4.112853515625,-0.5187262296676636,-1.3295046091079712,0.8107160329818726
1782985885567927300,4.12292724609375,-0.49788302183151245,-1.0896209478378296,0.6651465892791748
1782985885578001400,4.13300146484375,-0.5092912316322327,-0.7775202393531799,0.36871519684791565
1782985885588074500,4.143074462890625,-0.6396319270133972,-0.5130281448364258,0.06403810530900955
1782985885598148400,4.1531484375,-0.8694387078285217,-0.4377709627151489,-0.14380644261837006
1782985885608222500,4.163222412109375,-1.224400520324707,-0.4855877459049225,-0.32600048184394836
1782985885618296300,4.17329638671875,-1.5534958839416504,-0.5703274011611938,-0.3815385699272156
1782985885628370400,4.183370361328125,-1.7701464891433716,-0.6152847409248352,-0.2959624230861664
1782985885638444500,4.193444580078125,-1.8601405620574951,-0.48448652029037476,-0.1338864266872406
1782985885648517400,4.203517333984375,-1.8988971710205078,-0.29104942083358765,-0.05570294335484505
1782985885658591500,4.213591552734375,-1.9164165258407593,-0.20109395682811737,-0.0745120495557785
1782985885668665300,4.223665283203125,-1.8718740940093994,-0.2225385308265686,-0.06994712352752686
1782985885678739500,4.233739501953125,-1.85770845413208,-0.09193471819162369,0.04012718051671982
1782985885688813600,4.2438134765625,-1.8289964199066162,0.4275079369544983,0.17600086331367493
1782985885698887400,4.253887451171875,-1.7376657724380493,0.9517698287963867,0.591391384601593
1782985885708961500,4.26396142578125,-1.6964291334152222,1.3175458908081055,1.1240787506103516
1782985885719034400,4.274034423828125,-1.6289466619491577,1.1338623762130737,1.5054281949996948
1782985885729108500,4.2841083984375,-1.3962674140930176,0.18834035098552704,1.5012893676757812
1782985885739182600,4.2941826171875,-0.9857640266418457,-1.2394391298294067,1.118515968322754
1782985885749256400,4.30425634765625,-0.6271619200706482,-2.241326093673706,0.6505827903747559
1782985885759330600,4.31433056640625,-0.5200626254081726,-2.590447187423706,0.26733317971229553
1782985885769404400,4.324404296875,-0.454059362411499,-3.0253422260284424,-0.21950864791870117
1782985885779478500,4.334478515625,-0.2245611995458603,-3.369990587234497,-0.8562427759170532
1782985885789551600,4.344551513671875,-0.1341458261013031,-2.808804750442505,-1.2420762777328491
1782985885799625500,4.35462548828125,-0.5087604522705078,-1.7541227340698242,-1.0571924448013306
1782985885809699600,4.364699462890625,-1.064498782157898,-0.9650624394416809,-0.5988101959228516
1782985885819773400,4.3747734375,-1.4217711687088013,-0.9313063621520996,-0.17496782541275024
1782985885829847600,4.38484765625,-1.5685847997665405,-1.3439154624938965,0.10911636799573898
1782985885839921400,4.39492138671875,-1.601625919342041,-1.7838207483291626,0.22749227285385132
1782985885849995300,4.404995361328125,-1.3556078672409058,-1.7109483480453491,0.27687954902648926
1782985885860069600,4.415069580078125,-1.1508618593215942,-1.2186139822006226,0.1955609768629074
1782985885870142500,4.425142578125,-1.0942294597625732,-0.3579709231853485,-0.13352876901626587
1782985885880216300,4.43521630859375,-1.067849040031433,0.5013238191604614,-0.5748997926712036
1782985885890290400,4.44529052734375,-1.0810362100601196,0.9420013427734375,-0.9129561185836792
1782985885900364300,4.4553642578125,-1.1640053987503052,0.8825662732124329,-1.0102086067199707
1782985885910438700,4.465438720703125,-1.279410481452942,0.5533172488212585,-0.8255210518836975
1782985885920512500,4.475512451171875,-1.4257533550262451,0.115811288356781,-0.5117703676223755
1782985885930585300,4.48558544921875,-1.5906251668930054,-0.3224949538707733,-0.2677217125892639
1782985885940659500,4.495659423828125,-1.7720266580581665,-0.6094114184379578,-0.1779327094554901
1782985885950733300,4.5057333984375,-1.9079681634902954,-0.6396132707595825,-0.24004562199115753
1782985885960807700,4.5158076171875,-1.9639875888824463,-0.42199012637138367,-0.4724980294704437
1782985885970881500,4.525881591796875,-1.9089040756225586,-0.18045100569725037,-0.8142876029014587
1782985885980955400,4.535955322265625,-1.794407844543457,-0.0568598210811615,-1.0879313945770264
1782985885991029500,4.546029541015625,-1.6654298305511475,-0.0992584079504013,-1.2226612567901611
1782985886001102300,4.556102294921875,-1.5282957553863525,-0.2613016366958618,-1.2098485231399536
1782985886011176400,4.566176513671875,-1.412917971611023,-0.48202604055404663,-1.0627621412277222
1782985886021250600,4.57625048828125,-1.3660743236541748,-0.624573826789856,-0.8259165287017822
1782985886031324400,4.586324462890625,-1.3780285120010376,-0.5982868671417236,-0.5575625896453857
1782985886041398500,4.5963984375,-1.4249778985977173,-0.44749706983566284,-0.26939019560813904
1782985886051472400,4.606472412109375,-1.4785236120224,-0.27603450417518616,-0.06488632410764694
1782985886061545500,4.61654541015625,-1.5037953853607178,-0.0655374675989151,-0.016587765887379646
1782985886071619600,4.62661962890625,-1.480237364768982,0.1263693869113922,-0.07798881083726883
1782985886081693400,4.636693359375,-1.4701367616653442,0.27141499519348145,-0.1443563848733902
1782985886091767600,4.646767578125,-1.4872527122497559,0.3685266375541687,-0.1202465146780014
1782985886101841400,4.65684130859375,-1.5146201848983765,0.2543286979198456,0.000711064029019326
1782985886111915300,4.666915283203125,-1.573383092880249,-0.11198991537094116,0.1361682265996933
1782985886121989400,4.6769892578125,-1.659530758857727,-0.5486671328544617,0.22437319159507751
1782985886132062500,4.6870625,-1.7473111152648926,-0.9156411290168762,0.29082438349723816
1782985886142136600,4.697136474609375,-1.828277349472046,-1.1225522756576538,0.36465200781822205
1782985886152210400,4.70721044921875,-1.890653133392334,-1.184353232383728,0.3945766091346741
1782985886162284300,4.7172841796875,-1.937562346458435,-1.0585896968841553,0.36871784925460815
1782985886172358400,4.7273583984375,-1.9892362356185913,-0.745831310749054,0.2988516688346863
1782985886182432500,4.7374326171875,-2.07523250579834,-0.4184342622756958,0.19738870859146118
1782985886192505300,4.74750537109375,-2.1739304065704346,-0.23077009618282318,0.0793752521276474
1782985886202579500,4.757579345703125,-2.2808926105499268,-0.19491782784461975,-0.020429374650120735
1782985886212653300,4.7676533203125,-2.3910698890686035,-0.3339974284172058,-0.06890955567359924
1782985886222727400,4.7777275390625,-2.449550151824951,-0.5702576041221619,-0.1244383305311203
1782985886232801500,4.787801513671875,-2.472163200378418,-0.831976592540741,-0.25699663162231445
1782985886242875600,4.797875732421875,-2.4318268299102783,-1.0336343050003052,-0.49226880073547363
1782985886252949500,4.807949462890625,-2.375814437866211,-1.0616811513900757,-0.8303941488265991
1782985886263022300,4.818022216796875,-2.2747201919555664,-0.7784861922264099,-1.1977159976959229
1782985886273096400,4.828096435546875,-2.1612555980682373,-0.5126041769981384,-1.622625708580017
1782985886283170600,4.838170654296875,-2.0735390186309814,-0.31659579277038574,-1.9567794799804688
1782985886293244400,4.848244384765625,-1.9472376108169556,-0.31475555896759033,-1.874650478363037
1782985886303318500,4.858318603515625,-1.747633934020996,-0.43649208545684814,-1.1701993942260742
1782985886313392400,4.868392333984375,-1.5206061601638794,-0.7724229693412781,0.09612120687961578
1782985886323465500,4.878465576171875,-1.0891697406768799,-1.602825403213501,1.3937922716140747
1782985886333539600,4.88853955078125,-0.3585818409919739,-2.533210277557373,2.2043464183807373
1782985886343613400,4.898613525390625,0.14341256022453308,-3.0314950942993164,2.2334446907043457
1782985886353687600,4.9086875,-0.05974721908569336,-2.853450059890747,1.7711166143417358
1782985886363761400,4.918761474609375,-0.616269052028656,-2.834864377975464,0.7652981877326965
1782985886373835300,4.928835205078125,-0.9767516255378723,-3.20493221282959,-0.841390073299408
1782985886383909400,4.938909423828125,-1.0090928077697754,-3.0437488555908203,-2.2876014709472656
1782985886393982500,4.948982421875,-1.13762629032135,-2.7121036052703857,-3.0603995323181152
1782985886404056300,4.959056396484375,-1.3601619005203247,-2.058462619781494,-3.1019113063812256
1782985886414130400,4.96913037109375,-1.3662911653518677,-1.1038211584091187,-2.3842086791992188
1782985886424204300,4.979204345703125,-1.271968126296997,-0.28663790225982666,-1.1732369661331177
1782985886434278400,4.9892783203125,-1.27910315990448,0.3468785881996155,0.16016170382499695
1782985886444352500,4.9993525390625,-1.379957675933838,0.647581160068512,1.341179370880127
1782985886454425300,5.00942529296875,-1.5025274753570557,0.5526559948921204,2.0892279148101807
1782985886464499500,5.01949951171875,-1.668277621269226,0.28692471981048584,2.3498475551605225
1782985886474573300,5.0295732421875,-1.8529465198516846,0.23260527849197388,1.9944312572479248
1782985886484647400,5.0396474609375,-1.90925931930542,0.07640582323074341,0.8797057271003723
1782985886494721500,5.049721435546875,-1.948250651359558,0.2282201200723648,-0.42152726650238037
1782985886504795400,5.05979541015625,-1.9735075235366821,0.3214816153049469,-1.6290308237075806
1782985886514869500,5.069869384765625,-1.8604224920272827,0.14070704579353333,-2.4720897674560547
1782985886524942300,5.0799423828125,-1.678751826286316,-0.15010614693164825,-2.856017827987671
1782985886535016400,5.090016357421875,-1.5733486413955688,-0.29100415110588074,-2.8730766773223877
1782985886545090600,5.100090576171875,-1.525283932685852,-0.33416199684143066,-2.7078070640563965
1782985886555164400,5.110164306640625,-1.4482136964797974,-0.2845552861690521,-2.415292739868164
1782985886565238500,5.120238525390625,-1.266852617263794,-0.11799295246601105,-2.0358922481536865
1782985886575312400,5.1303125,-1.0128304958343506,0.20373554527759552,-1.5693800449371338
1782985886585386500,5.140386474609375,-0.800377368927002,0.5499720573425293,-1.0680620670318604
1782985886595459600,5.15045947265625,-0.6974602937698364,0.7829911708831787,-0.6400383114814758
1782985886605533400,5.160533447265625,-0.7718498706817627,0.8062536120414734,-0.2914147973060608
1782985886615607600,5.170607666015625,-1.1007188558578491,0.48741281032562256,-0.11600729823112488
1782985886625681400,5.180681396484375,-1.6007694005966187,0.0017667410429567099,-0.15262389183044434
1782985886635755500,5.190755615234375,-2.1369290351867676,-0.36227405071258545,-0.35367417335510254
1782985886645829400,5.200829345703125,-2.6102542877197266,-0.5103365182876587,-0.5795714855194092
1782985886655902500,5.21090234375,-2.9198508262634277,-0.2740832269191742,-0.7062433958053589
1782985886665976600,5.2209765625,-2.983883857727051,0.2246381640434265,-0.6929073929786682
1782985886676050400,5.231050537109375,-2.9112331867218018,0.7234687209129333,-0.536689817905426
1782985886686124300,5.241124267578125,-2.7495503425598145,0.9888945817947388,-0.26682689785957336
1782985886696198400,5.251198486328125,-2.5536839962005615,0.9235541820526123,0.03537530079483986
1782985886706272300,5.261272216796875,-2.3927700519561768,0.5746510624885559,0.33334413170814514
1782985886716346600,5.2713466796875,-2.2761306762695312,0.08519159257411957,0.542156994342804
1782985886726419500,5.28141943359375,-2.207660436630249,-0.4545866847038269,0.6555091142654419
1782985886736493300,5.291493408203125,-2.2203383445739746,-0.8556457161903381,0.7098647952079773
1782985886746567400,5.3015673828125,-2.2942521572113037,-1.0115423202514648,0.7014481425285339
1782985886756641300,5.311641357421875,-2.3566324710845947,-0.9864846467971802,0.6467734575271606
1782985886766715600,5.321715576171875,-2.3801791667938232,-0.7930720448493958,0.5742275714874268
1782985886776789500,5.33178955078125,-2.341177225112915,-0.46247681975364685,0.49030447006225586
1782985886786862300,5.3418623046875,-2.250952959060669,-0.12914173305034637,0.3974277973175049
1782985886796936400,5.3519365234375,-2.1517200469970703,0.07704764604568481,0.2720416486263275
1782985886807010300,5.36201025390625,-2.073406457901001,0.15126781165599823,0.12948422133922577
1782985886817084400,5.37208447265625,-2.0174899101257324,0.1834782212972641,0.07593231648206711
1782985886827158500,5.382158447265625,-1.9832395315170288,0.21954327821731567,0.11944729834794998
1782985886837232400,5.392232421875,-2.021580696105957,0.1782083511352539,0.18588490784168243
1782985886847306500,5.402306396484375,-2.126084089279175,0.17961902916431427,0.2833118736743927
1782985886857379300,5.41237939453125,-2.2952499389648438,0.11675164848566055,0.367122620344162
1782985886867453400,5.422453369140625,-2.514064311981201,0.061155498027801514,0.4098495841026306
1782985886877527600,5.432527587890625,-2.6620521545410156,-0.22139470279216766,0.41655993461608887
1782985886887601400,5.442601318359375,-2.7153477668762207,-0.5217587947845459,0.46577009558677673
1782985886897675500,5.452675537109375,-2.6649739742279053,-0.7050929069519043,0.7417654395103455
1782985886907749400,5.462749267578125,-2.450758695602417,-1.147264003753662,1.047552227973938
1782985886917822500,5.472822509765625,-2.050180196762085,-2.1246213912963867,0.893471360206604
1782985886927896600,5.482896484375,-1.6695492267608643,-3.2094931602478027,0.1548236608505249
1782985886937970400,5.492970458984375,-1.5751469135284424,-3.2917935848236084,-0.6557967662811279
1782985886948044500,5.50304443359375,-1.7100048065185547,-2.318392038345337,-0.9313449859619141
1782985886958118400,5.513118408203125,-1.972156047821045,-1.142051339149475,-0.5798183679580688
1782985886968192300,5.523192138671875,-2.126438617706299,-0.435676634311676,-0.23716594278812408
1782985886978266400,5.533266357421875,-1.9977670907974243,0.009246495552361012,-0.14725522696971893
1782985886988339500,5.54333935546875,-1.8591394424438477,0.24755972623825073,-0.016107330098748207
1782985886998413300,5.553413330078125,-1.8617948293685913,0.2428153157234192,0.05476924031972885
1782985887008487400,5.5634873046875,-1.902894377708435,0.03907150402665138,-0.0745549276471138
1782985887018561300,5.573561279296875,-1.7307671308517456,-0.22982972860336304,-0.22788482904434204
1782985887028635400,5.583635498046875,-1.2941868305206299,-0.6580798625946045,-0.2589772343635559
1782985887038709500,5.59370947265625,-0.8440324664115906,-1.0691134929656982,-0.10598821938037872
1782985887048782300,5.6037822265625,-0.5473656058311462,-1.4186915159225464,0.08344376087188721
1782985887058856400,5.6138564453125,-0.3451707065105438,-1.5479642152786255,0.22720305621623993
1782985887068930300,5.623930419921875,-0.25226685404777527,-1.4742205142974854,0.2638668119907379
1782985887079004400,5.63400439453125,-0.31461918354034424,-1.0920965671539307,0.16144108772277832
1782985887089078500,5.64407861328125,-0.579511284828186,-0.31660589575767517,-0.06751938909292221
1782985887099152400,5.65415234375,-1.0655224323272705,0.5394067764282227,-0.3235817849636078
1782985887109226500,5.6642265625,-1.6827055215835571,1.1719999313354492,-0.5047268271446228
1782985887119299300,5.67429931640625,-2.286447286605835,1.5793373584747314,-0.5785791873931885
1782985887129373200,5.684373291015625,-2.7005879878997803,1.7995206117630005,-0.4974049925804138
1782985887139447600,5.694447509765625,-2.9919323921203613,1.768561601638794,-0.2617615759372711
1782985887149521400,5.704521484375,-3.148118257522583,1.6244573593139648,0.00881133507937193
1782985887159595500,5.714595458984375,-3.171450138092041,1.401833176612854,0.18229390680789948
1782985887169669400,5.72466943359375,-3.06384015083313,1.0445181131362915,0.26222097873687744
1782985887179742500,5.734742431640625,-2.8408002853393555,0.5231942534446716,0.1781417727470398
1782985887189816600,5.744816650390625,-2.532351493835449,-0.0445200651884079,-0.17113099992275238
1782985887199890400,5.754890380859375,-2.138599395751953,-0.5496141314506531,-0.6686031222343445
1782985887209964500,5.764964599609375,-1.750185489654541,-0.8893384337425232,-1.1136953830718994
1782985887220038400,5.775038330078125,-1.4506940841674805,-1.0199201107025146,-1.3929173946380615
1782985887230112300,5.7851123046875,-1.2019317150115967,-0.9675085544586182,-1.423974633216858
1782985887240186400,5.795186279296875,-1.0264158248901367,-0.7682071924209595,-1.236047625541687
1782985887250259500,5.805259521484375,-0.9852582812309265,-0.5011193156242371,-0.9354667663574219
1782985887260333600,5.81533349609375,-1.0543526411056519,-0.23597338795661926,-0.5502942800521851
1782985887270407400,5.825407470703125,-1.1716382503509521,-0.1619793176651001,-0.11193133145570755
1782985887280481300,5.835481201171875,-1.3324878215789795,-0.294196218252182,0.3240523636341095
1782985887290555000,5.845554931640625,-1.5058090686798096,-0.5285748839378357,0.6897115707397461
1782985887300629200,5.855629150390625,-1.6204451322555542,-0.7835752367973328,0.9050140380859375
1782985887310702000,5.8657021484375,-1.6443179845809937,-0.9045948386192322,0.9617915749549866
1782985887320776000,5.87577587890625,-1.6161491870880127,-0.8420299887657166,0.8591522574424744
1782985887330850000,5.88585009765625,-1.5236074924468994,-0.705786943435669,0.6717565655708313
1782985887340924000,5.895923828125,-1.3592113256454468,-0.570084810256958,0.4302930533885956
1782985887350998300,5.905998291015625,-1.1780040264129639,-0.5106371641159058,0.23070378601551056
1782985887361072000,5.916072021484375,-1.0066229104995728,-0.5479065179824829,0.0965888574719429
1782985887371146200,5.926146240234375,-0.8654195070266724,-0.6382430791854858,0.05441344156861305
1782985887381219000,5.936218994140625,-0.7631900310516357,-0.6245365738868713,0.21584707498550415
1782985887391293000,5.94629296875,-0.7070103883743286,-0.6744617819786072,0.4990241825580597
1782985887401367300,5.9563671875,-0.6501894593238831,-0.7945067286491394,0.8108114004135132
1782985887411441200,5.966441162109375,-0.6559232473373413,-0.7580267190933228,1.1066278219223022
1782985887421515000,5.976514892578125,-0.7042785286903381,-0.715876042842865,1.4553378820419312
1782985887431589000,5.986589111328125,-0.7732563018798828,-0.7772246599197388,1.7519160509109497
1782985887441662000,5.996661865234375,-0.7972143292427063,-0.8049851655960083,1.9847309589385986
1782985887451736000,6.006736083984375,-0.7724077701568604,-0.7289543151855469,2.144178628921509
1782985887461810200,6.01681005859375,-0.7056636214256287,-0.648392915725708,2.218801736831665
1782985887471884000,6.026884033203125,-0.6708012819290161,-0.600799024105072,2.1772968769073486
1782985887481958100,6.036958251953125,-0.6865836977958679,-0.6029875874519348,2.035351037979126
1782985887492032000,6.047031982421875,-0.6676148176193237,-0.7574818134307861,1.8074884414672852
1782985887502106000,6.057106201171875,-0.5820370316505432,-1.1772141456604004,1.4621236324310303
1782985887512179200,6.06717919921875,-0.4885158836841583,-1.6735005378723145,1.1793636083602905
1782985887522253000,6.077253173828125,-0.4709653854370117,-1.8265812397003174,1.228665828704834
1782985887532327200,6.0873271484375,-0.698692798614502,-1.8011856079101562,1.2963488101959229
1782985887542401000,6.097401123046875,-1.1929259300231934,-1.7996156215667725,0.9718258380889893
1782985887552475000,6.107474853515625,-1.6455541849136353,-1.7533082962036133,0.2780798077583313
1782985887562549000,6.117549072265625,-1.7665748596191406,-1.7629934549331665,-0.5415782928466797
1782985887572622000,6.1276220703125,-1.6240917444229126,-2.0959503650665283,-1.3073800802230835
1782985887582696200,6.1376962890625,-1.4834470748901367,-2.2745776176452637,-1.818183422088623
1782985887592770000,6.14777001953125,-1.545825481414795,-1.9534566402435303,-1.9857990741729736
1782985887602844000,6.157843994140625,-1.792112946510315,-1.2599623203277588,-1.8132686614990234
1782985887612918000,6.16791796875,-2.020200252532959,-0.6627191305160522,-1.382421851158142
1782985887622992100,6.1779921875,-2.075690984725952,-0.7086213827133179,-0.9095965623855591
1782985887633066200,6.188066162109375,-1.950931429862976,-1.2997525930404663,-0.5692727565765381
1782985887643139000,6.19813916015625,-1.76017427444458,-1.8970420360565186,-0.5758055448532104
1782985887653213000,6.208212890625,-1.6532655954360962,-1.9181127548217773,-1.192020297050476
1782985887663287000,6.218287109375,-1.7052278518676758,-1.2924933433532715,-2.3370792865753174
1782985887673361200,6.228361083984375,-1.7985730171203613,-0.2483605444431305,-3.600214958190918
1782985887683435300,6.238435302734375,-1.9723418951034546,0.6258284449577332,-4.575466156005859
1782985887693509000,6.248509033203125,-2.158280849456787,1.0666077136993408,-4.876516342163086
1782985887703582000,6.25858203125,-2.239407777786255,1.1860235929489136,-4.426251411437988
1782985887713656000,6.268656005859375,-2.1064767837524414,1.1830848455429077,-3.2536332607269287
1782985887723730200,6.278730224609375,-1.799198865890503,0.8947265148162842,-1.674635887145996
1782985887733804000,6.288803955078125,-1.6602673530578613,0.4648164212703705,-0.16195107996463776
1782985887743878100,6.298878173828125,-1.6990275382995605,0.048347823321819305,0.9895443916320801
1782985887753952000,6.308951904296875,-1.7668588161468506,-0.25734737515449524,1.6142665147781372
1782985887764026000,6.319026123046875,-1.8582494258880615,-0.3571655750274658,1.6749770641326904
1782985887774099200,6.32909912109375,-1.9875965118408203,-0.22125089168548584,1.1931449174880981
1782985887784173000,6.339173095703125,-2.15474796295166,-0.020650949329137802,0.3185518682003021
1782985887794247200,6.3492470703125,-2.2859177589416504,0.12026329338550568,-0.7091553211212158
1782985887804321000,6.359321044921875,-2.176866054534912,0.25203409790992737,-1.5774602890014648
1782985887814395100,6.36939501953125,-1.8893457651138306,0.3364885449409485,-2.1381192207336426
1782985887824469000,6.379468994140625,-1.5956246852874756,0.5127890110015869,-2.246595859527588
1782985887834542000,6.3895419921875,-1.3468034267425537,0.6839833855628967,-1.8698935508728027
1782985887844616200,6.3996162109375,-1.1308099031448364,0.7219437956809998,-1.1049330234527588
1782985887854690000,6.40968994140625,-0.9674081802368164,0.5993968844413757,-0.19693677127361298
1782985887864764000,6.419763916015625,-0.8465539216995239,0.3669596314430237,0.6156794428825378
1782985887874838000,6.429838134765625,-0.7557553052902222,0.08980472385883331,1.1951806545257568
1782985887884912000,6.439912109375,-0.7045201063156128,-0.20722243189811707,1.5253247022628784
1782985887894986200,6.449986328125,-0.6971279382705688,-0.46756798028945923,1.6837817430496216
1782985887905059000,6.46005908203125,-0.6941353678703308,-0.569572925567627,1.7109843492507935
1782985887915133000,6.4701328125,-0.6722977161407471,-0.5500128269195557,1.641314148902893
1782985887925207000,6.48020703125,-0.6198850870132446,-0.43171945214271545,1.5504425764083862
1782985887935281200,6.49028125,-0.5818162560462952,-0.3056275546550751,1.4844595193862915
1782985887945355300,6.500355224609375,-0.5828330516815186,-0.13429415225982666,1.4148677587509155
1782985887955429000,6.51042919921875,-0.5984266996383667,0.09553930908441544,1.3862195014953613
1782985887965502000,6.520501953125,-0.6351258158683777,0.23945599794387817,1.3822767734527588
1782985887975576000,6.530576171875,-0.6774924397468567,0.19016221165657043,1.4117909669876099
1782985887985650200,6.540650146484375,-0.7041491270065308,-0.04982667788863182,1.4762988090515137
1782985887995724300,6.550724365234375,-0.7319285273551941,-0.37071335315704346,1.4963369369506836
1782985888005798100,6.560798095703125,-0.7437005043029785,-0.5468543171882629,1.496605396270752
1782985888015872000,6.5708720703125,-0.7433873414993286,-0.5886132121086121,1.4598802328109741
1782985888025946000,6.580946044921875,-0.7702609896659851,-0.41688084602355957,1.3954002857208252
1782985888036019200,6.591019287109375,-0.7997618913650513,-0.10297165811061859,1.3306875228881836
1782985888046093000,6.601093017578125,-0.8704816102981567,0.1619952917098999,1.2269673347473145
1782985888056167200,6.611167236328125,-0.9976057410240173,0.3311110734939575,1.0929032564163208
1782985888066241000,6.621240966796875,-1.1301382780075073,0.35252583026885986,0.9001103639602661
1782985888076315100,6.631315185546875,-1.2136517763137817,0.33605045080184937,0.7294350266456604
1782985888086389000,6.641388916015625,-1.2570782899856567,0.27512505650520325,0.6779795289039612
1782985888096462000,6.651462158203125,-1.2167104482650757,0.13846918940544128,0.7730653285980225
1782985888106536200,6.6615361328125,-1.0146116018295288,-0.03344051539897919,0.9792531132698059
1782985888116610000,6.671610107421875,-0.6450245380401611,-0.30229833722114563,1.401777982711792
1782985888126684200,6.68168408203125,-0.3684123754501343,-0.8497081995010376,2.043513059616089
1782985888136758000,6.691758056640625,-0.5740646123886108,-1.904022455215454,2.5459632873535156
1782985888146832000,6.701831787109375,-1.2194316387176514,-3.0016350746154785,2.6042943000793457
1782985888156906200,6.71190625,-1.7273808717727661,-3.1114132404327393,2.231196880340576
1782985888166979000,6.72197900390625,-1.8312417268753052,-2.652014970779419,1.2320719957351685
1782985888177053000,6.732052978515625,-1.6254539489746094,-2.0602264404296875,-0.2339152842760086
1782985888187127000,6.742126953125,-1.1844466924667358,-1.669498085975647,-1.726935625076294
1782985888197201000,6.752200927734375,-0.7851640582084656,-1.2253550291061401,-2.6676862239837646
1782985888207275300,6.762275146484375,-0.6240226030349731,-0.6461758017539978,-2.8202250003814697
1782985888217349000,6.77234912109375,-0.48741626739501953,-0.061474546790122986,-2.23663330078125
1782985888227422000,6.782421875,-0.3944285213947296,0.0353153795003891,-1.3505808115005493
1782985888237496000,6.79249609375,-0.48042628169059753,-0.447897344827652,-0.5587970018386841
1782985888247570000,6.80256982421875,-0.7351283431053162,-1.1185065507888794,-0.15871268510818481
1782985888257644300,6.812644287109375,-1.0576099157333374,-1.5405646562576294,-0.27575168013572693
1782985888267718100,6.82271826171875,-1.3423956632614136,-1.389350414276123,-0.7883193492889404
1782985888277792000,6.8327919921875,-1.5012952089309692,-0.6731669306755066,-1.4537639617919922
1782985888287866000,6.8428662109375,-1.4999703168869019,0.3963204324245453,-2.0588197708129883
1782985888297938400,6.8529384765625,-1.3783941268920898,1.359915018081665,-2.359151840209961
1782985888308012500,6.863012451171875,-1.1879594326019287,1.8310843706130981,-2.265200138092041
1782985888318086400,6.87308642578125,-0.9552527070045471,1.7900046110153198,-1.8189235925674438
1782985888328160500,6.883160400390625,-0.7191240787506104,1.3538682460784912,-1.0990660190582275
1782985888338234400,6.893234375,-0.538483202457428,0.7367411255836487,-0.22181947529315948
1782985888348308500,6.90330859375,-0.4755377769470215,0.020657075569033623,0.5465363264083862
1782985888358381600,6.913381591796875,-0.5163533687591553,-0.6037458181381226,1.0779975652694702
1782985888368455400,6.923455322265625,-0.6173604130744934,-1.0474931001663208,1.3291435241699219
1782985888378529500,6.933529541015625,-0.7305727005004883,-1.218032956123352,1.2988446950912476
1782985888388603400,6.943603271484375,-0.8236960172653198,-0.9687978029251099,1.0165488719940186
1782985888398677200,6.95367724609375,-0.8277618885040283,-0.3848142623901367,0.5642079710960388
1782985888408751400,6.96375146484375,-0.770331084728241,0.2691534459590912,0.038184668868780136
1782985888418825500,6.973825439453125,-0.735451340675354,0.7741870284080505,-0.4033117890357971
1782985888428898600,6.983898681640625,-0.7787165641784668,1.0314710140228271,-0.6712856888771057
1782985888438972400,6.993972412109375,-0.8921472430229187,0.9751806259155273,-0.753976583480835
1782985888449046300,7.00404638671875,-1.010405421257019,0.7370327711105347,-0.6173729300498962
1782985888459120600,7.01412060546875,-1.0759042501449585,0.3295539319515228,-0.2951080799102783
1782985888469194500,7.024194580078125,-1.1324453353881836,-0.26509371399879456,0.07923117280006409
1782985888479268600,7.0342685546875,-1.201992154121399,-0.7826340794563293,0.3801417350769043
1782985888489341400,7.044341552734375,-1.2625521421432495,-1.0120257139205933,0.5974295735359192
1782985888499415300,7.054415283203125,-1.314877986907959,-0.9993693232536316,0.684937596321106
1782985888509489700,7.06448974609375,-1.3356513977050781,-0.7446874976158142,0.6555043458938599
1782985888519563500,7.0745634765625,-1.368894338607788,-0.2783818244934082,0.5437511801719666
1782985888529637600,7.0846376953125,-1.4146610498428345,0.23139967024326324,0.41610267758369446
1782985888539711500,7.09471142578125,-1.439286708831787,0.5044277310371399,0.316690593957901
1782985888549785300,7.104785400390625,-1.4669461250305176,0.4212292432785034,0.2583433985710144
1782985888559858700,7.114858642578125,-1.475982427597046,0.07576560229063034,0.23383885622024536
1782985888569932500,7.1249326171875,-1.4443342685699463,-0.2796801030635834,0.20706716179847717
1782985888580006400,7.13500634765625,-1.333417534828186,-0.5009011626243591,0.18331868946552277
1782985888590080500,7.14508056640625,-1.1990941762924194,-0.5389734506607056,0.18171174824237823
1782985888600154400,7.155154296875,-1.068530797958374,-0.3640645146369934,0.23284150660037994
1782985888610228500,7.165228515625,-0.9528225660324097,0.013156814500689507,0.35724973678588867
1782985888620301600,7.175301513671875,-0.8731868863105774,0.4095640778541565,0.5169898867607117
1782985888630375400,7.18537548828125,-0.8329672813415527,0.5621703863143921,0.6708105802536011
1782985888640449500,7.195449462890625,-0.8453466892242432,0.3810376226902008,0.8745855689048767
1782985888650523400,7.2055234375,-0.8796743154525757,0.030425550416111946,1.0739455223083496
1782985888660597500,7.215597412109375,-0.8696139454841614,-0.1504582166671753,1.1852000951766968
1782985888670671400,7.22567138671875,-0.7943722009658813,-0.1208699643611908,1.1582447290420532
1782985888680745500,7.235745361328125,-0.6888697743415833,-0.08789097517728806,0.906992495059967
1782985888690818600,7.245818603515625,-0.41126078367233276,-0.2728922367095947,0.46434396505355835
1782985888700892400,7.255892333984375,0.004176901653409004,-1.1179063320159912,-0.30522409081459045
1782985888710966300,7.26596630859375,0.11124316602945328,-2.5036027431488037,-1.335483431816101
1782985888721040400,7.276040283203125,-0.12230194360017776,-3.442993640899658,-2.1071054935455322
1782985888731114500,7.286114501953125,-0.42200717329978943,-2.901926040649414,-1.9542254209518433
1782985888741188600,7.296188720703125,-0.7388346791267395,-1.7016246318817139,-0.9739049673080444
1782985888751261400,7.306261474609375,-0.8777105212211609,-0.9718695282936096,-0.11599823832511902
1782985888761335300,7.316335205078125,-0.7588845491409302,-1.0692917108535767,0.04098498448729515
1782985888771409400,7.326409423828125,-0.7315210700035095,-1.6541844606399536,-0.5178359746932983
1782985888781483500,7.3364833984375,-0.9675881862640381,-2.215604066848755,-1.2814507484436035
1782985888791557600,7.3465576171875,-1.1808089017868042,-2.197732925415039,-1.647060751914978
1782985888801631500,7.356631591796875,-1.1053454875946045,-1.8396453857421875,-1.3659688234329224
1782985888811705300,7.366705322265625,-1.2542420625686646,-1.6644620895385742,-0.06411906331777573
1782985888821778400,7.3767783203125,-0.963626503944397,-1.5406972169876099,0.5898076295852661
1782985888831852500,7.3868525390625,-1.006604790687561,-1.002644419670105,0.8081846833229065
1782985888841926700,7.3969267578125,-1.0738880634307861,-0.5263660550117493,0.8297182321548462
1782985888852000500,7.40700048828125,-1.219833254814148,-0.30665847659111023,0.8334439992904663
1782985888862074400,7.417074462890625,-1.5917894840240479,-0.4306797385215759,1.087966799736023
1782985888872148500,7.4271484375,-2.0147719383239746,-0.7057363390922546,1.4620181322097778
1782985888882221600,7.4372216796875,-2.2222962379455566,-1.1913269758224487,1.7569557428359985
1782985888892295400,7.44729541015625,-2.2855520248413086,-1.2534101009368896,1.895507574081421
1782985888902369500,7.45736962890625,-2.0407304763793945,-1.3034725189208984,1.9602534770965576
1782985888912443400,7.467443359375,-2.4749081134796143,-1.777296543121338,1.8818860054016113
1782985888922517500,7.477517578125,-2.868103265762329,-1.939678430557251,1.212584376335144
1782985888932591400,7.48759130859375,-3.1018378734588623,-2.0217018127441406,0.24515649676322937
1782985888942665500,7.49766552734375,-3.2273266315460205,-2.111828565597534,-0.7518923878669739
1782985888952738600,7.507738525390625,-3.2205803394317627,-2.026573419570923,-1.704161524772644
1782985888962812400,7.5178125,-2.939225196838379,-1.6797685623168945,-2.376103401184082
1782985888972886500,7.527886474609375,-2.580261707305908,-1.2914283275604248,-2.4357035160064697
1782985888982960400,7.53796044921875,-2.3244357109069824,-0.9625204801559448,-1.9701857566833496
1782985888993034200,7.5480341796875,-2.1379270553588867,-0.5719159841537476,-1.3372650146484375
1782985889003108600,7.558108642578125,-1.9606716632843018,-0.1379232406616211,-0.6594035029411316
1782985889013181400,7.568181396484375,-1.8654260635375977,0.007380152121186256,-0.1341964155435562
1782985889023255300,7.57825537109375,-1.819447636604309,0.05758313462138176,0.21647638082504272
1782985889033329400,7.588329345703125,-1.7830151319503784,-0.002915362361818552,0.3489566445350647
1782985889043403300,7.5984033203125,-1.7405142784118652,-0.1230633407831192,0.267267107963562
1782985889053477600,7.6084775390625,-1.6733309030532837,-0.2612840533256531,0.09924722462892532
1782985889063551500,7.618551513671875,-1.5975900888442993,-0.41326987743377686,-0.10063845664262772
1782985889073625600,7.62862548828125,-1.514973759651184,-0.530483603477478,-0.30647605657577515
1782985889083698400,7.638698486328125,-1.4428911209106445,-0.7332153916358948,-0.44918233156204224
1782985889093772300,7.648772216796875,-1.3742142915725708,-0.8929858803749084,-0.4293297827243805
1782985889103846700,7.6588466796875,-1.33566153049469,-1.0022923946380615,-0.30637484788894653
1782985889113920500,7.66892041015625,-1.3198423385620117,-0.949126124382019,-0.09530282020568848
1782985889123994400,7.678994384765625,-1.3256182670593262,-0.7926387786865234,0.08113133907318115
1782985889134068500,7.689068359375,-1.38040030002594,-0.5401894450187683,0.14942996203899384
1782985889144141300,7.699141357421875,-1.4277235269546509,-0.37627509236335754,0.08349516242742538
1782985889154215700,7.709215576171875,-1.4826486110687256,-0.17659127712249756,0.04458744078874588
1782985889164289500,7.71928955078125,-1.564956784248352,-0.08637350052595139,-0.0913994237780571
1782985889174363400,7.72936328125,-1.610161542892456,-0.1708846539258957,-0.18590249121189117
1782985889184437500,7.7394375,-1.6676483154296875,-0.3935867249965668,-0.15103958547115326
1782985889194511400,7.749511474609375,-1.778886079788208,-0.6906729936599731,-0.11863237619400024
1782985889204585500,7.75958544921875,-1.9424002170562744,-0.7474195957183838,-0.1398620307445526
1782985889214658600,7.769658447265625,-2.1210668087005615,-0.7130840420722961,-0.20688287913799286
1782985889224732400,7.779732421875,-2.242882013320923,-0.7082277536392212,-0.29351603984832764
1782985889234806500,7.789806640625,-2.272826910018921,-0.8153376579284668,-0.228244349360466
1782985889244880400,7.79988037109375,-2.313882350921631,-1.234548568725586,-0.07413095235824585
1782985889254954500,7.80995458984375,-2.3081488609313965,-1.7208585739135742,0.3011976480484009
1782985889265028400,7.8200283203125,-2.3515496253967285,-2.0495035648345947,0.6063588857650757
1782985889275101400,7.830101318359375,-2.4473636150360107,-1.9908119440078735,0.3090212345123291
1782985889285175600,7.840175537109375,-2.5246682167053223,-1.681806206703186,-0.48316720128059387
1782985889295250000,7.85025,-2.472398281097412,-1.2105520963668823,-1.100280523300171
1782985889305324000,7.860323974609375,-2.375795602798462,-0.5059750080108643,-1.5242125988006592
1782985889315398000,7.87039794921875,-2.3536136150360107,-0.18577438592910767,-1.6881163120269775
1782985889325472000,7.880471923828125,-2.188520669937134,-0.282392293214798,-1.7267131805419922
1782985889335546000,7.890546142578125,-1.8778321743011475,-0.6703522801399231,-1.7264490127563477
1782985889345619000,7.900618896484375,-1.4360870122909546,-0.7028601169586182,-1.4915025234222412
1782985889355693000,7.910693115234375,-0.778772234916687,-0.5042408108711243,-0.9264892339706421
1782985889365767000,7.920766845703125,-0.08206690847873688,-0.36113661527633667,-0.10736586898565292
1782985889375841000,7.930841064453125,0.44391220808029175,-0.3966221809387207,0.7210391163825989
1782985889385915100,7.9409150390625,0.9891544580459595,-0.44271111488342285,1.3991731405258179
1782985889395989000,7.950989013671875,1.483282446861267,-0.3511846661567688,1.876991629600525
1782985889406062000,7.96106201171875,1.613287091255188,-0.2585623264312744,2.2397572994232178
1782985889416136000,7.971135986328125,1.273701548576355,0.0669257715344429,2.4901161193847656
1782985889426210000,7.9812099609375,0.7247768640518188,0.8346850275993347,2.5246198177337646
1782985889436284200,7.9912841796875,0.13240784406661987,1.7355881929397583,2.496797561645508
1782985889446358000,8.00135791015625,-0.36034300923347473,2.606170654296875,2.5680577754974365
1782985889456431000,8.01143115234375,-0.7248794436454773,2.884059429168701,2.7170193195343018
1782985889466505000,8.0215048828125,-1.0963504314422607,2.691948413848877,2.685607433319092
1782985889476579000,8.0315791015625,-1.341711163520813,1.9972773790359497,2.382364511489868
1782985889486653200,8.041653076171874,-1.2880346775054932,0.7239518165588379,1.8142918348312378
1782985889496727000,8.05172705078125,-1.1937614679336548,-0.7476784586906433,1.086218237876892
1782985889506801200,8.06180126953125,-1.3431642055511475,-1.8991062641143799,0.2861473262310028
1782985889516875000,8.071875,-1.2348816394805908,-2.329338312149048,-0.6818349957466125
1782985889526948000,8.081947998046875,-1.2029980421066284,-2.0235445499420166,-1.6990967988967896
1782985889537022200,8.092022216796876,-1.862423062324524,-1.8846477270126343,-2.4778172969818115
1782985889547096000,8.102095947265624,-2.4243276119232178,-1.6451374292373657,-2.910230875015259
1782985889557170200,8.112170166015625,-2.7054686546325684,-1.314362645149231,-2.9078516960144043
1782985889567244000,8.122244140625,-2.789735794067383,-0.9851158261299133,-2.5390942096710205
1782985889577318000,8.13231787109375,-2.6501290798187256,-0.6426266431808472,-1.9320051670074463
1782985889587391200,8.14239111328125,-2.4028689861297607,-0.40548890829086304,-1.2700530290603638
1782985889597465000,8.152465087890626,-2.181046724319458,-0.5187675356864929,-0.6882628202438354
1782985889607539000,8.1625390625,-1.9980506896972656,-0.8149169087409973,-0.19292178750038147
1782985889617613000,8.172613037109375,-1.8663467168807983,-1.116594672203064,0.13216257095336914
1782985889627687000,8.18268701171875,-1.8198130130767822,-1.383076786994934,0.21778319776058197
1782985889637761000,8.192760986328125,-1.8221856355667114,-1.577658772468567,0.044921670109033585
1782985889647834000,8.202834228515625,-1.8000990152359009,-1.6089668273925781,-0.33964118361473083
1782985889657908000,8.212907958984376,-1.7554575204849243,-1.5599220991134644,-0.7897346019744873
1782985889667982000,8.222982177734375,-1.7719192504882812,-1.5539952516555786,-1.2037911415100098
1782985889678056000,8.233055908203125,-1.775797724723816,-1.5366871356964111,-1.412367582321167
1782985889688130000,8.243130126953124,-1.7343947887420654,-1.456687092781067,-1.3307621479034424
1782985889698204200,8.2532041015625,-1.7025774717330933,-1.4160914421081543,-1.059781789779663
1782985889708278000,8.263278076171876,-1.7227163314819336,-1.3992866277694702,-0.7360601425170898
1782985889718351000,8.27335107421875,-1.7838436365127563,-1.319437861442566,-0.39835935831069946
1782985889728425000,8.283425048828125,-1.8332724571228027,-1.252035140991211,-0.13196735084056854
1782985889738499000,8.2934990234375,-1.8597410917282104,-1.244421124458313,-0.009913616813719273
1782985889748573200,8.3035732421875,-1.85739004611969,-1.2343424558639526,0.026159431785345078
1782985889758647000,8.31364697265625,-1.8513933420181274,-1.1422545909881592,0.00962919183075428
1782985889768721200,8.32372119140625,-1.8461107015609741,-1.0406397581100464,-0.0363425612449646
1782985889778794000,8.3337939453125,-1.881462812423706,-0.9387064576148987,-0.04529930278658867
1782985889788869000,8.343869140625,-1.904911994934082,-0.8196179270744324,-0.021132715046405792
1782985889798943000,8.35394287109375,-1.8767977952957153,-0.7940686345100403,0.072382852435112
1782985889809016800,8.364016845703125,-1.8500908613204956,-0.6503961086273193,0.38847824931144714
1782985889819091200,8.37409130859375,-1.8808561563491821,-0.4558833837509155,0.9071144461631775
1782985889829164000,8.3841640625,-1.9454346895217896,-0.2906651198863983,1.5072813034057617
1782985889839238000,8.39423779296875,-2.057321310043335,-0.18449313938617706,2.01438045501709
1782985889849312000,8.40431201171875,-2.278435230255127,-0.23177704215049744,2.362635374069214
1782985889859385900,8.4143857421875,-2.4974355697631836,-0.6750551462173462,2.4080662727355957
1782985889869460200,8.424460205078125,-2.6182639598846436,-1.2313356399536133,1.951407790184021
1782985889879534000,8.4345341796875,-2.6354382038116455,-1.3228490352630615,1.1373615264892578
1782985889889607000,8.44460693359375,-2.76299786567688,-1.098351001739502,0.39805468916893005
1782985889899681000,8.454680908203125,-2.845693826675415,-0.75225430727005,0.022845927625894547
1782985889909755000,8.4647548828125,-2.7532660961151123,-0.45468947291374207,-0.2955584228038788
1782985889919829200,8.474829345703125,-2.5827419757843018,-0.1930197924375534,-0.5875236988067627
1782985889929903000,8.484903076171875,-2.4874942302703857,-0.11438117176294327,-0.8802613019943237
1782985889939977000,8.49497705078125,-2.3432586193084717,-0.12689483165740967,-0.9834992289543152
1782985889950051000,8.505051025390625,-2.150012493133545,-0.14019279181957245,-0.660958468914032
1782985889960124000,8.5151240234375,-1.9378291368484497,-0.15172667801380157,0.059305135160684586
1782985889970198300,8.5251982421875,-1.6627683639526367,-0.12296134233474731,0.8597056865692139
1782985889980272000,8.535272216796875,-1.4819111824035645,-0.09400612115859985,1.3749996423721313
1782985889990346000,8.545345947265625,-1.5141983032226562,0.02991315722465515,1.563450574874878
1782985890000420000,8.555420166015624,-1.5471432209014893,0.021747639402747154,1.4583499431610107
1782985890010494000,8.565493896484375,-1.5055205821990967,-0.15245665609836578,0.880394697189331
1782985890020568000,8.575568115234375,-1.4267603158950806,-0.2384282797574997,0.3961507976055145
1782985890030641200,8.58564111328125,-1.3308016061782837,-0.35084962844848633,0.29489368200302124
1782985890040715000,8.595715087890625,-1.236809492111206,-0.5683888792991638,0.4115515947341919
1782985890050789000,8.6057890625,-1.2045440673828125,-0.7926598191261292,0.5659670233726501
1782985890060863000,8.615863037109374,-1.2785372734069824,-1.043043851852417,0.5769312381744385
1782985890070937000,8.62593701171875,-1.4712255001068115,-1.387671709060669,0.2557942271232605
1782985890081011000,8.636010986328126,-1.7369102239608765,-1.6889536380767822,-0.3511452376842499
1782985890091084000,8.646083984375,-2.000908374786377,-1.8403351306915283,-1.1268061399459839
1782985890101158100,8.656158203125,-2.190026044845581,-1.9172954559326172,-1.8119425773620605
1782985890111232000,8.66623193359375,-2.3146252632141113,-1.8318250179290771,-2.1106836795806885
1782985890121305900,8.676305908203124,-2.3677940368652344,-1.565721869468689,-1.9554595947265625
1782985890131380000,8.6863798828125,-2.3630666732788086,-1.2732805013656616,-1.4495769739151
1782985890141454000,8.6964541015625,-2.3066208362579346,-1.004193663597107,-0.8795275688171387
1782985890151527000,8.70652685546875,-2.2237143516540527,-0.7761908173561096,-0.4554618000984192
1782985890161601000,8.71660107421875,-2.1224610805511475,-0.6931670308113098,-0.19792240858078003
1782985890171675000,8.7266748046875,-2.0058774948120117,-0.7461346387863159,-0.12267771363258362
1782985890181749000,8.7367490234375,-1.89077889919281,-0.8518238067626953,-0.1906660944223404
1782985890191823000,8.746822998046875,-1.799107551574707,-0.9411781430244446,-0.32573390007019043
1782985890201897200,8.756897216796874,-1.7461199760437012,-0.9803761839866638,-0.4376652240753174
1782985890211971000,8.76697119140625,-1.7269011735916138,-0.9240529537200928,-0.49222567677497864
1782985890222044000,8.7770439453125,-1.7259491682052612,-0.8871471285820007,-0.4981312155723572
1782985890232118000,8.787117919921876,-1.7605345249176025,-0.8834224343299866,-0.4707699120044708
1782985890242192100,8.797192138671875,-1.81770920753479,-0.8442769050598145,-0.4637641906738281
1782985890252266000,8.807265869140625,-1.8764537572860718,-0.7823648452758789,-0.4675389528274536
1782985890262340000,8.817340087890624,-1.901540994644165,-0.7582507133483887,-0.4606909155845642
1782985890272414000,8.8274140625,-1.8908214569091797,-0.7321668863296509,-0.45667245984077454
1782985890282487000,8.837487060546875,-1.8601762056350708,-0.6543293595314026,-0.48177197575569153
1782985890292561200,8.84756103515625,-1.8328031301498413,-0.5546349883079529,-0.50673508644104
1782985890302635300,8.85763525390625,-1.7728530168533325,-0.43965885043144226,-0.5143741369247437
1782985890312709000,8.867709228515626,-1.7237411737442017,-0.3645417392253876,-0.48911428451538086
1782985890322783200,8.877783203125,-1.7185455560684204,-0.38703346252441406,-0.43108242750167847
1782985890332857000,8.887857177734375,-1.7763241529464722,-0.49699273705482483,-0.3550281226634979
1782985890342931200,8.89793115234375,-1.8521795272827148,-0.6495811939239502,-0.24227787554264069
1782985890353004300,8.90800439453125,-1.8884661197662354,-0.815311849117279,-0.11179231107234955
1782985890363078100,8.918078125,-1.879504919052124,-0.926203191280365,-0.015363509766757488
1782985890373152300,8.92815234375,-1.8554339408874512,-0.8715567588806152,0.04723755270242691
1782985890383226000,8.93822607421875,-1.8504407405853271,-0.7480318546295166,0.056343432515859604
1782985890393300000,8.948300048828125,-1.8613152503967285,-0.7536919116973877,0.027064373716711998
1782985890403374000,8.9583740234375,-1.8145898580551147,-0.7797152400016785,0.05133296176791191
1782985890413448200,8.9684482421875,-1.6890488862991333,-0.9783287048339844,0.22749094665050507
1782985890423521300,8.978521240234375,-1.5937473773956299,-1.3252949714660645,0.6766373515129089
1782985890433595100,8.98859521484375,-1.5697590112686157,-1.9738351106643677,1.1268279552459717
1782985890443669000,8.9986689453125,-1.5728522539138794,-2.6342711448669434,1.204675555229187
1782985890453743000,9.0087431640625,-1.664681315422058,-2.992920398712158,0.7273039817810059
1782985890463817200,9.018817138671874,-1.7672969102859497,-2.69551420211792,0.015370700508356094
1782985890473891300,9.028891357421875,-1.8620758056640625,-1.9315869808197021,-0.47258272767066956
1782985890483964200,9.038964111328125,-2.007545232772827,-1.4721035957336426,-0.6023263335227966
1782985890494038000,9.0490380859375,-2.1013858318328857,-1.3140531778335571,-0.6315814256668091
1782985890504112000,9.059112060546875,-2.19150972366333,-1.054470419883728,-0.8680844902992249
1782985890514186200,9.069186279296876,-2.3730740547180176,-0.7177559733390808,-1.031934142112732
1782985890524260400,9.07926025390625,-2.5615041255950928,-0.6250817179679871,-0.708544135093689
1782985890534334200,9.089334228515625,-2.680642604827881,-0.6211418509483337,0.07045259326696396
1782985890544408000,9.099407958984376,-2.66635799407959,-0.5017571449279785,0.9731403589248657
1782985890554481200,9.109481201171874,-2.590339422225952,-0.2803107500076294,1.5909972190856934
1782985890564555300,9.11955517578125,-2.5112829208374023,0.05672266706824303,1.7541056871414185
1782985890574629000,9.129629150390626,-2.2069363594055176,0.4030928611755371,1.6090214252471924
1782985890584703200,9.139703125,-1.489490032196045,0.5066456198692322,1.3995792865753174
1782985890594777000,9.149777099609375,-0.7634172439575195,0.38900473713874817,1.0739727020263672
1782985890604851200,9.159851318359374,-0.3403796851634979,0.4846164882183075,0.7946031093597412
1782985890614924300,9.16992431640625,-0.23748978972434998,0.561576783657074,0.7167618274688721
1782985890624998100,9.179998046875,-0.33312922716140747,0.30890804529190063,0.8132042288780212
1782985890635072300,9.190072265625,-0.5281602144241333,-0.4539158344268799,0.9169713854789734
1782985890645146000,9.20014599609375,-0.7967789173126221,-1.5676069259643555,0.8383108973503113
1782985890655220200,9.21022021484375,-1.1387841701507568,-2.5113348960876465,0.6196350455284119
1782985890665294000,9.220294189453124,-1.5156060457229614,-3.0604820251464844,0.33292949199676514
1782985890675368200,9.2303681640625,-1.8198429346084595,-3.034045457839966,-0.0347135066986084
1782985890685441300,9.240441162109375,-2.0001416206359863,-2.5105538368225098,-0.4635641872882843
1782985890695515100,9.25051513671875,-2.133885145187378,-1.7337820529937744,-0.8994001150131226
1782985890705589000,9.260589111328125,-2.2156362533569336,-0.8558694124221802,-1.2629420757293701
1782985890715663000,9.2706630859375,-2.2518393993377686,-0.15233014523983002,-1.47688627243042
1782985890725737200,9.2807373046875,-2.256573438644409,0.28213927149772644,-1.418593168258667
1782985890735811300,9.290811279296875,-2.2228124141693115,0.4251193404197693,-1.114271640777588
1782985890745884200,9.30088427734375,-2.132742166519165,0.35794028639793396,-0.6842893958091736
1782985890755958000,9.3109580078125,-2.022202730178833,0.115016870200634,-0.2585434019565582
1782985890766032100,9.3210322265625,-1.938395380973816,-0.2542716860771179,0.0784095898270607
1782985890776106200,9.331106201171876,-1.8144688606262207,-0.6446399688720703,0.2010691910982132
1782985890786180400,9.341180419921875,-1.6868773698806763,-0.8542262315750122,0.12627804279327393
1782985890796254200,9.351254150390625,-1.6014291048049927,-0.958464503288269,-0.011666775681078434
1782985890806328000,9.361328125,-1.5569111108779907,-0.9830057621002197,-0.1576324999332428
1782985890816401200,9.371401123046875,-1.5414506196975708,-0.9462099671363831,-0.261063814163208
1782985890826475300,9.381475341796875,-1.5382660627365112,-0.8910569548606873,-0.3027888834476471
1782985890836549400,9.39154931640625,-1.5395227670669556,-0.8034277558326721,-0.31506261229515076
1782985890846623200,9.401623291015625,-1.5247217416763306,-0.7040175199508667,-0.2805296778678894
1782985890856697000,9.411697021484375,-1.5031077861785889,-0.6418958306312561,-0.19345654547214508
1782985890866771200,9.421771240234374,-1.4674649238586426,-0.670072078704834,-0.07805059105157852
1782985890876844300,9.43184423828125,-1.3975601196289062,-0.7495237588882446,0.018122810870409012
1782985890886918100,9.441918212890625,-1.3210147619247437,-0.82248455286026,0.06509165465831757
1782985890896992300,9.4519921875,-1.2618507146835327,-0.861560046672821,0.08989899605512619
1782985890907066000,9.462066162109375,-1.2046548128128052,-0.8491699695587158,0.1170097067952156
1782985890917140200,9.47214013671875,-1.1837530136108398,-0.8031870126724243,0.1176195740699768
1782985890927214000,9.482214111328124,-1.2617473602294922,-0.769441545009613,0.09693560004234314
1782985890937287200,9.492287109375,-1.3989372253417969,-0.7576978206634521,0.17678037285804749
1782985890947361300,9.502361328125,-1.542985439300537,-0.7947948575019836,0.3076198697090149
1782985890957435100,9.51243505859375,-1.5773372650146484,-0.7280091643333435,0.4141218066215515
1782985890967509200,9.52250927734375,-1.546431541442871,-0.6196624636650085,0.46894484758377075
1782985890977583000,9.5325830078125,-1.5580072402954102,-0.6829442381858826,0.5028783082962036
1782985890987657000,9.542656982421875,-1.6268433332443237,-0.8725572824478149,0.6487758755683899
1782985890997731300,9.5527314453125,-1.6856443881988525,-1.0395164489746094,1.0999563932418823
1782985891007804200,9.56280419921875,-1.7536404132843018,-1.4006719589233398,1.6126418113708496
1782985891017878000,9.5728779296875,-1.7845275402069092,-1.4717671871185303,1.5691065788269043
1782985891027952000,9.5829521484375,-1.8422679901123047,-1.2547643184661865,0.8927704095840454
1782985891038026000,9.59302587890625,-1.9851338863372803,-0.8538088798522949,0.18208111822605133
1782985891048100400,9.603100341796875,-2.1717541217803955,-0.722146213054657,-0.06900276988744736
1782985891058174200,9.61317431640625,-2.321381092071533,-0.9497434496879578,-0.12194694578647614
1782985891068248300,9.623248291015624,-2.3557052612304688,-0.9356124401092529,-0.5097092986106873
1782985891078321200,9.633321044921875,-2.3464958667755127,-0.560749351978302,-1.3299267292022705
1782985891088395000,9.64339501953125,-2.3806276321411133,-0.21664895117282867,-1.8210010528564453
1782985891098469400,9.653469482421874,-2.2602992057800293,-0.3172312080860138,-1.3808809518814087
1782985891108543200,9.663543212890625,-1.8796532154083252,-0.6517255902290344,-0.25305914878845215
1782985891118617000,9.6736171875,-1.5373576879501343,-0.8479853868484497,0.8590364456176758
1782985891128691200,9.683691162109374,-1.326756477355957,-0.8277866244316101,1.459382176399231
1782985891138764000,9.693763916015625,-1.265190839767456,-0.6417765617370605,1.4264191389083862
1782985891148838400,9.70383837890625,-1.239688754081726,-0.3762889504432678,0.930672287940979
1782985891158912300,9.713912353515624,-1.1596513986587524,-0.3992246091365814,0.4125041961669922
1782985891168986000,9.723986083984375,-1.0411356687545776,-0.57599937915802,0.09997426718473434
1782985891179060200,9.734060302734376,-0.9449273347854614,-0.7525496482849121,0.1262226551771164
1782985891189134000,9.744134033203125,-0.8974964618682861,-0.9882742762565613,0.422008752822876
1782985891199208200,9.754208251953125,-0.8919565677642822,-1.3184324502944946,0.7673988938331604
1782985891209281300,9.76428125,-0.8866696357727051,-1.6657688617706299,0.9091163873672485
1782985891219355100,9.774355224609375,-0.9521714448928833,-1.9513548612594604,0.7257595658302307
1782985891229429200,9.78442919921875,-1.0501214265823364,-2.019824743270874,0.19123759865760803
1782985891239503000,9.794503173828126,-1.1346174478530884,-1.8216884136199951,-0.4935346245765686
1782985891249577200,9.8045771484375,-1.1668837070465088,-1.3927456140518188,-1.1098787784576416
1782985891259651000,9.814651123046875,-1.1908929347991943,-0.8219867944717407,-1.50422203540802
1782985891269724200,9.82472412109375,-1.2354739904403687,-0.3894508183002472,-1.4853874444961548
1782985891279798300,9.83479833984375,-1.2030878067016602,-0.11002743244171143,-0.9800168871879578
1782985891289872400,9.844872314453125,-1.1569530963897705,-0.010431335307657719,-0.2506266236305237
1782985891299946200,9.8549462890625,-1.1973657608032227,-0.19338303804397583,0.2811965048313141
1782985891310020000,9.86502001953125,-1.2545126676559448,-0.49901458621025085,0.4625799059867859
1782985891320094500,9.875094482421876,-1.272965669631958,-0.8509156703948975,0.458914577960968
1782985891330167300,9.885167236328124,-1.2727172374725342,-1.0808258056640625,0.33883264660835266
1782985891340241200,9.8952412109375,-1.2825556993484497,-1.011448621749878,0.16539402306079865
1782985891350315300,9.905315185546876,-1.2732077836990356,-0.7711321115493774,0.030113160610198975
1782985891360389000,9.91538916015625,-1.233963131904602,-0.5445349216461182,-0.04598666727542877
1782985891370463500,9.92546337890625,-1.171487808227539,-0.48126596212387085,-0.08702464401721954
1782985891380537300,9.935537353515626,-1.1069769859313965,-0.5111604928970337,-0.1430293321609497
1782985891390611500,9.945611572265625,-1.0646647214889526,-0.6419157981872559,-0.20087264478206635
1782985891400684300,9.955684326171875,-1.0405433177947998,-0.8222712278366089,-0.2763197422027588
1782985891410758100,9.965758056640626,-1.0028772354125977,-0.8782769441604614,-0.25394225120544434
