time,seconds_elapsed,z,y,x
1782987131106807800,0.058807861328125,-0.9939422607421875,0.02813720703125,0.0055999755859375
1782987131116882700,0.068882568359375,-0.9931488037109375,0.0285186767578125,0.0076751708984375
1782987131126956800,0.078956787109375,-0.9942626953125,0.0291595458984375,0.0063323974609375
1782987131137031700,0.08903173828125,-0.9931640625,0.0288238525390625,0.0050811767578125
1782987131147105800,0.099105712890625,-0.9948272705078125,0.027740478515625,0.006378173828125
1782987131157180700,0.1091806640625,-0.993072509765625,0.0284576416015625,0.00506591796875
1782987131167254800,0.1192548828125,-0.9933624267578125,0.0292205810546875,0.00732421875
1782987131177329700,0.12932958984375,-0.9934539794921875,0.02764892578125,0.0056304931640625
1782987131187404800,0.13940478515625,-0.9938201904296875,0.0300445556640625,0.0055694580078125
1782987131197478700,0.149478759765625,-0.9947357177734375,0.0276336669921875,0.0056304931640625
1782987131207553800,0.1595537109375,-0.993682861328125,0.028656005859375,0.0066680908203125
1782987131217627600,0.169627685546875,-0.99530029296875,0.028411865234375,0.0073089599609375
1782987131227702800,0.179702880859375,-0.9947967529296875,0.0286102294921875,0.006622314453125
1782987131237776600,0.189776611328125,-0.994293212890625,0.02947998046875,0.006195068359375
1782987131247851800,0.199851806640625,-0.9943389892578125,0.029510498046875,0.006744384765625
1782987131257925600,0.209925537109375,-0.9927978515625,0.02813720703125,0.006866455078125
1782987131268000800,0.220000732421875,-0.993621826171875,0.028228759765625,0.0056610107421875
1782987131278076000,0.230075927734375,-0.9945526123046875,0.02874755859375,0.0068206787109375
1782987131288149800,0.240149658203125,-0.9947357177734375,0.0277099609375,0.005279541015625
1782987131298225000,0.250224853515625,-0.99505615234375,0.0289154052734375,0.0060882568359375
1782987131308298800,0.260298828125,-0.9947967529296875,0.0279541015625,0.00823974609375
1782987131318374000,0.270373779296875,-0.9954986572265625,0.02838134765625,0.0066070556640625
1782987131328447700,0.28044775390625,-0.994354248046875,0.0277099609375,0.005645751953125
1782987131338523000,0.29052294921875,-0.99285888671875,0.0274810791015625,0.00732421875
1782987131348596700,0.3005966796875,-0.99432373046875,0.0294036865234375,0.007537841796875
1782987131358672000,0.310671875,-0.993621826171875,0.0283050537109375,0.00604248046875
1782987131368746800,0.320746826171875,-0.9942169189453125,0.0272979736328125,0.007720947265625
1782987131378820900,0.33082080078125,-0.99462890625,0.0284576416015625,0.0085601806640625
1782987131388895700,0.340895751953125,-0.9939422607421875,0.028594970703125,0.006439208984375
1782987131398969900,0.350969970703125,-0.9940948486328125,0.0301055908203125,0.0068511962890625
1782987131409044700,0.361044677734375,-0.994110107421875,0.0276336669921875,0.0066070556640625
1782987131419118800,0.371118896484375,-0.9947967529296875,0.02850341796875,0.004791259765625
1782987131429194000,0.381194091796875,-0.99395751953125,0.027313232421875,0.0070037841796875
1782987131439267800,0.391267822265625,-0.992950439453125,0.0276031494140625,0.006500244140625
1782987131449343000,0.401343017578125,-0.9936676025390625,0.0285491943359375,0.007171630859375
1782987131459417900,0.41141796875,-0.9935302734375,0.02728271484375,0.0078887939453125
1782987131469492000,0.421491943359375,-0.9947967529296875,0.0276947021484375,0.0082550048828125
1782987131479566800,0.43156689453125,-0.9945831298828125,0.0275115966796875,0.00885009765625
1782987131489641000,0.441640869140625,-0.9942779541015625,0.0281524658203125,0.0072174072265625
1782987131499715800,0.4517158203125,-0.9944610595703125,0.02923583984375,0.0052642822265625
1782987131509790000,0.4617900390625,-0.9941253662109375,0.0287017822265625,0.0073089599609375
1782987131519864800,0.47186474609375,-0.993927001953125,0.028717041015625,0.0069732666015625
1782987131529939000,0.48193896484375,-0.9946746826171875,0.028472900390625,0.0072174072265625
1782987131540013800,0.492013916015625,-0.9945831298828125,0.029937744140625,0.0047607421875
1782987131550089000,0.5020888671875,-0.99517822265625,0.0276641845703125,0.008209228515625
1782987131560162800,0.512162841796875,-0.99560546875,0.0276336669921875,0.0055389404296875
1782987131570238000,0.522238037109375,-0.993743896484375,0.0293121337890625,0.0082244873046875
1782987131580311800,0.532311767578125,-0.9931182861328125,0.028289794921875,0.007965087890625
1782987131590387000,0.542386962890625,-0.9944000244140625,0.0287628173828125,0.0078277587890625
1782987131600460800,0.552460693359375,-0.9922027587890625,0.028717041015625,0.0069122314453125
1782987131610536000,0.562535888671875,-0.992889404296875,0.02862548828125,0.007354736328125
1782987131620609800,0.57260986328125,-0.99371337890625,0.0307464599609375,0.006256103515625
1782987131630685000,0.582684814453125,-0.993804931640625,0.0298004150390625,0.0056915283203125
1782987131640760000,0.592760009765625,-0.9940643310546875,0.028106689453125,0.0071258544921875
1782987131650834000,0.602833984375,-0.9924468994140625,0.0270843505859375,0.0057373046875
1782987131660909000,0.612908935546875,-0.993865966796875,0.02789306640625,0.0048065185546875
1782987131670983000,0.62298291015625,-0.9942474365234375,0.0286865234375,0.00604248046875
1782987131681058000,0.63305810546875,-0.9951171875,0.0282745361328125,0.007415771484375
1782987131691132000,0.6431318359375,-0.993896484375,0.02874755859375,0.0061798095703125
1782987131701207000,0.65320703125,-0.9929656982421875,0.028411865234375,0.0065155029296875
1782987131711281000,0.663281005859375,-0.9956512451171875,0.0264892578125,0.0069122314453125
1782987131721356000,0.67335595703125,-0.9941558837890625,0.0276336669921875,0.0064697265625
1782987131731430700,0.6834306640625,-0.992828369140625,0.0284576416015625,0.0056610107421875
1782987131741505000,0.693505126953125,-0.9944915771484375,0.0293426513671875,0.0066986083984375
1782987131751579600,0.70357958984375,-0.9948272705078125,0.0272216796875,0.0072021484375
1782987131761654000,0.713654052734375,-0.9928436279296875,0.0281219482421875,0.007476806640625
1782987131771728600,0.723728759765625,-0.9956207275390625,0.0287628173828125,0.0066986083984375
1782987131781803000,0.733802978515625,-0.9945526123046875,0.0296783447265625,0.0063018798828125
1782987131791877600,0.743877685546875,-0.9935760498046875,0.0290985107421875,0.0069427490234375
1782987131801952000,0.753951904296875,-0.9934234619140625,0.0276641845703125,0.0070953369140625
1782987131812026600,0.764026611328125,-0.99468994140625,0.0281219482421875,0.00531005859375
1782987131822101000,0.77410107421875,-0.9941253662109375,0.0270843505859375,0.0066680908203125
1782987131832175900,0.78417578125,-0.9942169189453125,0.028106689453125,0.00872802734375
1782987131842250800,0.794250732421875,-0.9925537109375,0.0294647216796875,0.0077667236328125
1782987131852324900,0.804324951171875,-0.9948272705078125,0.0281219482421875,0.0069732666015625
1782987131862399700,0.814399658203125,-0.9937896728515625,0.0278472900390625,0.00653076171875
1782987131872473900,0.824473876953125,-0.9942474365234375,0.029083251953125,0.0070648193359375
1782987131882548700,0.834548828125,-0.992950439453125,0.0284271240234375,0.008087158203125
1782987131892622800,0.844622802734375,-0.994354248046875,0.0282745361328125,0.007049560546875
1782987131902697700,0.85469775390625,-0.993560791015625,0.0289459228515625,0.0059814453125
1782987131912771800,0.864771728515625,-0.9941864013671875,0.0288848876953125,0.006011962890625
1782987131922846700,0.8748466796875,-0.993194580078125,0.0283966064453125,0.0073089599609375
1782987131932921900,0.884921875,-0.9930267333984375,0.0283203125,0.007415771484375
1782987131942995700,0.89499560546875,-0.99322509765625,0.02874755859375,0.007476806640625
1782987131953070800,0.90507080078125,-0.9935302734375,0.028289794921875,0.00592041015625
1782987131963144700,0.915144775390625,-0.9932708740234375,0.0274658203125,0.0061798095703125
1782987131973219800,0.9252197265625,-0.99298095703125,0.028228759765625,0.0062255859375
1782987131983293700,0.935293701171875,-0.9940338134765625,0.0277252197265625,0.0074310302734375
1782987131993368800,0.945368896484375,-0.993988037109375,0.0278472900390625,0.0054473876953125
1782987132003442700,0.955442626953125,-0.9945220947265625,0.0283660888671875,0.0069732666015625
1782987132013517800,0.965517822265625,-0.994903564453125,0.0301513671875,0.006805419921875
1782987132023593000,0.975593017578125,-0.993743896484375,0.028533935546875,0.0078125
1782987132033666800,0.985666748046875,-0.99267578125,0.02716064453125,0.0066986083984375
1782987132043742000,0.995741943359375,-0.9948272705078125,0.0279998779296875,0.006622314453125
1782987132053815800,1.00581591796875,-0.9930877685546875,0.0287017822265625,0.0074615478515625
1782987132063891000,1.015890869140625,-0.993255615234375,0.0284576416015625,0.006683349609375
1782987132073964800,1.02596484375,-0.995025634765625,0.0283966064453125,0.0050048828125
1782987132084040000,1.0360400390625,-0.9928436279296875,0.0286712646484375,0.0069732666015625
1782987132094113800,1.04611376953125,-0.99383544921875,0.029052734375,0.006683349609375
1782987132104189000,1.05618896484375,-0.99505615234375,0.028106689453125,0.006805419921875
1782987132114263800,1.066263916015625,-0.99505615234375,0.0286407470703125,0.0074005126953125
1782987132124338000,1.076337890625,-0.99468994140625,0.027679443359375,0.0076446533203125
1782987132134412800,1.086412841796875,-0.9946441650390625,0.0280609130859375,0.00677490234375
1782987132144487000,1.09648681640625,-0.9946441650390625,0.029571533203125,0.007110595703125
1782987132154561800,1.106561767578125,-0.9925384521484375,0.028778076171875,0.0066680908203125
1782987132164636000,1.116635986328125,-0.9932098388671875,0.0295257568359375,0.006744384765625
1782987132174710800,1.126710693359375,-0.993316650390625,0.0281982421875,0.0069122314453125
1782987132184785000,1.136784912109375,-0.99505615234375,0.027587890625,0.0060577392578125
1782987132194859800,1.14685986328125,-0.99444580078125,0.028778076171875,0.006134033203125
1782987132204935000,1.156934814453125,-0.99456787109375,0.0292816162109375,0.00689697265625
1782987132215009000,1.167009033203125,-0.995025634765625,0.0290679931640625,0.0051116943359375
1782987132225084000,1.177083984375,-0.994415283203125,0.0278472900390625,0.004913330078125
1782987132235158000,1.187157958984375,-0.9948577880859375,0.027862548828125,0.0074462890625
1782987132245233000,1.19723291015625,-0.99444580078125,0.0272674560546875,0.0053863525390625
1782987132255307500,1.2073076171875,-0.993927001953125,0.0279998779296875,0.0052032470703125
1782987132265382400,1.21738232421875,-0.993988037109375,0.0292510986328125,0.00799560546875
1782987132275456500,1.22745654296875,-0.9929962158203125,0.0285491943359375,0.0073394775390625
1782987132285531400,1.237531494140625,-0.9926605224609375,0.029937744140625,0.0058441162109375
1782987132295606300,1.247606201171875,-0.9930419921875,0.028106689453125,0.00665283203125
1782987132305680600,1.2576806640625,-0.99505615234375,0.0284423828125,0.007568359375
1782987132315755300,1.26775537109375,-0.9937896728515625,0.028167724609375,0.0056610107421875
1782987132325829600,1.27782958984375,-0.99468994140625,0.029205322265625,0.0063629150390625
1782987132335904300,1.287904296875,-0.9936981201171875,0.0289306640625,0.0058441162109375
1782987132345978600,1.297978515625,-0.9931640625,0.0276336669921875,0.0074920654296875
1782987132356053200,1.30805322265625,-0.9940185546875,0.027984619140625,0.0077972412109375
1782987132366127600,1.318127685546875,-0.995025634765625,0.0283966064453125,0.0053863525390625
1782987132376202200,1.3282021484375,-0.9943389892578125,0.0289764404296875,0.0064239501953125
1782987132386277400,1.33827734375,-0.994171142578125,0.028167724609375,0.00457763671875
1782987132396351200,1.348351318359375,-0.994293212890625,0.027099609375,0.0069732666015625
1782987132406426400,1.35842626953125,-0.9945526123046875,0.02691650390625,0.00750732421875
1782987132416500200,1.368500244140625,-0.9958038330078125,0.0274658203125,0.0117340087890625
1782987132426575400,1.378575439453125,-0.99298095703125,0.026092529296875,0.0147552490234375
1782987132436649200,1.388649169921875,-0.9940948486328125,0.0220947265625,0.0078582763671875
1782987132446724400,1.398724365234375,-0.993011474609375,0.0217132568359375,0.010650634765625
1782987132456798200,1.408798095703125,-0.993804931640625,0.0270233154296875,0.0030670166015625
1782987132466873300,1.418873291015625,-0.9943695068359375,0.030426025390625,0.0028228759765625
1782987132476947200,1.428947265625,-0.9929656982421875,0.0318145751953125,0.00445556640625
1782987132487022300,1.439022216796875,-0.99420166015625,0.029022216796875,0.0030517578125
1782987132497097500,1.449097412109375,-0.9951019287109375,0.0316619873046875,0.004791259765625
1782987132507171300,1.45917138671875,-0.9946441650390625,0.0277099609375,0.004119873046875
1782987132517246500,1.46924658203125,-0.9935760498046875,0.0270538330078125,0.0054779052734375
1782987132527320300,1.4793203125,-0.9942169189453125,0.029022216796875,0.0062255859375
1782987132537395500,1.4893955078125,-0.995208740234375,0.0280609130859375,0.0037841796875
1782987132547469300,1.49946923828125,-0.994140625,0.0298004150390625,0.0071563720703125
1782987132557544400,1.50954443359375,-0.9936981201171875,0.0292510986328125,0.00390625
1782987132567618300,1.519618408203125,-0.9931182861328125,0.0298919677734375,0.00360107421875
1782987132577693400,1.529693359375,-0.993255615234375,0.031005859375,0.0035400390625
1782987132587768300,1.539768310546875,-0.993499755859375,0.0277557373046875,0.0058135986328125
1782987132597842400,1.549842529296875,-0.995330810546875,0.027191162109375,0.0092010498046875
1782987132607917300,1.559917236328125,-0.9936676025390625,0.0280609130859375,0.0073699951171875
1782987132617991400,1.569991455078125,-0.994384765625,0.028045654296875,0.007598876953125
1782987132628066300,1.58006640625,-0.993011474609375,0.0249481201171875,0.0089263916015625
1782987132638140400,1.590140380859375,-0.99432373046875,0.0286865234375,0.0048370361328125
1782987132648215300,1.60021533203125,-0.99468994140625,0.0305023193359375,0.00341796875
1782987132658289400,1.610289306640625,-0.9936981201171875,0.0313568115234375,0.0028533935546875
1782987132668364300,1.6203642578125,-0.99395751953125,0.0278778076171875,0.0069580078125
1782987132678439400,1.630439453125,-0.9950408935546875,0.0278167724609375,0.00604248046875
1782987132688513500,1.640513427734375,-0.99407958984375,0.0279083251953125,0.006317138671875
1782987132698588400,1.65058837890625,-0.9935760498046875,0.02850341796875,0.00604248046875
1782987132708662500,1.66066259765625,-0.9954986572265625,0.027252197265625,0.0074310302734375
1782987132718737400,1.6707373046875,-0.9936676025390625,0.0265655517578125,0.0064697265625
1782987132728811500,1.6808115234375,-0.99273681640625,0.0282135009765625,0.0069732666015625
1782987132738886400,1.690886474609375,-0.9932861328125,0.02862548828125,0.0042572021484375
1782987132748960500,1.70096044921875,-0.993988037109375,0.0294189453125,0.0061187744140625
1782987132759035400,1.711035400390625,-0.9944915771484375,0.02789306640625,0.007843017578125
1782987132769109500,1.721109619140625,-0.9931182861328125,0.0287017822265625,0.005523681640625
1782987132779184400,1.731184326171875,-0.9931182861328125,0.0286102294921875,0.0075225830078125
1782987132789259500,1.741259521484375,-0.99407958984375,0.02789306640625,0.0061187744140625
1782987132799333400,1.75133349609375,-0.99310302734375,0.0282440185546875,0.00592041015625
1782987132809408500,1.761408447265625,-0.9936676025390625,0.0282135009765625,0.00604248046875
1782987132819482400,1.771482421875,-0.99298095703125,0.0287017822265625,0.0035400390625
1782987132829557500,1.7815576171875,-0.993377685546875,0.0283203125,0.0064239501953125
1782987132839631400,1.79163134765625,-0.994140625,0.029022216796875,0.0071258544921875
1782987132849706500,1.80170654296875,-0.99462890625,0.0289154052734375,0.00787353515625
1782987132859780400,1.8117802734375,-0.9946746826171875,0.0281829833984375,0.0062408447265625
1782987132869855500,1.82185546875,-0.9939117431640625,0.0280609130859375,0.007293701171875
1782987132879930600,1.8319306640625,-0.993621826171875,0.0268707275390625,0.0081939697265625
1782987132890004500,1.84200439453125,-0.994964599609375,0.028961181640625,0.0083465576171875
1782987132900079600,1.85207958984375,-0.994110107421875,0.0275115966796875,0.007720947265625
1782987132910153500,1.862153564453125,-0.9929962158203125,0.0284423828125,0.0062713623046875
1782987132920228600,1.872228515625,-0.99542236328125,0.029144287109375,0.0062255859375
1782987132930302500,1.882302490234375,-0.9936065673828125,0.02886962890625,0.00714111328125
1782987132940377600,1.892377685546875,-0.99346923828125,0.0269317626953125,0.0072479248046875
1782987132950451500,1.902451416015625,-0.994415283203125,0.0282135009765625,0.0069732666015625
1782987132960526600,1.912526611328125,-0.9947357177734375,0.0285797119140625,0.0079498291015625
1782987132970600400,1.922600341796875,-0.995086669921875,0.0272216796875,0.006072998046875
1782987132980675600,1.932675537109375,-0.9944000244140625,0.0281982421875,0.0066986083984375
1782987132990750200,1.942750244140625,-0.9932403564453125,0.0278472900390625,0.0072479248046875
1782987133000824600,1.952824462890625,-0.993804931640625,0.028900146484375,0.0074615478515625
1782987133010899200,1.962899169921875,-0.992279052734375,0.0282135009765625,0.006622314453125
1782987133020973600,1.9729736328125,-0.993896484375,0.027374267578125,0.005645751953125
1782987133031048200,1.983048095703125,-0.9950408935546875,0.028594970703125,0.0059661865234375
1782987133041122600,1.99312255859375,-0.9939727783203125,0.0277252197265625,0.0061492919921875
1782987133051197200,2.003197265625,-0.992767333984375,0.0303955078125,0.0056304931640625
1782987133061271600,2.013271484375,-0.99346923828125,0.028076171875,0.004486083984375
1782987133071346200,2.02334619140625,-0.9942169189453125,0.0290985107421875,0.00543212890625
1782987133081421300,2.03342138671875,-0.99462890625,0.0290374755859375,0.007293701171875
1782987133091495400,2.043495361328125,-0.994659423828125,0.0275726318359375,0.0068817138671875
1782987133101570300,2.0535703125,-0.9943084716796875,0.0272369384765625,0.0069732666015625
1782987133111644400,2.06364453125,-0.9951019287109375,0.0283203125,0.0077056884765625
1782987133121719300,2.07371923828125,-0.99310302734375,0.027618408203125,0.0048980712890625
1782987133131793400,2.08379345703125,-0.992828369140625,0.0286102294921875,0.0062103271484375
1782987133141868300,2.093868408203125,-0.993560791015625,0.0287933349609375,0.0062713623046875
1782987133151942400,2.1039423828125,-0.9945220947265625,0.02813720703125,0.006195068359375
1782987133162017300,2.114017333984375,-0.99371337890625,0.028533935546875,0.006072998046875
1782987133172091400,2.12409130859375,-0.994110107421875,0.0283203125,0.0070343017578125
1782987133182166300,2.134166259765625,-0.9949188232421875,0.0275726318359375,0.0079345703125
1782987133192241400,2.144241455078125,-0.994049072265625,0.029205322265625,0.00823974609375
1782987133202315300,2.154315185546875,-0.9951629638671875,0.0283203125,0.0077972412109375
1782987133212390400,2.164390380859375,-0.9946746826171875,0.0273895263671875,0.0068511962890625
1782987133222464300,2.17446435546875,-0.9940643310546875,0.028106689453125,0.0062713623046875
1782987133232539400,2.184539306640625,-0.9939117431640625,0.02716064453125,0.008026123046875
1782987133242613200,2.19461328125,-0.9947357177734375,0.0281219482421875,0.0061187744140625
1782987133252688400,2.2046884765625,-0.9951171875,0.028350830078125,0.005401611328125
1782987133262762200,2.21476220703125,-0.994049072265625,0.027435302734375,0.007476806640625
1782987133272837400,2.22483740234375,-0.9929351806640625,0.0282135009765625,0.0072174072265625
1782987133282912500,2.23491259765625,-0.993804931640625,0.027374267578125,0.006988525390625
1782987133292986400,2.244986328125,-0.994964599609375,0.0280914306640625,0.00469970703125
1782987133303061500,2.2550615234375,-0.9939422607421875,0.027496337890625,0.0060882568359375
1782987133313135400,2.26513525390625,-0.993804931640625,0.0288848876953125,0.006134033203125
1782987133323210500,2.27521044921875,-0.9936981201171875,0.0281219482421875,0.005035400390625
1782987133333284400,2.285284423828125,-0.9952392578125,0.028350830078125,0.007171630859375
1782987133343359500,2.295359375,-0.9943084716796875,0.0291900634765625,0.00677490234375
1782987133353433300,2.305433349609375,-0.9943695068359375,0.0289764404296875,0.005584716796875
1782987133363508500,2.315508544921875,-0.9931793212890625,0.0286102294921875,0.0055999755859375
1782987133373582300,2.325582275390625,-0.993133544921875,0.02789306640625,0.0051422119140625
1782987133383657500,2.335657470703125,-0.992950439453125,0.0293731689453125,0.00482177734375
1782987133393732400,2.345732421875,-0.993377685546875,0.030120849609375,0.0052642822265625
1782987133403806500,2.355806396484375,-0.9930267333984375,0.0286865234375,0.004180908203125
1782987133413881300,2.36588134765625,-0.993988037109375,0.02886962890625,0.006011962890625
1782987133423955500,2.37595556640625,-0.993896484375,0.0285797119140625,0.0050201416015625
1782987133434030300,2.3860302734375,-0.9940948486328125,0.029144287109375,0.00469970703125
1782987133444104400,2.3961044921875,-0.9937591552734375,0.0276641845703125,0.0047454833984375
1782987133454179300,2.406179443359375,-0.994659423828125,0.0275421142578125,0.0068817138671875
1782987133464253400,2.41625341796875,-0.9953765869140625,0.027862548828125,0.0074005126953125
1782987133474328600,2.42632861328125,-0.99468994140625,0.028472900390625,0.0052490234375
1782987133484402400,2.43640234375,-0.994171142578125,0.0281219482421875,0.00579833984375
1782987133494477600,2.4464775390625,-0.994415283203125,0.0297088623046875,0.0048980712890625
1782987133504552400,2.456552490234375,-0.993988037109375,0.02862548828125,0.005950927734375
1782987133514626600,2.46662646484375,-0.9939117431640625,0.0286865234375,0.007232666015625
1782987133524701400,2.476701416015625,-0.9935150146484375,0.02789306640625,0.0059661865234375
1782987133534775600,2.486775634765625,-0.9931640625,0.027313232421875,0.005767822265625
1782987133544850400,2.496850341796875,-0.994110107421875,0.02825927734375,0.00775146484375
1782987133554924500,2.506924560546875,-0.9938201904296875,0.0289154052734375,0.00701904296875
1782987133564999400,2.51699951171875,-0.9936370849609375,0.030059814453125,0.006439208984375
1782987133575073500,2.527073486328125,-0.9945831298828125,0.0290069580078125,0.0045318603515625
1782987133585148400,2.5371484375,-0.9948577880859375,0.0281219482421875,0.0072174072265625
1782987133595223600,2.5472236328125,-0.9940948486328125,0.028717041015625,0.007659912109375
1782987133605297400,2.55729736328125,-0.9937896728515625,0.02764892578125,0.0066986083984375
1782987133615372500,2.56737255859375,-0.9937744140625,0.0281219482421875,0.007781982421875
1782987133625446400,2.5774462890625,-0.99163818359375,0.029937744140625,0.0069427490234375
1782987133635521500,2.587521484375,-0.9945831298828125,0.0286407470703125,0.005218505859375
1782987133645595400,2.597595458984375,-0.9935760498046875,0.029052734375,0.0053863525390625
1782987133655670500,2.60767041015625,-0.993408203125,0.02801513671875,0.0063018798828125
1782987133665744400,2.617744384765625,-0.9932403564453125,0.0274505615234375,0.0056610107421875
1782987133675819500,2.627819580078125,-0.994140625,0.0275421142578125,0.0071258544921875
1782987133685893400,2.637893310546875,-0.994232177734375,0.0280914306640625,0.0058441162109375
1782987133695968500,2.647968505859375,-0.99334716796875,0.026458740234375,0.00726318359375
1782987133706043400,2.65804345703125,-0.99371337890625,0.02825927734375,0.0069580078125
1782987133716117500,2.668117431640625,-0.9954376220703125,0.0290069580078125,0.00543212890625
1782987133726192400,2.6781923828125,-0.993988037109375,0.0268402099609375,0.0071868896484375
1782987133736266500,2.6882666015625,-0.993438720703125,0.0278472900390625,0.0063323974609375
1782987133746341400,2.69834130859375,-0.99481201171875,0.028045654296875,0.0045013427734375
1782987133756415500,2.70841552734375,-0.994964599609375,0.0279388427734375,0.0064544677734375
1782987133766490400,2.718490478515625,-0.994720458984375,0.0281219482421875,0.0052642822265625
1782987133776564500,2.728564453125,-0.994781494140625,0.0296630859375,0.006317138671875
1782987133786639400,2.738639404296875,-0.9945068359375,0.0284271240234375,0.0079498291015625
1782987133796713500,2.74871337890625,-0.9939117431640625,0.029266357421875,0.0068817138671875
1782987133806788400,2.758788330078125,-0.9940643310546875,0.027923583984375,0.00640869140625
1782987133816863200,2.76886328125,-0.9934539794921875,0.02789306640625,0.005950927734375
1782987133826937300,2.778937255859375,-0.9936981201171875,0.0276336669921875,0.0058135986328125
1782987133837012200,2.78901220703125,-0.9936370849609375,0.0283355712890625,0.006591796875
1782987133847086300,2.79908642578125,-0.993072509765625,0.0294342041015625,0.0059051513671875
1782987133857161200,2.8091611328125,-0.9948577880859375,0.0269927978515625,0.006011962890625
1782987133867235300,2.8192353515625,-0.993377685546875,0.026947021484375,0.0073699951171875
1782987133877310500,2.829310546875,-0.9948577880859375,0.02825927734375,0.0055999755859375
1782987133887384300,2.83938427734375,-0.9934539794921875,0.0290374755859375,0.0060272216796875
1782987133897459500,2.84945947265625,-0.9934234619140625,0.0281982421875,0.007049560546875
1782987133907533300,2.859533203125,-0.993194580078125,0.0258331298828125,0.007354736328125
1782987133917608400,2.8696083984375,-0.992706298828125,0.0276947021484375,0.0049896240234375
1782987133927683300,2.879683349609375,-0.992523193359375,0.02789306640625,0.00457763671875
1782987133937757400,2.88975732421875,-0.994171142578125,0.029144287109375,0.0068511962890625
1782987133947832300,2.899832275390625,-0.99267578125,0.027313232421875,0.0075225830078125
1782987133957906400,2.909906494140625,-0.993255615234375,0.02789306640625,0.005889892578125
1782987133967981300,2.919981201171875,-0.995513916015625,0.027496337890625,0.00732421875
1782987133978055400,2.930055419921875,-0.9949951171875,0.0278167724609375,0.004608154296875
1782987133988130300,2.94013037109375,-0.9952239990234375,0.0274505615234375,0.006683349609375
1782987133998204400,2.950204345703125,-0.9940948486328125,0.0274658203125,0.005279541015625
1782987134008279300,2.960279296875,-0.9938201904296875,0.0287017822265625,0.005218505859375
1782987134018353400,2.970353515625,-0.9935302734375,0.0283660888671875,0.0065460205078125
1782987134028428300,2.98042822265625,-0.9949493408203125,0.0267791748046875,0.0041046142578125
1782987134038503400,2.99050341796875,-0.9949951171875,0.0280914306640625,0.0042266845703125
1782987134048577300,3.000577392578125,-0.99444580078125,0.0291748046875,0.0079345703125
1782987134058652400,3.01065234375,-0.9935760498046875,0.0280609130859375,0.0061492919921875
1782987134068726300,3.020726318359375,-0.993927001953125,0.027496337890625,0.0052032470703125
1782987134078801400,3.030801513671875,-0.9947967529296875,0.0289764404296875,0.0062255859375
1782987134088875300,3.040875244140625,-0.9941253662109375,0.02862548828125,0.0080718994140625
1782987134098950400,3.050950439453125,-0.9936065673828125,0.0276336669921875,0.00701904296875
1782987134109024300,3.061024169921875,-0.99493408203125,0.0292510986328125,0.00457763671875
1782987134119099400,3.071099365234375,-0.9949188232421875,0.028472900390625,0.006439208984375
1782987134129173500,3.081173583984375,-0.9950103759765625,0.027862548828125,0.005767822265625
1782987134139248400,3.091248291015625,-0.9926910400390625,0.0275115966796875,0.0066375732421875
1782987134149323500,3.101323486328125,-0.9921112060546875,0.0286865234375,0.0068817138671875
1782987134159397400,3.1113974609375,-0.9948272705078125,0.0281524658203125,0.0076751708984375
1782987134169472500,3.121472412109375,-0.9936370849609375,0.0286865234375,0.00628662109375
1782987134179546400,3.13154638671875,-0.99530029296875,0.02777099609375,0.0063629150390625
1782987134189621500,3.14162158203125,-0.994415283203125,0.02752685546875,0.0065765380859375
1782987134199695400,3.1516953125,-0.993927001953125,0.0290985107421875,0.007476806640625
1782987134209770500,3.1617705078125,-0.9925994873046875,0.02801513671875,0.0059356689453125
1782987134219844400,3.17184423828125,-0.9935302734375,0.028839111328125,0.0067901611328125
1782987134229919500,3.18191943359375,-0.9935455322265625,0.0275726318359375,0.0069427490234375
1782987134239993300,3.191993408203125,-0.9945068359375,0.027435302734375,0.006317138671875
1782987134250067700,3.202067626953125,-0.993377685546875,0.0287322998046875,0.00726318359375
1782987134260142600,3.212142578125,-0.994049072265625,0.029022216796875,0.0070648193359375
1782987134270216700,3.222216796875,-0.9940338134765625,0.0283203125,0.0059356689453125
1782987134280291600,3.23229150390625,-0.9927978515625,0.0275726318359375,0.0084228515625
1782987134290365700,3.24236572265625,-0.9931488037109375,0.02777099609375,0.007598876953125
1782987134300440600,3.252440673828125,-0.9932861328125,0.02911376953125,0.0065460205078125
1782987134310514700,3.2625146484375,-0.9946136474609375,0.0287322998046875,0.007537841796875
1782987134320589600,3.272589599609375,-0.995330810546875,0.0295562744140625,0.005889892578125
1782987134330663700,3.28266357421875,-0.99578857421875,0.0290069580078125,0.005645751953125
1782987134340738600,3.292738525390625,-0.9937896728515625,0.027679443359375,0.00579833984375
1782987134350812700,3.302812744140625,-0.9929351806640625,0.0296173095703125,0.0075836181640625
1782987134360887800,3.3128876953125,-0.9929962158203125,0.028839111328125,0.0086517333984375
1782987134370962700,3.322962646484375,-0.9940185546875,0.0290069580078125,0.0063629150390625
1782987134381036800,3.333036865234375,-0.9935455322265625,0.028472900390625,0.0065460205078125
1782987134391111700,3.343111572265625,-0.9943695068359375,0.027984619140625,0.006561279296875
1782987134401185800,3.353185791015625,-0.9947357177734375,0.02752685546875,0.0054168701171875
1782987134411260700,3.3632607421875,-0.9940185546875,0.0287933349609375,0.00689697265625
1782987134421334800,3.373334716796875,-0.99285888671875,0.0275115966796875,0.006988525390625
1782987134431409700,3.38340966796875,-0.992706298828125,0.028076171875,0.006622314453125
1782987134441483800,3.39348388671875,-0.9939727783203125,0.0284423828125,0.0066070556640625
1782987134451558700,3.40355859375,-0.99468994140625,0.027984619140625,0.00628662109375
1782987134461632800,3.4136328125,-0.9940338134765625,0.0292510986328125,0.0064849853515625
1782987134471707600,3.423707763671875,-0.99517822265625,0.029205322265625,0.0052947998046875
1782987134481782800,3.43378271484375,-0.994598388671875,0.0272674560546875,0.0070037841796875
1782987134491856600,3.443856689453125,-0.9935455322265625,0.028656005859375,0.00567626953125
1782987134501931800,3.453931884765625,-0.9922943115234375,0.027618408203125,0.006195068359375
1782987134512005600,3.464005615234375,-0.9944000244140625,0.0290374755859375,0.0054168701171875
1782987134522080800,3.474080810546875,-0.9954833984375,0.0278778076171875,0.0056304931640625
1782987134532154600,3.484154541015625,-0.9940643310546875,0.02777099609375,0.00750732421875
1782987134542229800,3.494229736328125,-0.9943695068359375,0.027984619140625,0.008941650390625
1782987134552303600,3.5043037109375,-0.99359130859375,0.0283966064453125,0.0058746337890625
1782987134562378800,3.514378662109375,-0.991729736328125,0.0270843505859375,0.0078887939453125
1782987134572452600,3.52445263671875,-0.994171142578125,0.0299530029296875,0.0075836181640625
1782987134582527700,3.53452783203125,-0.9940185546875,0.0285186767578125,0.0061492919921875
1782987134592602600,3.5446025390625,-0.994476318359375,0.0280914306640625,0.0066375732421875
1782987134602676700,3.5546767578125,-0.9940338134765625,0.0286712646484375,0.00482177734375
1782987134612751600,3.564751708984375,-0.9944000244140625,0.02734375,0.0075531005859375
1782987134622825700,3.57482568359375,-0.994476318359375,0.0281829833984375,0.0073394775390625
1782987134632900600,3.584900634765625,-0.993682861328125,0.029205322265625,0.0052032470703125
1782987134642974700,3.594974609375,-0.995452880859375,0.0290069580078125,0.005859375
1782987134653049600,3.605049560546875,-0.99481201171875,0.0286407470703125,0.007171630859375
1782987134663123700,3.615123779296875,-0.9952392578125,0.02825927734375,0.007415771484375
1782987134673198600,3.625198486328125,-0.99420166015625,0.02764892578125,0.005706787109375
1782987134683272700,3.635272705078125,-0.9937896728515625,0.0287322998046875,0.0079345703125
1782987134693347600,3.64534765625,-0.993133544921875,0.0274658203125,0.0063629150390625
1782987134703422500,3.65542236328125,-0.994354248046875,0.027557373046875,0.0062713623046875
1782987134713496600,3.66549658203125,-0.9941864013671875,0.02874755859375,0.0062255859375
1782987134723571500,3.675571533203125,-0.9932098388671875,0.027984619140625,0.005859375
1782987134733645600,3.6856455078125,-0.9927978515625,0.028564453125,0.004547119140625
1782987134743720400,3.695720458984375,-0.9930572509765625,0.028045654296875,0.0061492919921875
1782987134753794600,3.705794677734375,-0.994598388671875,0.027587890625,0.0051727294921875
1782987134763869700,3.71586962890625,-0.993682861328125,0.02935791015625,0.00604248046875
1782987134773943600,3.725943603515625,-0.994903564453125,0.028076171875,0.006317138671875
1782987134784018700,3.736018798828125,-0.993377685546875,0.0279388427734375,0.005889892578125
1782987134794092500,3.746092529296875,-0.9946136474609375,0.0280303955078125,0.0060272216796875
1782987134804167700,3.756167724609375,-0.9945220947265625,0.0270233154296875,0.0057373046875
1782987134814242600,3.76624267578125,-0.99139404296875,0.0281982421875,0.005645751953125
1782987134824316700,3.776316650390625,-0.9925537109375,0.0277252197265625,0.005096435546875
1782987134834391600,3.7863916015625,-0.992919921875,0.0281982421875,0.0054168701171875
1782987134844465700,3.796465576171875,-0.9927978515625,0.0297088623046875,0.005889892578125
1782987134854540500,3.80654052734375,-0.9922332763671875,0.0293426513671875,0.006866455078125
1782987134864614700,3.81661474609375,-0.994110107421875,0.028564453125,0.005462646484375
1782987134874689500,3.826689453125,-0.993804931640625,0.0286712646484375,0.0070648193359375
1782987134884763600,3.836763671875,-0.99407958984375,0.02978515625,0.007171630859375
1782987134894838500,3.846838623046875,-0.9940185546875,0.028045654296875,0.005950927734375
1782987134904912600,3.85691259765625,-0.993865966796875,0.028839111328125,0.0065155029296875
1782987134914987500,3.866987548828125,-0.993743896484375,0.0281524658203125,0.0064697265625
1782987134925061600,3.8770615234375,-0.995330810546875,0.0287322998046875,0.0062408447265625
1782987134935136500,3.887136474609375,-0.9942779541015625,0.0281982421875,0.0061798095703125
1782987134945211600,3.897211669921875,-0.993194580078125,0.027496337890625,0.004730224609375
1782987134955285500,3.907285400390625,-0.9945068359375,0.0273284912109375,0.007232666015625
1782987134965360600,3.917360595703125,-0.993316650390625,0.029296875,0.006805419921875
1782987134975434500,3.9274345703125,-0.994354248046875,0.0272674560546875,0.0058441162109375
1782987134985509600,3.937509521484375,-0.9944305419921875,0.0296783447265625,0.008148193359375
1782987134995583500,3.94758349609375,-0.9935455322265625,0.028533935546875,0.006866455078125
1782987135005658600,3.95765869140625,-0.995635986328125,0.026702880859375,0.0061492919921875
1782987135015732700,3.967732666015625,-0.9934844970703125,0.0287933349609375,0.0072479248046875
1782987135025807600,3.9778076171875,-0.9941864013671875,0.0287628173828125,0.0059661865234375
1782987135035881700,3.9878818359375,-0.9925994873046875,0.0281982421875,0.005584716796875
1782987135045956600,3.99795654296875,-0.993133544921875,0.0287017822265625,0.0048828125
1782987135056031700,4.00803173828125,-0.9935302734375,0.0284881591796875,0.0057830810546875
1782987135066105600,4.018105712890625,-0.994110107421875,0.0290069580078125,0.0057830810546875
1782987135076180700,4.0281806640625,-0.9943084716796875,0.0271453857421875,0.0067291259765625
1782987135086254600,4.038254638671875,-0.994659423828125,0.0290069580078125,0.005462646484375
1782987135096329700,4.048329833984375,-0.993927001953125,0.027679443359375,0.00640869140625
1782987135106403600,4.058403564453125,-0.99322509765625,0.027496337890625,0.0063629150390625
1782987135116478700,4.068478759765625,-0.9942779541015625,0.0276336669921875,0.00555419921875
1782987135126552600,4.078552490234375,-0.99395751953125,0.0278472900390625,0.0052642822265625
1782987135136627700,4.088627685546875,-0.993988037109375,0.02862548828125,0.0078582763671875
1782987135146701600,4.09870166015625,-0.9930572509765625,0.0276031494140625,0.005706787109375
1782987135156776700,4.108776611328125,-0.9945526123046875,0.0261383056640625,0.005859375
1782987135166850600,4.1188505859375,-0.99420166015625,0.02923583984375,0.0072784423828125
1782987135176925700,4.12892578125,-0.994049072265625,0.0265350341796875,0.0052947998046875
1782987135187000800,4.139000732421875,-0.9933929443359375,0.027923583984375,0.0058746337890625
1782987135197074700,4.14907470703125,-0.994476318359375,0.0294036865234375,0.0066680908203125
1782987135207149800,4.15914990234375,-0.9928436279296875,0.0284271240234375,0.0066680908203125
1782987135217223700,4.1692236328125,-0.991943359375,0.0279388427734375,0.0063323974609375
1782987135227298800,4.179298828125,-0.99359130859375,0.027679443359375,0.0045318603515625
1782987135237372700,4.18937255859375,-0.994415283203125,0.0297088623046875,0.0054473876953125
1782987135247447800,4.19944775390625,-0.9941864013671875,0.02801513671875,0.006256103515625
1782987135257522400,4.2095224609375,-0.9942169189453125,0.029205322265625,0.0055694580078125
1782987135267597300,4.219597412109375,-0.9932708740234375,0.0265655517578125,0.0070343017578125
1782987135277671400,4.22967138671875,-0.994964599609375,0.0286407470703125,0.006011962890625
1782987135287746300,4.239746337890625,-0.9942474365234375,0.0272064208984375,0.007293701171875
1782987135297821200,4.2498212890625,-0.993743896484375,0.0275421142578125,0.00604248046875
1782987135307895300,4.259895263671875,-0.99432373046875,0.0275115966796875,0.007537841796875
1782987135317970400,4.269970458984375,-0.993194580078125,0.0271759033203125,0.0061798095703125
1782987135328044300,4.280044189453125,-0.9929962158203125,0.027008056640625,0.0062408447265625
1782987135338119400,4.290119384765625,-0.993682861328125,0.0279083251953125,0.0074310302734375
1782987135348193300,4.300193359375,-0.9943389892578125,0.0273590087890625,0.0060577392578125
1782987135358268400,4.310268310546875,-0.996307373046875,0.0278472900390625,0.0069427490234375
1782987135368342300,4.32034228515625,-0.993621826171875,0.0288238525390625,0.0066070556640625
1782987135378417400,4.33041748046875,-0.994842529296875,0.0290069580078125,0.0056915283203125
1782987135388491500,4.340491455078125,-0.9945526123046875,0.0276031494140625,0.0055694580078125
1782987135398566400,4.35056640625,-0.99285888671875,0.0289306640625,0.004669189453125
1782987135408641300,4.360641357421875,-0.9940948486328125,0.0282745361328125,0.0055389404296875
1782987135418715400,4.37071533203125,-0.993316650390625,0.0289306640625,0.0061187744140625
1782987135428790300,4.380790283203125,-0.994659423828125,0.02728271484375,0.0054931640625
1782987135438864400,4.390864501953125,-0.9955902099609375,0.0288543701171875,0.005401611328125
1782987135448939300,4.400939208984375,-0.993804931640625,0.0276947021484375,0.00445556640625
1782987135459013400,4.411013427734375,-0.994873046875,0.027557373046875,0.0070953369140625
1782987135469088300,4.421088134765625,-0.9937286376953125,0.0286102294921875,0.0068206787109375
1782987135479162400,4.431162353515625,-0.9945068359375,0.0294342041015625,0.006744384765625
1782987135489237200,4.4412373046875,-0.992950439453125,0.028717041015625,0.00689697265625
1782987135499311400,4.451311279296875,-0.992156982421875,0.0273284912109375,0.005889892578125
1782987135509386200,4.46138623046875,-0.99407958984375,0.0288848876953125,0.0058135986328125
1782987135519460400,4.47146044921875,-0.994476318359375,0.0278472900390625,0.0067596435546875
1782987135529535200,4.48153515625,-0.99407958984375,0.0280609130859375,0.006683349609375
1782987135539610400,4.4916103515625,-0.9931182861328125,0.0271759033203125,0.0077362060546875
1782987135549684200,4.501684326171875,-0.9942626953125,0.0268402099609375,0.007049560546875
1782987135559759400,4.51175927734375,-0.9951019287109375,0.0275726318359375,0.006317138671875
1782987135569833500,4.52183349609375,-0.9944915771484375,0.026641845703125,0.0056304931640625
1782987135579908400,4.531908447265625,-0.99517822265625,0.028106689453125,0.007537841796875
1782987135589982500,4.541982421875,-0.9940032958984375,0.028228759765625,0.0052642822265625
1782987135600057300,4.552057373046875,-0.9930419921875,0.027191162109375,0.0054779052734375
1782987135610131500,4.56213134765625,-0.9938812255859375,0.027801513671875,0.0076141357421875
1782987135620206300,4.572206298828125,-0.9948883056640625,0.02886962890625,0.0050506591796875
1782987135630280400,4.582280517578125,-0.99237060546875,0.027618408203125,0.006500244140625
1782987135640355300,4.592355224609375,-0.993377685546875,0.0283050537109375,0.0070037841796875
1782987135650429400,4.602429443359375,-0.9932861328125,0.028594970703125,0.0062255859375
1782987135660504300,4.61250439453125,-0.9951934814453125,0.028167724609375,0.0062255859375
1782987135670579500,4.622579345703125,-0.9954071044921875,0.027740478515625,0.0059814453125
1782987135680653300,4.6326533203125,-0.9944915771484375,0.0287628173828125,0.005218505859375
1782987135690728400,4.642728515625,-0.9942169189453125,0.0290069580078125,0.0049285888671875
1782987135700802300,4.65280224609375,-0.992919921875,0.0285186767578125,0.0061492919921875
1782987135710877400,4.66287744140625,-0.9940948486328125,0.0289306640625,0.00689697265625
1782987135720951300,4.672951416015625,-0.9936981201171875,0.0274810791015625,0.0067291259765625
1782987135731026400,4.6830263671875,-0.99365234375,0.0272979736328125,0.0060272216796875
1782987135741100300,4.693100341796875,-0.992462158203125,0.0277557373046875,0.00653076171875
1782987135751175400,4.703175537109375,-0.9945526123046875,0.0294342041015625,0.0062713623046875
1782987135761249300,4.713249267578125,-0.995208740234375,0.028778076171875,0.0061798095703125
1782987135771324400,4.723324462890625,-0.99407958984375,0.0286712646484375,0.00628662109375
1782987135781399600,4.733399658203125,-0.994659423828125,0.02813720703125,0.0068206787109375
1782987135791473400,4.743473388671875,-0.993743896484375,0.029876708984375,0.0057830810546875
1782987135801548500,4.753548583984375,-0.99432373046875,0.028411865234375,0.0074920654296875
1782987135811622400,4.763622314453125,-0.99493408203125,0.0265045166015625,0.0066375732421875
1782987135821697500,4.773697509765625,-0.994354248046875,0.026947021484375,0.0085906982421875
1782987135831771400,4.783771484375,-0.993194580078125,0.027252197265625,0.007781982421875
1782987135841846500,4.793846435546875,-0.992034912109375,0.02825927734375,0.006500244140625
1782987135851920400,4.80392041015625,-0.9930419921875,0.0271759033203125,0.005950927734375
1782987135861995500,4.81399560546875,-0.9957122802734375,0.02850341796875,0.003204345703125
1782987135872069400,4.8240693359375,-0.9934234619140625,0.028564453125,0.0072479248046875
1782987135882144500,4.83414453125,-0.994415283203125,0.028594970703125,0.0070648193359375
1782987135892218400,4.84421826171875,-0.9927520751953125,0.0293121337890625,0.00628662109375
1782987135902293500,4.85429345703125,-0.9939117431640625,0.0290985107421875,0.0065155029296875
1782987135912368400,4.864368408203125,-0.994354248046875,0.02789306640625,0.0086822509765625
1782987135922442500,4.8744423828125,-0.995086669921875,0.02752685546875,0.007476806640625
1782987135932517400,4.884517333984375,-0.9934844970703125,0.0286865234375,0.0064544677734375
1782987135942591500,4.894591552734375,-0.9940338134765625,0.02716064453125,0.005706787109375
1782987135952666400,4.904666259765625,-0.9932098388671875,0.0279388427734375,0.00537109375
1782987135962740500,4.914740478515625,-0.993927001953125,0.0294189453125,0.005157470703125
1782987135972815600,4.924815673828125,-0.994659423828125,0.028411865234375,0.0087432861328125
1782987135982889500,4.934889404296875,-0.993499755859375,0.02825927734375,0.005584716796875
1782987135992964600,4.944964599609375,-0.9948272705078125,0.0286865234375,0.0062255859375
1782987136003038500,4.95503857421875,-0.9939727783203125,0.028900146484375,0.00701904296875
1782987136013113600,4.965113525390625,-0.9922332763671875,0.028900146484375,0.0049591064453125
1782987136023187500,4.9751875,-0.9950408935546875,0.0274658203125,0.005584716796875
1782987136033262600,4.9852626953125,-0.9948577880859375,0.029052734375,0.0067901611328125
1782987136043337500,4.99533740234375,-0.9941558837890625,0.029296875,0.0054931640625
1782987136053411600,5.00541162109375,-0.9941864013671875,0.02850341796875,0.00543212890625
1782987136063486500,5.015486572265625,-0.9940032958984375,0.0283050537109375,0.00628662109375
1782987136073560600,5.025560546875,-0.9949951171875,0.02764892578125,0.0057525634765625
1782987136083635500,5.035635498046875,-0.99371337890625,0.028411865234375,0.007354736328125
1782987136093709600,5.04570947265625,-0.9930267333984375,0.027191162109375,0.0056915283203125
1782987136103784400,5.055784423828125,-0.994720458984375,0.0282745361328125,0.00640869140625
1782987136113858600,5.065858642578125,-0.99322509765625,0.0283966064453125,0.0066375732421875
1782987136123933400,5.075933349609375,-0.993682861328125,0.029815673828125,0.0063934326171875
1782987136134007600,5.086007568359375,-0.992950439453125,0.0275421142578125,0.0052337646484375
1782987136144082400,5.09608251953125,-0.9937286376953125,0.0282135009765625,0.0052490234375
1782987136154157300,5.1061572265625,-0.9945526123046875,0.0279083251953125,0.007049560546875
1782987136164231400,5.1162314453125,-0.99462890625,0.0270843505859375,0.006591796875
1782987136174306300,5.126306396484375,-0.9940643310546875,0.028900146484375,0.005950927734375
1782987136184380400,5.13638037109375,-0.9938201904296875,0.0278167724609375,0.006378173828125
1782987136194455300,5.146455322265625,-0.99273681640625,0.0282135009765625,0.005523681640625
1782987136204529400,5.156529296875,-0.9939727783203125,0.0273895263671875,0.0064544677734375
1782987136214604300,5.166604248046875,-0.9947509765625,0.0288543701171875,0.006744384765625
1782987136224678400,5.176678466796875,-0.994110107421875,0.02777099609375,0.005828857421875
1782987136234753300,5.186753173828125,-0.9938201904296875,0.0261383056640625,0.0050506591796875
1782987136244827400,5.196827392578125,-0.9941558837890625,0.0282440185546875,0.006195068359375
1782987136254902000,5.206902099609375,-0.993621826171875,0.0285797119140625,0.006988525390625
1782987136264976400,5.216976318359375,-0.9954376220703125,0.027587890625,0.0058135986328125
1782987136275051000,5.227051025390625,-0.995452880859375,0.028411865234375,0.006134033203125
1782987136285126100,5.237126220703125,-0.994110107421875,0.0265655517578125,0.0059356689453125
1782987136295200000,5.247199951171875,-0.9950408935546875,0.02764892578125,0.0064544677734375
1782987136305275100,5.257275146484375,-0.994354248046875,0.02838134765625,0.0062408447265625
1782987136315349000,5.267348876953125,-0.99395751953125,0.0295867919921875,0.006317138671875
1782987136325424000,5.277424072265625,-0.994659423828125,0.0283050537109375,0.0055694580078125
1782987136335498000,5.287498046875,-0.9922332763671875,0.0281219482421875,0.0070953369140625
1782987136345573000,5.297572998046875,-0.9953155517578125,0.0271759033203125,0.0070037841796875
1782987136355647000,5.30764697265625,-0.9931640625,0.0283355712890625,0.0080413818359375
1782987136365722000,5.31772216796875,-0.9935150146484375,0.0288238525390625,0.0069427490234375
1782987136375796000,5.3277958984375,-0.9923858642578125,0.0279541015625,0.0060577392578125
1782987136385871000,5.33787109375,-0.9940338134765625,0.028900146484375,0.0052490234375
1782987136395945000,5.347945068359375,-0.993408203125,0.0283203125,0.007781982421875
1782987136406020000,5.35802001953125,-0.9940338134765625,0.0285797119140625,0.00555419921875
1782987136416095200,5.36809521484375,-0.994354248046875,0.0297393798828125,0.006256103515625
1782987136426169000,5.378169189453125,-0.99365234375,0.0287933349609375,0.0073699951171875
1782987136436244200,5.388244140625,-0.99212646484375,0.0285491943359375,0.0066070556640625
1782987136446318000,5.398318115234375,-0.9951171875,0.0272064208984375,0.0059661865234375
1782987136456392000,5.408391845703125,-0.9944000244140625,0.0269012451171875,0.005645751953125
1782987136466466300,5.41846630859375,-0.9937286376953125,0.0296630859375,0.00537109375
1782987136476541000,5.428541015625,-0.994781494140625,0.0281982421875,0.00518798828125
1782987136486615300,5.438615234375,-0.9930877685546875,0.026397705078125,0.007049560546875
1782987136496690000,5.44868994140625,-0.9923858642578125,0.027862548828125,0.0055694580078125
1782987136506764300,5.458764404296875,-0.9942779541015625,0.027435302734375,0.0073699951171875
1782987136516839200,5.468839111328125,-0.995391845703125,0.0287628173828125,0.0061187744140625
1782987136526914000,5.4789140625,-0.9936370849609375,0.0284576416015625,0.0051422119140625
1782987136536988200,5.48898828125,-0.9933624267578125,0.0287628173828125,0.007110595703125
1782987136547063000,5.49906298828125,-0.99346923828125,0.0284576416015625,0.0063018798828125
1782987136557137200,5.50913720703125,-0.9925384521484375,0.029327392578125,0.0069122314453125
1782987136567212000,5.5192119140625,-0.9950103759765625,0.0284881591796875,0.005859375
1782987136577286100,5.5292861328125,-0.9937744140625,0.0290374755859375,0.0050811767578125
1782987136587361000,5.539361083984375,-0.9946746826171875,0.0292205810546875,0.0070343017578125
1782987136597435100,5.54943505859375,-0.99407958984375,0.028228759765625,0.0060577392578125
1782987136607510000,5.559510009765625,-0.9937896728515625,0.0279541015625,0.005950927734375
1782987136617584000,5.569584228515625,-0.993011474609375,0.0299072265625,0.0056304931640625
1782987136627659000,5.579658935546875,-0.9930572509765625,0.0292816162109375,0.0075225830078125
1782987136637733000,5.589733154296875,-0.993621826171875,0.0289154052734375,0.00640869140625
1782987136647808000,5.59980810546875,-0.9940032958984375,0.0275726318359375,0.0060272216796875
1782987136657882000,5.609882080078125,-0.9948577880859375,0.0288848876953125,0.005889892578125
1782987136667957000,5.61995703125,-0.9947967529296875,0.0274505615234375,0.0052642822265625
1782987136678032100,5.6300322265625,-0.9932861328125,0.0278167724609375,0.00628662109375
1782987136688106000,5.64010595703125,-0.993865966796875,0.028656005859375,0.005218505859375
1782987136698181000,5.65018115234375,-0.994384765625,0.0290374755859375,0.0052032470703125
1782987136708255000,5.6602548828125,-0.992950439453125,0.028472900390625,0.0070343017578125
1782987136718330000,5.670330078125,-0.99432373046875,0.027191162109375,0.00628662109375
1782987136728404000,5.680404052734375,-0.9949951171875,0.028656005859375,0.0057525634765625
1782987136738479000,5.69047900390625,-0.994537353515625,0.0276641845703125,0.0059814453125
1782987136748553000,5.700552978515625,-0.9933319091796875,0.0283355712890625,0.00634765625
1782987136758628000,5.710628173828125,-0.994537353515625,0.029510498046875,0.0068511962890625
1782987136768702000,5.720701904296875,-0.9940643310546875,0.0279693603515625,0.004638671875
1782987136778777000,5.730777099609375,-0.9938812255859375,0.027740478515625,0.0062713623046875
1782987136788852200,5.740852294921875,-0.9920196533203125,0.027374267578125,0.0074462890625
1782987136798926000,5.750926025390625,-0.993499755859375,0.026580810546875,0.0069427490234375
1782987136809001200,5.761001220703125,-0.993377685546875,0.0295562744140625,0.0074462890625
1782987136819075000,5.771074951171875,-0.9934539794921875,0.0278778076171875,0.0069732666015625
1782987136829150200,5.781150146484375,-0.9942169189453125,0.0294647216796875,0.005828857421875
1782987136839225000,5.79122509765625,-0.994384765625,0.0287017822265625,0.0050048828125
1782987136849299200,5.80129931640625,-0.9948577880859375,0.0277252197265625,0.006866455078125
1782987136859374000,5.8113740234375,-0.9936676025390625,0.027557373046875,0.0073089599609375
1782987136869448200,5.8214482421875,-0.993072509765625,0.028167724609375,0.00787353515625
1782987136879523000,5.831523193359375,-0.9932708740234375,0.0275421142578125,0.00726318359375
1782987136889598200,5.84159814453125,-0.9946441650390625,0.028045654296875,0.0068511962890625
1782987136899672000,5.851672119140625,-0.9934539794921875,0.027679443359375,0.0049285888671875
1782987136909747200,5.861747314453125,-0.993255615234375,0.02813720703125,0.0079345703125
1782987136919821300,5.8718212890625,-0.9931640625,0.0272979736328125,0.0064239501953125
1782987136929896200,5.881896240234375,-0.99517822265625,0.02764892578125,0.006072998046875
1782987136939970300,5.89197021484375,-0.9939727783203125,0.0299835205078125,0.0072479248046875
1782987136950045200,5.902045166015625,-0.993988037109375,0.028564453125,0.0047607421875
1782987136960119300,5.912119384765625,-0.993743896484375,0.0268096923828125,0.0051727294921875
1782987136970194200,5.922194091796875,-0.993682861328125,0.027130126953125,0.0058746337890625
1782987136980268300,5.932268310546875,-0.99383544921875,0.0280914306640625,0.0054473876953125
1782987136990343200,5.94234326171875,-0.995208740234375,0.028656005859375,0.006134033203125
1782987137000417300,5.952417236328125,-0.994110107421875,0.0280914306640625,0.0052642822265625
1782987137010492200,5.9624921875,-0.9947357177734375,0.0292816162109375,0.0067291259765625
1782987137020567300,5.9725673828125,-0.9930877685546875,0.028961181640625,0.0074615478515625
1782987137030641200,5.98264111328125,-0.9940948486328125,0.027587890625,0.0058746337890625
1782987137040716300,5.99271630859375,-0.9923095703125,0.027008056640625,0.007415771484375
1782987137050790100,6.0027900390625,-0.9942626953125,0.0279541015625,0.005645751953125
1782987137060865300,6.012865234375,-0.99517822265625,0.027557373046875,0.0049591064453125
1782987137070939100,6.022939208984375,-0.99432373046875,0.0279083251953125,0.0050811767578125
1782987137081014300,6.03301416015625,-0.9940643310546875,0.0271453857421875,0.0046539306640625
1782987137091088100,6.043088134765625,-0.9941864013671875,0.029052734375,0.00482177734375
1782987137101163300,6.053163330078125,-0.9944000244140625,0.027557373046875,0.006622314453125
1782987137111237000,6.063237060546875,-0.9945831298828125,0.0273895263671875,0.0055084228515625
1782987137121312300,6.073312255859375,-0.99420166015625,0.0288848876953125,0.0064239501953125
1782987137131386000,6.08338623046875,-0.994476318359375,0.02886962890625,0.0061492919921875
1782987137141461200,6.093461181640625,-0.99432373046875,0.0267486572265625,0.005950927734375
1782987137151535000,6.10353515625,-0.99346923828125,0.0275726318359375,0.0072021484375
1782987137161610200,6.1136103515625,-0.993438720703125,0.027923583984375,0.0062408447265625
1782987137171685000,6.12368505859375,-0.9935150146484375,0.0281829833984375,0.005523681640625
1782987137181759200,6.13375927734375,-0.994659423828125,0.02685546875,0.0071563720703125
1782987137191834000,6.143834228515625,-0.9939727783203125,0.0286102294921875,0.007110595703125
1782987137201908200,6.153908203125,-0.9933624267578125,0.0290069580078125,0.0050048828125
1782987137211983000,6.163983154296875,-0.9927825927734375,0.029876708984375,0.006561279296875
1782987137222057200,6.17405712890625,-0.994476318359375,0.0281982421875,0.007232666015625
1782987137232132000,6.184132080078125,-0.9950103759765625,0.0271453857421875,0.006072998046875
1782987137242206200,6.194206298828125,-0.99432373046875,0.026641845703125,0.0047760009765625
1782987137252281000,6.204281005859375,-0.9949951171875,0.02825927734375,0.00604248046875
1782987137262355500,6.21435546875,-0.994598388671875,0.027099609375,0.0056610107421875
1782987137272430300,6.224430419921875,-0.9931640625,0.0282440185546875,0.0070648193359375
1782987137282505500,6.23450537109375,-0.9936676025390625,0.0274505615234375,0.0068511962890625
1782987137292579300,6.244579345703125,-0.9937286376953125,0.027984619140625,0.0050201416015625
1782987137302654500,6.254654541015625,-0.9951629638671875,0.028076171875,0.0072021484375
1782987137312728300,6.264728271484375,-0.994476318359375,0.027252197265625,0.006805419921875
1782987137322803500,6.274803466796875,-0.994842529296875,0.0285491943359375,0.0062713623046875
1782987137332877600,6.284877685546875,-0.99420166015625,0.0290679931640625,0.007659912109375
1782987137342952400,6.294952392578125,-0.9944305419921875,0.0296783447265625,0.006927490234375
1782987137353026600,6.305026611328125,-0.9925537109375,0.02850341796875,0.005645751953125
1782987137363101400,6.315101318359375,-0.994476318359375,0.027801513671875,0.0067138671875
1782987137373175600,6.325175537109375,-0.99267578125,0.02789306640625,0.0047607421875
1782987137383250400,6.33525048828125,-0.9942779541015625,0.0289154052734375,0.006256103515625
1782987137393324500,6.345324462890625,-0.9941558837890625,0.0283966064453125,0.004608154296875
1782987137403399400,6.3553994140625,-0.9935150146484375,0.0295562744140625,0.0057830810546875
1782987137413473500,6.3654736328125,-0.9936981201171875,0.0271759033203125,0.0064544677734375
1782987137423548400,6.37554833984375,-0.99371337890625,0.0274200439453125,0.005950927734375
1782987137433623600,6.38562353515625,-0.993621826171875,0.0283660888671875,0.0065155029296875
1782987137443697400,6.395697509765625,-0.993988037109375,0.028900146484375,0.0063323974609375
1782987137453772500,6.4057724609375,-0.994110107421875,0.0279998779296875,0.00665283203125
1782987137463846400,6.415846435546875,-0.9947509765625,0.0282745361328125,0.0069732666015625
1782987137473921500,6.425921630859375,-0.993743896484375,0.0291748046875,0.00628662109375
1782987137483995400,6.435995361328125,-0.9943389892578125,0.0282745361328125,0.0062103271484375
1782987137494070500,6.446070556640625,-0.9949188232421875,0.030487060546875,0.006256103515625
1782987137504144400,6.456144287109375,-0.994293212890625,0.0292205810546875,0.006744384765625
1782987137514219500,6.466219482421875,-0.9918975830078125,0.028778076171875,0.004913330078125
1782987137524293400,6.47629345703125,-0.9929046630859375,0.0289154052734375,0.0071868896484375
1782987137534368500,6.486368408203125,-0.99481201171875,0.0288543701171875,0.008392333984375
1782987137544442400,6.4964423828125,-0.99444580078125,0.02777099609375,0.0068817138671875
1782987137554517500,6.506517578125,-0.9947357177734375,0.0272674560546875,0.0068817138671875
1782987137564592600,6.516592529296875,-0.9933624267578125,0.0286712646484375,0.0068206787109375
1782987137574666500,6.52666650390625,-0.993133544921875,0.0285186767578125,0.0062713623046875
1782987137584741600,6.53674169921875,-0.9948272705078125,0.0296783447265625,0.0070648193359375
1782987137594815500,6.5468154296875,-0.9929962158203125,0.02886962890625,0.0076446533203125
1782987137604890600,6.556890625,-0.993621826171875,0.029083251953125,0.007080078125
1782987137614964500,6.566964599609375,-0.9931640625,0.02886962890625,0.006622314453125
1782987137625039600,6.57703955078125,-0.9944305419921875,0.029510498046875,0.00579833984375
1782987137635113500,6.587113525390625,-0.9942169189453125,0.029815673828125,0.00567626953125
1782987137645188600,6.597188720703125,-0.9955596923828125,0.028350830078125,0.0067901611328125
1782987137655262500,6.607262451171875,-0.9944000244140625,0.028228759765625,0.0062103271484375
1782987137665337600,6.617337646484375,-0.993011474609375,0.027923583984375,0.00531005859375
1782987137675411500,6.627411376953125,-0.9932708740234375,0.0280609130859375,0.006744384765625
1782987137685486600,6.637486572265625,-0.993865966796875,0.0277252197265625,0.0066986083984375
1782987137695561500,6.6475615234375,-0.991729736328125,0.02825927734375,0.0064544677734375
1782987137705635600,6.657635498046875,-0.9949493408203125,0.029388427734375,0.006866455078125
1782987137715710700,6.667710693359375,-0.993865966796875,0.028961181640625,0.006500244140625
1782987137725784600,6.67778466796875,-0.9938812255859375,0.02728271484375,0.006561279296875
1782987137735859700,6.687859619140625,-0.993804931640625,0.0273895263671875,0.006195068359375
1782987137745933600,6.69793359375,-0.99298095703125,0.028076171875,0.0071258544921875
1782987137756008700,6.7080087890625,-0.9943389892578125,0.0272216796875,0.0076446533203125
1782987137766082600,6.71808251953125,-0.995147705078125,0.0282440185546875,0.0055389404296875
1782987137776157700,6.72815771484375,-0.9930419921875,0.0285797119140625,0.006256103515625
1782987137786231600,6.7382314453125,-0.99267578125,0.02862548828125,0.005218505859375
1782987137796306700,6.748306640625,-0.99395751953125,0.029327392578125,0.0063629150390625
1782987137806380500,6.758380615234375,-0.9950408935546875,0.02972412109375,0.005462646484375
1782987137816455700,6.76845556640625,-0.9946746826171875,0.0281219482421875,0.0065460205078125
1782987137826529500,6.778529541015625,-0.9948883056640625,0.0284576416015625,0.004730224609375
1782987137836604700,6.788604736328125,-0.995697021484375,0.02783203125,0.0060272216796875
1782987137846679600,6.798679443359375,-0.994903564453125,0.0265960693359375,0.005645751953125
1782987137856753700,6.808753662109375,-0.99462890625,0.0287017822265625,0.0059814453125
1782987137866828500,6.81882861328125,-0.9927825927734375,0.0308074951171875,0.0070343017578125
1782987137876902700,6.828902587890625,-0.993560791015625,0.0292510986328125,0.0063018798828125
1782987137886977500,6.8389775390625,-0.993255615234375,0.0283203125,0.006927490234375
1782987137897051600,6.8490517578125,-0.994415283203125,0.0279693603515625,0.0074462890625
1782987137907126500,6.85912646484375,-0.9935455322265625,0.0283966064453125,0.0058441162109375
1782987137917200600,6.86920068359375,-0.9929351806640625,0.0281982421875,0.00628662109375
1782987137927275500,6.879275634765625,-0.99542236328125,0.028076171875,0.0060882568359375
1782987137937349600,6.889349609375,-0.994140625,0.0291748046875,0.0067901611328125
1782987137947424500,6.899424560546875,-0.993408203125,0.029449462890625,0.007781982421875
1782987137957498600,6.90949853515625,-0.993988037109375,0.027252197265625,0.0049896240234375
1782987137967573800,6.91957373046875,-0.993682861328125,0.0280609130859375,0.0046539306640625
1782987137977648400,6.9296484375,-0.995269775390625,0.0284423828125,0.005828857421875
1782987137987722800,6.93972265625,-0.9926910400390625,0.028778076171875,0.0075531005859375
1782987137997797400,6.94979736328125,-0.9934539794921875,0.0284576416015625,0.0075531005859375
1782987138007871700,6.959871826171875,-0.994873046875,0.02783203125,0.0059814453125
1782987138017946400,6.9699462890625,-0.99383544921875,0.028839111328125,0.0057525634765625
1782987138028020700,6.980020751953125,-0.9930572509765625,0.028350830078125,0.0058441162109375
1782987138038095400,6.990095458984375,-0.993377685546875,0.029052734375,0.005096435546875
1782987138048169700,7.000169677734375,-0.9929351806640625,0.0282440185546875,0.005828857421875
1782987138058244400,7.010244384765625,-0.99273681640625,0.0273590087890625,0.005767822265625
1782987138068318700,7.020318603515625,-0.99432373046875,0.027557373046875,0.0055084228515625
1782987138078393300,7.030393310546875,-0.9935760498046875,0.0291290283203125,0.005950927734375
1782987138088467700,7.0404677734375,-0.9933013916015625,0.0285491943359375,0.0050506591796875
1782987138098542300,7.050542236328125,-0.9947052001953125,0.0290374755859375,0.0059051513671875
1782987138108616700,7.06061669921875,-0.9926910400390625,0.030059814453125,0.0070037841796875
1782987138118691300,7.07069140625,-0.9923858642578125,0.0294189453125,0.0075836181640625
1782987138128766500,7.080766357421875,-0.9931182861328125,0.029327392578125,0.0074920654296875
1782987138138840300,7.09084033203125,-0.994293212890625,0.0280914306640625,0.0058135986328125
1782987138148915500,7.10091552734375,-0.993988037109375,0.028411865234375,0.0064697265625
1782987138158989300,7.1109892578125,-0.993804931640625,0.0278472900390625,0.0071868896484375
1782987138169064400,7.121064453125,-0.9942474365234375,0.029541015625,0.005706787109375
1782987138179138300,7.13113818359375,-0.9944305419921875,0.02734375,0.005828857421875
1782987138189213400,7.14121337890625,-0.9936065673828125,0.0272216796875,0.0057220458984375
1782987138199287300,7.151287353515625,-0.994171142578125,0.0282440185546875,0.0067901611328125
1782987138209362400,7.161362548828125,-0.99481201171875,0.027069091796875,0.00836181640625
1782987138219436300,7.171436279296875,-0.993316650390625,0.028564453125,0.004669189453125
1782987138229511400,7.181511474609375,-0.992095947265625,0.02850341796875,0.0068206787109375
1782987138239585500,7.19158544921875,-0.99432373046875,0.0282135009765625,0.006866455078125
1782987138249660400,7.201660400390625,-0.9929351806640625,0.0266876220703125,0.007080078125
1782987138259735000,7.211735107421875,-0.993743896484375,0.027618408203125,0.0067596435546875
1782987138269809000,7.221808837890625,-0.9942474365234375,0.0282135009765625,0.0059356689453125
1782987138279884000,7.231884033203125,-0.994476318359375,0.0277862548828125,0.005584716796875
1782987138289958000,7.2419580078125,-0.99371337890625,0.0275726318359375,0.0066070556640625
1782987138300033000,7.252032958984375,-0.9923095703125,0.0293426513671875,0.006072998046875
1782987138310107000,7.26210693359375,-0.99334716796875,0.0287628173828125,0.004547119140625
1782987138320182000,7.27218212890625,-0.993408203125,0.0277862548828125,0.0056915283203125
1782987138330256000,7.282255859375,-0.993133544921875,0.0274200439453125,0.00592041015625
1782987138340331000,7.2923310546875,-0.994476318359375,0.028564453125,0.0064697265625
1782987138350404900,7.30240478515625,-0.9932403564453125,0.0285491943359375,0.0068206787109375
1782987138360480000,7.31247998046875,-0.9947509765625,0.02764892578125,0.005767822265625
1782987138370553900,7.322553955078125,-0.993499755859375,0.0283660888671875,0.00518798828125
1782987138380629000,7.33262890625,-0.993988037109375,0.027740478515625,0.0047607421875
1782987138390703900,7.342703857421875,-0.993682861328125,0.028472900390625,0.0074462890625
1782987138400778000,7.352778076171875,-0.99383544921875,0.02667236328125,0.00592041015625
1782987138410852900,7.362852783203125,-0.993743896484375,0.0282135009765625,0.0077972412109375
1782987138420927000,7.372927001953125,-0.9938507080078125,0.0284271240234375,0.0066375732421875
1782987138431002000,7.383002197265625,-0.9937591552734375,0.02801513671875,0.0047760009765625
1782987138441076000,7.393075927734375,-0.9938812255859375,0.0280914306640625,0.00726318359375
1782987138451151000,7.403151123046875,-0.9936065673828125,0.02764892578125,0.00592041015625
1782987138461225000,7.413224853515625,-0.99261474609375,0.027618408203125,0.0069732666015625
1782987138471300000,7.423300048828125,-0.9934539794921875,0.0272979736328125,0.00701904296875
1782987138481374000,7.4333740234375,-0.9952392578125,0.0298614501953125,0.0049591064453125
1782987138491449000,7.443448974609375,-0.9929656982421875,0.0286712646484375,0.00616455078125
1782987138501523000,7.45352294921875,-0.99420166015625,0.0291900634765625,0.0072021484375
1782987138511598000,7.46359814453125,-0.99383544921875,0.028533935546875,0.0062103271484375
1782987138521672000,7.473671875,-0.9937286376953125,0.0260009765625,0.00665283203125
1782987138531747000,7.4837470703125,-0.994964599609375,0.0283966064453125,0.0061492919921875
1782987138541822000,7.493822021484375,-0.993896484375,0.0291595458984375,0.00506591796875
1782987138551896000,7.50389599609375,-0.992218017578125,0.02813720703125,0.0038299560546875
1782987138561971000,7.513970947265625,-0.9922943115234375,0.028656005859375,0.00714111328125
1782987138572045000,7.524045166015625,-0.99444580078125,0.027130126953125,0.0057220458984375
1782987138582120000,7.534119873046875,-0.9933929443359375,0.0267181396484375,0.005859375
1782987138592194000,7.544194091796875,-0.9942169189453125,0.027862548828125,0.005889892578125
1782987138602269000,7.55426904296875,-0.992645263671875,0.028717041015625,0.0066986083984375
1782987138612343000,7.564343017578125,-0.9929656982421875,0.028778076171875,0.00531005859375
1782987138622418000,7.57441796875,-0.9930572509765625,0.0275115966796875,0.005859375
1782987138632492000,7.584491943359375,-0.9929046630859375,0.029754638671875,0.007537841796875
1782987138642567000,7.59456689453125,-0.9936370849609375,0.027984619140625,0.0065460205078125
1782987138652641000,7.60464111328125,-0.9936676025390625,0.0303955078125,0.0072784423828125
1782987138662716000,7.6147158203125,-0.9953155517578125,0.028961181640625,0.00714111328125
1782987138672790000,7.6247900390625,-0.9943084716796875,0.0299224853515625,0.007354736328125
1782987138682865200,7.634865234375,-0.9929046630859375,0.028717041015625,0.00665283203125
1782987138692940000,7.64493994140625,-0.9947509765625,0.0283966064453125,0.0070343017578125
1782987138703014100,7.65501416015625,-0.993804931640625,0.028656005859375,0.0066986083984375
1782987138713089000,7.665089111328125,-0.993011474609375,0.0278472900390625,0.00457763671875
1782987138723163100,7.6751630859375,-0.994659423828125,0.0272216796875,0.0063934326171875
1782987138733238000,7.685238037109375,-0.993377685546875,0.028411865234375,0.0072784423828125
1782987138743312100,7.69531201171875,-0.99359130859375,0.02783203125,0.00836181640625
1782987138753387000,7.705386962890625,-0.9945831298828125,0.030303955078125,0.0064697265625
1782987138763461000,7.715461181640625,-0.9937744140625,0.0294647216796875,0.005645751953125
1782987138773536000,7.725535888671875,-0.993682861328125,0.0282745361328125,0.00640869140625
1782987138783610000,7.735610107421875,-0.99444580078125,0.028839111328125,0.00811767578125
1782987138793685000,7.74568505859375,-0.9925079345703125,0.028411865234375,0.0056610107421875
1782987138803759000,7.755759033203125,-0.9953765869140625,0.030029296875,0.00689697265625
1782987138813834000,7.765833984375,-0.9933624267578125,0.0284271240234375,0.0084228515625
1782987138823908000,7.775908203125,-0.99346923828125,0.028411865234375,0.0078125
1782987138833983000,7.78598291015625,-0.9936676025390625,0.0287017822265625,0.0052642822265625
1782987138844058000,7.79605810546875,-0.993194580078125,0.026397705078125,0.005523681640625
1782987138854132000,7.806132080078125,-0.993011474609375,0.0282745361328125,0.0071868896484375
1782987138864207000,7.81620703125,-0.992919921875,0.029571533203125,0.004913330078125
1782987138874281000,7.826281005859375,-0.99432373046875,0.027984619140625,0.0041351318359375
1782987138884356000,7.836356201171875,-0.9939117431640625,0.029571533203125,0.0061187744140625
1782987138894430000,7.846429931640625,-0.993499755859375,0.0282440185546875,0.0062255859375
1782987138904505000,7.856505126953125,-0.9952239990234375,0.0269317626953125,0.006591796875
1782987138914579000,7.866578857421875,-0.9950103759765625,0.0275726318359375,0.006805419921875
1782987138924654000,7.876654052734375,-0.9931182861328125,0.028533935546875,0.0074310302734375
1782987138934728000,7.88672802734375,-0.993438720703125,0.0298309326171875,0.007293701171875
1782987138944803000,7.896802978515625,-0.99407958984375,0.0286102294921875,0.007415771484375
1782987138954877200,7.906877197265625,-0.9935455322265625,0.0278778076171875,0.005279541015625
1782987138964952000,7.9169521484375,-0.9938507080078125,0.0265350341796875,0.0052947998046875
1782987138975026200,7.927026123046875,-0.994873046875,0.028472900390625,0.007080078125
1782987138985101000,7.93710107421875,-0.9941253662109375,0.0279998779296875,0.006011962890625
1782987138995176200,7.94717626953125,-0.994232177734375,0.0272979736328125,0.0070648193359375
1782987139005250000,7.95725,-0.9933013916015625,0.0275115966796875,0.0074005126953125
1782987139015325200,7.9673251953125,-0.9936981201171875,0.0285186767578125,0.008087158203125
1782987139025399000,7.97739892578125,-0.993682861328125,0.0289764404296875,0.00640869140625
1782987139035474200,7.98747412109375,-0.9940185546875,0.0275115966796875,0.0068817138671875
1782987139045548000,7.997548095703125,-0.991424560546875,0.0274200439453125,0.006195068359375
1782987139055623200,8.007623046875,-0.99395751953125,0.02899169921875,0.0052032470703125
1782987139065697000,8.017697021484375,-0.9937591552734375,0.0279541015625,0.0057830810546875
1782987139075772200,8.027772216796874,-0.99420166015625,0.02691650390625,0.006591796875
1782987139085846000,8.037845947265625,-0.9940032958984375,0.029296875,0.0074615478515625
1782987139095921200,8.047921142578126,-0.995361328125,0.0284881591796875,0.00616455078125
1782987139105995000,8.0579951171875,-0.994354248046875,0.0273895263671875,0.006011962890625
1782987139116070100,8.068070068359376,-0.99407958984375,0.0274200439453125,0.0065155029296875
1782987139126144000,8.07814404296875,-0.994049072265625,0.0285491943359375,0.006744384765625
1782987139136219100,8.08821923828125,-0.9940032958984375,0.029144287109375,0.00775146484375
1782987139146294000,8.0982939453125,-0.994049072265625,0.0277252197265625,0.0072021484375
1782987139156368100,8.1083681640625,-0.9951629638671875,0.0290069580078125,0.0057830810546875
1782987139166443000,8.118443115234374,-0.992462158203125,0.02978515625,0.0053253173828125
1782987139176517000,8.12851708984375,-0.994476318359375,0.027862548828125,0.0068206787109375
1782987139186592000,8.138592041015626,-0.9945526123046875,0.02685546875,0.004669189453125
1782987139196666000,8.148666015625,-0.9944305419921875,0.029052734375,0.0050201416015625
1782987139206741000,8.158740966796875,-0.9932098388671875,0.0290069580078125,0.0062713623046875
1782987139216815000,8.168815185546874,-0.992156982421875,0.0292510986328125,0.00750732421875
1782987139226890000,8.178889892578125,-0.9929656982421875,0.028717041015625,0.006011962890625
1782987139236964000,8.188964111328126,-0.99371337890625,0.028533935546875,0.006622314453125
1782987139247039000,8.1990390625,-0.992706298828125,0.0297698974609375,0.0068359375
1782987139257113300,8.20911328125,-0.993011474609375,0.0282745361328125,0.0067901611328125
1782987139267188200,8.219188232421875,-0.9949188232421875,0.028472900390625,0.005767822265625
1782987139277262300,8.229262451171875,-0.992462158203125,0.0294189453125,0.00714111328125
1782987139287337200,8.239337158203124,-0.9941253662109375,0.028717041015625,0.00775146484375
1782987139297412400,8.249412353515625,-0.9937286376953125,0.0299072265625,0.00775146484375
1782987139307486200,8.259486328125,-0.994232177734375,0.0294189453125,0.0055999755859375
1782987139317561300,8.269561279296875,-0.994110107421875,0.0281982421875,0.00518798828125
1782987139327635200,8.27963525390625,-0.9952545166015625,0.029327392578125,0.00579833984375
1782987139337710300,8.28971044921875,-0.9935760498046875,0.0286407470703125,0.0066680908203125
1782987139347784200,8.2997841796875,-0.994384765625,0.029022216796875,0.0084991455078125
1782987139357859300,8.309859375,-0.9955596923828125,0.0264129638671875,0.0063323974609375
1782987139367933400,8.319933349609375,-0.9947967529296875,0.0295867919921875,0.0046844482421875
1782987139378008300,8.33000830078125,-0.994964599609375,0.02923583984375,0.0052947998046875
1782987139388082400,8.34008251953125,-0.9945831298828125,0.02825927734375,0.0040130615234375
1782987139398157300,8.3501572265625,-0.993865966796875,0.029449462890625,0.0057373046875
1782987139408231400,8.3602314453125,-0.9923248291015625,0.027587890625,0.0078582763671875
1782987139418306300,8.370306396484375,-0.99359130859375,0.028228759765625,0.0059814453125
1782987139428380400,8.38038037109375,-0.99468994140625,0.028472900390625,0.00677490234375
1782987139438455300,8.390455322265625,-0.9934539794921875,0.027313232421875,0.007049560546875
1782987139448530400,8.400530517578124,-0.99462890625,0.0270843505859375,0.005950927734375
1782987139458604300,8.410604248046875,-0.99407958984375,0.027984619140625,0.0056304931640625
1782987139468679400,8.420679443359376,-0.99395751953125,0.029083251953125,0.0063629150390625
1782987139478753300,8.430753173828125,-0.991729736328125,0.029144287109375,0.0054931640625
1782987139488828400,8.440828369140625,-0.994049072265625,0.0275421142578125,0.0052032470703125
1782987139498902300,8.45090234375,-0.994781494140625,0.02813720703125,0.0067596435546875
1782987139508977400,8.460977294921875,-0.9936981201171875,0.0284271240234375,0.0070953369140625
1782987139519051300,8.47105126953125,-0.993194580078125,0.029144287109375,0.0069580078125
1782987139529126400,8.48112646484375,-0.9944610595703125,0.028045654296875,0.006591796875
1782987139539200300,8.4912001953125,-0.9944915771484375,0.0267333984375,0.0052947998046875
1782987139549275400,8.501275390625,-0.9946746826171875,0.0265350341796875,0.0072784423828125
1782987139559349200,8.511349365234375,-0.9935760498046875,0.0279541015625,0.00665283203125
1782987139569424400,8.52142431640625,-0.9934234619140625,0.0272979736328125,0.0054931640625
1782987139579498200,8.531498291015625,-0.99273681640625,0.0277099609375,0.0068206787109375
1782987139589573400,8.541573486328126,-0.9955596923828125,0.02734375,0.0064544677734375
1782987139599648500,8.5516484375,-0.994140625,0.0279541015625,0.0073699951171875
1782987139609722400,8.561722412109376,-0.9932098388671875,0.0286407470703125,0.006622314453125
1782987139619797500,8.571797607421875,-0.9932861328125,0.0278472900390625,0.0058441162109375
1782987139629871400,8.581871337890625,-0.9948272705078125,0.030242919921875,0.006500244140625
1782987139639946500,8.591946533203124,-0.9945831298828125,0.028350830078125,0.005828857421875
1782987139650020400,8.602020263671875,-0.995452880859375,0.0268707275390625,0.005950927734375
1782987139660095500,8.612095458984374,-0.9938812255859375,0.0275726318359375,0.0060882568359375
1782987139670169300,8.62216943359375,-0.9942626953125,0.0292510986328125,0.00543212890625
1782987139680244500,8.632244384765626,-0.9939422607421875,0.0266876220703125,0.0072174072265625
1782987139690318300,8.642318359375,-0.9930419921875,0.0279083251953125,0.006256103515625
1782987139700393500,8.6523935546875,-0.9931640625,0.0271148681640625,0.007476806640625
1782987139710467300,8.66246728515625,-0.99444580078125,0.02911376953125,0.0077056884765625
1782987139720542500,8.67254248046875,-0.9933929443359375,0.0281524658203125,0.0064849853515625
1782987139730616300,8.6826162109375,-0.9932403564453125,0.028228759765625,0.0042572021484375
1782987139740691500,8.69269140625,-0.9944305419921875,0.02960205078125,0.006256103515625
1782987139750766600,8.7027666015625,-0.9935302734375,0.0286865234375,0.00634765625
1782987139760840400,8.71284033203125,-0.9927215576171875,0.0292510986328125,0.006744384765625
1782987139770915600,8.72291552734375,-0.9940643310546875,0.0285491943359375,0.0062103271484375
1782987139780989400,8.732989501953124,-0.994537353515625,0.028594970703125,0.006134033203125
1782987139791064600,8.743064697265625,-0.9929962158203125,0.028839111328125,0.006317138671875
1782987139801138400,8.753138427734376,-0.9944000244140625,0.0295867919921875,0.0043182373046875
1782987139811213600,8.763213623046875,-0.9947967529296875,0.0277557373046875,0.005706787109375
1782987139821287400,8.773287353515625,-0.995819091796875,0.028076171875,0.0056610107421875
1782987139831362600,8.783362548828125,-0.9946136474609375,0.0283355712890625,0.0070648193359375
1782987139841436400,8.7934365234375,-0.994140625,0.028411865234375,0.006317138671875
1782987139851511600,8.803511474609374,-0.9935760498046875,0.0282440185546875,0.005889892578125
1782987139861585400,8.81358544921875,-0.993865966796875,0.0295867919921875,0.00390625
1782987139871660500,8.82366064453125,-0.99566650390625,0.0276336669921875,0.0048980712890625
1782987139881734400,8.833734375,-0.994384765625,0.0282440185546875,0.0074615478515625
1782987139891809500,8.8438095703125,-0.9944000244140625,0.02886962890625,0.007049560546875
1782987139901884400,8.853884521484375,-0.99365234375,0.027313232421875,0.0059051513671875
1782987139911958500,8.86395849609375,-0.9938507080078125,0.0289306640625,0.0046844482421875
1782987139922033400,8.874033447265624,-0.994354248046875,0.029083251953125,0.005767822265625
1782987139932107500,8.884107421875,-0.9927978515625,0.028839111328125,0.0063629150390625
1782987139942182400,8.894182373046876,-0.99334716796875,0.0285491943359375,0.0059814453125
1782987139952256500,8.904256591796875,-0.9930572509765625,0.0283660888671875,0.0063323974609375
1782987139962331400,8.914331298828126,-0.9931793212890625,0.029266357421875,0.0062255859375
1782987139972405500,8.924405517578125,-0.99267578125,0.0291900634765625,0.0059967041015625
1782987139982480400,8.93448046875,-0.994781494140625,0.02911376953125,0.0059356689453125
1782987139992554500,8.944554443359374,-0.994110107421875,0.028106689453125,0.007080078125
1782987140002629400,8.95462939453125,-0.992401123046875,0.0286102294921875,0.005889892578125
1782987140012703500,8.964703369140626,-0.994476318359375,0.0290374755859375,0.0055694580078125
1782987140022778600,8.974778564453125,-0.99310302734375,0.02740478515625,0.00787353515625
1782987140032852500,8.9848525390625,-0.993438720703125,0.028533935546875,0.007354736328125
1782987140042927600,8.994927734375,-0.99371337890625,0.02789306640625,0.00665283203125
1782987140053002200,9.005002197265625,-0.9944305419921875,0.02752685546875,0.004547119140625
1782987140063076600,9.01507666015625,-0.9948272705078125,0.028533935546875,0.00634765625
1782987140073151200,9.025151123046875,-0.99444580078125,0.0287933349609375,0.00653076171875
1782987140083225600,9.0352255859375,-0.9946746826171875,0.0277557373046875,0.005645751953125
1782987140093300200,9.04530029296875,-0.9935760498046875,0.029052734375,0.0064697265625
1782987140103374600,9.05537451171875,-0.993499755859375,0.0286712646484375,0.0059814453125
1782987140113449200,9.06544921875,-0.993743896484375,0.0269775390625,0.0070953369140625
1782987140123523600,9.075523681640625,-0.9937286376953125,0.0289764404296875,0.0072479248046875
1782987140133598200,9.08559814453125,-0.9941864013671875,0.0283660888671875,0.007598876953125
1782987140143672600,9.095672607421875,-0.993927001953125,0.0286712646484375,0.005828857421875
1782987140153747200,9.105747314453126,-0.9935150146484375,0.02777099609375,0.006195068359375
1782987140163821600,9.115821533203125,-0.99456787109375,0.0280303955078125,0.006195068359375
1782987140173896200,9.125896240234376,-0.993377685546875,0.02850341796875,0.006866455078125
1782987140183970600,9.135970458984374,-0.993438720703125,0.02862548828125,0.0056915283203125
1782987140194045200,9.146045166015625,-0.9930267333984375,0.028656005859375,0.00518798828125
1782987140204119600,9.15611962890625,-0.9940032958984375,0.027862548828125,0.0065765380859375
1782987140214194200,9.166194091796875,-0.9947052001953125,0.028411865234375,0.0069580078125
1782987140224269300,9.176269287109376,-0.993682861328125,0.0290374755859375,0.0086669921875
1782987140234343200,9.18634326171875,-0.99365234375,0.028594970703125,0.0063629150390625
1782987140244418300,9.196418212890626,-0.9949188232421875,0.02813720703125,0.0058746337890625
1782987140254492200,9.2064921875,-0.9936370849609375,0.028900146484375,0.0056304931640625
1782987140264567000,9.216567138671875,-0.9938201904296875,0.0283355712890625,0.006134033203125
1782987140274641200,9.22664111328125,-0.99420166015625,0.027923583984375,0.00579833984375
1782987140284716000,9.236716064453125,-0.9936370849609375,0.0293426513671875,0.005889892578125
1782987140294790100,9.2467900390625,-0.9936676025390625,0.028656005859375,0.0057220458984375
1782987140304865000,9.256864990234375,-0.99261474609375,0.0281524658203125,0.0069732666015625
1782987140314939100,9.266939208984375,-0.9927520751953125,0.0279388427734375,0.006134033203125
1782987140325014000,9.277013916015624,-0.9943695068359375,0.0274810791015625,0.006256103515625
1782987140335088000,9.287088134765625,-0.994842529296875,0.028167724609375,0.0070648193359375
1782987140345163000,9.2971630859375,-0.9939727783203125,0.0279998779296875,0.0074920654296875
1782987140355237000,9.307237060546875,-0.994903564453125,0.02911376953125,0.0057830810546875
1782987140365312000,9.31731201171875,-0.993621826171875,0.028289794921875,0.0053863525390625
1782987140375387100,9.32738720703125,-0.991912841796875,0.02734375,0.0061187744140625
1782987140385461000,9.3374609375,-0.9940032958984375,0.028656005859375,0.0061187744140625
1782987140395536100,9.3475361328125,-0.9941558837890625,0.027191162109375,0.006805419921875
1782987140405610000,9.35760986328125,-0.9954986572265625,0.0272674560546875,0.007293701171875
1782987140415685000,9.36768505859375,-0.9950103759765625,0.0284881591796875,0.0066680908203125
1782987140425759000,9.377759033203125,-0.994110107421875,0.0283203125,0.00738525390625
1782987140435834000,9.387834228515626,-0.9922332763671875,0.02886962890625,0.006195068359375
1782987140445908000,9.397907958984375,-0.992584228515625,0.0289459228515625,0.007659912109375
1782987140455982300,9.407982421875,-0.9936065673828125,0.0279388427734375,0.0061798095703125
1782987140466057000,9.418056884765624,-0.99462890625,0.026336669921875,0.0051116943359375
1782987140476131300,9.42813134765625,-0.994964599609375,0.0297698974609375,0.005157470703125
1782987140486206000,9.4382060546875,-0.993896484375,0.02679443359375,0.0068206787109375
1782987140496280300,9.4482802734375,-0.994964599609375,0.026397705078125,0.0038604736328125
1782987140506355000,9.45835498046875,-0.9948272705078125,0.0288238525390625,0.006805419921875
1782987140516429300,9.46842919921875,-0.9943389892578125,0.028656005859375,0.0073394775390625
1782987140526504000,9.47850390625,-0.99383544921875,0.0272064208984375,0.00592041015625
1782987140536578300,9.488578369140624,-0.993865966796875,0.028167724609375,0.0066680908203125
1782987140546653000,9.49865283203125,-0.9937744140625,0.02850341796875,0.0070343017578125
1782987140556727300,9.508727294921876,-0.9941864013671875,0.0282135009765625,0.005279541015625
1782987140566802000,9.518802001953125,-0.9940032958984375,0.02740478515625,0.0057220458984375
1782987140576876300,9.528876220703125,-0.9947662353515625,0.0290985107421875,0.0062103271484375
1782987140586951000,9.538950927734374,-0.99310302734375,0.027923583984375,0.0074615478515625
1782987140597026000,9.549026123046875,-0.994476318359375,0.028778076171875,0.0059967041015625
1782987140607100000,9.559099853515624,-0.9930419921875,0.028717041015625,0.006561279296875
1782987140617175000,9.569175048828125,-0.993682861328125,0.0269012451171875,0.0063018798828125
1782987140627249000,9.579248779296876,-0.9936676025390625,0.028106689453125,0.0064849853515625
1782987140637324000,9.589323974609375,-0.994598388671875,0.0305633544921875,0.007537841796875
1782987140647398000,9.59939794921875,-0.9944305419921875,0.0288543701171875,0.006103515625
1782987140657473000,9.60947314453125,-0.9941253662109375,0.0279083251953125,0.005615234375
1782987140667547100,9.619547119140625,-0.9942169189453125,0.0289306640625,0.00518798828125
1782987140677622000,9.6296220703125,-0.993255615234375,0.0287322998046875,0.00579833984375
1782987140687696100,9.639696044921875,-0.992950439453125,0.0274810791015625,0.0058746337890625
1782987140697771000,9.64977099609375,-0.993194580078125,0.028350830078125,0.007476806640625
1782987140707845000,9.65984521484375,-0.9953765869140625,0.0290069580078125,0.006439208984375
1782987140717920000,9.669919921875,-0.9937896728515625,0.0277557373046875,0.00567626953125
1782987140727994000,9.679994140625,-0.9938507080078125,0.0289459228515625,0.0063018798828125
1782987140738069000,9.690069091796875,-0.993743896484375,0.0289764404296875,0.0064544677734375
1782987140748143000,9.70014306640625,-0.992645263671875,0.0283966064453125,0.0059356689453125
1782987140758218000,9.710218017578125,-0.9953155517578125,0.0289459228515625,0.0064697265625
1782987140768293000,9.720293212890626,-0.9930877685546875,0.028472900390625,0.00555419921875
1782987140778367000,9.730366943359375,-0.99420166015625,0.0276336669921875,0.0057525634765625
1782987140788442000,9.740442138671876,-0.9928741455078125,0.0283203125,0.0052337646484375
1782987140798516000,9.750515869140624,-0.993316650390625,0.02850341796875,0.0063934326171875
1782987140808591000,9.760591064453125,-0.9955291748046875,0.0277862548828125,0.0078125
1782987140818665000,9.7706650390625,-0.995452880859375,0.0290374755859375,0.0048065185546875
1782987140828741000,9.7807412109375,-0.99365234375,0.02789306640625,0.0053253173828125
1782987140838815200,9.790815185546874,-0.9939727783203125,0.0284576416015625,0.00469970703125
1782987140848890000,9.80089013671875,-0.9939117431640625,0.0274810791015625,0.0047607421875
1782987140858964200,9.810964111328126,-0.992645263671875,0.02813720703125,0.0062103271484375
1782987140869039000,9.8210390625,-0.9934539794921875,0.0274658203125,0.0066986083984375
1782987140879113200,9.83111328125,-0.995361328125,0.0273895263671875,0.0054931640625
1782987140889188000,9.84118798828125,-0.9942626953125,0.0274658203125,0.004364013671875
1782987140899262200,9.85126220703125,-0.9931182861328125,0.0266571044921875,0.006011962890625
1782987140909337000,9.861337158203124,-0.9937896728515625,0.0283660888671875,0.0062713623046875
1782987140919411200,9.8714111328125,-0.9934844970703125,0.027679443359375,0.0065765380859375
1782987140929486000,9.881486083984376,-0.991851806640625,0.0290374755859375,0.007354736328125
1782987140939560200,9.891560302734375,-0.995147705078125,0.0284576416015625,0.0072174072265625
1782987140949635000,9.901635009765625,-0.992950439453125,0.0286407470703125,0.0061798095703125
1782987140959710200,9.911710205078125,-0.99395751953125,0.0292510986328125,0.0064544677734375
1782987140969784000,9.9217841796875,-0.9935150146484375,0.02947998046875,0.0067291259765625
1782987140979859200,9.931859130859374,-0.993408203125,0.0291595458984375,0.0062713623046875
1782987140989933000,9.94193310546875,-0.993743896484375,0.029388427734375,0.0076904296875
1782987141000008200,9.95200830078125,-0.993377685546875,0.027679443359375,0.0074310302734375
1782987141010082000,9.96208203125,-0.993377685546875,0.027984619140625,0.0065155029296875
1782987141020157200,9.9721572265625,-0.9946746826171875,0.028045654296875,0.0064544677734375
1782987141030231000,9.98223095703125,-0.9929046630859375,0.028167724609375,0.006072998046875
1782987141040306200,9.99230615234375,-0.9928436279296875,0.0272674560546875,0.007537841796875
1782987141050380000,10.002380126953126,-0.9943084716796875,0.0281524658203125,0.005706787109375
1782987141060455200,10.012455078125,-0.9942169189453125,0.0278472900390625,0.00640869140625
1782987141070529300,10.022529296875,-0.99407958984375,0.0288238525390625,0.0067138671875
1782987141080604200,10.032604248046875,-0.994659423828125,0.0290679931640625,0.0078277587890625
1782987141090678300,10.04267822265625,-0.9949188232421875,0.0294647216796875,0.005401611328125
1782987141100753200,10.052753173828124,-0.994781494140625,0.028411865234375,0.00506591796875
1782987141110828300,10.062828369140625,-0.994415283203125,0.0274810791015625,0.005401611328125
1782987141120902100,10.072902099609376,-0.993194580078125,0.0285186767578125,0.0075836181640625
1782987141130977300,10.082977294921875,-0.9943695068359375,0.02880859375,0.007354736328125
1782987141141051100,10.093051025390626,-0.9947052001953125,0.0269927978515625,0.0059967041015625
1782987141151126300,10.103126220703125,-0.9937896728515625,0.027618408203125,0.0064697265625
1782987141161200000,10.1132001953125,-0.99444580078125,0.030029296875,0.0051116943359375
1782987141171275300,10.123275146484374,-0.9935455322265625,0.029296875,0.0057373046875
1782987141181349000,10.13334912109375,-0.9924774169921875,0.02960205078125,0.0062255859375
1782987141191424300,10.14342431640625,-0.99322509765625,0.029449462890625,0.0054931640625
1782987141201498000,10.153498046875,-0.99462890625,0.0290069580078125,0.005767822265625
1782987141211573200,10.1635732421875,-0.994781494140625,0.0284423828125,0.005615234375
1782987141221647000,10.173647216796875,-0.9949188232421875,0.0288238525390625,0.0060272216796875
1782987141231722200,10.18372216796875,-0.992950439453125,0.028106689453125,0.00616455078125
1782987141241796000,10.193796142578124,-0.993743896484375,0.028045654296875,0.006134033203125
1782987141251871200,10.203871337890625,-0.994293212890625,0.0301055908203125,0.00689697265625
1782987141261945600,10.213945556640626,-0.9940032958984375,0.0275421142578125,0.005767822265625
1782987141272020500,10.2240205078125,-0.993255615234375,0.0279388427734375,0.0059661865234375
1782987141282095600,10.234095703125,-0.9933013916015625,0.026702880859375,0.0061187744140625
1782987141292169500,10.24416943359375,-0.99456787109375,0.0278167724609375,0.0066680908203125
1782987141302244600,10.25424462890625,-0.9954986572265625,0.02935791015625,0.00579833984375
1782987141312318500,10.264318359375,-0.9943695068359375,0.0283660888671875,0.0066070556640625
1782987141322393600,10.2743935546875,-0.993255615234375,0.028411865234375,0.0046844482421875
1782987141332467500,10.284467529296874,-0.9963226318359375,0.028839111328125,0.00494384765625
1782987141342542600,10.29454248046875,-0.9944000244140625,0.0277862548828125,0.0055999755859375
1782987141352616400,10.304616455078126,-0.993011474609375,0.027984619140625,0.007843017578125
1782987141362691600,10.314691650390625,-0.9955596923828125,0.0288238525390625,0.0064697265625
1782987141372765400,10.324765380859375,-0.99493408203125,0.0281219482421875,0.006072998046875
1782987141382840600,10.334840576171874,-0.9952239990234375,0.0270843505859375,0.0069122314453125
1782987141392914400,10.34491455078125,-0.9931793212890625,0.0269775390625,0.006317138671875
1782987141402989600,10.354989501953124,-0.9911346435546875,0.0276031494140625,0.0070648193359375
1782987141413063400,10.3650634765625,-0.9867706298828125,0.027374267578125,0.0074462890625
1782987141423138600,10.375138671875,-0.989166259765625,0.0275115966796875,0.00653076171875
1782987141433212400,10.38521240234375,-0.996978759765625,0.0273284912109375,0.005828857421875
1782987141443287600,10.39528759765625,-0.9942169189453125,0.0286712646484375,0.0068359375
1782987141453362700,10.40536279296875,-0.995269775390625,0.0286407470703125,0.00738525390625
1782987141463436500,10.4154365234375,-0.9951324462890625,0.0299224853515625,0.0056304931640625
1782987141473511700,10.42551171875,-0.994232177734375,0.029815673828125,0.0066986083984375
1782987141483585500,10.43558544921875,-0.9936065673828125,0.029052734375,0.0069427490234375
