time,seconds_elapsed,z,y,x
1782987131113104000,0.065103759765625,-0.0015138653106987476,-0.00040188548155128956,0.0006335090729407966
1782987131123178800,0.0751787109375,-0.000515179883223027,-0.00194998097140342,0.0014899816596880555
1782987131133252900,0.0852529296875,-0.00006093666888773441,0.0000062515027821063995,-0.001047060126438737
1782987131143327700,0.09532763671875,0.0008754307636991143,0.00023954431526362896,0.00026481313398107886
1782987131153403000,0.10540283203125,0.0008521373383700848,0.00018236110918223858,-0.00046816508984193206
1782987131163476700,0.115476806640625,0.00009366904851049185,0.0006257775239646435,-0.0015009389026090503
1782987131173551900,0.1255517578125,-0.0006789031904190779,-0.0008212734246626496,0.0016565807163715363
1782987131183625700,0.135625732421875,-0.0006826316239312291,-0.0009863893501460552,-0.003634587861597538
1782987131193700900,0.145700927734375,-0.0010044847149401903,-0.0006256067426875234,0.0016169765731319785
1782987131203774700,0.155774658203125,0.00008181866724044085,0.000922222388908267,-0.002043804619461298
1782987131213849900,0.165849853515625,0.0012614966835826635,-0.0006591319106519222,-0.0007821896579116583
1782987131223923700,0.175923828125,-0.0003529114765115082,-0.0026865964755415916,-0.0018732866737991571
1782987131233998800,0.185998779296875,-0.00020371365826576948,-0.00044548651203513145,0.0009093360276892781
1782987131244074000,0.196073974609375,0.00019576051272451878,-0.000652414164505899,-0.0014251910615712404
1782987131254147800,0.20614794921875,0.0002561218570917845,-0.0003143183421343565,0.0019640999380499125
1782987131264223000,0.216222900390625,-0.002362564206123352,-0.00092604651581496,0.000017861817468656227
1782987131274296800,0.226296875,-0.00041494303150102496,-0.0005473252385854721,0.0023522379342466593
1782987131284372000,0.2363720703125,0.00022181880194693804,-0.0008237612200900912,0.0055461665615439415
1782987131294445800,0.24644580078125,0.0022298614494502544,0.00020283949561417103,-0.0003363356809131801
1782987131304521000,0.25652099609375,-0.0011840446386486292,-0.0003913117107003927,-0.0013616527430713177
1782987131314594800,0.2665947265625,-0.00039730436401441693,0.0016588987782597542,0.0012820643605664372
1782987131324670000,0.276669921875,-0.00025562418159097433,0.0003744561690837145,0.00015767771401442587
1782987131334744800,0.286744873046875,0.0023483328986912966,0.000025566667318344116,-0.00139471678994596
1782987131344819000,0.29681884765625,0.00024922925513237715,0.00032916711643338203,0.0013621875550597906
1782987131354893800,0.306893798828125,0.00009536999277770519,-0.0010658921673893929,0.0016899844631552696
1782987131364968000,0.316968017578125,-0.0014431382296606898,-0.001706116134300828,0.0020487122237682343
1782987131375042800,0.327042724609375,0.0006544491043314338,-0.0015492405509576201,-0.0007917772745713592
1782987131385117000,0.337116943359375,0.0011047895532101393,-0.0016634901985526085,-0.00036460626870393753
1782987131395191800,0.34719189453125,0.00023829983547329903,-0.0006997224409133196,0.000011356090908520855
1782987131405266000,0.357265869140625,0.00268281577154994,0.0009674164466559887,-0.00013059040065854788
1782987131415340800,0.3673408203125,0.001293823355808854,0.0004441849887371063,-0.0016491241985931993
1782987131425415700,0.377415771484375,-0.0026721563190221786,0.0006343347486108541,0.0014673068653792143
1782987131435489800,0.38748974609375,0.0022984291426837444,0.0010967208072543144,-0.00021139849559403956
1782987131445564700,0.397564697265625,-0.0002757824258878827,-0.001972039695829153,-0.000961078330874443
1782987131455638800,0.407638671875,-0.000715347588993609,-0.002463466487824917,-0.002244675997644663
1782987131465713700,0.417713623046875,0.0013885495718568563,-0.0011987312464043498,0.00028159853536635637
1782987131475787800,0.427787841796875,0.0004754135152325034,-0.0026364524383097887,-0.0009236156474798918
1782987131485863000,0.43786279296875,-0.0008740101475268602,-0.0006579901091754436,-0.000002960842721222434
1782987131495936800,0.447936767578125,0.0016014184802770615,-0.0026231827214360237,-0.0014747370732948184
1782987131506012000,0.458011962890625,0.0005651824176311493,0.0015702310483902693,-0.0015253371093422174
1782987131516086800,0.468086669921875,0.0005132408114150167,0.0010651936754584312,-0.0010821581818163395
1782987131526161000,0.478160888671875,0.0011697100708261132,-0.0011082120472565293,-0.0002962592989206314
1782987131536235800,0.48823583984375,0.00046395137906074524,-0.001118922489695251,-0.00031969285919331014
1782987131546310000,0.498309814453125,-0.00007267552427947521,0.00583672197535634,0.001666492666117847
1782987131556384800,0.508384765625,-0.0001015891321003437,0.0038188700564205647,0.001153145101852715
1782987131566459000,0.518458984375,0.001694446662440896,0.0016217618249356747,-0.000295614474453032
1782987131576533800,0.52853369140625,-0.00002058548852801323,0.0019793794490396976,0.0005996110267005861
1782987131586607900,0.53860791015625,-0.0005465597496367991,0.0022390373051166534,-0.0006049367366358638
1782987131596682800,0.548682861328125,-0.0004788658698089421,0.001252741552889347,-0.00276355748064816
1782987131606758000,0.5587578125,-0.0013896669261157513,-0.0005241194739937782,-0.0009416889515705407
1782987131616831700,0.568831787109375,0.0002101190621033311,-0.0015595873119309545,-0.002278231782838702
1782987131626907000,0.578906982421875,0.000828505028039217,0.00007985462434589863,0.002580439206212759
1782987131636980700,0.588980712890625,-0.0013776365667581558,-0.0004333578981459141,0.0007687750621698797
1782987131647056000,0.599055908203125,-0.0007938716444186866,0.0014524264261126518,-0.0012160788755863905
1782987131657129700,0.609129638671875,0.00036478927358984947,-0.0014764806255698204,0.00047811015974730253
1782987131667204900,0.619204833984375,-0.0008584006573073566,0.0020056026987731457,-0.0008279040339402854
1782987131677278700,0.62927880859375,0.0008623223984614015,0.0007454587612301111,-0.0000016293706721626222
1782987131687353900,0.639353759765625,-0.00039415707578882575,0.0006525143980979919,-0.0002429117594147101
1782987131697429000,0.649428955078125,0.0002716820454224944,0.0018676696345210075,-0.0001853940193541348
1782987131707502800,0.6595029296875,-0.0017477930523455143,-0.00020853104069828987,0.0008231450919993222
1782987131717578000,0.669577880859375,0.00015687791164964437,-0.001962055452167988,-0.0013753512175753713
1782987131727651800,0.67965185546875,-0.0017704517813399434,-0.0003931873943656683,-0.0013852049596607685
1782987131737727000,0.68972705078125,0.001292541390284896,-0.00002243928611278534,-0.0020672734826803207
1782987131747800800,0.69980078125,-0.00008724222425371408,-0.0029372689314186573,-0.00030106521444395185
1782987131757876000,0.7098759765625,-0.0012926094932481647,0.0004683674778789282,-0.0026733444537967443
1782987131767949800,0.71994970703125,0.002225692616775632,-0.001632067607715726,-0.00015692366287112236
1782987131778025000,0.73002490234375,0.0004709443310275674,-0.001973697217181325,-0.0002952422946691513
1782987131788099800,0.740099853515625,-0.0006292075850069523,-0.0008474463829770684,0.0006408587796613574
1782987131798174000,0.750174072265625,0.00034592312294989824,-0.00018057366833090782,-0.001797457691282034
1782987131808248800,0.760248779296875,0.000035398523323237896,-0.0007731270743533969,-0.00009196939936373383
1782987131818323000,0.770322998046875,0.00043533602729439735,0.0006355487275868654,-0.00012471660738810897
1782987131828397800,0.780397705078125,0.0005389329744502902,-0.0018374626524746418,0.0014931537443771958
1782987131838472000,0.790471923828125,-0.000882111256942153,-0.00412414176389575,0.00035941379610449076
1782987131848546800,0.800546875,-0.0010229924228042364,-0.0026085367426276207,-0.003253696719184518
1782987131858621000,0.810620849609375,-0.0017715429421514273,-0.001149525516666472,-0.0007964149117469788
1782987131868696000,0.820696044921875,-0.002053305506706238,-0.0005881312536075711,0.0011618074495345354
1782987131878771000,0.83077099609375,-0.001343643176369369,-0.0031708991155028343,-0.000986789120361209
1782987131888845000,0.840844970703125,0.0005112484795972705,-0.0026089721359312534,-0.0000557480234419927
1782987131898920000,0.850919921875,0.0005589252104982734,-0.000688018393702805,-0.0015502914320677519
1782987131908994000,0.860994140625,-0.00006105878856033087,-0.0008541996357962489,0.000787697616033256
1782987131919069000,0.87106884765625,0.0009271657327190042,-0.0022249105386435986,-0.001500489073805511
1782987131929143000,0.88114306640625,0.00016576796770095825,0.000707496190443635,0.0007954221800900996
1782987131939218000,0.891218017578125,-0.00035806524101644754,-0.004996487870812416,-0.002609572373330593
1782987131949292000,0.9012919921875,-0.001350625418126583,-0.0025511737912893295,0.0007412168197333813
1782987131959367000,0.911366943359375,-0.0007386755896732211,-0.002176678040996194,0.0002881288528442383
1782987131969441800,0.92144189453125,-0.0009306895080953836,0.0004979346413165331,-0.0037103411741554737
1782987131979516000,0.931515869140625,-0.0000644392566755414,-0.0014399741776287556,0.0006564653012901545
1782987131989590800,0.9415908203125,-0.0011885594576597214,-0.0017198724672198296,-0.003495402866974473
1782987131999665000,0.951664794921875,-0.0009285192936658859,0.0009533262345939875,-0.0018881710711866617
1782987132009739800,0.96173974609375,-0.001241174410097301,0.002195424633100629,0.0007563479011878371
1782987132019814000,0.97181396484375,0.0008927957387641072,0.0009174235165119171,-0.00020187262271065265
1782987132029888800,0.981888671875,-0.00010429183021187782,0.0006412537768483162,-0.000026370307750767097
1782987132039963000,0.991962890625,-0.00015557848382741213,0.0009957922156900167,0.0015339971287176013
1782987132050037800,1.002037841796875,0.0022021178156137466,0.0006466517224907875,0.0026003269013017416
1782987132060112000,1.01211181640625,0.001724033267237246,-0.00029913452453911304,0.0023865916300565004
1782987132070186800,1.022186767578125,0.0012963294284418225,-0.0005811633309349418,-0.0026230807416141033
1782987132080262000,1.032261962890625,-0.0016995014157146215,0.00015619373880326748,-0.000354235788108781
1782987132090335700,1.042335693359375,0.0011364988749846816,-0.003590074833482504,-0.0009007164626382291
1782987132100411000,1.052410888671875,-0.0009020422585308552,-0.003152643097564578,-0.001247751759365201
1782987132110484700,1.062484619140625,-0.0011276120785623789,-0.005654150620102882,-0.0008980787242762744
1782987132120559900,1.072559814453125,-0.0007648712489753962,-0.00013553258031606674,-0.001301144016906619
1782987132130633700,1.0826337890625,0.0012873606756329536,-0.0022559415083378553,-0.00008461200195597485
1782987132140708900,1.092708984375,-0.0006851058569736779,-0.00003198161721229553,-0.0012507878709584475
1782987132150783700,1.10278369140625,0.00015299092046916485,0.0006841423455625772,-0.0027530770748853683
1782987132160857900,1.11285791015625,0.0010559234069660306,-0.00020942743867635727,0.0013208396267145872
1782987132170932700,1.1229326171875,0.0004979911027476192,0.0008798055350780487,0.0012958059087395668
1782987132181006800,1.1330068359375,0.0020370951388031244,-0.0012013912200927734,0.000464516575448215
1782987132191081700,1.143081787109375,0.0005278819007799029,0.0013043771032243967,-0.0014297898160293698
1782987132201155800,1.15315576171875,-0.0004876043531112373,-0.0004712166264653206,0.0012345639988780022
1782987132211230700,1.163230712890625,-0.0020801746286451817,-0.0011849438305944204,-0.002069087466225028
1782987132221304800,1.173304931640625,0.0004974431358277798,0.0005491508636623621,0.0008372562006115913
1782987132231379700,1.183379638671875,-0.0015960677992552519,0.0018631545826792717,0.00008624477050034329
1782987132241454800,1.193454833984375,0.0018190478440374136,-0.0005093812942504883,0.0009976641740649939
1782987132251529500,1.203529541015625,-0.0033488161861896515,0.001035784836858511,0.00016329585923813283
1782987132261604400,1.213604248046875,0.0030604065395891666,-0.002201613038778305,0.001479057944379747
1782987132271678500,1.223678466796875,0.0041909185238182545,-0.005617117043584585,-0.000008850096492096782
1782987132281753300,1.23375341796875,0.001504587009549141,-0.0035625034943223,-0.0020234077237546444
1782987132291827500,1.243827392578125,0.0013599772937595844,0.0029856767505407333,0.0006136544398032129
1782987132301902300,1.25390234375,0.00022227491717785597,0.0004681907594203949,0.003751124255359173
1782987132311976400,1.2639765625,-0.00029135390650480986,0.00278593972325325,-0.0007507531554438174
1782987132322051300,1.27405126953125,-0.0016601338284090161,0.003555556293576956,-0.0029347415547817945
1782987132332126500,1.28412646484375,-0.001581836841069162,-0.0004178800154477358,-0.0029030500445514917
1782987132342200600,1.29420068359375,-0.00225377781316638,0.00036581489257514477,-0.002187178237363696
1782987132352275500,1.304275390625,0.0008083246648311615,-0.001138871069997549,0.001978271873667836
1782987132362349600,1.314349609375,-0.0023238295689225197,-0.003450606018304825,0.0008679948514327407
1782987132372424400,1.324424560546875,-0.004785389173775911,-0.0014990415656939149,0.0019950447604060173
1782987132382498600,1.33449853515625,-0.007514596916735172,-0.004248222801834345,0.002127747517079115
1782987132392573400,1.344573486328125,-0.005004833918064833,-0.004122255370020866,-0.0006611149292439222
1782987132402647600,1.3546474609375,-0.0068539902567863464,-0.005056348629295826,-0.0041928947903215885
1782987132412722400,1.364722412109375,-0.021287525072693825,-0.0057088229805231094,0.002458882285282016
1782987132422796500,1.374796630859375,-0.058980319648981094,-0.0024577456060796976,0.0007654757937416434
1782987132432871400,1.384871337890625,-0.07228254526853561,0.0028920122422277927,-0.00457682553678751
1782987132442946600,1.394946533203125,-0.08424519747495651,0.0015971832908689976,0.0021252857986837626
1782987132453020400,1.4050205078125,-0.07820142060518265,0.0008922447450459003,0.0006371114286594093
1782987132463095600,1.415095458984375,-0.06911802291870117,0.003067591693252325,0.00009002075239550322
1782987132473169400,1.42516943359375,-0.05126792564988136,-0.0005958526162430644,-0.0004106535343453288
1782987132483244500,1.43524462890625,-0.050924889743328094,-0.001831604866310954,0.000416144379414618
1782987132493318400,1.445318359375,-0.03971165046095848,0.005624181125313044,-0.0016771001974120736
1782987132503393500,1.4553935546875,-0.04511561244726181,0.0010842112824320793,0.0024554056581109762
1782987132513467400,1.46546728515625,-0.044012799859046936,0.0028458922170102596,0.00012274307664483786
1782987132523542500,1.47554248046875,-0.042404189705848694,0.005534949712455273,-0.0009586169035173953
1782987132533617400,1.485617431640625,-0.03713592141866684,0.0019735039677470922,-0.0011285266373306513
1782987132543691500,1.49569140625,-0.031767625361680984,0.0010046768002212048,0.00007849326357245445
1782987132553766400,1.505766357421875,-0.0309540294110775,0.005931524559855461,-0.0011068797903135419
1782987132563840500,1.515840576171875,-0.02003009058535099,0.003330932930111885,0.0006864552851766348
1782987132573915400,1.525915283203125,-0.007676485925912857,0.00048720953054726124,0.0014411951415240765
1782987132583989500,1.535989501953125,-0.007033652625977993,0.0018870129715651274,-0.0012106095673516393
1782987132594064400,1.546064453125,-0.016943808645009995,0.0005402525421231985,-0.0004058022750541568
1782987132604138500,1.556138427734375,-0.03012336976826191,-0.0023799813352525234,0.000994711765088141
1782987132614213400,1.56621337890625,-0.02271285653114319,0.006352790165692568,-0.0007395388092845678
1782987132624287500,1.57628759765625,-0.03147251904010773,-0.0005015439819544554,0.0013303065206855536
1782987132634362400,1.5863623046875,-0.024775998666882515,0.002104891696944833,-0.001479594735428691
1782987132644437200,1.596437255859375,-0.015651341527700424,-0.0013894746080040932,-0.0005090271588414907
1782987132654511400,1.606511474609375,0.002335647586733103,0.0006164184305816889,0.000513893086463213
1782987132664586200,1.616586181640625,-0.00020439375657588243,-0.003916000481694937,-0.0018899163696914911
1782987132674660400,1.626660400390625,-0.0004888193216174841,0.0004875361919403076,-0.001645970856770873
1782987132684735200,1.6367353515625,-0.0007795038400217891,0.0006513544358313084,-0.0023796437308192253
1782987132694809300,1.646809326171875,0.0012876418186351657,0.001278262585401535,-0.0008059816900640726
1782987132704884200,1.65688427734375,-0.0011843963293358684,0.000007542548701167107,-0.00041075327317230403
1782987132714958300,1.666958251953125,0.0015543984482064843,0.001090117497369647,0.0004371972172521055
1782987132725033200,1.677033203125,0.0024760067462921143,0.0015438413247466087,0.0013407133519649506
1782987132735108400,1.6871083984375,0.0016248602187260985,0.00013130088336765766,0.002469893777742982
1782987132745182500,1.697182373046875,0.0003077629953622818,-0.00020561972633004189,-0.0012365946313366294
1782987132755257300,1.70725732421875,-0.0005646885256282985,-0.003142287489026785,0.0011192376259714365
1782987132765331500,1.71733154296875,0.0012300157686695457,0.0011914744973182678,-0.0022782408632338047
1782987132775406300,1.72740625,0.0007051066495478153,0.0014649811200797558,0.00018331882893107831
1782987132785480400,1.73748046875,0.0020642292220145464,-0.0008114109514281154,-0.0011664327466860414
1782987132795555300,1.747555419921875,0.0019989816937595606,0.0009332257322967052,0.0002889847964979708
1782987132805629400,1.75762939453125,0.001989354845136404,0.002578353974968195,-0.0031468430534005165
1782987132815704300,1.767704345703125,0.0006164953811094165,0.00018390570767223835,-0.0015516094863414764
1782987132825779500,1.777779541015625,-0.00003757700324058533,-0.0010960095096379519,-0.0029575363732874393
1782987132835853300,1.787853271484375,-0.000025859102606773376,-0.0014265078352764249,0.001958126202225685
1782987132845928400,1.797928466796875,-0.001676148734986782,0.0032871912699192762,0.00021127171930857003
1782987132856002300,1.808002197265625,0.0005803476087749004,-0.0018849335610866547,0.0003691971651278436
1782987132866077400,1.818077392578125,0.001885317382402718,-0.0031036408618092537,0.00004597983934218064
1782987132876151300,1.8281513671875,-0.0005488118040375412,0.0008008196018636227,-0.0026283664628863335
1782987132886226400,1.838226318359375,-0.001256291987374425,-0.0008192592067644,0.0007163439295254648
1782987132896300300,1.84830029296875,-0.0017548357136547565,0.0005008697044104338,-0.0010466687381267548
1782987132906375400,1.85837548828125,-0.0005778201739303768,-0.0017934119096025825,-0.0013217227533459663
1782987132916449300,1.86844921875,-0.0011698409216478467,-0.0021532049868255854,-0.00008734758011996746
1782987132926524400,1.8785244140625,0.0006615422898903489,-0.0005411001620814204,0.00013319074059836566
1782987132936599600,1.888599609375,0.00014355743769556284,-0.0010287249460816383,-0.0015310186427086592
1782987132946673400,1.89867333984375,-0.0006617197068408132,-0.0006036212434992194,0.0003346844750922173
1782987132956748500,1.90874853515625,-0.001431373180821538,-0.000037433113902807236,0.00024413701612502337
1782987132966822400,1.918822509765625,-0.0015696834307163954,0.001118785934522748,0.00033382195397280157
1782987132976897500,1.9288974609375,0.0012324947165325284,0.0020610124338418245,0.0004443431389518082
1782987132986971400,1.938971435546875,-0.00039087620098143816,-0.00045315269380807877,-0.0001453687873436138
1782987132997046500,1.949046630859375,0.0002560056746006012,-0.000516535947099328,-0.000784793752245605
1782987133007120400,1.959120361328125,-0.00026817689649760723,0.0008039535023272038,-0.0005950737977400422
1782987133017195500,1.969195556640625,-0.0004324939800426364,-0.0005643786862492561,0.0006446276674978435
1782987133027269400,1.979269287109375,-0.0026183542795479298,-0.0006751043256372213,0.0007122168317437172
1782987133037344500,1.989344482421875,-0.0009064743644557893,-0.0004439419135451317,-0.0004214908694848418
1782987133047419400,1.99941943359375,0.0002017691731452942,0.0009736279025673866,-0.00021979758457746357
1782987133057493500,2.009493408203125,-0.00028958398615941405,-0.0027470742352306843,-0.0005636116839013994
1782987133067568400,2.019568359375,-0.0005622408934868872,-0.0008038155501708388,-0.0036554154939949512
1782987133077642500,2.029642578125,0.00012858305126428604,-0.0011311180423945189,-0.0009224794339388609
1782987133087717400,2.03971728515625,-0.001606387086212635,-0.00048575480468571186,-0.0003335999499540776
1782987133097791500,2.04979150390625,-0.0022351592779159546,0.0010729932691901922,-0.0021735779009759426
1782987133107866400,2.059866455078125,0.00034834491088986397,-0.00037822360172867775,-0.0002798270434141159
1782987133117940500,2.0699404296875,-0.0010463525541126728,-0.00042163324542343616,-0.0010212510824203491
1782987133128015400,2.080015380859375,0.000831718323752284,0.0006794265937060118,0.0009024218888953328
1782987133138090500,2.090090576171875,0.0015624896623194218,0.000018962658941745758,-0.0004613829078152776
1782987133148164600,2.10016455078125,0.00014265684876590967,0.0009034299291670322,-0.001531687332317233
1782987133158239500,2.110239501953125,-0.0013636270305141807,0.00018038181588053703,0.000019603903638198972
1782987133168313600,2.120313720703125,-0.0017258896259590983,-0.0003566842060536146,0.0009618669864721596
1782987133178388500,2.130388427734375,0.0001385894138365984,-0.0016238160897046328,-0.002633666852489114
1782987133188462600,2.140462646484375,-0.0006507622310891747,0.0008669800590723753,0.002057995880022645
1782987133198537500,2.150537353515625,-0.0014049694873392582,-0.0005697952583432198,-0.0011926586739718914
1782987133208611600,2.160611572265625,0.0012263592798262835,-0.0008950748015195131,-0.0009590606205165386
1782987133218686500,2.1706865234375,0.0016191755421459675,-0.0005589838838204741,-0.0016261824639514089
1782987133228761300,2.18076123046875,-0.0017601815052330494,-0.0007524905959144235,-0.0016274465015158057
1782987133238835500,2.19083544921875,-0.0008083677385002375,0.00005364837124943733,-0.0007022643694654107
1782987133248910300,2.200910400390625,0.001524514751508832,0.0007131036836653948,-0.0025943198706954718
1782987133258984400,2.210984375,0.000043797073885798454,-0.002345004118978977,0.0018262611702084541
1782987133269059300,2.221059326171875,-0.00015943055041134357,0.0006604192312806845,-0.0012272073654457927
1782987133279133400,2.231133544921875,0.001133800484240055,0.0003269913140684366,-0.0013308043126016855
1782987133289208300,2.241208251953125,-0.0013106671394780278,-0.0000685141421854496,0.0017328206449747086
1782987133299282400,2.251282470703125,-0.0009322318946942687,0.0012814421206712723,0.0003546348598320037
1782987133309357300,2.261357421875,0.001634810003452003,0.0005874247290194035,0.0003698798827826977
1782987133319431400,2.271431396484375,0.0006401193095371127,0.0008819701615720987,0.0007776098209433258
1782987133329506300,2.28150634765625,0.0012710046721622348,-0.0026944272685796022,-0.003193620592355728
1782987133339581400,2.29158154296875,-0.00044673430966213346,-0.0010019884211942554,-0.0014188901986926794
1782987133349655300,2.3016552734375,0.0005271023837849498,0.0012117712758481503,-0.0008731329580768943
1782987133359730400,2.31173046875,0.001941507332958281,-0.001460710889659822,0.0013402202166616917
1782987133369804300,2.32180419921875,-0.0003981795161962509,0.0009058753494173288,-0.0006548771634697914
1782987133379879400,2.33187939453125,0.0022237026132643223,-0.00004833540879189968,0.0011443544644862413
1782987133389953300,2.341953369140625,0.0020213332027196884,0.0010295321699231863,0.0000028866634238511324
1782987133400028400,2.3520283203125,0.002186715370044112,0.00014802603982388973,-0.00033080740831792355
1782987133410102300,2.362102294921875,0.00008012517355382442,-0.0003541496116667986,0.0016095928149297833
1782987133420177400,2.372177490234375,0.0010449885157868266,0.001212321687489748,0.002286301925778389
1782987133430251300,2.382251220703125,0.0011988998157903552,0.0007216189987957478,-0.0011217837454751134
1782987133440326400,2.392326416015625,-0.0011199145810678601,-0.0007713490631431341,-0.0025841256137937307
1782987133450401300,2.4024013671875,0.0019776145927608013,-0.0007176123326644301,0.00007794631528668106
1782987133460475400,2.412475341796875,-0.0005385398981161416,-0.0013264110311865807,-0.0022509880363941193
1782987133470550300,2.42255029296875,-0.0006327052833512425,-0.0008356765611097217,-0.0009339130483567715
1782987133480624400,2.432624267578125,-0.0023626945912837982,0.0006269314326345921,-0.0015206075040623546
1782987133490699300,2.44269921875,0.001617583679035306,-0.0021060204599052668,-0.0016016053268685937
1782987133500773400,2.4527734375,0.0011105178855359554,-0.002365145832300186,0.0009017660631798208
1782987133510848300,2.46284814453125,0.00031530752312391996,0.0009892152156680822,-0.0017266967333853245
1782987133520922400,2.47292236328125,0.0010308988858014345,-0.001522944774478674,-0.00081775983562693
1782987133530997500,2.48299755859375,0.00012635719031095505,0.0022592442110180855,0.0005259166937321424
1782987133541072400,2.493072265625,0.0008531338535249233,-0.0001999188680201769,0.0003650617436505854
1782987133551146500,2.503146484375,0.00042963947635143995,-0.0035906070843338966,-0.001488306326791644
1782987133561221400,2.513221435546875,-0.0014428290305659175,0.0022307969629764557,0.0004427516832947731
1782987133571295500,2.52329541015625,-0.0015406892634928226,0.002123815007507801,0.0016110024880617857
1782987133581370400,2.533370361328125,0.0001538802171126008,-0.00044693448580801487,0.0012328336015343666
1782987133591444500,2.543444580078125,-0.0006312262848950922,-0.000755004002712667,-0.0018129762029275298
1782987133601519400,2.553519287109375,-0.0005888820742256939,0.0010130687151104212,-0.003571727778762579
1782987133611593500,2.563593505859375,0.001009603263810277,-0.0010567823192104697,-0.001094651292078197
1782987133621668400,2.57366845703125,0.0003984076902270317,0.0009682853706181049,0.0005421274108812213
1782987133631742500,2.583742431640625,0.0008038135711103678,-0.0003114566206932068,-0.001116529107093811
1782987133641817300,2.5938173828125,0.0011907708831131458,-0.001740775303915143,-0.0014741915510967374
1782987133651892500,2.603892578125,0.0011854146141558886,0.0010285819880664349,0.0006334702484309673
1782987133661966300,2.61396630859375,-0.00019010808318853378,0.0020059621892869473,0.00034931095433421433
1782987133672041500,2.62404150390625,0.0007981290109455585,-0.0026825948152691126,-0.0017017401987686753
1782987133682115300,2.634115234375,0.002429315121844411,0.0008610074874013662,0.0013595634372904897
1782987133692190500,2.6441904296875,-0.00043491454562172294,0.00021492457017302513,0.0004258591798134148
1782987133702264300,2.654264404296875,-0.0004980314988642931,-0.0019230612087994814,0.0009283976978622377
1782987133712339500,2.66433935546875,-0.001364265801385045,0.0002427471335977316,-0.0018241310026496649
1782987133722413300,2.674413330078125,0.0012584151700139046,0.000538357999175787,-0.002231594640761614
1782987133732488400,2.684488525390625,-0.0005217240541242063,0.00006509828381240368,0.0007391241379082203
1782987133742562300,2.694562255859375,0.0010186482686549425,0.00015777628868818283,-0.00040656773489899933
1782987133752637400,2.704637451171875,-0.001728944480419159,-0.00129428890068084,-0.0034921832848340273
1782987133762712600,2.714712646484375,0.0012777643278241158,0.00010307179763913155,0.00011133988300571218
1782987133772786400,2.724786376953125,0.0020276561845093966,-0.00017518363893032074,-0.0015484136529266834
1782987133782861600,2.734861572265625,-0.0008999567944556475,0.001747884787619114,-0.00015957516734488308
1782987133792935400,2.744935302734375,0.0014075324870646,0.0001122988760471344,0.002612275769934058
1782987133803010600,2.755010498046875,0.0009718395303934813,-0.0010802646866068244,-0.001390455523505807
1782987133813084400,2.76508447265625,-0.0010415826691314578,-0.0007581945974379778,-0.003363020019605756
1782987133823159600,2.77515966796875,0.0003488537622615695,0.002052505500614643,-0.0005331450956873596
1782987133833233400,2.7852333984375,-0.0013073377776890993,-0.0014276518486440182,-0.00007484964589821175
1782987133843308500,2.79530859375,0.00032091885805130005,-0.0029435232281684875,0.0015635270392522216
1782987133853382400,2.80538232421875,0.0009780125692486763,0.0004734373651444912,0.0026451514568179846
1782987133863457500,2.81545751953125,-0.0005304017686285079,0.0005852901376783848,0.0005010403110645711
1782987133873532400,2.825532470703125,-0.0018049173522740602,0.0006211502477526665,-0.000558405474293977
1782987133883606500,2.8356064453125,0.0004196210065856576,-0.0019844865892082453,0.002850706921890378
1782987133893681400,2.845681396484375,-0.0003362484276294708,0.000651178415864706,0.0012864844175055623
1782987133903755500,2.855755615234375,-0.0006502351607196033,-0.0005592282395809889,-0.0006594873848371208
1782987133913830400,2.865830322265625,-0.001403468893840909,0.0006499884184449911,-0.0005600000149570405
1782987133923904500,2.875904541015625,-0.0005307509563863277,-0.0019995905458927155,-0.002033793367445469
1782987133933979400,2.8859794921875,-0.001424053218215704,0.00009810365736484528,-0.0030144518241286278
1782987133944053500,2.896053466796875,-0.00121632672380656,-0.0024430847261101007,-0.0011563642183318734
1782987133954128400,2.90612841796875,-0.0012130902614444494,0.0002024075947701931,0.0006365152075886726
1782987133964202500,2.916202392578125,0.0003459242871031165,-0.00042476668022572994,0.0018826082814484835
1782987133974277400,2.92627734375,-0.00024174340069293976,0.0011045460123568773,0.00021425247541628778
1782987133984352300,2.936352294921875,0.0029628383927047253,-0.00013728602789342403,0.00025659671518951654
1782987133994426400,2.94642626953125,0.00006990088149905205,-0.0021518489811569452,-0.0016268579056486487
1782987134004501200,2.956501220703125,-0.001542376819998026,0.00003220955841243267,-0.000054793868912383914
1782987134014575400,2.966575439453125,0.00011185160838067532,-0.002214724663645029,-0.0006288645090535283
1782987134024650200,2.976650146484375,-0.0007675242377445102,0.0009605621453374624,0.0008582446025684476
1782987134034724400,2.986724365234375,-0.00020127324387431145,0.0006322578992694616,0.0010445492807775736
1782987134044799200,2.99679931640625,0.00035745801869779825,-0.0020045379642397165,0.000864253262989223
1782987134054873300,3.006873291015625,0.0008560398127883673,-0.0028640362434089184,-0.0022502713836729527
1782987134064948200,3.0169482421875,0.0002509696641936898,-0.001794510637409985,0.0006983805214986205
1782987134075023400,3.0270234375,0.00023468630388379097,0.0006293284241110086,0.0012586674420163035
1782987134085097200,3.03709716796875,-0.00041965238051488996,-0.000005036592483520508,-0.0009661373915150762
1782987134095172400,3.04717236328125,0.0014635610859841108,-0.0006746962899342179,-0.00004936302138958126
1782987134105246200,3.05724609375,-0.0008589817443862557,-0.0006832184735685587,-0.0005409825826063752
1782987134115321300,3.0673212890625,-0.001391116762533784,-0.00124845199752599,0.00013887776003684849
1782987134125395200,3.077395263671875,-0.0016659550601616502,0.0009076432324945927,-0.0013050881680101156
1782987134135470300,3.08747021484375,0.0016163279069587588,-0.0002607181668281555,0.00047722324961796403
1782987134145544200,3.097544189453125,0.0001681008143350482,-0.00008494965732097626,-0.0012282651150599122
1782987134155619300,3.107619384765625,0.0010922065703198314,0.0012301469687372446,0.0006959394086152315
1782987134165693200,3.117693115234375,-0.00035788468085229397,-0.002254865597933531,-0.0005778505583293736
1782987134175768300,3.127768310546875,-0.0008608227362856269,-0.0006074946140870452,0.0008345874957740307
1782987134185842400,3.137842529296875,0.000819631852209568,-0.0017153696389868855,-0.002267728792503476
1782987134195917300,3.147917236328125,0.000050946720875799656,-0.00016933167353272438,0.001212187809869647
1782987134205992400,3.157992431640625,0.000030440394766628742,-0.002101987600326538,0.0022130038123577833
1782987134216066300,3.16806640625,-0.0022759619168937206,-0.00023558293469250202,-0.00188045809045434
1782987134226141400,3.178141357421875,0.0015456742839887738,-0.0007250718772411346,-0.0012330436147749424
1782987134236215300,3.18821533203125,-0.001380294095724821,-0.0015653795562684536,0.0011199223808944225
1782987134246290400,3.19829052734375,-0.0008963976870290935,-0.0007541807135567069,0.0007239102851599455
1782987134256363500,3.208363525390625,0.0002409452572464943,-0.0017983878497034311,0.0013310150243341923
1782987134266438700,3.218438720703125,0.0004233717918395996,-0.00009662797674536705,-0.0017393433954566717
1782987134276512500,3.228512451171875,-0.0006635806057602167,0.000807532574981451,0.0006846760516054928
1782987134286587600,3.238587646484375,-0.0001402694033458829,-0.0001096602063626051,0.0016037329332903028
1782987134296661500,3.24866162109375,-0.00024079321883618832,0.0007509805727750063,-0.0012198630720376968
1782987134306736600,3.258736572265625,-0.0012565228389576077,0.0008860027883201838,-0.0030952610541135073
1782987134316811500,3.2688115234375,0.00024311221204698086,-0.0015847032191231847,0.0008276002481579781
1782987134326885600,3.2788857421875,-0.000010420684702694416,0.00010959990322589874,-0.00046350021148100495
1782987134336960500,3.28896044921875,-0.0005191491218283772,0.0013652399647980928,-0.00019335933029651642
1782987134347034600,3.29903466796875,0.00032773613929748535,0.0023242440074682236,-0.003258923999965191
1782987134357109500,3.309109619140625,0.0007268993649631739,-0.0007329382933676243,-0.0024990830570459366
1782987134367183600,3.31918359375,0.0009617903269827366,0.000007420545443892479,0.0013891322305426002
1782987134377258500,3.329258544921875,0.0008676820434629917,-0.001584633020684123,0.0019214728381484747
1782987134387332600,3.33933251953125,0.0012325351126492023,0.00016373232938349247,0.002221344970166683
1782987134397407500,3.349407470703125,-0.0011594184907153249,0.0014834890607744455,-0.0009368930477648973
1782987134407481600,3.359481689453125,0.00197405694052577,-0.0009437159169465303,-0.001188561785966158
1782987134417556700,3.369556640625,0.0011744574876502156,-0.001327894744463265,-0.0009244097163900733
1782987134427631600,3.379631591796875,0.0005182545864954591,-0.0028498913161456585,-0.003440564265474677
1782987134437705700,3.389705810546875,-0.00048451957991346717,-0.00016191741451621056,0.0002341244980925694
1782987134447780600,3.399780517578125,-0.00030022882856428623,-0.0008527413010597229,-0.0027185222133994102
1782987134457854700,3.409854736328125,-0.001481253420934081,0.00030641653575003147,-0.002043745946139097
1782987134467929600,3.4199296875,-0.00017151085194200277,0.00024356599897146225,0.0009011775837279856
1782987134478003700,3.430003662109375,-0.0009099409217014909,0.0005131433717906475,0.0009426047326996922
1782987134488078600,3.44007861328125,0.0003028626088052988,-0.00044879037886857986,-0.0009817953687161207
1782987134498152700,3.450152587890625,0.0010063900845125318,-0.0016736856196075678,0.0016872150590643287
1782987134508227600,3.4602275390625,-0.001147042028605938,0.0029181367717683315,-0.0023562624119222164
1782987134518301700,3.4703017578125,0.00014478235971182585,-0.0010162676917389035,0.0022557543125003576
1782987134528376600,3.48037646484375,0.0005421260138973594,0.001297486713156104,0.0024219355545938015
1782987134538451700,3.49045166015625,0.0008842545794323087,0.00006838398985564709,0.002421812154352665
1782987134548525600,3.500525634765625,0.0017966536106541753,-0.000499934540130198,-0.0011532154167070985
1782987134558600700,3.5106005859375,-0.0014713496202602983,-0.0012625682866200805,0.00048165704356506467
1782987134568674600,3.520674560546875,-0.0014188853092491627,-0.0017563183791935444,-0.00030956813134253025
1782987134578749700,3.530749755859375,-0.0012273845495656133,0.00011343974620103836,0.00010603895498206839
1782987134588823600,3.540823486328125,0.00010606017895042896,0.0016913628205657005,0.0009806209709495306
1782987134598898700,3.550898681640625,0.00028156256303191185,0.0008596575353294611,0.0009531904943287373
1782987134608972500,3.56097265625,-0.001642571296542883,0.000597336096689105,0.0004874036239925772
1782987134619047700,3.571047607421875,-0.0017644567415118217,-0.0008606348419561982,-0.0005928303580731153
1782987134629121500,3.58112158203125,0.0005527596222236753,-0.00024411315098404884,0.0006178426556289196
1782987134639196700,3.59119677734375,0.0007208051392808557,-0.003382648341357708,0.002514013322070241
1782987134649271800,3.601271728515625,-0.0009543231572024524,-0.00013092881999909878,-0.0011619478464126587
1782987134659345700,3.611345703125,0.00022125360555946827,0.00034546502865850925,-0.0006488013896159828
1782987134669420800,3.6214208984375,-0.0000879394356161356,0.0005236305296421051,-0.00008847234130371362
1782987134679494700,3.63149462890625,-0.00038881157524883747,0.0012041348963975906,0.0012491147499531507
1782987134689569800,3.64156982421875,0.0009337140945717692,0.0003798864781856537,0.0017130374908447266
1782987134699643600,3.6516435546875,-0.0011096285888925195,0.0012256731279194355,0.002452257089316845
1782987134709718800,3.66171875,0.000382540631107986,0.0027940089348703623,0.0002865745045710355
1782987134719792600,3.671792724609375,-0.0009188544936478138,-0.00007249251939356327,-0.0010883009526878595
1782987134729867800,3.68186767578125,-0.00044640968553721905,-0.00019792746752500534,-0.0006241119699552655
1782987134739941600,3.691941650390625,0.0017991678323596716,-0.00007701991125941277,0.0024670190177857876
1782987134750016800,3.702016845703125,0.0018867857288569212,0.00017997506074607372,-0.0010701915016397834
1782987134760090600,3.712090576171875,0.00008518982212990522,0.0005856617353856564,-0.0014297234592959285
1782987134770165800,3.722165771484375,0.0014186346670612693,-0.002901747589930892,-0.0024292077869176865
1782987134780240600,3.73224072265625,-0.000740354647859931,-0.0005656757857650518,0.0017716052243486047
1782987134790314800,3.742314697265625,0.0004695194074884057,-0.00223281467333436,0.0014914406929165125
1782987134800390000,3.752389892578125,0.0006975431460887194,0.0015550581738352776,-0.00004685326712206006
1782987134810463700,3.762463623046875,0.0004259006818756461,0.0003521083854138851,-0.0006969309179112315
1782987134820539000,3.772538818359375,0.0010969956638291478,0.0015804762952029705,-0.002287031151354313
1782987134830612700,3.78261279296875,0.0009265533881261945,-0.0015535315033048391,-0.0004590373719111085
1782987134840687900,3.79268798828125,0.001127836643718183,0.0024144472554326057,-0.0010684075532481074
1782987134850761700,3.80276171875,-0.00018829753389582038,-0.004801920149475336,0.0007364167249761522
1782987134860836900,3.8128369140625,0.00027957744896411896,-0.0017128975596278906,-0.0005948256584815681
1782987134870910700,3.82291064453125,0.0017917202785611153,-0.0023214297834783792,-0.0012092168908566236
1782987134880985900,3.83298583984375,0.0011326957028359175,0.0002708581741899252,-0.00017461839888710529
1782987134891060500,3.843060546875,-0.0006050168885849416,-0.0021491562947630882,-0.0017373613081872463
1782987134901134800,3.853134765625,0.00048528017941862345,-0.0011502053821459413,0.0006305337301455438
1782987134911209500,3.86320947265625,-0.000004208763130009174,-0.00044153828639537096,0.0007852634298615158
1782987134921283800,3.873283935546875,0.00013755506370216608,0.0008709158282727003,0.00034954893635585904
1782987134931358500,3.8833583984375,-0.0000723020639270544,-0.0007565418491140008,-0.0024744670372456312
1782987134941432800,3.893432861328125,0.0013665215810760856,-0.0016271835193037987,-0.002773289568722248
1782987134951507500,3.903507568359375,-0.0004942291416227818,-0.0027896533720195293,0.0011226487113162875
1782987134961581800,3.913581787109375,0.000005201902240514755,-0.00014916900545358658,0.0020918806549161673
1782987134971656400,3.923656494140625,-0.00015512038953602314,0.00022314093075692654,-0.0017460008384659886
1782987134981730800,3.933730712890625,0.000967581057921052,0.0009687922429293394,0.0016839562449604273
1782987134991805400,3.943805419921875,-0.0006902368040755391,0.0010806447826325893,0.0012732968898490071
1782987135001880600,3.953880615234375,0.0001505011459812522,-0.0014641047455370426,0.0007827755762264132
1782987135011954400,3.963954345703125,0.0013518532505258918,0.0001540319062769413,0.0015942407771945
1782987135022029600,3.974029541015625,0.0024692127481102943,-0.0004171384498476982,-0.0015537947183474898
1782987135032103400,3.984103515625,-0.00025093992007896304,0.0007930020801723003,0.0001104145630961284
1782987135042178600,3.994178466796875,0.0008064303547143936,-0.0014960805419832468,0.000823235372081399
1782987135052252400,4.00425244140625,-0.000492925988510251,0.0002434961497783661,0.0005760940257459879
1782987135062327600,4.01432763671875,-0.0007051293505355716,-0.0018033699598163366,0.001688400050625205
1782987135072401700,4.024401611328125,0.0014104859437793493,-0.00056393479462713,0.00015282141976058483
1782987135082476500,4.0344765625,0.0017363931983709335,-0.00035951239988207817,-0.0026921075768768787
1782987135092550700,4.044550537109375,0.0001475512981414795,0.0007725972682237625,-0.0007962031522765756
1782987135102625500,4.05462548828125,0.0006694801850244403,0.0021027454640716314,-0.0032499225344508886
1782987135112700700,4.06470068359375,-0.0006368003669194877,0.00031283521093428135,-0.00022324016026686877
1782987135122774500,4.0747744140625,0.0012865018798038363,-0.0013668559258803725,0.001577581511810422
1782987135132849700,4.084849609375,0.00020525837317109108,0.0021234829910099506,-0.001926872064359486
1782987135142923500,4.094923583984375,-0.00007592665497213602,-0.001955863321200013,-0.002618632512167096
1782987135152998700,4.10499853515625,-0.0013968546409159899,-0.00047274900134652853,0.0013489448465406895
1782987135163072500,4.115072509765625,0.00035145366564393044,-0.0014043536502867937,-0.0009549654787406325
1782987135173147600,4.125147705078125,0.00001829222310334444,-0.0005231135291978717,-0.0023901427630335093
1782987135183221500,4.135221435546875,0.0015187159879133105,0.0004223559517413378,-0.0006216608453541994
1782987135193296600,4.145296630859375,-0.0002613408141769469,-0.0009888530476018786,-0.00011592655209824443
1782987135203370500,4.15537060546875,-0.00047675828682258725,0.0001832114066928625,0.0011182426242157817
1782987135213445600,4.165445556640625,-0.00007994729094207287,0.00021809875033795834,0.00014645513147115707
1782987135223519500,4.17551953125,-0.0004844842478632927,-0.0017336327582597733,0.0000698218063917011
1782987135233594600,4.1855947265625,0.0002161933807656169,-0.0009546581422910094,-0.0033459484111517668
1782987135243669800,4.195669677734375,0.00136055878829211,-0.001717394683510065,0.0011870480375364423
1782987135253744400,4.205744384765625,0.001390918972902,-0.001300343661569059,0.0005420304369181395
1782987135263819500,4.215819580078125,0.000840376247651875,0.0012156227603554726,-0.0006463900208473206
1782987135273893400,4.225893310546875,0.0018052394734695554,-0.001080288435332477,0.0004399133613333106
1782987135283968500,4.235968505859375,0.0011652737157419324,-0.001438515610061586,0.0005573835223913193
1782987135294042400,4.24604248046875,0.000051273382268846035,0.00020678527653217316,-0.0009081540047191083
1782987135304117500,4.256117431640625,-0.0005075186491012573,-0.0024175243452191353,0.0022353180684149265
1782987135314191400,4.26619140625,-0.0025855833664536476,-0.0017309612594544888,-0.0006187916733324528
1782987135324266500,4.2762666015625,-0.00035111751640215516,-0.000787413795478642,0.00008996982796816155
1782987135334340400,4.28634033203125,0.0002805842086672783,-0.0014880914241075516,-0.00141258561052382
1782987135344415500,4.29641552734375,0.0013504668604582548,-0.002329491078853607,0.0015921605518087745
1782987135354490400,4.306490478515625,0.0003837393596768379,0.000298516359180212,-0.0023378662299364805
1782987135364564500,4.316564453125,-0.0007988075958564878,-0.0003785807639360428,0.0009368016617372632
1782987135374639600,4.3266396484375,0.0010321155423298478,-0.0007863107603043318,0.001807921682484448
1782987135384713500,4.33671337890625,-0.0016527848783880472,-0.0007862325292080641,-0.0022525819949805737
1782987135394788600,4.34678857421875,-0.0025662491098046303,0.0019823897164314985,-0.0001119330117944628
1782987135404862500,4.356862548828125,-0.00034884316846728325,-0.0009142435155808926,-0.0003909541992470622
1782987135414937600,4.3669375,-0.001472963485866785,-0.000733681139536202,-0.0008133315131999552
1782987135425011500,4.377011474609375,0.00048643851187080145,0.00037306128069758415,0.0011543587315827608
1782987135435086600,4.387086669921875,0.0005913670174777508,-0.0005542514845728874,0.0003618019982241094
1782987135445160400,4.397160400390625,0.00047759758308529854,-0.0021159122698009014,-0.005264960695058107
1782987135455235600,4.407235595703125,-0.002057997975498438,-0.0004405176732689142,-0.003126441966742277
1782987135465309400,4.417309326171875,0.000901044113561511,-0.0005164083559066057,0.001581661170348525
1782987135475384600,4.427384521484375,0.0022888174280524254,0.0006934655830264091,0.0002929575275629759
1782987135485459200,4.437459228515625,-0.00046678207581862807,-0.00018265563994646072,0.0009916566777974367
1782987135495533600,4.447533447265625,-0.0003490703529678285,0.0008546456228941679,0.00019190937746316195
1782987135505608400,4.4576083984375,-0.0007857676828280091,-0.002785890595987439,0.0016092188889160752
1782987135515682600,4.4676826171875,0.0008547395700588822,-0.00021753809414803982,0.0005945544689893723
1782987135525757400,4.47775732421875,-0.001088844845071435,0.00014447281137108803,0.0008635668782517314
1782987135535831600,4.48783154296875,-0.001933865831233561,-0.0009713917970657349,0.000910172238945961
1782987135545906400,4.497906494140625,-0.0013883779756724834,0.0020555835217237473,0.0000966607840382494
1782987135555980500,4.50798046875,-0.0004943548119626939,0.0017447923310101032,0.0012404884910210967
1782987135566055400,4.518055419921875,-0.0000660634832456708,0.0011382203083485365,-0.00038258929271250963
1782987135576129500,4.528129638671875,0.0007533913012593985,-0.0000024116598069667816,0.0027775175403803587
1782987135586204400,4.538204345703125,0.00005841534584760666,-0.0015749337617307901,-0.0011338627664372325
1782987135596279300,4.548279296875,0.00017719226889312267,0.000052524032071232796,-0.00026593852089717984
1782987135606353400,4.558353515625,0.002272358164191246,0.0007261182181537151,0.0009490294032730162
1782987135616428300,4.56842822265625,-0.0008363495580852032,0.0009817816317081451,-0.002204685937613249
1782987135626502400,4.57850244140625,-0.0009455294348299503,0.0012355174403637648,0.00048362876987084746
1782987135636577300,4.588577392578125,0.0009035032708197832,-0.0016785134794190526,0.0005339625058695674
1782987135646651400,4.5986513671875,-0.001322706462815404,0.0007159807719290257,-0.0031534743029624224
1782987135656726300,4.608726318359375,0.0001992901088669896,0.0014092016499489546,0.0015853545628488064
1782987135666800400,4.61880029296875,0.001519232289865613,-0.0010891931597143412,0.0013544681714847684
1782987135676875300,4.628875244140625,0.000969023210927844,-0.0008167517371475697,0.002111338544636965
1782987135686949400,4.638949462890625,-0.0009670763392932713,0.00208971812389791,0.00041258768760599196
1782987135697024300,4.649024169921875,-0.00011113635264337063,0.00040926365181803703,0.00039714135346002877
1782987135707098400,4.659098388671875,0.00028734735678881407,0.0021971415262669325,-0.0014443458057940006
1782987135717173200,4.66917333984375,0.00009586603846400976,0.00036781630478799343,-0.0012810940388590097
1782987135727248400,4.679248291015625,0.0015932293608784676,-0.002246801508590579,-0.00019110229914076626
1782987135737322200,4.689322265625,-0.0004480835050344467,0.00002886960282921791,-0.0007109513389877975
1782987135747397400,4.6993974609375,0.003214731579646468,-0.0014501616824418306,-0.000576253340113908
1782987135757471200,4.70947119140625,0.001141194486990571,-0.0019881201442331076,0.0002820834924932569
1782987135767546400,4.71954638671875,0.0015789105091243982,-0.0005569831700995564,-0.0007733181118965149
1782987135777620200,4.7296201171875,0.0001866098027676344,0.0003668675199151039,0.0007018067990429699
1782987135787695400,4.7396953125,0.00023661227896809578,-0.00016327761113643646,0.0013276945101097226
1782987135797769200,4.749769287109375,-0.0016265350859612226,0.0001738786231726408,0.0012954702833667397
1782987135807844400,4.75984423828125,-0.00008948019240051508,-0.004214013461023569,-0.00015002049622125924
1782987135817918200,4.769918212890625,0.0025963177904486656,-0.00008904328569769859,-0.0006568200187757611
1782987135827993300,4.779993408203125,0.00025651988107711077,-0.000837680883705616,0.0022992154117673635
1782987135838068500,4.790068359375,0.001387830707244575,-0.000700794393196702,0.00044991623144596815
1782987135848142300,4.800142333984375,0.00006886525079607964,-0.0007167158182710409,-0.0015325204003602266
1782987135858217500,4.810217529296875,-0.0011516613885760307,0.00018103583715856075,-0.0006060067098587751
1782987135868291300,4.820291259765625,0.0006349458126351237,0.001030847430229187,-0.0011221226304769516
1782987135878366500,4.830366455078125,0.00014732102863490582,-0.0008133916417136788,-0.002574876882135868
1782987135888440300,4.8404404296875,-0.0010018968023359776,0.0020008778665214777,-0.0007828345987945795
1782987135898515500,4.850515380859375,0.0008186401100829244,-0.0018378023523837328,-0.0007546051638200879
1782987135908589300,4.86058935546875,0.0005849984008818865,0.000872551929205656,-0.0006522152107208967
1782987135918664400,4.87066455078125,0.002258795080706477,-0.00016288505867123604,-0.0015710057923570275
1782987135928738300,4.88073828125,-0.001758198719471693,0.0010902523063123226,-0.0031882361508905888
1782987135938813400,4.8908134765625,-0.000966707244515419,-0.002422723453491926,-0.0003349253674969077
1782987135948887300,4.90088720703125,0.0010029280092567205,-0.0004292321391403675,-0.0022703197319060564
1782987135958962400,4.91096240234375,-0.0015260097570717335,0.002502375515177846,0.0027452113572508097
1782987135969037300,4.921037353515625,0.001688508316874504,0.00009109009988605976,-0.0014557770919054747
1782987135979111400,4.931111328125,-0.00032856978941708803,-0.0011416872730478644,0.0038524356205016375
1782987135989186300,4.941186279296875,-0.0015621292404830456,0.0006625531241297722,0.0003079246380366385
1782987135999260400,4.951260498046875,-0.0007527946145273745,-0.00033480068668723106,-0.00008782109944149852
1782987136009335600,4.96133544921875,0.00017862999811768532,-0.001618528738617897,0.003784597385674715
1782987136019409400,4.971409423828125,0.0014811820583418012,-0.002124529331922531,0.0000862657543621026
1782987136029484500,4.981484619140625,-0.0002011152682825923,0.0029242150485515594,0.0012028150958940387
1782987136039558400,4.991558349609375,-0.0014932811027392745,-0.0005221817409619689,0.001641171402297914
1782987136049633500,5.001633544921875,0.0013725137105211616,0.000838233157992363,0.0008626696653664112
1782987136059707400,5.011707275390625,-0.0011092862114310265,0.0013519569765776396,-0.00015625574451405555
1782987136069782500,5.021782470703125,-0.0004737078561447561,-0.0014459032099694014,-0.00030758368666283786
1782987136079856400,5.0318564453125,0.0013010227121412754,0.001798093318939209,-0.00040958274621516466
1782987136089931500,5.041931640625,0.001087307813577354,0.003649159101769328,-0.0012969269882887602
1782987136100006400,5.05200634765625,0.001182116218842566,-0.00040896586142480373,0.001253049704246223
1782987136110080500,5.06208056640625,-0.0024607935920357704,0.00044254958629608154,-0.00232102582231164
1782987136120155400,5.0721552734375,0.0013235581573098898,-0.0002139195566996932,-0.0010102179367095232
1782987136130229500,5.0822294921875,-0.002158941701054573,0.0007274153176695108,-0.0033726273104548454
1782987136140304400,5.092304443359375,-0.0007400093600153923,-0.002637488767504692,0.0023497070651501417
1782987136150378500,5.10237841796875,-0.000556886603590101,-0.0014102335553616285,0.0015471039805561304
1782987136160453400,5.112453369140625,-0.00001227017492055893,-0.0013881293125450611,-0.0002958035620395094
1782987136170527500,5.122527587890625,0.0011987448669970036,-0.001020975410938263,0.00013249968469608575
1782987136180602400,5.132602294921875,-0.0007078121998347342,0.0005337779875844717,-0.0017008204013109207
1782987136190676500,5.142676513671875,-0.0026158462278544903,0.00010222871787846088,-0.0007089331047609448
1782987136200751400,5.15275146484375,-0.0015567070804536343,0.0007344631012529135,-0.0002740389318205416
1782987136210825500,5.162825439453125,0.0000032634707167744637,0.0014710165560245514,0.00025478735915385187
1782987136220900400,5.172900390625,-0.0009911608649417758,-0.000023815780878067017,0.004330488853156567
1782987136230975500,5.1829755859375,-0.0027769296430051327,0.0006973249837756157,-0.0011400640942156315
1782987136241049300,5.19304931640625,0.0011501676635816693,-0.0008606243645772338,-0.0032697939313948154
1782987136251124500,5.20312451171875,0.0009767819428816438,-0.0003362859133630991,-0.0011155300308018923
1782987136261198000,5.213197998046875,0.0008452216861769557,0.0008054112549871206,-0.0035664369352161884
1782987136271273200,5.223273193359375,0.0025561158545315266,0.0023677072022110224,0.001732553238980472
1782987136281347000,5.23334716796875,-0.0011009370209649205,0.002499267226085067,0.0017751638079062104
1782987136291422200,5.243422119140625,-0.002657408593222499,-0.0015183137729763985,0.0008915625512599945
1782987136301496300,5.253496337890625,-0.001649402198381722,0.001144847134128213,0.0017163435695692897
1782987136311571200,5.2635712890625,-0.001767751993611455,-0.0011122326832264662,0.00423753447830677
1782987136321645300,5.273645263671875,0.0021401704289019108,0.0007570399902760983,-0.00032818899489939213
1782987136331720200,5.28372021484375,-0.0027355211786925793,-0.0008139235433191061,-0.00041820324258878827
1782987136341794300,5.293794189453125,0.00047172384802252054,-0.0010642607230693102,0.003170938929542899
1782987136351869200,5.303869140625,-0.0013393335975706577,0.0012396115344017744,-0.0020603789016604424
1782987136361944300,5.3139443359375,0.000736600486561656,-0.002129287226125598,0.0017063962295651436
1782987136372018200,5.32401806640625,-0.0001992870820686221,-0.0009275546763092279,-0.00008112163050100207
1782987136382093300,5.33409326171875,-0.000024051056243479252,0.0020908722653985023,-0.0002992345253005624
1782987136392167200,5.344167236328125,-0.0027551373932510614,0.001478834543377161,-0.0014834258472546935
1782987136402242300,5.3542421875,0.0016678405227139592,0.0010444729123264551,-0.00020484221749939024
1782987136412316200,5.364316162109375,0.00027804775163531303,0.0025732917711138725,0.0008949162438511848
1782987136422391300,5.374391357421875,0.001012281165458262,0.0025136368349194527,0.0016991908196359873
1782987136432465200,5.384465087890625,-0.000753108412027359,-0.00046496372669935226,0.0005849128356203437
1782987136442540300,5.394540283203125,-0.00003991392441093922,-0.0004593710182234645,0.002477088710293174
1782987136452614100,5.4046142578125,-0.00046273268526419997,-0.0010483514051884413,0.0016608391888439655
1782987136462688300,5.414688232421875,-0.001343706389889121,0.00010559638030827045,0.0011646923376247287
1782987136472763100,5.42476318359375,0.0011773610021919012,-0.001624430762603879,-0.0012132739648222923
1782987136482837200,5.434837158203125,0.0012346189469099045,-0.0013916704338043928,-0.00005985891039017588
1782987136492912000,5.444912109375,0.0014188081258907914,-0.00042545259930193424,0.0027915083337575197
1782987136502986200,5.454986328125,0.0006630029529333115,0.002366339322179556,0.002000815700739622
1782987136513061000,5.46506103515625,-0.00010176212526857853,0.00029586046002805233,0.0007500500651076436
1782987136523136300,5.47513623046875,0.0002753414446488023,-0.0004900383064523339,-0.0014497209340333939
1782987136533210000,5.485210205078125,0.0012257577618584037,-0.00009660166688263416,-0.0023763796780258417
1782987136543285200,5.49528515625,0.0020726430229842663,0.001180117717012763,-0.002320719650015235
1782987136553359000,5.505359130859375,0.0020807962864637375,-0.0023898219224065542,-0.0006193775334395468
1782987136563434200,5.515434326171875,0.0011865068227052689,0.0002903833519667387,-0.001285700360313058
1782987136573508400,5.52550830078125,0.0009671959560364485,-0.00042279274202883244,-0.0012866347096860409
1782987136583583200,5.535583251953125,-0.000217910623177886,-0.00255252281203866,-0.0004607884038705379
1782987136593657300,5.5456572265625,0.0006789416074752808,-0.0013738612178713083,0.0006530431564897299
1782987136603732200,5.555732177734375,-0.0012606385862454772,-0.0008340384811162949,-0.00020822309306822717
1782987136613806300,5.565806396484375,0.0007798774167895317,0.0003376754466444254,-0.00024103550822474062
1782987136623881200,5.575881103515625,0.0009521839674562216,0.0008647150825709105,-0.0011086934246122837
1782987136633955300,5.585955322265625,0.0013008046662434936,-0.0014122726861387491,-0.001399219618178904
1782987136644030200,5.5960302734375,0.001290151965804398,0.0002769704442471266,-0.0012663279194384813
1782987136654105000,5.60610498046875,-0.00037962099304422736,-0.0004477022448554635,0.0036323065869510174
1782987136664179200,5.61617919921875,-0.0008422121172770858,0.001487883273512125,-0.0007256901590153575
1782987136674254000,5.626254150390625,0.0005942907882854342,-0.0018165440997108817,0.0006076650461181998
1782987136684328200,5.636328125,-0.0018148047383874655,0.00029720691964030266,-0.0008221862372010946
1782987136694403000,5.646403076171875,0.000286244903691113,-0.0026230548974126577,-0.0006996990414336324
1782987136704477200,5.656477294921875,-0.00043360755080357194,-0.0005998513661324978,0.0006068476941436529
1782987136714552000,5.666552001953125,-0.0002209451049566269,-0.0010423273779451847,-0.0009008272318169475
1782987136724626200,5.676626220703125,0.001283740857616067,-0.00011980836279690266,0.0013388912193477154
1782987136734701000,5.686701171875,-0.0014493993949145079,0.0018963096663355827,-0.0003236957127228379
1782987136744775200,5.696775146484375,0.00010908243712037802,-0.001377780456095934,-0.00014952495985198766
1782987136754850000,5.70685009765625,-0.0009536178549751639,-0.0024019069969654083,0.0006403244915418327
1782987136764924200,5.716924072265625,-0.0010313821258023381,-0.0010980232618749142,-0.0019306911854073405
1782987136774999000,5.7269990234375,-0.0001511054579168558,-0.0010892655700445175,-0.0004046949907205999
1782987136785074200,5.73707421875,0.001154109719209373,-0.0022288323380053043,-0.0021916760597378016
1782987136795148000,5.74714794921875,-0.00026414403691887856,-0.0008495242800563574,-0.00021131988614797592
1782987136805223200,5.75722314453125,0.0008911353070288897,0.0006042954046279192,0.001028914237394929
1782987136815297000,5.767297119140625,0.00023986725136637688,0.00024725496768951416,0.0023158942349255085
1782987136825372200,5.7773720703125,-0.0005990284844301641,0.00027681607753038406,-0.0010796362766996026
1782987136835447000,5.787447021484375,0.0004996793577447534,0.0004921786021441221,-0.000051229100790806115
1782987136845521200,5.797521240234375,-0.0006670515867881477,-0.00023885921109467745,0.0006856675609014928
1782987136855596000,5.807595947265625,-0.0001760318409651518,-0.0009517032885923982,-0.0002342302177567035
1782987136865670100,5.817670166015625,0.00016698334366083145,0.0020736476872116327,0.0017128068720921874
1782987136875745000,5.8277451171875,-0.0007199354004114866,-0.00011480273678898811,-0.0010632231133058667
1782987136885819100,5.837819091796875,-0.00033138017170131207,0.000043389154598116875,-0.00435755355283618
1782987136895894000,5.84789404296875,-0.001850820961408317,0.0014814939349889755,0.0017648786306381226
1782987136905968000,5.857968017578125,0.0001747793285176158,-0.00023890810552984476,-0.000015178302419371903
1782987136916043000,5.86804296875,0.0011389869032427669,-0.0004498204216361046,0.0004590650205500424
1782987136926117000,5.8781171875,0.0006516285939142108,-0.000882317777723074,-0.0019034250872209668
1782987136936192000,5.88819189453125,-0.0009941020980477333,-0.00042615679558366537,0.0005370269063860178
1782987136946266000,5.89826611328125,-0.0010692032519727945,0.000005008885636925697,0.0017471673199906945
1782987136956341200,5.90834130859375,-0.00007123569957911968,0.0006373350042849779,-0.0006579877226613462
1782987136966416100,5.918416015625,0.0012614100705832243,-0.001560571719892323,-0.0018111364915966988
1782987136976490200,5.928490234375,-0.0018830342451110482,0.001867596060037613,-0.0005891346372663975
1782987136986565000,5.938565185546875,0.0003625431563705206,-0.0021710877772420645,-0.0006767526501789689
1782987136996639200,5.94863916015625,-0.0005183378234505653,0.0014277587179094553,-0.0010811954271048307
1782987137006714000,5.958714111328125,0.00013759871944785118,0.0018067264463752508,0.0004847433010581881
1782987137016788200,5.968788330078125,0.0006675801705569029,-0.0009728838922455907,-0.0027485997416079044
1782987137026863000,5.978863037109375,-0.0011803873348981142,0.0007187561132013798,0.0007148412987589836
1782987137036937200,5.988937255859375,-0.0023691330570727587,0.0013168887235224247,-0.0009149424731731415
1782987137047012000,5.99901220703125,0.002294594654813409,0.0005174076650291681,0.00006856283289380372
1782987137057086200,6.009086181640625,-0.0022185035049915314,0.0005600352305918932,-0.000725864723790437
1782987137067161000,6.0191611328125,-0.0010019715409725904,-0.0005936461966484785,0.001820649835281074
1782987137077235200,6.029235107421875,-0.002343815518543124,-0.0002615000121295452,0.0011561764404177666
1782987137087310000,6.03931005859375,0.0005302679492160678,0.0015289431903511286,-0.0008758153999224305
1782987137097385200,6.04938525390625,-0.0016677576350048184,0.0008571280632168055,-0.001192255411297083
1782987137107459000,6.059458984375,-0.0010320610599592328,0.0008366217371076345,-0.00018771106260828674
1782987137117534200,6.0695341796875,0.000211682403460145,0.0013986998237669468,0.002454722998663783
1782987137127608000,6.079608154296875,0.001272951951250434,0.0011563522275537252,-0.0017544029979035258
1782987137137683200,6.08968310546875,0.0004272996447980404,0.000504292082041502,0.0013405353529378772
1782987137147757000,6.099757080078125,0.0003074574051424861,-0.0009748275624588132,-0.0009950569365173578
1782987137157832200,6.109832275390625,-0.0007095625041984022,-0.000007829396054148674,0.0017162919975817204
1782987137167906000,6.119906005859375,-0.0016126404516398907,0.00024277414195239544,0.0017754142172634602
1782987137177981200,6.129981201171875,0.0001323798205703497,0.00022592651657760143,-0.00266661518253386
1782987137188055000,6.140054931640625,-0.0014561958378180861,0.0010938507039099932,-0.002815219573676586
1782987137198130200,6.150130126953125,-0.00023501436226069927,0.0014647066127508879,0.00002994322858285159
1782987137208204000,6.1602041015625,-0.00017349538393318653,0.0014196992851793766,0.0004507226694840938
1782987137218279200,6.170279052734375,-0.0007089655846357346,-0.000529630808159709,-0.002329921815544367
1782987137228354300,6.180354248046875,0.003210674738511443,0.0009529509115964174,-0.0006438744603656232
1782987137238428200,6.19042822265625,-0.0003588321851566434,0.0010229356121271849,0.001415102742612362
1782987137248503300,6.20050341796875,-0.00105684669688344,-0.00007055839523673058,-0.002490156562998891
1782987137258577700,6.21057763671875,0.0032491199672222137,-0.0009428088087588549,0.00256743305362761
1782987137268652500,6.220652587890625,0.0006834309315308928,-0.00035584811121225357,0.0004723242309410125
1782987137278726700,6.2307265625,0.0007051259744912386,-0.0018978554289788008,0.00029490888118743896
1782987137288801500,6.240801513671875,0.00043641298543661833,-0.00029356719460338354,-0.0016449375543743372
1782987137298875600,6.250875732421875,-0.0001064683310687542,-0.0012419932754710317,0.0014164494350552559
1782987137308950500,6.260950439453125,0.0005547945620492101,-0.0015365388244390488,0.0015069969231262803
1782987137319024600,6.271024658203125,-0.0002990453504025936,-0.0008221744792535901,-0.0012767808511853218
1782987137329099500,6.281099609375,-0.0019925495143979788,-0.00039473711512982845,0.0017488363664597273
1782987137339173600,6.291173583984375,0.00035346660297363997,0.001970853190869093,-0.00025823788018897176
1782987137349248500,6.30124853515625,-0.0002617235295474529,-0.0008385154651477933,0.0016400633612647653
1782987137359323400,6.311323486328125,0.00006108428351581097,-0.0008447922300547361,0.000963161641266197
1782987137369397800,6.321397705078125,0.0003665488911792636,-0.0014384109526872635,0.0003804620064329356
1782987137379472400,6.331472412109375,-0.0008662288310006261,0.0005727591924369335,-0.002606784924864769
1782987137389546800,6.341546630859375,-0.0017035267082974315,-0.0008240689057856798,-0.00017638405552133918
1782987137399621400,6.351621337890625,0.002370186150074005,-0.0002511485945433378,0.0003952023107558489
1782987137409695700,6.36169580078125,-0.0017633059760555625,-0.0011584876338019967,-0.0016644864808768034
1782987137419770400,6.371770263671875,0.0009754092898219824,0.0002726474776864052,-0.000911360140889883
1782987137429844700,6.3818447265625,0.0012960538733750582,-0.0011627963976934552,0.0003983825445175171
1782987137439919400,6.39191943359375,-0.00015193491708487272,0.000681641511619091,-0.003439449705183506
1782987137449993700,6.40199365234375,0.0009996158769354224,-0.00042197247967123985,-0.0003613682056311518
1782987137460068400,6.412068359375,-0.0005949008627794683,-0.0011369286803528666,-0.000819793320260942
1782987137470142700,6.422142822265625,-0.0004889070405624807,0.002146216109395027,-0.0006336383521556854
1782987137480217300,6.43221728515625,0.0001789199886843562,-0.00006809295155107975,-0.0022644202690571547
1782987137490292500,6.44229248046875,0.0001557504292577505,-0.0004720945144072175,0.0032552473712712526
1782987137500366300,6.452366455078125,0.001278456998988986,0.00026463717222213745,0.001135720289312303
1782987137510441500,6.46244140625,0.0021426526363939047,-0.0008509609615430236,0.0009612833382561803
1782987137520515300,6.472515380859375,-0.0009805867448449135,-0.0015739877708256245,-0.0012018715497106314
1782987137530590500,6.482590576171875,0.00010278716217726469,-0.0014695918653160334,0.0005377052002586424
1782987137540664300,6.492664306640625,-0.0002490878105163574,-0.0013213693164288998,0.0005752795841544867
1782987137550739500,6.502739501953125,0.0010004674550145864,0.0005095538217574358,-0.0005714775761589408
1782987137560813300,6.512813232421875,-0.00002796761691570282,-0.00014044553972780704,0.0002550581411924213
1782987137570888400,6.522888427734375,-0.0007182589033618569,0.001040932722389698,0.0012028771452605724
1782987137580962300,6.53296240234375,0.0003481245366856456,-0.00019150367006659508,0.000554343918338418
1782987137591037400,6.543037353515625,-0.001222075312398374,0.0005176961421966553,-0.0013173256302252412
1782987137601111300,6.553111328125,-0.0002958020777441561,-0.0001245671883225441,-0.001567873521707952
1782987137611186400,6.5631865234375,0.0003939566668123007,-0.00030326540581882,-0.000722852477338165
1782987137621260500,6.573260498046875,0.0004556488711386919,-0.0015536622377112508,-0.0009545222274027765
1782987137631335400,6.58333544921875,-0.0017031094757840037,-0.001483354833908379,-0.00020644023607019335
1782987137641410600,6.59341064453125,-0.0010925040114670992,-0.0014992530923336744,-0.0006987383821979165
1782987137651484400,6.603484375,0.000630294787697494,0.0008858738001435995,0.0004224524600431323
1782987137661559600,6.6135595703125,-0.0004242266877554357,0.0005806272383779287,0.0011746031232178211
1782987137671633400,6.62363330078125,-0.0015920228324830532,0.0014512145426124334,-0.0019990860018879175
1782987137681708500,6.63370849609375,-0.001562934834510088,-0.001056110835634172,0.001399979810230434
1782987137691782400,6.643782470703125,-0.0010651900665834546,-0.0005202828906476498,0.0029813647270202637
1782987137701857500,6.653857421875,0.0008895995561033487,0.00014156079851090908,0.00016582998796366155
1782987137711931400,6.663931396484375,0.0011641713790595531,-0.001435829559341073,-0.00041580438846722245
1782987137722006500,6.674006591796875,-0.0010456661693751812,-0.0004146600840613246,0.0006072916439734399
1782987137732080400,6.684080322265625,0.0013610324822366238,-0.0019294661469757557,-0.00013786079944111407
1782987137742155500,6.694155517578125,-0.000034190830774605274,-0.0011241280008107424,0.0012041089357808232
1782987137752229400,6.7042294921875,-0.0006856000400148332,0.0012791084591299295,-0.001373298349790275
1782987137762304500,6.714304443359375,-0.002035160083323717,-0.0015885049942880869,0.00020561694691423327
1782987137772379600,6.724379638671875,-0.0012812191853299737,-0.0010343012399971485,-0.001892155036330223
1782987137782453500,6.73445361328125,-0.0013595251366496086,-0.00021182815544307232,-0.0002741270000115037
1782987137792528600,6.744528564453125,-0.0000250150915235281,-0.0005439243977889419,0.00030351264285854995
1782987137802602500,6.7546025390625,-0.0017446659039705992,-0.001255673123523593,-0.0005021768156439066
1782987137812677600,6.764677734375,-0.0014642351306974888,-0.0010114612523466349,0.003950095735490322
1782987137822751500,6.77475146484375,-0.0018193894065916538,-0.00042591500096023083,-0.0005967393517494202
1782987137832826600,6.78482666015625,-0.0017413587775081396,-0.0001564030535519123,-0.00005025864811614156
1782987137842900500,6.794900390625,0.00023521878756582737,-0.0002183336764574051,-0.0012851249193772674
1782987137852975600,6.8049755859375,-0.001170131261460483,-0.0015941226156428456,-0.00014209617802407593
1782987137863049500,6.815049560546875,0.00010722910519689322,-0.0004961389349773526,-0.0019184430129826069
1782987137873124600,6.82512451171875,0.002162390621379018,0.0008335772436112165,0.0003606900863815099
1782987137883198500,6.835198486328125,-0.0004821658949367702,0.0025455383583903313,0.0008599100401625037
1782987137893273600,6.845273681640625,-0.0005609954823739827,0.00012579048052430153,0.002739036688581109
1782987137903348500,6.855348388671875,-0.000172652886249125,0.0020143568981438875,-0.0009553022682666779
1782987137913422600,6.865422607421875,0.0031573637388646603,0.00041432958096265793,0.00037920777685940266
1782987137923497500,6.87549755859375,-0.0012929746881127357,0.0015705721452832222,0.0005030495813116431
1782987137933571600,6.885571533203125,-0.0019979134667664766,0.0024747150018811226,-0.0011321313213557005
1782987137943646500,6.895646484375,-0.0004485351382754743,-0.0007038445910438895,-0.0014032697072252631
1782987137953720600,6.905720458984375,0.0015256662154570222,-0.0029289156664162874,0.0016694855876266956
1782987137963795500,6.91579541015625,0.0011753508588299155,-0.0007784568006172776,-0.0004538454522844404
1782987137973869600,6.92586962890625,0.002037948928773403,-0.0020959225948899984,0.0024889474734663963
1782987137983944400,6.9359443359375,0.002143033780157566,0.0012468625791370869,-0.0003474295372143388
1782987137994018600,6.9460185546875,0.002168333623558283,-0.0001289264764636755,0.0005050483159720898
1782987138004093400,6.956093505859375,-0.00033975898986682296,-0.0004974876064807177,0.0015858893748372793
1782987138014167600,6.96616748046875,-0.0022452506236732006,0.00013155094347894192,-0.0037761193234473467
1782987138024242700,6.97624267578125,0.0019252565689384937,0.000044284388422966003,0.0007517678895965219
1782987138034316500,6.986316650390625,-0.00004441745113581419,0.0016381863970309496,0.00029636736144311726
1782987138044391700,6.9963916015625,-0.0015450348146259785,-0.00008671381510794163,0.001274819951504469
1782987138054466600,7.006466552734375,-0.0006536747678183019,-0.0012142963241785765,-0.002770521678030491
1782987138064540700,7.016540771484375,-0.00022101274225860834,-0.00010590441524982452,0.0006171426502987742
1782987138074615600,7.026615478515625,-0.0002886570291593671,-0.002142956480383873,0.0019444620702415705
1782987138084689700,7.036689697265625,-0.00009528500959277153,-0.0015902459854260087,0.000969256623648107
1782987138094764500,7.0467646484375,-0.0005869044689461589,0.0001115140039473772,-0.002047838643193245
1782987138104838700,7.056838623046875,-0.0019692955538630486,0.0006077524740248919,-0.0019753756932914257
1782987138114913500,7.06691357421875,0.0008059844840317965,0.00019229925237596035,-0.0013023946667090058
1782987138124987600,7.076987548828125,0.0020809234119951725,0.0013392118271440268,0.0005133063532412052
1782987138135062500,7.0870625,-0.0013329826761037111,0.00029445369727909565,0.000035535224014893174
1782987138145136600,7.09713671875,-0.0005597814451903105,-0.0033358626533299685,-0.0022504592780023813
1782987138155211500,7.10721142578125,-0.00020744523499161005,-0.0007241005077958107,0.00013014029536861926
1782987138165285600,7.11728564453125,-0.0003364194417372346,0.0011371555738151073,0.0005025254795327783
1782987138175360500,7.127360595703125,-0.0006056650308892131,-0.0007720645517110825,0.0009842913132160902
1782987138185434600,7.1374345703125,0.0010555773042142391,0.00029446976259350777,0.0017207731725648046
1782987138195509500,7.147509521484375,-0.00022993062157183886,-0.0015582914929836988,0.0018328923033550382
1782987138205584600,7.157584716796875,-0.0006423656013794243,0.0009379771072417498,0.00035589560866355896
1782987138215658500,7.167658447265625,0.0007235696539282799,-0.00005431682802736759,-0.0012755568604916334
1782987138225733600,7.177733642578125,-0.0015387636376544833,0.0009424954187124968,0.002346826484426856
1782987138235807500,7.187807373046875,-0.0010612588375806808,0.0005376948975026608,0.0013574622571468353
1782987138245882600,7.197882568359375,-0.0012721340171992779,-0.0015212369617074728,0.00006713252514600754
1782987138255956000,7.2079560546875,-0.000980784185230732,0.0015017171390354633,0.00013930418936070055
1782987138266031000,7.218031005859375,0.0014327546814456582,-0.0001175394281744957,-0.002051587915048003
1782987138276105000,7.22810498046875,-0.00005462078843265772,0.000622286694124341,-0.0006891149096190929
1782987138286180000,7.23818017578125,0.0012443846790120006,0.001088303979486227,0.002971006790176034
1782987138296254000,7.24825390625,-0.0014115858357399702,0.0000986733939498663,0.0017054728232324123
1782987138306329000,7.2583291015625,0.00008769345004111528,-0.00019189284648746252,0.002460738644003868
1782987138316403000,7.26840283203125,-0.0014798431657254696,-0.0007484934758394957,-0.0025268294848501682
1782987138326478000,7.27847802734375,-0.00033987825736403465,0.0010904176160693169,0.002451099921017885
1782987138336553200,7.28855322265625,-0.00036943936720490456,-0.0013013673014938831,0.002646309556439519
1782987138346627000,7.298626953125,0.00048082973808050156,-0.0008206688798964024,0.00010002055205404758
1782987138356702200,7.3087021484375,-0.0008025474962778389,0.0017034751363098621,0.0008169435313902795
1782987138366776000,7.318776123046875,0.0007256133249029517,0.0003104931674897671,0.0023731011897325516
1782987138376851200,7.328851318359375,0.0005703511415049434,0.0006950537208467722,-0.0005497180391103029
1782987138386925000,7.338925048828125,-0.0017886669375002384,0.00016287527978420258,0.0009174849838018417
1782987138397000200,7.349000244140625,-0.00034097256138920784,0.000197230139747262,0.0005459740059450269
1782987138407074000,7.359073974609375,-0.0015239618951454759,-0.0030111996456980705,-0.00029367380193434656
1782987138417149200,7.369149169921875,-0.001688545336946845,-0.0024404842406511307,-0.0006779679097235203
1782987138427223000,7.37922314453125,-0.000060699181631207466,-0.0010775397531688213,0.0008346555987372994
1782987138437298200,7.389298095703125,0.0011981772258877754,0.0014031948521733284,-0.0008186347549781203
1782987138447372000,7.3993720703125,-0.001677615800872445,-0.0015601213090121746,-0.0005129781784489751
1782987138457447200,7.409447265625,-0.0002530908677726984,0.00021247868426144123,0.003515585558488965
1782987138467521000,7.41952099609375,0.0029414005111902952,0.0011169384233653545,-0.00029030232690274715
1782987138477596200,7.42959619140625,-0.0007681166753172874,0.0013491660356521606,-0.00025754544185474515
1782987138487671000,7.439671142578125,0.0015531519893556833,0.00031780218705534935,0.0038376005832105875
1782987138497745200,7.4497451171875,-0.001788848894648254,0.00003364286385476589,0.0017981519922614098
1782987138507820000,7.459820068359375,0.00014122866559773684,0.0012741594109684229,-0.00040697248186916113
1782987138517894100,7.46989404296875,0.00011246651411056519,0.0019122525118291378,-0.0005473210476338863
1782987138527969000,7.479968994140625,-0.0005429903976619244,0.000833896454423666,0.0014770599082112312
1782987138538043100,7.490043212890625,-0.0010157015640288591,-0.00010726484470069408,-0.0030439223628491163
1782987138548118000,7.500117919921875,-0.0026757235173135996,0.0014692354016005993,-0.0006147358799353242
1782987138558192000,7.510192138671875,0.000040967133827507496,-0.0011606363113969564,0.0016092698788270354
1782987138568267000,7.52026708984375,-0.003508824622258544,0.0024840738624334335,0.0009216483449563384
1782987138578341000,7.530341064453125,0.0008153498638421297,-0.0010723114246502519,-0.0011628076899796724
1782987138588416000,7.540416015625,-0.00006173539441078901,-0.00011173170059919357,0.0028665654826909304
1782987138598490000,7.550489990234375,-0.0007088835118338466,-0.0012358520179986954,0.0016593544278293848
1782987138608565000,7.56056494140625,0.0023561192210763693,-0.0019835808780044317,-0.000880489416886121
1782987138618640000,7.570639892578125,-0.0017507413867861032,0.0021062358282506466,0.001047639176249504
1782987138628714000,7.5807138671875,-0.0001054694876074791,0.001390206627547741,-0.001907319063320756
1782987138638788900,7.590788818359375,-0.00014861265663057566,-0.000724343117326498,0.0005204185144975781
1782987138648863000,7.600863037109375,-0.0004031666903756559,0.00014453311450779438,0.0022157225757837296
1782987138658937900,7.610937744140625,-0.001355246757157147,0.0008169813081622124,0.0006812092615291476
1782987138669012000,7.621011962890625,0.00003130326513200998,0.0007986135315150023,0.0017750381957739592
1782987138679086800,7.6310869140625,-0.00013035070151090622,-0.00027730350848287344,0.002169984858483076
1782987138689161000,7.641160888671875,0.0009824122535064816,-0.001163130160421133,0.0009904876351356506
1782987138699235800,7.65123583984375,-0.00001520791556686163,0.0002281051129102707,-0.0007115385960787535
1782987138709310000,7.66131005859375,-0.00019816018175333738,0.0007806774228811264,-0.0010451435809955
1782987138719384800,7.671384765625,0.0004183616256341338,-0.00024650373961776495,-0.0007332874229177833
1782987138729459000,7.681458984375,0.0011446478310972452,-0.0003626658581197262,0.0014219454023987055
1782987138739534000,7.6915341796875,-0.0020223832689225674,-0.0009253917960450053,-0.00015011860523372889
1782987138749608000,7.70160791015625,-0.0002732780994847417,-0.0014815942849963903,-0.0003125191433355212
1782987138759683000,7.71168310546875,-0.002336695324629545,-0.0009889095090329647,0.00031145953107625246
1782987138769758000,7.721758056640625,0.0002770362189039588,0.002341897925361991,-0.0030995081178843975
1782987138779832000,7.73183203125,0.00028582464437931776,0.0004979250952601433,-0.00001290449290536344
1782987138789907000,7.741906982421875,0.0010113774333149195,-0.00014597969129681587,-0.0003681234084069729
1782987138799981000,7.75198095703125,-0.002855532569810748,0.0017206298653036356,0.0020103456918150187
1782987138810056000,7.762055908203125,-0.002556841354817152,0.001173325814306736,0.003670904552564025
1782987138820130000,7.772130126953125,0.00040592532604932785,-0.0013958256458863616,-0.0012602044735103846
1782987138830205000,7.782204833984375,0.000229758326895535,-0.002439739415422082,-0.004422841127961874
1782987138840279000,7.792279052734375,0.0002513299696147442,0.000013830838724970818,-0.0030222847126424313
1782987138850354000,7.80235400390625,-0.00004534865729510784,-0.001394485356286168,0.0017251709941774607
1782987138860428000,7.812427978515625,-0.0001758434809744358,0.0007048845291137695,-0.0006809949409216642
1782987138870503000,7.8225029296875,0.00019919162150472403,0.0003571738488972187,-0.00024245085660368204
1782987138880577000,7.832576904296875,-0.001499372418038547,0.002443227916955948,-0.0029072097968310118
1782987138890652000,7.84265185546875,-0.0000075158895924687386,0.0006629158742725849,0.0004345016786828637
1782987138900726000,7.85272607421875,0.0014870502054691315,-0.001377331791445613,0.00016285924357362092
1782987138910801000,7.86280078125,-0.00045169831719249487,-0.0003684216644614935,-0.001678850268945098
1782987138920876000,7.8728759765625,-0.00006367568857967854,-0.0000925182830542326,-0.000769380887504667
1782987138930950000,7.882949951171875,0.0017855217447504401,-0.0005875224014744163,-0.0006256683846004307
1782987138941025000,7.89302490234375,0.000050738570280373096,0.0002756081521511078,0.0020148558542132378
1782987138951099000,7.903098876953125,0.001237224554643035,-0.0005901772528886795,-0.0008090733317658305
1782987138961174000,7.913174072265625,0.00013760535512119532,-0.0012708811555057764,-0.0011747253593057394
1782987138971247900,7.923247802734375,-0.0016858287854120135,0.0006732875481247902,-0.000915593933314085
1782987138981323000,7.933322998046875,-0.0001672942889854312,-0.002689219545572996,0.0011480896500870585
1782987138991397000,7.943397216796875,-0.0010478823678568006,0.0002986788749694824,0.0027993943076580763
1782987139001472000,7.953471923828125,-0.00013974437024444342,-0.0019176037749275565,0.0015887212939560413
1782987139011546000,7.963546142578125,-0.0004896972677670419,0.00038803438656032085,-0.0019522847142070532
1782987139021621000,7.97362109375,0.0009577306918799877,-0.0003336822846904397,0.0011236662976443768
1782987139031695000,7.983695068359375,-0.001999537693336606,-0.0007912496803328395,0.0016822174657136202
1782987139041770000,7.99377001953125,0.0002324575325474143,0.003580329241231084,-0.0020004017278552055
1782987139051844000,8.003843994140626,-0.0007217483362182975,0.00007124431431293488,0.00023882504319772124
1782987139061919000,8.0139189453125,-0.0009012453956529498,0.0022664882708340883,0.0003892936510965228
1782987139071994000,8.023994140625,-0.0006470184889622033,-0.0009453481761738658,-0.0011938315583392978
1782987139082068000,8.03406787109375,0.001298953196965158,-0.0005232371622696519,0.002301833825185895
1782987139092143000,8.04414306640625,0.00016297888942062855,-0.0015216405736282468,-0.000942105078138411
1782987139102217000,8.054217041015624,0.0009265070548281074,0.00024909526109695435,0.0000041160674300044775
1782987139112292000,8.0642919921875,-0.0005386153352446854,0.000008275732398033142,-0.0020653139799833298
1782987139122366000,8.074365966796876,-0.0017908336594700813,0.0011457118671387434,-0.0015704986872151494
1782987139132441000,8.084441162109375,0.0003284750273451209,0.002497705165296793,-0.00013073704030830413
1782987139142515000,8.094514892578125,-0.0016734232194721699,0.0021022260189056396,0.00105330441147089
1782987139152590000,8.104590087890625,0.0021035168319940567,0.0013021817430853844,0.0013074432499706745
1782987139162664000,8.114663818359375,-0.0016488771652802825,-0.0007148964796215296,-0.000714695081114769
1782987139172739000,8.124739013671874,-0.0005227003712207079,0.00042364001274108887,-0.002422126242890954
1782987139182813000,8.13481298828125,0.0003441586159169674,-0.00009008380584418774,0.0001808473898563534
1782987139192888000,8.14488818359375,-0.0017872003372758627,0.0015349674504250288,-0.0032013121526688337
1782987139202963200,8.154963134765625,-0.00020155427046120167,-0.001359356101602316,0.0005662619951181114
1782987139213037000,8.165037109375,0.0003269454464316368,0.001890531275421381,-0.0009277058998122811
1782987139223112200,8.1751123046875,-0.0017324769869446754,-0.001607530633918941,-0.00029840096249245107
1782987139233186000,8.18518603515625,-0.0015113698318600655,0.0008948547765612602,0.001769822440110147
1782987139243261200,8.19526123046875,-0.0014676939463242888,-0.0004961143713444471,-0.0013625876745209098
1782987139253335000,8.2053349609375,-0.0005590138607658446,-0.0016097857151180506,-0.0007740460569038987
1782987139263410400,8.215410400390626,0.0013126558624207973,-0.0009431965881958604,-0.00021877694234717637
1782987139273484500,8.225484619140625,-0.00012774718925356865,0.0003933797124773264,-0.0035044874530285597
1782987139283559400,8.235559326171876,0.0011268678354099393,0.0003539649769663811,0.00015283162065315992
1782987139293633500,8.245633544921875,0.0018995744176208973,-0.0016828295774757862,-0.0007858603494241834
1782987139303708400,8.25570849609375,0.0024364676792174578,0.0015486502088606358,0.0017388163832947612
1782987139313782500,8.265782470703124,-0.0009187062969431281,0.001176362158730626,0.0022869070526212454
1782987139323857400,8.275857421875,0.003601210657507181,-0.0016332727391272783,0.001246942556463182
1782987139333931500,8.285931640625,0.0006597276078537107,0.00008899765089154243,-0.0016271102940663695
1782987139344006400,8.29600634765625,-0.0012886410113424063,0.00032735057175159454,-0.0020233886316418648
1782987139354081300,8.306081298828126,0.0007783793844282627,-0.0009127437369897962,0.0007334857946261764
1782987139364155400,8.3161552734375,0.00026465568225830793,-0.001543113961815834,0.002755890367552638
1782987139374230300,8.326230224609375,-0.0015369984321296215,-0.00008262693881988525,0.0012398960534483194
1782987139384304400,8.336304443359374,-0.0001369747333228588,-0.00026025972329080105,-0.0006975536816753447
1782987139394379300,8.346379150390625,-0.00004350964445620775,-0.0018687446136027575,-0.001343764946796
1782987139404453600,8.35645361328125,-0.0019953404553234577,0.0007478110492229462,0.0019931758288294077
1782987139414528300,8.3665283203125,-0.000416254042647779,0.0020988346077501774,0.001731728669255972
1782987139424602600,8.3766025390625,0.0018756624776870012,-0.0020024331752210855,-0.00026058207731693983
1782987139434677200,8.38667724609375,0.0007495981408283114,-0.0007355925627052784,0.00023730202519800514
1782987139444751600,8.396751708984375,0.0017999488627538085,0.0032743290066719055,-0.0020769848488271236
1782987139454826200,8.406826171875,-0.0009767069714143872,-0.0008382222149521112,0.0010171171743422747
1782987139464900600,8.416900634765625,-0.00010505435056984425,-0.0008137210970744491,0.003112492384389043
1782987139474975200,8.426975341796876,0.00017168396152555943,0.0008156155236065388,-0.001288486528210342
1782987139485049600,8.437049560546875,0.0007906026439741254,0.0002994947135448456,-0.0005318824551068246
1782987139495124200,8.447124267578126,-0.00011299457401037216,0.0008171973749995232,0.0016824731137603521
1782987139505199400,8.457199462890625,-0.002754583954811096,0.0014574213419109583,0.0011892556212842464
1782987139515273200,8.467273193359375,-0.0006683561950922012,-0.00008051260374486446,0.00022415220155380666
1782987139525348400,8.477348388671874,0.0010160930687561631,0.0001309423241764307,0.0007834160351194441
1782987139535422200,8.487422119140625,0.0006858588894829154,-0.001427240902557969,-0.00021815672516822815
1782987139545497300,8.497497314453126,0.0010746803600341082,-0.0021159343887120485,-0.0019526735413819551
1782987139555571200,8.5075712890625,0.0009523433400318027,-0.0004729966167360544,-0.0006292119505815208
1782987139565646300,8.517646240234376,-0.0007424923242069781,0.0009217008482664824,0.00004430146509548649
1782987139575720200,8.52772021484375,-0.0017183260060846806,0.000101535115391016,-0.00004004024958703667
1782987139585795300,8.53779541015625,-0.0001012545544654131,-0.00005958625115454197,0.0010715632233768702
1782987139595869200,8.547869140625,-0.00043311784975230694,-0.0006345149595290422,-0.0011458102380856872
1782987139605944300,8.5579443359375,-0.000006745802238583565,0.0019141300581395626,-0.0012083945330232382
1782987139616018200,8.56801806640625,-0.0016935734311118722,0.002724169287830591,0.001367952791042626
1782987139626093300,8.57809326171875,-0.0004743782919831574,0.0008666145149618387,0.0006686066626571119
1782987139636167200,8.588167236328125,0.0007869258988648653,-0.0005193898687139153,0.00017224097973667085
1782987139646242300,8.5982421875,-0.0010698300320655107,0.001448952592909336,-0.0013087429106235504
1782987139656316200,8.608316162109375,0.0006713352631777525,-0.0010986654087901115,-0.002465273719280958
1782987139666391300,8.618391357421874,0.001451907679438591,0.0005050902254879475,0.0016780722653493285
1782987139676466400,8.628466552734375,-0.0006345706642605364,-0.0009898085845634341,-0.0001169155293609947
1782987139686540300,8.638540283203126,0.0014983550645411015,-0.0005346743855625391,0.0015038843266665936
1782987139696615400,8.648615478515625,-0.0013447062810882926,-0.0017059242818504572,0.002868285635486245
1782987139706689300,8.658689208984375,0.0009056648705154657,0.0004887867253273726,0.0015401672571897507
1782987139716764400,8.668764404296875,-0.000265830778516829,-0.00021889759227633476,-0.0009598780889064074
1782987139726838300,8.67883837890625,0.0002343108644708991,-0.0004940022481605411,-0.0013878480531275272
1782987139736913400,8.688913330078124,-0.0009237347403541207,0.00011242111213505268,-0.0009917315328493714
1782987139746987300,8.6989873046875,0.0001748191425576806,-0.0011914626229554415,-0.002399744698777795
1782987139757062400,8.7090625,0.0016208946472033858,-0.0012986015062779188,0.00026200644788332283
1782987139767136300,8.71913623046875,0.001535140792839229,-0.001548938686028123,-0.0019835708662867546
1782987139777211400,8.72921142578125,0.0021255190949887037,0.0007722920272499323,0.00469207065179944
1782987139787285200,8.73928515625,0.0009550598915666342,0.0005374012980610132,-0.0007056242320686579
1782987139797360400,8.7493603515625,-0.000016159145161509514,-0.001094397739507258,-0.0021380011457949877
1782987139807434200,8.759434326171874,-0.0012023310409858823,-0.0007761499145999551,-0.0004391706897877157
1782987139817509400,8.76950927734375,0.0004389344248920679,0.00010266946628689766,0.0016390695236623287
1782987139827584500,8.77958447265625,0.00048447446897625923,-0.0026608926709741354,0.0002829878940246999
1782987139837658400,8.789658447265625,0.00007088133133947849,0.001251925015822053,0.000338301295414567
1782987139847733500,8.7997333984375,-0.0002992980880662799,0.0013187704607844353,-0.00036131107481196523
1782987139857807400,8.809807373046874,0.0013938479823991656,-0.0016865188954398036,0.0013993256725370884
1782987139867882500,8.819882568359375,0.0007690704660490155,-0.0005442891269922256,-0.000037449775845743716
1782987139877956400,8.829956298828124,-0.000581265427172184,-0.0032029561698436737,0.00176193006336689
1782987139888031500,8.840031494140625,0.00019824178889393806,-0.002031964249908924,-0.0005667379009537399
1782987139898105300,8.850105224609376,0.00012181350030004978,0.0001008159015327692,-0.0030510006472468376
1782987139908180500,8.860180419921875,-0.0028188489377498627,0.0019586372654885054,0.0011565274326130748
1782987139918254300,8.87025439453125,-0.0005630505038425326,-0.0016712076030671597,-0.0004715689574368298
1782987139928329500,8.88032958984375,0.0003578705945983529,-0.001053354237228632,0.00221369625069201
1782987139938403300,8.8904033203125,-0.0010837300214916468,-0.0008797915652394295,0.0004015990998595953
1782987139948478500,8.900478515625,-0.0008488392340950668,0.0009396800305694342,0.0003003989695571363
1782987139958552300,8.91055224609375,-0.0011585308238863945,0.000003973953425884247,0.0009585442021489143
1782987139968627500,8.92062744140625,0.0009565516375005245,-0.0003470305819064379,0.0001289695646846667
1782987139978701300,8.930701416015625,-0.00039291143184527755,0.0002518715336918831,-0.0003934724081773311
1782987139988776400,8.9407763671875,-0.0015953286783769727,-0.00007649627514183521,-0.0014115988742560148
1782987139998851300,8.950851318359375,-0.00138819869607687,-0.0003559718606993556,0.000578954117372632
1782987140008925400,8.960925537109375,-0.002015639329329133,0.00040782266296446323,0.0021214571315795183
1782987140019000300,8.971000244140624,-0.0003130285767838359,0.0011271769180893898,-0.002409634180366993
1782987140029074400,8.981074462890625,-0.0019101263023912907,0.0012390296906232834,-0.0009470261866226792
1782987140039149300,8.9911494140625,0.0013455050066113472,0.001145634101703763,0.0015702111413702369
1782987140049223400,9.001223388671875,-0.0022838509175926447,-0.0005553268129006028,0.0003531464608386159
1782987140059298600,9.011298583984376,-0.0017293563578277826,-0.0006922783795744181,-0.004109415225684643
1782987140069372400,9.021372314453124,-0.00002040585968643427,0.0014489032328128815,0.000026740177418105304
1782987140079447600,9.031447509765625,-0.0014871170278638601,-0.00047008355613797903,-0.000647704815492034
1782987140089521400,9.041521484375,-0.002198181115090847,0.0023491387255489826,-0.003402744885534048
1782987140099596500,9.051596435546875,0.0010151067981496453,-0.0018907474586740136,0.0010097348131239414
1782987140109670400,9.06167041015625,-0.0013633623020723462,-0.00040710042230784893,0.0004070615104865283
1782987140119745500,9.07174560546875,-0.0016447892412543297,-0.0009940769523382187,0.0005020714597776532
1782987140129819400,9.0818193359375,0.0007643061690032482,0.00008903071284294128,0.00015559422899968922
1782987140139894500,9.09189453125,-0.0011590172071009874,-0.0004744271282106638,-0.0018768804147839546
1782987140149969400,9.101969482421875,0.0001728296047076583,-0.000480818678624928,-0.0005724639631807804
1782987140160043500,9.11204345703125,-0.0018382160924375057,-0.0005495628574863076,0.003297125920653343
1782987140170118400,9.122118408203125,-0.0017719033639878035,-0.00036340788938105106,0.001309076207689941
1782987140180192500,9.132192626953126,-0.0003082129405811429,0.000025582266971468925,-0.0003624384989961982
1782987140190267400,9.142267333984375,-0.0008661451865918934,-0.0010066588874906301,-0.0010042603826150298
1782987140200341500,9.152341552734375,-0.0014686502981930971,0.0007650002371519804,-0.0013460108311846852
1782987140210416400,9.16241650390625,0.0010435095755383372,-0.0002957368269562721,0.0010124846594408154
1782987140220490500,9.172490478515625,-0.00033532618544995785,-0.0003022388555109501,0.0016239782562479377
1782987140230565400,9.1825654296875,-0.0007848677923902869,-0.0014455339405685663,-0.00047832101699896157
1782987140240639500,9.192639404296875,-0.0005626819911412895,0.000441637821495533,0.0007143972325138748
1782987140250714400,9.20271435546875,-0.0008756034076213837,0.0006453697569668293,0.0015594182768836617
1782987140260788200,9.212788330078125,-0.0019647327717393637,0.00045695737935602665,-0.0021590692922472954
1782987140270863000,9.222863037109375,0.0023208260536193848,-0.000917233875952661,0.0015520458109676838
1782987140280937200,9.232937255859374,-0.001539842109195888,0.00009065354242920876,-0.0007842378690838814
1782987140291012000,9.24301220703125,-0.0007092021405696869,-0.0001604827120900154,-0.0010849087266251445
1782987140301086200,9.253086181640626,0.0013159437803551555,0.002190178958699107,-0.001244332524947822
1782987140311161000,9.2631611328125,-0.00011204311158508062,0.0013640664983540773,-0.000002500528353266418
1782987140321236200,9.273236328125,-0.0004101409576833248,0.0006369336042553186,-0.001401458983309567
1782987140331310000,9.28331005859375,-0.0009427731856703758,-0.0012810751795768738,0.000179659720743075
1782987140341385200,9.29338525390625,-0.0006906890776008368,0.0010744265746325254,0.0016625792486593127
1782987140351459000,9.303458984375,-0.0002984055317938328,0.0008616400882601738,-0.00034358000266365707
1782987140361534200,9.3135341796875,0.0014550884952768683,0.001195691293105483,0.0011937144445255399
1782987140371608000,9.323608154296876,-0.000247736694291234,0.0003666491247713566,-0.0001913956948556006
1782987140381683200,9.33368310546875,0.0011729190591722727,0.0012586251832544804,0.0003622121876105666
1782987140391757000,9.343757080078126,0.00007037038449198008,0.00016087014228105545,-0.0025089418049901724
1782987140401832200,9.353832275390625,0.00008737528696656227,0.000845855800434947,0.0006439352291636169
1782987140411906000,9.363906005859375,0.0008322615176439285,0.000979013741016388,-0.002178482711315155
1782987140421981200,9.373981201171874,0.0007012882269918919,0.0014251351822167635,-0.0009602191275916994
1782987140432055000,9.384054931640625,0.0009228631388396025,0.0011012947652488947,0.00020171800861135125
1782987140442130200,9.394130126953126,-0.002036773832514882,0.00025062565691769123,0.0019247832242399454
1782987140452204000,9.4042041015625,-0.003549715504050255,0.0007355872076004744,0.00030877714743837714
1782987140462279200,9.414279052734376,-0.0006659958744421601,-0.0009046737104654312,0.0019122959347441792
1782987140472353300,9.424353271484375,-0.00026465754490345716,0.0031404015608131886,-0.0005785586545243859
1782987140482428200,9.43442822265625,-0.0015288015129044652,-0.00002826959826052189,-0.0025213337503373623
1782987140492502300,9.444502197265624,0.0018001499120146036,-0.0011835488257929683,-0.0003133067802991718
1782987140502577200,9.4545771484375,-0.001691361190751195,-0.0000347592867910862,-0.002127746120095253
1782987140512651300,9.4646513671875,0.0008072163909673691,-0.0020164174493402243,-0.002139197662472725
1782987140522726100,9.47472607421875,0.0006534060230478644,0.0007104151882231236,-0.0002851924509741366
1782987140532800300,9.48480029296875,-0.0015982966870069504,0.0019602368120104074,-0.0007158255903050303
1782987140542875100,9.494875244140625,0.00021428160835057497,-0.0022805717308074236,-0.0017412721645087004
1782987140552949200,9.50494921875,0.0013722239527851343,0.00015542167238891125,0.0003210798022337258
1782987140563024100,9.515024169921874,-0.0008133489172905684,0.0005252272821962833,-0.00021514733089134097
1782987140573099300,9.525099365234375,0.001767786918208003,-0.0023635034449398518,-0.0011248831870034337
1782987140583173000,9.535173095703126,0.000046871951781213284,0.0003975376021116972,0.002820594934746623
1782987140593248300,9.545248291015625,-0.0004980108351446688,0.0014747863169759512,-0.002470040926709771
1782987140603322000,9.555322021484375,0.0003751144977286458,-0.00009263469837605953,-0.000782471732236445
1782987140613397200,9.565397216796875,0.0002491469494998455,-0.0018484567990526557,-0.0009952582186087966
1782987140623471000,9.57547119140625,-0.000384290236979723,-0.0016581283416599035,-0.00031878554727882147
1782987140633546200,9.585546142578124,0.00012650410644710064,0.0005536270327866077,0.00021144980564713478
1782987140643620000,9.5956201171875,-0.0003929908270947635,-0.0007383199408650398,-0.0014343364164233208
1782987140653695200,9.6056953125,0.0008578958222642541,-0.00048478704411536455,0.001156919403001666
1782987140663769000,9.61576904296875,-0.0008482679259032011,0.0011308484245091677,-0.000126637052744627
1782987140673844200,9.62584423828125,-0.0007100499351508915,0.0009422965813428164,0.001780718914233148
1782987140683918000,9.63591796875,0.001216233242303133,0.0022487023379653692,-0.0009122851770371199
1782987140693993200,9.6459931640625,-0.0011603718157857656,-0.0003747777082026005,0.000414235342759639
1782987140704067000,9.656067138671874,-0.001468178117647767,0.0023485091514885426,0.00036424497375264764
1782987140714142200,9.66614208984375,-0.0005946613382548094,-0.0012158654863014817,-0.0006291141035035253
1782987140724216300,9.67621630859375,0.0006677692290395498,0.0002008378505706787,0.0011305835796520114
1782987140734291200,9.686291259765625,-0.00039536459371447563,-0.00042580394074320793,-0.0013522814260795712
1782987140744366000,9.696365966796876,0.0020918892696499825,-0.0020200018770992756,0.00009096872236113995
1782987140754440200,9.706440185546874,0.0007174317725002766,-0.0005906831938773394,0.0022206986322999
1782987140764515000,9.71651513671875,-0.0008281714981421828,0.000929549802094698,-0.0024242736399173737
1782987140774589200,9.726589111328124,0.0022200827952474356,0.0009447296615689993,0.002462626900523901
1782987140784664000,9.7366640625,-0.0015051586087793112,0.0001736893318593502,-0.0005653562257066369
1782987140794738200,9.74673828125,-0.0006137986783869565,0.0023433666210621595,0.000480200833408162
1782987140804813000,9.75681298828125,-0.0027807739097625017,0.00040615093894302845,0.0012119680177420378
1782987140814887200,9.76688720703125,-0.00018365925643593073,-0.0015036019030958414,0.0011057078372687101
1782987140824962000,9.776962158203125,-0.001388596254400909,-0.0005299309268593788,0.0013092688750475645
1782987140835037000,9.787036865234375,-0.0011217475403100252,0.0003414552193135023,-0.0015139481984078884
1782987140845111000,9.797111083984374,-0.0005041311378590763,0.0007745807524770498,0.00007370815001195297
1782987140855186200,9.807186279296875,-0.001759012695401907,-0.0006099967285990715,0.002789866179227829
1782987140865261000,9.817260986328124,-0.0013502415968105197,-0.0015594850992783904,0.0006063750479370356
1782987140875335200,9.827335205078125,0.0024825800210237503,-0.0006132639246061444,0.0005315401940606534
1782987140885410000,9.83741015625,-0.0016032332787290215,-0.0008569343481212854,-0.0010330951772630215
1782987140895484200,9.847484130859375,-0.0014301277697086334,0.000912203686311841,-0.000359315425157547
1782987140905559000,9.85755908203125,0.0012029620120301843,-0.0004039391642436385,0.0027004843577742577
1782987140915633200,9.867633056640624,-0.0005754969897679985,-0.002613031305372715,-0.00241491524502635
1782987140925708000,9.8777080078125,-0.00041758432053029537,-0.001585779944434762,-0.00008693785639479756
1782987140935782100,9.8877822265625,-0.00037816952681168914,0.0008805736433714628,0.001968756318092346
1782987140945857000,9.89785693359375,0.00017199432477355003,0.0007489367853850126,0.0017213108949363232
1782987140955931100,9.90793115234375,-0.0020410926081240177,-0.00191848527174443,-0.0018217586912214756
1782987140966006000,9.918006103515625,-0.00012893718667328358,-0.002669926267117262,-0.0026936253998428583
1782987140976080100,9.928080078125,0.0010790727101266384,-0.0003875971306115389,0.0005333268782123923
1782987140986155000,9.938155029296874,-0.00040437706047669053,0.001139522297307849,-0.00275640026666224
1782987140996229000,9.94822900390625,0.001554644200950861,0.0002012907061725855,0.0003376603126525879
1782987141006304000,9.958303955078126,0.001962692942470312,-0.001316608628258109,0.003738782135769725
1782987141016378000,9.968378173828125,0.0002731835702434182,0.001447219867259264,0.0008282132330350578
1782987141026453000,9.978452880859376,0.000016897101886570454,-0.002124145394191146,-0.0019898058380931616
1782987141036528000,9.988528076171875,-0.0007825838401913643,-0.0004141296958550811,0.00003499544254736975
1782987141046602000,9.99860205078125,-0.0021407781168818474,0.000712286215275526,0.001958956243470311
1782987141056677000,10.008677001953124,0.001423596520908177,-0.0005071752239018679,0.0016550894360989332
1782987141066751000,10.0187509765625,0.0011982740834355354,-0.0021589831449091434,0.0017227267380803823
1782987141076826000,10.028826171875,-0.0015567661030218005,0.0020767743699252605,0.0015275169862434268
1782987141086900000,10.03889990234375,0.00015011744108051062,-0.0013500722125172615,0.00047661655116826296
1782987141096975000,10.04897509765625,-0.00029995670774951577,0.0013700805138796568,-0.0013636278454214334
1782987141107049000,10.059049072265625,-0.000052017392590641975,0.0002583772875368595,0.0015735492343083024
1782987141117124000,10.0691240234375,0.0008510604966431856,-0.0019376652780920267,0.002184211974963546
1782987141127198200,10.0791982421875,-0.000642002618405968,0.0007196592632681131,0.0007792813121341169
1782987141137273000,10.089273193359375,0.0004163376288488507,-0.00008594687096774578,0.0007776833954267204
1782987141147347200,10.09934716796875,-0.0008001074311323464,-0.0003302388358861208,-0.000572184391785413
1782987141157422000,10.109422119140625,-0.0006608241237699986,-0.001422401168383658,-0.0006326381699182093
1782987141167496200,10.11949609375,-0.0022391779348254204,-0.0005626805359497666,-0.0017932355403900146
1782987141177571000,10.129571044921875,-0.000309984025079757,-0.0007243345025926828,-0.0011977525427937508
1782987141187645200,10.139645263671875,-0.0002442991826683283,0.00010159425437450409,0.0013686901656910777
1782987141197720000,10.149719970703124,-0.002581489272415638,-0.00032238103449344635,-0.0015514659462496638
1782987141207795200,10.159795166015625,0.0009339195676147938,-0.0004509441787377,-0.0007675536908209324
1782987141217869000,10.169869140625,0.0005791863659396768,-0.0015561560867354274,-0.0010365329217165709
1782987141227944200,10.179944091796875,0.00072907202411443,-0.0007870986592024565,-0.0003108468372374773
1782987141238018000,10.19001806640625,-0.0013428672682493925,0.0004978764336556196,0.002582145156338811
1782987141248093200,10.20009326171875,0.0008020467357710004,0.0005826621782034636,-0.0006128115928731859
1782987141258167600,10.21016748046875,0.0013458641478791833,-0.0005840685917064548,-0.0003006891056429595
1782987141268242700,10.22024267578125,0.0016287616454064846,-0.0012379932450130582,0.0013796944404020905
1782987141278316500,10.230316650390625,0.00015230511780828238,0.0011370137799531221,0.0005684955976903439
1782987141288391700,10.2403916015625,0.001773735973984003,-0.0012388606555759907,0.0002619644219521433
1782987141298465500,10.250465576171875,-0.0008907566079869866,0.0010525230318307877,-0.0012887943303212523
1782987141308540700,10.260540771484376,-0.001321068499237299,0.002544611459597945,-0.0018057895358651876
1782987141318614800,10.27061474609375,-0.00016419135499745607,-0.0014037913642823696,-0.001036935020238161
1782987141328689700,10.280689697265625,-0.0027885199524462223,0.003424253547564149,0.008979479782283306
1782987141338763800,10.290763671875,-0.0007759691216051579,0.011732783168554306,0.013034142553806305
1782987141348838700,10.300838623046875,0.0008725265506654978,0.010959276929497719,0.007241918705403805
1782987141358912800,10.310912841796876,0.0009484265465289354,0.0064524095505476,0.012857992202043533
1782987141368987600,10.320987548828125,0.00012245879042893648,0.009089930914342403,0.0135116558521986
1782987141379062500,10.3310625,-0.00028447218937799335,0.010084088891744614,0.014995303004980087
1782987141389136600,10.34113671875,-0.0005005214479751885,0.007199532352387905,0.014612030237913132
1782987141399211500,10.35121142578125,-0.0016286363825201988,0.0022015776485204697,0.0032507183495908976
1782987141409285600,10.36128564453125,0.004214088898152113,-0.004269779659807682,-0.024009283632040024
1782987141419360500,10.371360595703125,0.003361344803124666,-0.008640293031930923,-0.026001328602433205
1782987141429434600,10.3814345703125,-0.00547809386625886,-0.011492874473333359,-0.009969637729227543
1782987141439509500,10.391509521484375,-0.0008580418070778251,-0.008992698974907398,-0.01341177336871624
1782987141449583600,10.40158349609375,-0.0021569831296801567,-0.009137047454714775,-0.008553503081202507
1782987141459658500,10.411658447265625,-0.0005755980382673442,-0.0001616617664694786,0.0015305557753890753
1782987141469732600,10.421732666015625,0.0010673522483557463,0.00013778195716440678,-0.0027365470305085182
1782987141479807500,10.431807373046874,0.0007704097079113126,-0.006679910235106945,0.0019396975403651595
