time,seconds_elapsed,z,y,x
1782987622706400500,0.065400390625,-0.89666748046875,-0.5504150390625,-0.037139892578125
1782987622716474600,0.075474609375,-0.881866455078125,-0.547271728515625,-0.0124969482421875
1782987622726549500,0.085549560546875,-0.84283447265625,-0.5438690185546875,0.033233642578125
1782987622736624400,0.095624267578125,-0.799774169921875,-0.535614013671875,0.07635498046875
1782987622746698500,0.105698486328125,-0.771453857421875,-0.5289764404296875,0.1004638671875
1782987622756773400,0.1157734375,-0.767669677734375,-0.52313232421875,0.1107025146484375
1782987622766848500,0.1258486328125,-0.7844085693359375,-0.5173187255859375,0.1170196533203125
1782987622776922600,0.135922607421875,-0.8064727783203125,-0.511810302734375,0.110321044921875
1782987622786997500,0.14599755859375,-0.8360748291015625,-0.5105743408203125,0.109039306640625
1782987622797072600,0.15607275390625,-0.8611297607421875,-0.5028839111328125,0.1111602783203125
1782987622807146500,0.166146484375,-0.877471923828125,-0.4937896728515625,0.1288604736328125
1782987622817221600,0.1762216796875,-0.8715972900390625,-0.4957733154296875,0.148681640625
1782987622827296500,0.186296630859375,-0.8528594970703125,-0.51080322265625,0.172882080078125
1782987622837371600,0.19637158203125,-0.8348846435546875,-0.5265960693359375,0.1910247802734375
1782987622847445500,0.206445556640625,-0.82794189453125,-0.5308990478515625,0.187652587890625
1782987622857521000,0.21652099609375,-0.8482666015625,-0.5271148681640625,0.15643310546875
1782987622867596000,0.226595947265625,-0.902008056640625,-0.5132904052734375,0.1128387451171875
1782987622877670000,0.236669921875,-0.9856414794921875,-0.4931488037109375,0.084686279296875
1782987622887745000,0.2467451171875,-1.0635833740234375,-0.459014892578125,0.0763092041015625
1782987622897820000,0.25681982421875,-1.1142578125,-0.4248199462890625,0.0840301513671875
1782987622907894000,0.26689404296875,-1.1401214599609375,-0.4009552001953125,0.0996551513671875
1782987622917969000,0.276968994140625,-1.1299285888671875,-0.3930511474609375,0.120758056640625
1782987622928043800,0.287043701171875,-1.083221435546875,-0.396026611328125,0.147735595703125
1782987622938119000,0.297118896484375,-1.0223388671875,-0.4017333984375,0.17010498046875
1782987622948192800,0.30719287109375,-0.9706573486328125,-0.406097412109375,0.17999267578125
1782987622958268000,0.317267822265625,-0.948974609375,-0.40008544921875,0.1737060546875
1782987622968343000,0.327343017578125,-0.9549713134765625,-0.37188720703125,0.1493377685546875
1782987622978417000,0.3374169921875,-0.9734954833984375,-0.3343963623046875,0.124725341796875
1782987622988492000,0.347491943359375,-0.9803619384765625,-0.3136138916015625,0.1157073974609375
1782987622998567000,0.35756689453125,-0.9587554931640625,-0.3112945556640625,0.1234893798828125
1782987623008641000,0.36764111328125,-0.9019622802734375,-0.328399658203125,0.1419525146484375
1782987623018716000,0.3777158203125,-0.8427581787109375,-0.3470916748046875,0.1725921630859375
1782987623028791000,0.387791015625,-0.7889251708984375,-0.3681640625,0.1960906982421875
1782987623038866000,0.397865966796875,-0.744476318359375,-0.3876953125,0.1999664306640625
1782987623048940000,0.40793994140625,-0.72357177734375,-0.402191162109375,0.201171875
1782987623059015000,0.418014892578125,-0.7383575439453125,-0.4076080322265625,0.1895904541015625
1782987623069089800,0.42808984375,-0.7845458984375,-0.4006805419921875,0.160552978515625
1782987623079164000,0.438163818359375,-0.8521728515625,-0.384063720703125,0.124542236328125
1782987623089238800,0.44823876953125,-0.9151611328125,-0.368499755859375,0.0897979736328125
1782987623099314000,0.45831396484375,-0.9718475341796875,-0.35791015625,0.06201171875
1782987623109388800,0.468388916015625,-1.0304718017578125,-0.3524017333984375,0.0435028076171875
1782987623119463000,0.478462890625,-1.084381103515625,-0.3532867431640625,0.0323028564453125
1782987623129537800,0.488537841796875,-1.1180877685546875,-0.3550872802734375,0.0174102783203125
1782987623139613000,0.498613037109375,-1.1031646728515625,-0.353179931640625,0.0024566650390625
1782987623149686800,0.508686767578125,-1.0563201904296875,-0.362152099609375,0.00518798828125
1782987623159762000,0.518761962890625,-0.9909515380859375,-0.3743438720703125,0.02978515625
1782987623169837000,0.528837158203125,-0.916748046875,-0.3811492919921875,0.052978515625
1782987623179911000,0.538910888671875,-0.84552001953125,-0.3784637451171875,0.0698089599609375
1782987623189986000,0.548986083984375,-0.7900238037109375,-0.3801727294921875,0.08233642578125
1782987623200061000,0.55906103515625,-0.754638671875,-0.3856353759765625,0.0925140380859375
1782987623210136000,0.569135986328125,-0.748321533203125,-0.3844757080078125,0.0946502685546875
1782987623220210000,0.5792099609375,-0.759979248046875,-0.3757476806640625,0.0867767333984375
1782987623230285000,0.58928515625,-0.785247802734375,-0.3626251220703125,0.07513427734375
1782987623240360000,0.59935986328125,-0.81939697265625,-0.3517913818359375,0.0706939697265625
1782987623250434000,0.60943408203125,-0.8637542724609375,-0.34222412109375,0.063079833984375
1782987623260509000,0.619509033203125,-0.8972930908203125,-0.330810546875,0.0552215576171875
1782987623270583800,0.629583740234375,-0.9110565185546875,-0.3277740478515625,0.05743408203125
1782987623280658000,0.639657958984375,-0.910186767578125,-0.3312835693359375,0.070770263671875
1782987623290732800,0.64973291015625,-0.908355712890625,-0.3465728759765625,0.0933074951171875
1782987623300808000,0.659807861328125,-0.885162353515625,-0.3634185791015625,0.115325927734375
1782987623310882800,0.6698828125,-0.84844970703125,-0.36700439453125,0.122833251953125
1782987623320957000,0.67995703125,-0.8353424072265625,-0.37615966796875,0.1081085205078125
1782987623331032000,0.690031982421875,-0.8447418212890625,-0.3943634033203125,0.0767059326171875
1782987623341107000,0.70010693359375,-0.8607177734375,-0.4198455810546875,0.0583953857421875
1782987623351181000,0.71018115234375,-0.866729736328125,-0.43707275390625,0.0437469482421875
1782987623361256000,0.720255859375,-0.8804168701171875,-0.4423065185546875,0.02496337890625
1782987623371331000,0.7303310546875,-0.9076995849609375,-0.4411163330078125,0.0083160400390625
1782987623381406000,0.740406005859375,-0.943603515625,-0.437042236328125,0.0010833740234375
1782987623391480000,0.75047998046875,-0.9749298095703125,-0.4292449951171875,-0.0009613037109375
1782987623401555000,0.760554931640625,-1.0004425048828125,-0.4228363037109375,0.00433349609375
1782987623411629800,0.7706298828125,-1.0049285888671875,-0.4141998291015625,0.0176239013671875
1782987623421704000,0.780703857421875,-0.9871368408203125,-0.403167724609375,0.0454864501953125
1782987623431778800,0.79077880859375,-0.963165283203125,-0.401153564453125,0.088043212890625
1782987623441854000,0.80085400390625,-0.9345703125,-0.4081268310546875,0.124237060546875
1782987623451927800,0.810927734375,-0.9123992919921875,-0.4171905517578125,0.1353759765625
1782987623462003000,0.8210029296875,-0.8860321044921875,-0.4304656982421875,0.12713623046875
1782987623472077800,0.831077880859375,-0.8609161376953125,-0.450714111328125,0.10992431640625
1782987623482153000,0.841153076171875,-0.840728759765625,-0.47412109375,0.0896759033203125
1782987623492226800,0.851226806640625,-0.825958251953125,-0.498809814453125,0.06829833984375
1782987623502302000,0.861302001953125,-0.827178955078125,-0.5197296142578125,0.0460662841796875
1782987623512377000,0.871377197265625,-0.8361968994140625,-0.5339813232421875,0.01934814453125
1782987623522451000,0.881450927734375,-0.848114013671875,-0.5394744873046875,-0.0021514892578125
1782987623532526000,0.891526123046875,-0.86083984375,-0.5369720458984375,-0.020751953125
1782987623542601000,0.90160107421875,-0.876007080078125,-0.5354766845703125,-0.0254364013671875
1782987623552675000,0.911675048828125,-0.8948974609375,-0.5257720947265625,-0.0226593017578125
1782987623562750000,0.92175,-0.9102020263671875,-0.5118408203125,-0.010955810546875
1782987623572824800,0.931824951171875,-0.9183349609375,-0.5009002685546875,0.0041961669921875
1782987623582899700,0.941899658203125,-0.9198455810546875,-0.4936676025390625,0.0152740478515625
1782987623592973800,0.951973876953125,-0.911529541015625,-0.4888916015625,0.026580810546875
1782987623603048700,0.962048583984375,-0.895172119140625,-0.486968994140625,0.0322418212890625
1782987623613123800,0.972123779296875,-0.874542236328125,-0.48895263671875,0.03302001953125
1782987623623198000,0.982197998046875,-0.858123779296875,-0.4872894287109375,0.0341644287109375
1782987623633272800,0.99227294921875,-0.8558197021484375,-0.4775238037109375,0.0384521484375
1782987623643348000,1.002347900390625,-0.8641815185546875,-0.45654296875,0.0531768798828125
1782987623653422800,1.0124228515625,-0.872711181640625,-0.4378204345703125,0.07763671875
1782987623663497000,1.0224970703125,-0.8805389404296875,-0.4244384765625,0.104400634765625
1782987623673571800,1.03257177734375,-0.8951568603515625,-0.4195404052734375,0.1209716796875
1782987623683647000,1.04264697265625,-0.92047119140625,-0.41302490234375,0.128326416015625
1782987623693720800,1.052720947265625,-0.948486328125,-0.4082794189453125,0.12664794921875
1782987623703796000,1.0627958984375,-0.961517333984375,-0.412445068359375,0.1221771240234375
1782987623713871000,1.07287109375,-0.9556732177734375,-0.4205169677734375,0.1178131103515625
1782987623723945000,1.082945068359375,-0.93328857421875,-0.433319091796875,0.116943359375
1782987623734020000,1.09302001953125,-0.905914306640625,-0.4391326904296875,0.109161376953125
1782987623744095000,1.103094970703125,-0.8838043212890625,-0.4459075927734375,0.103363037109375
1782987623754169900,1.113169921875,-0.856597900390625,-0.45953369140625,0.1064605712890625
1782987623764244000,1.123243896484375,-0.8234100341796875,-0.4726104736328125,0.11572265625
1782987623774318800,1.13331884765625,-0.80859375,-0.4748382568359375,0.12152099609375
1782987623784394000,1.14339404296875,-0.82366943359375,-0.4682769775390625,0.1096954345703125
1782987623794467800,1.1534677734375,-0.8698577880859375,-0.4464569091796875,0.0909881591796875
1782987623804543000,1.16354296875,-0.9395294189453125,-0.415863037109375,0.076812744140625
1782987623814617900,1.173617919921875,-1.0027923583984375,-0.3844146728515625,0.0607147216796875
1782987623824693000,1.18369287109375,-1.0398101806640625,-0.362274169921875,0.0531768798828125
1782987623834766800,1.193766845703125,-1.0560455322265625,-0.343658447265625,0.0603179931640625
1782987623844842000,1.203842041015625,-1.05023193359375,-0.3324432373046875,0.0797882080078125
1782987623854916900,1.213916748046875,-1.0274658203125,-0.3378448486328125,0.0933074951171875
1782987623864991000,1.223990966796875,-0.989959716796875,-0.353424072265625,0.101318359375
1782987623875065900,1.23406591796875,-0.9457244873046875,-0.3734893798828125,0.1026153564453125
1782987623885141000,1.24414111328125,-0.9018707275390625,-0.39208984375,0.10247802734375
1782987623895215000,1.254215087890625,-0.8687744140625,-0.4069061279296875,0.0950469970703125
1782987623905290000,1.2642900390625,-0.849578857421875,-0.412567138671875,0.0852508544921875
1782987623915364900,1.27436474609375,-0.84783935546875,-0.419158935546875,0.0727081298828125
1782987623925439700,1.284439697265625,-0.8608856201171875,-0.4249267578125,0.067169189453125
1782987623935513900,1.294513916015625,-0.8788909912109375,-0.4285430908203125,0.06585693359375
1782987623945588700,1.304588623046875,-0.8906402587890625,-0.429718017578125,0.07086181640625
1782987623955664000,1.314663818359375,-0.89190673828125,-0.4300384521484375,0.0745086669921875
1782987623965737700,1.32473779296875,-0.8928070068359375,-0.4307708740234375,0.081817626953125
1782987623975812900,1.334812744140625,-0.89532470703125,-0.4304351806640625,0.0855712890625
1782987623985888000,1.344887939453125,-0.8986968994140625,-0.4234771728515625,0.08245849609375
1782987623995961900,1.3549619140625,-0.906036376953125,-0.41912841796875,0.0863189697265625
1782987624006037000,1.365037109375,-0.9058685302734375,-0.4111328125,0.0978546142578125
1782987624016111900,1.37511181640625,-0.8978118896484375,-0.4041595458984375,0.106719970703125
1782987624026187000,1.38518701171875,-0.8856964111328125,-0.3979339599609375,0.1114044189453125
1782987624036260900,1.3952607421875,-0.871368408203125,-0.3904266357421875,0.1165771484375
1782987624046336000,1.4053359375,-0.8536529541015625,-0.38323974609375,0.12200927734375
1782987624056411100,1.4154111328125,-0.835906982421875,-0.3816986083984375,0.1260833740234375
1782987624066485000,1.425485107421875,-0.823638916015625,-0.3853302001953125,0.125244140625
1782987624076560100,1.43556005859375,-0.8185577392578125,-0.3929595947265625,0.11456298828125
1782987624086634800,1.445634765625,-0.8060302734375,-0.4067230224609375,0.100494384765625
1782987624096710000,1.4557099609375,-0.788238525390625,-0.4221649169921875,0.0902557373046875
1782987624106783700,1.46578369140625,-0.7790374755859375,-0.4362640380859375,0.086212158203125
1782987624116859000,1.47585888671875,-0.7761077880859375,-0.44439697265625,0.088226318359375
1782987624126933800,1.485933837890625,-0.773468017578125,-0.4506072998046875,0.0900726318359375
1782987624137007900,1.4960078125,-0.775848388671875,-0.4564208984375,0.0933685302734375
1782987624147082800,1.506082763671875,-0.780120849609375,-0.4645843505859375,0.0973968505859375
1782987624157158000,1.516157958984375,-0.789642333984375,-0.4697113037109375,0.10400390625
1782987624167232000,1.52623193359375,-0.8092803955078125,-0.47296142578125,0.1101226806640625
1782987624177307000,1.536306884765625,-0.8282470703125,-0.4683837890625,0.1170501708984375
1782987624187382000,1.546382080078125,-0.8492584228515625,-0.4716644287109375,0.1206207275390625
1782987624197457000,1.556456787109375,-0.8677825927734375,-0.4769439697265625,0.12066650390625
1782987624207531000,1.566531005859375,-0.8834991455078125,-0.478546142578125,0.1146087646484375
1782987624217606000,1.57660595703125,-0.8991241455078125,-0.4770965576171875,0.1071014404296875
1782987624227681000,1.586680908203125,-0.907501220703125,-0.4754638671875,0.1100311279296875
1782987624237755000,1.5967548828125,-0.90814208984375,-0.47174072265625,0.116363525390625
1782987624247830000,1.606830078125,-0.91204833984375,-0.468017578125,0.1226806640625
1782987624257905000,1.61690478515625,-0.908843994140625,-0.4663848876953125,0.122100830078125
1782987624267979800,1.626979736328125,-0.9093475341796875,-0.4658355712890625,0.12255859375
1782987624278054000,1.637053955078125,-0.93115234375,-0.4689483642578125,0.1317138671875
1782987624288128800,1.647128662109375,-0.9700927734375,-0.4581298828125,0.1312103271484375
1782987624298204000,1.657203857421875,-1.015045166015625,-0.44647216796875,0.1195831298828125
1782987624308277800,1.66727783203125,-1.059051513671875,-0.4461822509765625,0.103485107421875
1782987624318353000,1.677352783203125,-1.0857696533203125,-0.4537353515625,0.079345703125
1782987624328428000,1.687427978515625,-1.092864990234375,-0.4587554931640625,0.057586669921875
1782987624338502000,1.697501953125,-1.08062744140625,-0.467254638671875,0.0482635498046875
1782987624348577000,1.707576904296875,-1.046356201171875,-0.4879150390625,0.07373046875
1782987624358652000,1.71765185546875,-0.9817962646484375,-0.5099639892578125,0.113372802734375
1782987624368727000,1.72772705078125,-0.90985107421875,-0.5208892822265625,0.134307861328125
1782987624378801000,1.73780078125,-0.8589935302734375,-0.53424072265625,0.1361541748046875
1782987624388876000,1.7478759765625,-0.8342132568359375,-0.5313568115234375,0.1196136474609375
1782987624398951000,1.757950927734375,-0.85040283203125,-0.50128173828125,0.0814208984375
1782987624409025000,1.76802490234375,-0.908111572265625,-0.46160888671875,0.0278778076171875
1782987624419100000,1.778099853515625,-0.9705657958984375,-0.4295501708984375,-0.0131378173828125
1782987624429174800,1.7881748046875,-1.0243377685546875,-0.4038238525390625,-0.0140228271484375
1782987624439250000,1.79825,-1.0576934814453125,-0.389129638671875,0.003997802734375
1782987624449323800,1.80832373046875,-1.05181884765625,-0.384307861328125,0.0350189208984375
1782987624459399000,1.81839892578125,-1.0189208984375,-0.390472412109375,0.078125
1782987624469473800,1.828473876953125,-0.966339111328125,-0.393798828125,0.1172637939453125
1782987624479548000,1.8385478515625,-0.909423828125,-0.4008026123046875,0.140045166015625
1782987624489622800,1.848622802734375,-0.8615570068359375,-0.4134368896484375,0.1517181396484375
1782987624499698000,1.858697998046875,-0.8273162841796875,-0.4188995361328125,0.14990234375
1782987624509771800,1.868771728515625,-0.80474853515625,-0.419097900390625,0.1282196044921875
1782987624519847000,1.878846923828125,-0.7958984375,-0.419189453125,0.099029541015625
1782987624529922000,1.888922119140625,-0.8095550537109375,-0.4156951904296875,0.0605010986328125
1782987624539997000,1.898996826171875,-0.8348541259765625,-0.413970947265625,0.0305023193359375
1782987624550071000,1.909071044921875,-0.87408447265625,-0.4206085205078125,0.0050048828125
1782987624560146000,1.91914599609375,-0.9213104248046875,-0.42987060546875,-0.021453857421875
1782987624570221000,1.929220947265625,-0.9558258056640625,-0.4213409423828125,-0.0368194580078125
1782987624580295000,1.939294921875,-0.95428466796875,-0.401092529296875,-0.02716064453125
1782987624590370000,1.9493701171875,-0.919097900390625,-0.38885498046875,0.0059814453125
1782987624600445000,1.95944482421875,-0.8633575439453125,-0.38385009765625,0.043548583984375
1782987624610519000,1.96951904296875,-0.8023529052734375,-0.391204833984375,0.077667236328125
1782987624620594000,1.979593994140625,-0.7447052001953125,-0.39837646484375,0.0963287353515625
1782987624630668800,1.989668701171875,-0.693267822265625,-0.4152374267578125,0.103240966796875
1782987624640744000,1.999743896484375,-0.6522064208984375,-0.4342193603515625,0.1063995361328125
1782987624650817800,2.00981787109375,-0.62786865234375,-0.4593658447265625,0.0937652587890625
1782987624660893000,2.019892822265625,-0.6204986572265625,-0.476959228515625,0.06964111328125
1782987624670967800,2.0299677734375,-0.6323089599609375,-0.4806976318359375,0.0646209716796875
1782987624681042000,2.0400419921875,-0.6673736572265625,-0.48260498046875,0.060089111328125
1782987624691116800,2.05011669921875,-0.7027130126953125,-0.486328125,0.043731689453125
1782987624701192000,2.06019189453125,-0.720306396484375,-0.4821319580078125,0.0382232666015625
1782987624711267000,2.07026708984375,-0.7132415771484375,-0.48724365234375,0.04901123046875
1782987624721341000,2.0803408203125,-0.69598388671875,-0.495941162109375,0.0727996826171875
1782987624731416000,2.090416015625,-0.6892547607421875,-0.5048065185546875,0.10089111328125
1782987624741491000,2.100490966796875,-0.707733154296875,-0.5128631591796875,0.1284027099609375
1782987624751565000,2.11056494140625,-0.7404327392578125,-0.5112762451171875,0.1416778564453125
1782987624761640000,2.120639892578125,-0.7738189697265625,-0.5067138671875,0.1331329345703125
1782987624771714800,2.13071484375,-0.79913330078125,-0.5044097900390625,0.1197357177734375
1782987624781789000,2.140788818359375,-0.803802490234375,-0.511322021484375,0.1174163818359375
1782987624791863800,2.15086376953125,-0.811248779296875,-0.532501220703125,0.1141204833984375
1782987624801939000,2.16093896484375,-0.8253021240234375,-0.54901123046875,0.111358642578125
1782987624812013800,2.171013916015625,-0.8381500244140625,-0.5544891357421875,0.106231689453125
1782987624822088000,2.181087890625,-0.85833740234375,-0.55206298828125,0.1058197021484375
1782987624832162800,2.191162841796875,-0.87841796875,-0.54150390625,0.120574951171875
1782987624842238000,2.201238037109375,-0.894256591796875,-0.53680419921875,0.1273651123046875
1782987624852311800,2.211311767578125,-0.899810791015625,-0.5355682373046875,0.140045166015625
1782987624862386200,2.22138623046875,-0.9078521728515625,-0.5392303466796875,0.1509857177734375
1782987624872461300,2.23146142578125,-0.9134674072265625,-0.5426177978515625,0.1597442626953125
1782987624882535200,2.24153515625,-0.905670166015625,-0.5443267822265625,0.1717987060546875
1782987624892610300,2.2516103515625,-0.8942718505859375,-0.5423736572265625,0.1866607666015625
1782987624902685200,2.261685302734375,-0.8754425048828125,-0.5428466796875,0.1981658935546875
1782987624912760300,2.27176025390625,-0.8579559326171875,-0.5504913330078125,0.2077789306640625
1782987624922834200,2.281834228515625,-0.83807373046875,-0.56353759765625,0.2068939208984375
1782987624932909300,2.291909423828125,-0.83795166015625,-0.5603485107421875,0.216949462890625
1782987624942984200,2.301984130859375,-0.857818603515625,-0.536834716796875,0.2220916748046875
1782987624953058300,2.312058349609375,-0.87799072265625,-0.5354156494140625,0.2287445068359375
1782987624963133200,2.32213330078125,-0.8933868408203125,-0.5576629638671875,0.244903564453125
1782987624973208000,2.3322080078125,-0.8936920166015625,-0.597503662109375,0.2727203369140625
1782987624983282400,2.342282470703125,-0.89801025390625,-0.6282501220703125,0.3019256591796875
1782987624993357000,2.352357177734375,-0.9211273193359375,-0.6206512451171875,0.30072021484375
1782987625003432200,2.36243212890625,-0.962158203125,-0.5894927978515625,0.2514801025390625
1782987625013507000,2.372507080078125,-1.0304107666015625,-0.565093994140625,0.1844635009765625
1782987625023581200,2.382581298828125,-1.1277313232421875,-0.544647216796875,0.1240997314453125
1782987625033656000,2.392656005859375,-1.1912078857421875,-0.5281982421875,0.09967041015625
1782987625043731200,2.402731201171875,-1.173126220703125,-0.5231170654296875,0.103271484375
1782987625053805000,2.41280517578125,-1.0800323486328125,-0.52459716796875,0.127410888671875
1782987625063880200,2.422880126953125,-0.9573822021484375,-0.522491455078125,0.16058349609375
1782987625073955300,2.432955322265625,-0.8769989013671875,-0.516815185546875,0.1963043212890625
1782987625084030200,2.4430302734375,-0.8626708984375,-0.501617431640625,0.20751953125
1782987625094104300,2.453104248046875,-0.865692138671875,-0.490234375,0.2074737548828125
1782987625104179200,2.46317919921875,-0.8525390625,-0.4814605712890625,0.212493896484375
1782987625114254300,2.47325439453125,-0.83306884765625,-0.483123779296875,0.2289886474609375
1782987625124328200,2.483328125,-0.8213653564453125,-0.4834442138671875,0.23431396484375
1782987625134403300,2.4934033203125,-0.8289642333984375,-0.4596710205078125,0.2206268310546875
1782987625144478200,2.503478271484375,-0.8515625,-0.444122314453125,0.2164306640625
1782987625154552300,2.51355224609375,-0.8724517822265625,-0.4361724853515625,0.2151336669921875
1782987625164627200,2.523627197265625,-0.882354736328125,-0.433258056640625,0.213348388671875
1782987625174702000,2.5337021484375,-0.8815155029296875,-0.4359283447265625,0.2091064453125
1782987625184777200,2.543777099609375,-0.8661041259765625,-0.4457244873046875,0.1985931396484375
1782987625194851000,2.55385107421875,-0.84393310546875,-0.44976806640625,0.17950439453125
1782987625204926200,2.56392626953125,-0.840789794921875,-0.44281005859375,0.155517578125
1782987625215001000,2.5740009765625,-0.8621826171875,-0.4323272705078125,0.128387451171875
1782987625225075200,2.5840751953125,-0.890655517578125,-0.424285888671875,0.109588623046875
1782987625235150000,2.594150146484375,-0.9215240478515625,-0.4196014404296875,0.088958740234375
1782987625245225200,2.60422509765625,-0.9345550537109375,-0.409088134765625,0.06622314453125
1782987625255299000,2.614299072265625,-0.9186248779296875,-0.4089813232421875,0.0522003173828125
1782987625265374200,2.624374267578125,-0.887603759765625,-0.416107177734375,0.056182861328125
1782987625275449300,2.634449462890625,-0.84075927734375,-0.422821044921875,0.0744171142578125
1782987625285524200,2.644524169921875,-0.7804718017578125,-0.427032470703125,0.10321044921875
1782987625295598300,2.654598388671875,-0.7185821533203125,-0.4307708740234375,0.128814697265625
1782987625305673200,2.664673095703125,-0.6704864501953125,-0.4366607666015625,0.152740478515625
1782987625315748000,2.674748046875,-0.6416168212890625,-0.4433746337890625,0.1588134765625
1782987625325822200,2.684822265625,-0.6348419189453125,-0.45147705078125,0.156524658203125
1782987625335897000,2.69489697265625,-0.6400909423828125,-0.4607696533203125,0.1495208740234375
1782987625345972200,2.70497216796875,-0.6641845703125,-0.4700775146484375,0.1361846923828125
1782987625356047000,2.715047119140625,-0.6937408447265625,-0.4808502197265625,0.1292572021484375
1782987625366121200,2.725121337890625,-0.720428466796875,-0.4921875,0.1283416748046875
1782987625376196000,2.735196044921875,-0.7441253662109375,-0.4979400634765625,0.133148193359375
1782987625386271200,2.745271240234375,-0.75482177734375,-0.505279541015625,0.14105224609375
1782987625396345000,2.755344970703125,-0.7482452392578125,-0.513702392578125,0.15130615234375
1782987625406420200,2.765420166015625,-0.7261199951171875,-0.517059326171875,0.16046142578125
1782987625416495400,2.775495361328125,-0.7017059326171875,-0.5120391845703125,0.1713714599609375
1782987625426569200,2.7855693359375,-0.6878509521484375,-0.5094451904296875,0.184814453125
1782987625436644400,2.795644287109375,-0.6969757080078125,-0.5123443603515625,0.195098876953125
1782987625446719200,2.80571923828125,-0.7334442138671875,-0.507415771484375,0.1912994384765625
1782987625456794400,2.81579443359375,-0.7855224609375,-0.495086669921875,0.170928955078125
1782987625466868200,2.8258681640625,-0.8408966064453125,-0.4900665283203125,0.1530914306640625
1782987625476943400,2.835943359375,-0.8935089111328125,-0.491058349609375,0.1404266357421875
1782987625487018000,2.84601806640625,-0.9432830810546875,-0.4923858642578125,0.1301727294921875
1782987625497092400,2.85609228515625,-0.9813385009765625,-0.48626708984375,0.1163482666015625
1782987625507167000,2.8661669921875,-0.997344970703125,-0.4690704345703125,0.1155242919921875
1782987625517242000,2.8762421875,-0.9920196533203125,-0.4605865478515625,0.1248626708984375
1782987625527317200,2.886317138671875,-0.977508544921875,-0.4630584716796875,0.13336181640625
1782987625537391000,2.89639111328125,-0.9654541015625,-0.46380615234375,0.126068115234375
1782987625547466200,2.90646630859375,-0.9525299072265625,-0.4666290283203125,0.1096954345703125
1782987625557541000,2.916541015625,-0.9326324462890625,-0.474578857421875,0.0962677001953125
1782987625567615200,2.926615234375,-0.9044647216796875,-0.48846435546875,0.092132568359375
1782987625577690000,2.936690185546875,-0.8683013916015625,-0.502685546875,0.087188720703125
1782987625587765200,2.94676513671875,-0.839263916015625,-0.5152587890625,0.086822509765625
1782987625597839000,2.956839111328125,-0.821685791015625,-0.52410888671875,0.085906982421875
1782987625607914200,2.966914306640625,-0.8302154541015625,-0.5316314697265625,0.0793304443359375
1782987625617989400,2.9769892578125,-0.8638763427734375,-0.5459136962890625,0.0741424560546875
1782987625628064300,2.987064208984375,-0.888824462890625,-0.5677947998046875,0.0799560546875
1782987625638138400,2.997138427734375,-0.8890380859375,-0.59552001953125,0.0897064208984375
1782987625648213200,3.007213134765625,-0.8801422119140625,-0.6107635498046875,0.0843505859375
1782987625658288000,3.0172880859375,-0.9040069580078125,-0.58978271484375,0.0374603271484375
1782987625668362200,3.0273623046875,-0.9754180908203125,-0.5518951416015625,-0.006561279296875
1782987625678437000,3.03743701171875,-1.0629425048828125,-0.505767822265625,-0.0326385498046875
1782987625688512300,3.04751220703125,-1.1293792724609375,-0.4481048583984375,-0.03997802734375
1782987625698587100,3.057587158203125,-1.15484619140625,-0.4106903076171875,-0.0143280029296875
1782987625708661200,3.0676611328125,-1.135711669921875,-0.3961181640625,0.033355712890625
1782987625718736100,3.077736083984375,-1.07037353515625,-0.3943634033203125,0.07867431640625
1782987625728811300,3.087811279296875,-0.9967193603515625,-0.403076171875,0.1103668212890625
1782987625738885000,3.097885009765625,-0.93304443359375,-0.4178009033203125,0.117950439453125
1782987625748960300,3.107960205078125,-0.8828125,-0.434967041015625,0.1029510498046875
1782987625759035100,3.11803515625,-0.84332275390625,-0.44537353515625,0.0657196044921875
1782987625769109200,3.128109130859375,-0.8105010986328125,-0.451141357421875,0.020721435546875
1782987625779184000,3.13818408203125,-0.787078857421875,-0.4551544189453125,-0.0181121826171875
1782987625789259300,3.14825927734375,-0.78961181640625,-0.451690673828125,-0.0537261962890625
1782987625799334400,3.15833447265625,-0.837554931640625,-0.4384918212890625,-0.0940093994140625
1782987625809408300,3.168408203125,-0.9039459228515625,-0.4208984375,-0.122589111328125
1782987625819483400,3.1784833984375,-0.95013427734375,-0.4132232666015625,-0.129913330078125
1782987625829558000,3.18855810546875,-0.9758148193359375,-0.4123992919921875,-0.1192474365234375
1782987625839632400,3.19863232421875,-0.972686767578125,-0.409698486328125,-0.0940093994140625
1782987625849707000,3.20870703125,-0.945770263671875,-0.4018402099609375,-0.06085205078125
1782987625859782700,3.21878271484375,-0.905975341796875,-0.39300537109375,-0.0239410400390625
1782987625869856800,3.228856689453125,-0.859161376953125,-0.389190673828125,0.0093841552734375
1782987625879931600,3.238931640625,-0.8108062744140625,-0.3890228271484375,0.0365447998046875
1782987625890006800,3.2490068359375,-0.7686767578125,-0.394744873046875,0.0585174560546875
1782987625900082000,3.25908203125,-0.7325286865234375,-0.40087890625,0.075347900390625
1782987625910155800,3.26915576171875,-0.7071685791015625,-0.406829833984375,0.08941650390625
1782987625920231000,3.27923095703125,-0.6938018798828125,-0.41510009765625,0.095458984375
1782987625930305800,3.289305908203125,-0.696807861328125,-0.42303466796875,0.0977020263671875
1782987625940380000,3.2993798828125,-0.7122344970703125,-0.4304656982421875,0.085113525390625
1782987625950454800,3.309454833984375,-0.739044189453125,-0.44244384765625,0.0694427490234375
1782987625960530000,3.319530029296875,-0.7802734375,-0.4498291015625,0.04827880859375
1782987625970604800,3.329604736328125,-0.817626953125,-0.4515533447265625,0.0319976806640625
1782987625980679000,3.339678955078125,-0.847442626953125,-0.45294189453125,0.0247802734375
1782987625990753800,3.34975390625,-0.87530517578125,-0.45343017578125,0.02081298828125
1782987626000828700,3.35982861328125,-0.895050048828125,-0.4544677734375,0.0164947509765625
1782987626010902800,3.36990283203125,-0.90216064453125,-0.4573211669921875,0.010650634765625
1782987626020977700,3.379977783203125,-0.89862060546875,-0.459747314453125,0.0115203857421875
1782987626031052800,3.390052734375,-0.8946533203125,-0.4619903564453125,0.021514892578125
1782987626041126700,3.400126708984375,-0.89801025390625,-0.4670257568359375,0.0295867919921875
1782987626051201800,3.410201904296875,-0.9019927978515625,-0.469879150390625,0.0323486328125
1782987626061277000,3.42027685546875,-0.9058685302734375,-0.4703826904296875,0.0281219482421875
1782987626071351800,3.430351806640625,-0.903839111328125,-0.4732818603515625,0.0281524658203125
1782987626081426000,3.440426025390625,-0.89825439453125,-0.479034423828125,0.0294952392578125
1782987626091500800,3.450500732421875,-0.8942718505859375,-0.4857025146484375,0.0344085693359375
1782987626101576000,3.460575927734375,-0.89422607421875,-0.49066162109375,0.0361328125
1782987626111649800,3.47064990234375,-0.89324951171875,-0.491241455078125,0.0371551513671875
1782987626121725000,3.480724853515625,-0.8877410888671875,-0.4980621337890625,0.042327880859375
1782987626131799800,3.4907998046875,-0.8794708251953125,-0.5076446533203125,0.0491943359375
1782987626141874000,3.5008740234375,-0.8683929443359375,-0.5145416259765625,0.0562591552734375
1782987626151948800,3.51094873046875,-0.85931396484375,-0.5221710205078125,0.0579986572265625
1782987626162023700,3.521023681640625,-0.8572235107421875,-0.5317840576171875,0.05908203125
1782987626172098800,3.531098876953125,-0.86688232421875,-0.535125732421875,0.0651397705078125
1782987626182172700,3.541172607421875,-0.88836669921875,-0.5322265625,0.0687103271484375
1782987626192247800,3.551247802734375,-0.90997314453125,-0.5240325927734375,0.068756103515625
1782987626202322700,3.56132275390625,-0.92181396484375,-0.5210113525390625,0.0691680908203125
1782987626212396800,3.571396728515625,-0.9181976318359375,-0.5365753173828125,0.092681884765625
1782987626222471700,3.5814716796875,-0.8811798095703125,-0.568023681640625,0.1319580078125
1782987626232546800,3.591546875,-0.8302154541015625,-0.580291748046875,0.157470703125
1782987626242622000,3.6016220703125,-0.800994873046875,-0.570343017578125,0.12957763671875
1782987626252695800,3.61169580078125,-0.8246002197265625,-0.5548248291015625,0.068145751953125
1782987626262771000,3.62177099609375,-0.906097412109375,-0.536163330078125,0.017730712890625
1782987626272845800,3.631845703125,-1.0112457275390625,-0.519134521484375,0.00604248046875
1782987626282920000,3.641919921875,-1.096771240234375,-0.5002288818359375,0.0140838623046875
1782987626292994800,3.651994873046875,-1.143951416015625,-0.471893310546875,0.0345611572265625
1782987626303070000,3.662070068359375,-1.1457977294921875,-0.4424591064453125,0.066802978515625
1782987626313143800,3.672143798828125,-1.113128662109375,-0.4239654541015625,0.1035003662109375
1782987626323219000,3.682218994140625,-1.064300537109375,-0.4193115234375,0.136138916015625
1782987626333293600,3.69229345703125,-1.021575927734375,-0.4196014404296875,0.1572418212890625
1782987626343368700,3.70236865234375,-0.98626708984375,-0.4133453369140625,0.154998779296875
1782987626353442800,3.71244287109375,-0.944091796875,-0.4016876220703125,0.1458282470703125
1782987626363517700,3.722517578125,-0.8967437744140625,-0.3939208984375,0.143524169921875
1782987626373592800,3.7325927734375,-0.848236083984375,-0.3970184326171875,0.1570892333984375
1782987626383666700,3.742666748046875,-0.813446044921875,-0.403594970703125,0.168975830078125
1782987626393741800,3.752741943359375,-0.79010009765625,-0.40240478515625,0.173553466796875
1782987626403816700,3.762816650390625,-0.7860870361328125,-0.404205322265625,0.171478271484375
1782987626413891800,3.772891845703125,-0.8071746826171875,-0.4046478271484375,0.1689910888671875
1782987626423965700,3.782965576171875,-0.8294525146484375,-0.4027557373046875,0.1635894775390625
1782987626434040800,3.793040771484375,-0.8530120849609375,-0.399810791015625,0.161041259765625
1782987626444116000,3.803115966796875,-0.8770599365234375,-0.3989410400390625,0.1582183837890625
1782987626454189800,3.81318994140625,-0.898590087890625,-0.3972625732421875,0.155517578125
1782987626464265000,3.823264892578125,-0.9203033447265625,-0.389739990234375,0.140838623046875
1782987626474339800,3.83333984375,-0.9352569580078125,-0.3793487548828125,0.118927001953125
1782987626484414000,3.8434140625,-0.9460601806640625,-0.375213623046875,0.1002197265625
1782987626494488800,3.85348876953125,-0.9553985595703125,-0.3774261474609375,0.0853118896484375
1782987626504563700,3.863563720703125,-0.951934814453125,-0.3741455078125,0.0745391845703125
1782987626514638800,3.873638916015625,-0.9390411376953125,-0.3751678466796875,0.0697021484375
1782987626524712700,3.883712646484375,-0.9168548583984375,-0.381744384765625,0.0759124755859375
1782987626534787800,3.893787841796875,-0.88427734375,-0.387298583984375,0.084381103515625
1782987626544862700,3.90386279296875,-0.8503875732421875,-0.3887939453125,0.0882415771484375
1782987626554936800,3.913936767578125,-0.809295654296875,-0.392608642578125,0.0886383056640625
1782987626565011700,3.92401171875,-0.767913818359375,-0.4024658203125,0.0878448486328125
1782987626575086800,3.9340869140625,-0.7307281494140625,-0.4156494140625,0.08203125
1782987626585161700,3.94416162109375,-0.7065582275390625,-0.4263763427734375,0.0800323486328125
1782987626595235800,3.95423583984375,-0.693817138671875,-0.4305419921875,0.0843505859375
1782987626605310700,3.964310791015625,-0.6927337646484375,-0.4323577880859375,0.09210205078125
1782987626615385900,3.9743857421875,-0.705810546875,-0.43115234375,0.10162353515625
1782987626625460000,3.9844599609375,-0.727569580078125,-0.431488037109375,0.1114044189453125
1782987626635534800,3.994534912109375,-0.74822998046875,-0.4347991943359375,0.1139678955078125
1782987626645609700,4.004609619140625,-0.7699127197265625,-0.441497802734375,0.116302490234375
1782987626655683800,4.014683837890625,-0.7863922119140625,-0.44915771484375,0.1153411865234375
1782987626665759000,4.024759033203125,-0.8094635009765625,-0.456878662109375,0.11016845703125
1782987626675833600,4.03483349609375,-0.8343048095703125,-0.459136962890625,0.1112060546875
1782987626685908700,4.04490869140625,-0.8462066650390625,-0.4604034423828125,0.1118621826171875
1782987626695982600,4.054982666015625,-0.8513336181640625,-0.463714599609375,0.10589599609375
1782987626706057700,4.0650576171875,-0.8555908203125,-0.468048095703125,0.1007843017578125
1782987626716132900,4.0751328125,-0.8561248779296875,-0.472412109375,0.0919952392578125
1782987626726206700,4.085206787109375,-0.863067626953125,-0.4752349853515625,0.089874267578125
1782987626736281900,4.09528173828125,-0.8692779541015625,-0.47705078125,0.089019775390625
1782987626746356700,4.105356689453125,-0.882781982421875,-0.4757843017578125,0.0904541015625
1782987626756430800,4.115430908203125,-0.897979736328125,-0.4718780517578125,0.090667724609375
1782987626766505700,4.125505615234375,-0.9082794189453125,-0.4714813232421875,0.0969085693359375
1782987626776580900,4.135580810546875,-0.911895751953125,-0.47735595703125,0.10894775390625
1782987626786656000,4.145656005859375,-0.91925048828125,-0.4803009033203125,0.1134185791015625
1782987626796729900,4.155729736328125,-0.9246978759765625,-0.4816131591796875,0.1119537353515625
1782987626806805000,4.165804931640625,-0.9229583740234375,-0.483673095703125,0.1087188720703125
1782987626816879900,4.1758798828125,-0.9217376708984375,-0.489532470703125,0.105194091796875
1782987626826954000,4.1859541015625,-0.92138671875,-0.495758056640625,0.0962982177734375
1782987626837028900,4.19602880859375,-0.9212799072265625,-0.503204345703125,0.08648681640625
1782987626847103700,4.206103759765625,-0.922210693359375,-0.5110321044921875,0.079620361328125
1782987626857178600,4.2161787109375,-0.92578125,-0.513641357421875,0.075286865234375
1782987626867253000,4.2262529296875,-0.9275054931640625,-0.5140228271484375,0.0741119384765625
1782987626877328100,4.236328125,-0.927093505859375,-0.51019287109375,0.078094482421875
1782987626887403300,4.2464033203125,-0.928680419921875,-0.508453369140625,0.0886383056640625
1782987626897477000,4.25647705078125,-0.934906005859375,-0.5129852294921875,0.096038818359375
1782987626907552300,4.26655224609375,-0.92987060546875,-0.53289794921875,0.111724853515625
1782987626917627100,4.276627197265625,-0.8997039794921875,-0.554718017578125,0.1339874267578125
1782987626927701200,4.286701171875,-0.8664398193359375,-0.5543212890625,0.13348388671875
1782987626937776000,4.296776123046875,-0.8529510498046875,-0.5493011474609375,0.107666015625
1782987626947851300,4.306851318359375,-0.8775634765625,-0.5416412353515625,0.0732879638671875
1782987626957926400,4.316926513671875,-0.9384307861328125,-0.528839111328125,0.0461578369140625
1782987626968000300,4.327000244140625,-1.003936767578125,-0.5086822509765625,0.0314788818359375
1782987626978075400,4.337075439453125,-1.053375244140625,-0.477294921875,0.0396728515625
1782987626988150000,4.34714990234375,-1.083251953125,-0.44659423828125,0.060302734375
1782987626998224400,4.357224365234375,-1.0922698974609375,-0.422027587890625,0.089447021484375
1782987627008299000,4.367299072265625,-1.07647705078125,-0.4055938720703125,0.1182861328125
1782987627018374100,4.3773740234375,-1.039306640625,-0.3957366943359375,0.1404266357421875
1782987627028449000,4.387448974609375,-0.984130859375,-0.392791748046875,0.15216064453125
1782987627038523100,4.397523193359375,-0.917022705078125,-0.4039459228515625,0.161346435546875
1782987627048598000,4.407597900390625,-0.85784912109375,-0.422760009765625,0.1670989990234375
1782987627058673200,4.417673095703125,-0.8062896728515625,-0.4406890869140625,0.1710357666015625
1782987627068747300,4.427747314453125,-0.77276611328125,-0.452392578125,0.16290283203125
1782987627078822100,4.437822265625,-0.7614288330078125,-0.4611968994140625,0.1436004638671875
1782987627088897300,4.447897216796875,-0.7776031494140625,-0.4664764404296875,0.116668701171875
1782987627098971100,4.45797119140625,-0.8227996826171875,-0.4652252197265625,0.08111572265625
1782987627109046300,4.46804638671875,-0.8910369873046875,-0.453338623046875,0.0455169677734375
1782987627119121200,4.47812109375,-0.95159912109375,-0.439544677734375,0.022857666015625
1782987627129196300,4.4881962890625,-0.9939422607421875,-0.4281768798828125,0.0158538818359375
1782987627139270100,4.498270263671875,-1.0070953369140625,-0.4170379638671875,0.02862548828125
1782987627149345300,4.50834521484375,-0.9850921630859375,-0.4079132080078125,0.0537872314453125
1782987627159420200,4.518420166015625,-0.938934326171875,-0.404388427734375,0.088165283203125
1782987627169494300,4.528494384765625,-0.8708953857421875,-0.40576171875,0.120025634765625
1782987627179569200,4.538569091796875,-0.8004913330078125,-0.4181976318359375,0.1446075439453125
1782987627189644000,4.54864404296875,-0.74072265625,-0.430511474609375,0.165740966796875
1782987627199718100,4.55871826171875,-0.691558837890625,-0.441680908203125,0.178314208984375
1782987627209793000,4.56879296875,-0.65997314453125,-0.451019287109375,0.1815185546875
1782987627219868200,4.5788681640625,-0.64013671875,-0.45654296875,0.182098388671875
1782987627229943300,4.588943359375,-0.640289306640625,-0.4675750732421875,0.1855316162109375
1782987627240017200,4.59901708984375,-0.6491851806640625,-0.475738525390625,0.1857757568359375
1782987627250092300,4.60909228515625,-0.6696319580078125,-0.486358642578125,0.1822662353515625
1782987627260167200,4.619167236328125,-0.7038116455078125,-0.493621826171875,0.176055908203125
1782987627270241300,4.6292412109375,-0.7413330078125,-0.497283935546875,0.16766357421875
1782987627280316200,4.639316162109375,-0.7790069580078125,-0.4945526123046875,0.15863037109375
1782987627290391300,4.649391357421875,-0.8131256103515625,-0.4923858642578125,0.148223876953125
1782987627300466200,4.659466064453125,-0.8443756103515625,-0.490570068359375,0.14166259765625
1782987627310540300,4.669540283203125,-0.8721466064453125,-0.4849700927734375,0.1354522705078125
1782987627320615200,4.679615234375,-0.8948211669921875,-0.477142333984375,0.1333160400390625
1782987627330690000,4.68968994140625,-0.9075469970703125,-0.469085693359375,0.1355743408203125
1782987627340764200,4.69976416015625,-0.9101715087890625,-0.459014892578125,0.145660400390625
1782987627350839000,4.709839111328125,-0.9016571044921875,-0.4515380859375,0.1618804931640625
1782987627360914200,4.7199140625,-0.8845367431640625,-0.442535400390625,0.18084716796875
1782987627370988000,4.729988037109375,-0.8639373779296875,-0.434906005859375,0.1987457275390625
1782987627381063200,4.740063232421875,-0.852294921875,-0.4276580810546875,0.210540771484375
1782987627391138000,4.750137939453125,-0.8452606201171875,-0.4171905517578125,0.21258544921875
1782987627401213200,4.760213134765625,-0.8480072021484375,-0.4069061279296875,0.2094268798828125
1782987627411287000,4.770287109375,-0.85888671875,-0.4023590087890625,0.208282470703125
1782987627421362200,4.780362060546875,-0.8670654296875,-0.406005859375,0.204071044921875
1782987627431437300,4.790437255859375,-0.858306884765625,-0.4112548828125,0.1963653564453125
1782987627441511200,4.80051123046875,-0.842437744140625,-0.4212493896484375,0.1849822998046875
1782987627451586300,4.81058642578125,-0.81939697265625,-0.4283905029296875,0.170379638671875
1782987627461661200,4.8206611328125,-0.7970123291015625,-0.4332122802734375,0.159088134765625
1782987627471735300,4.8307353515625,-0.7758331298828125,-0.4446868896484375,0.1548004150390625
1782987627481810200,4.84081005859375,-0.7588348388671875,-0.458526611328125,0.16302490234375
1782987627491885300,4.85088525390625,-0.745208740234375,-0.485076904296875,0.184295654296875
1782987627501960200,4.860960205078125,-0.728302001953125,-0.526947021484375,0.218597412109375
1782987627512034300,4.871034423828125,-0.7030181884765625,-0.550872802734375,0.2366943359375
1782987627522109200,4.881109130859375,-0.705352783203125,-0.5347137451171875,0.2175445556640625
1782987627532184000,4.89118408203125,-0.78033447265625,-0.5091094970703125,0.186737060546875
1782987627542258200,4.901258056640625,-0.9199066162109375,-0.48248291015625,0.13946533203125
1782987627552333000,4.9113330078125,-1.082183837890625,-0.4533538818359375,0.088104248046875
1782987627562408200,4.921408203125,-1.2253570556640625,-0.4240264892578125,0.0551910400390625
1782987627572483000,4.931483154296875,-1.2894134521484375,-0.4101409912109375,0.0639495849609375
1782987627582557200,4.94155712890625,-1.2657470703125,-0.4028778076171875,0.1026458740234375
1782987627592632000,4.951632080078125,-1.1815338134765625,-0.399200439453125,0.1639862060546875
1782987627602707200,4.961707275390625,-1.07684326171875,-0.399444580078125,0.230499267578125
1782987627612781300,4.97178125,-0.978240966796875,-0.4064483642578125,0.281158447265625
1782987627622856200,4.981856201171875,-0.9046783447265625,-0.4187469482421875,0.3044891357421875
1782987627632931300,4.991931396484375,-0.8634796142578125,-0.421417236328125,0.301483154296875
1782987627643005200,5.002005126953125,-0.8535614013671875,-0.417816162109375,0.269256591796875
1782987627653080300,5.012080322265625,-0.8689117431640625,-0.4181060791015625,0.23162841796875
1782987627663155200,5.0221552734375,-0.903228759765625,-0.42132568359375,0.196746826171875
1782987627673230000,5.03222998046875,-0.945037841796875,-0.4256591796875,0.169769287109375
1782987627683304200,5.04230419921875,-0.98394775390625,-0.42144775390625,0.15081787109375
1782987627693379000,5.052379150390625,-1.0119476318359375,-0.4099884033203125,0.140655517578125
1782987627703454200,5.0624541015625,-1.027618408203125,-0.3988037109375,0.144866943359375
1782987627713528000,5.072528076171875,-1.0295867919921875,-0.3920440673828125,0.15283203125
1782987627723603200,5.082603271484375,-1.008056640625,-0.3831024169921875,0.1634979248046875
1782987627733678000,5.092677978515625,-0.9625701904296875,-0.37884521484375,0.171356201171875
1782987627743752200,5.102752197265625,-0.9033966064453125,-0.3796844482421875,0.1820220947265625
1782987627753827000,5.1128271484375,-0.8406219482421875,-0.3828125,0.19793701171875
1782987627763902200,5.122902099609375,-0.791290283203125,-0.389190673828125,0.21124267578125
1782987627773977300,5.132977294921875,-0.7530517578125,-0.3935546875,0.2232818603515625
1782987627784051200,5.14305126953125,-0.7296600341796875,-0.398040771484375,0.2313232421875
1782987627794126300,5.153126220703125,-0.7238922119140625,-0.400970458984375,0.24542236328125
1782987627804201200,5.163201171875,-0.7274169921875,-0.3996734619140625,0.26190185546875
1782987627814275300,5.173275390625,-0.73858642578125,-0.3937225341796875,0.27850341796875
1782987627824350200,5.18335009765625,-0.76324462890625,-0.387176513671875,0.2919158935546875
1782987627834425000,5.193425048828125,-0.8031463623046875,-0.382049560546875,0.2922515869140625
1782987627844500000,5.2035,-0.8515777587890625,-0.3811492919921875,0.2806396484375
1782987627854574000,5.213573974609375,-0.8997650146484375,-0.3813629150390625,0.261383056640625
1782987627864648700,5.223648681640625,-0.940704345703125,-0.386688232421875,0.240386962890625
1782987627874723800,5.233723876953125,-0.963287353515625,-0.394500732421875,0.2171783447265625
1782987627884797700,5.243797607421875,-0.974151611328125,-0.400146484375,0.200286865234375
1782987627894872800,5.253872802734375,-0.979278564453125,-0.4068145751953125,0.189178466796875
1782987627904947700,5.26394775390625,-0.978668212890625,-0.4130096435546875,0.1865081787109375
1782987627915022800,5.27402294921875,-0.98736572265625,-0.4160308837890625,0.18707275390625
1782987627925096700,5.2840966796875,-0.997344970703125,-0.414703369140625,0.185638427734375
1782987627935171800,5.294171875,-0.9976654052734375,-0.4124755859375,0.183074951171875
1782987627945246700,5.304246826171875,-0.994110107421875,-0.412017822265625,0.177490234375
1782987627955320800,5.31432080078125,-0.980987548828125,-0.41485595703125,0.1785125732421875
1782987627965395700,5.324395751953125,-0.9560546875,-0.421600341796875,0.179351806640625
1782987627975470800,5.334470947265625,-0.9314727783203125,-0.43096923828125,0.1777496337890625
1782987627985544700,5.344544677734375,-0.916595458984375,-0.4439239501953125,0.1779022216796875
1782987627995619800,5.354619873046875,-0.9069976806640625,-0.4519805908203125,0.170867919921875
1782987628005695000,5.364695068359375,-0.90570068359375,-0.4594879150390625,0.15667724609375
1782987628015769600,5.37476953125,-0.9039459228515625,-0.465240478515625,0.1472320556640625
1782987628025844000,5.384843994140625,-0.9049835205078125,-0.4661102294921875,0.139617919921875
1782987628035918600,5.394918701171875,-0.9010009765625,-0.4653472900390625,0.132293701171875
1782987628045993700,5.40499365234375,-0.8974456787109375,-0.4687347412109375,0.1310882568359375
1782987628056067600,5.415067626953125,-0.8887786865234375,-0.4763336181640625,0.129852294921875
1782987628066142700,5.425142822265625,-0.88275146484375,-0.4894866943359375,0.1320953369140625
1782987628076217900,5.4352177734375,-0.867034912109375,-0.507843017578125,0.1372528076171875
1782987628086291700,5.445291748046875,-0.842315673828125,-0.5068511962890625,0.131317138671875
1782987628096366800,5.455366943359375,-0.8414764404296875,-0.48394775390625,0.0999755859375
1782987628106441700,5.465441650390625,-0.8773956298828125,-0.45635986328125,0.0696258544921875
1782987628116516900,5.475516845703125,-0.9384918212890625,-0.434661865234375,0.0432281494140625
1782987628126590700,5.4855908203125,-1.00689697265625,-0.401397705078125,0.0193634033203125
1782987628136665900,5.495665771484375,-1.049591064453125,-0.360565185546875,0.0107879638671875
1782987628146740700,5.50574072265625,-1.0596160888671875,-0.3335418701171875,0.0248260498046875
1782987628156814800,5.51581494140625,-1.0433807373046875,-0.3210296630859375,0.0662078857421875
1782987628166890000,5.525889892578125,-1.0092926025390625,-0.3159942626953125,0.108673095703125
1782987628176964900,5.53596484375,-0.9836578369140625,-0.314208984375,0.144378662109375
1782987628187039700,5.546039794921875,-0.9693450927734375,-0.3142547607421875,0.154510498046875
1782987628197113900,5.55611376953125,-0.951568603515625,-0.3176422119140625,0.1420135498046875
1782987628207188700,5.566188720703125,-0.9346466064453125,-0.32562255859375,0.1227874755859375
1782987628217263600,5.576263671875,-0.9188232421875,-0.33441162109375,0.1055908203125
1782987628227337700,5.586337646484375,-0.90631103515625,-0.34136962890625,0.0792694091796875
1782987628237412600,5.59641259765625,-0.9033203125,-0.3467254638671875,0.0497894287109375
1782987628247487700,5.60648779296875,-0.9165802001953125,-0.352569580078125,0.0340118408203125
1782987628257561600,5.6165615234375,-0.935638427734375,-0.356903076171875,0.029876708984375
1782987628267636700,5.62663671875,-0.94921875,-0.361419677734375,0.0311279296875
1782987628277712000,5.6367119140625,-0.9482421875,-0.363525390625,0.0338134765625
1782987628287786800,5.646786865234375,-0.9386444091796875,-0.3704376220703125,0.0373077392578125
1782987628297860900,5.65686083984375,-0.918853759765625,-0.372344970703125,0.03857421875
1782987628307935700,5.666935791015625,-0.8929290771484375,-0.3728790283203125,0.04296875
1782987628318011000,5.677010986328125,-0.8758544921875,-0.3674774169921875,0.048828125
1782987628328084700,5.687084716796875,-0.8609771728515625,-0.35992431640625,0.0563201904296875
1782987628338159900,5.697159912109375,-0.8527679443359375,-0.359100341796875,0.0657501220703125
1782987628348235000,5.707235107421875,-0.8347930908203125,-0.362579345703125,0.074615478515625
1782987628358308900,5.717308837890625,-0.814361572265625,-0.3662567138671875,0.092010498046875
1782987628368384000,5.727384033203125,-0.7927093505859375,-0.372650146484375,0.107147216796875
1782987628378458600,5.737458740234375,-0.77740478515625,-0.3794708251953125,0.11712646484375
1782987628388533800,5.74753369140625,-0.7739410400390625,-0.39013671875,0.1185760498046875
1782987628398607600,5.757607666015625,-0.77947998046875,-0.39678955078125,0.1206817626953125
1782987628408682800,5.767682861328125,-0.785858154296875,-0.4042205810546875,0.1160888671875
1782987628418757600,5.777757568359375,-0.78173828125,-0.414886474609375,0.1095733642578125
1782987628428831700,5.787831787109375,-0.77264404296875,-0.4240264892578125,0.101959228515625
1782987628438907000,5.797906982421875,-0.769866943359375,-0.43603515625,0.093780517578125
1782987628448981800,5.807981689453125,-0.774139404296875,-0.4424896240234375,0.0831756591796875
1782987628459057000,5.818056884765625,-0.7873992919921875,-0.4488677978515625,0.0727081298828125
1782987628469130800,5.828130859375,-0.8097381591796875,-0.4461517333984375,0.0677337646484375
1782987628479206000,5.838205810546875,-0.8371124267578125,-0.4406890869140625,0.070343017578125
1782987628489280800,5.84828076171875,-0.863494873046875,-0.43109130859375,0.0734405517578125
1782987628499355000,5.85835498046875,-0.8850250244140625,-0.4216156005859375,0.0772552490234375
1782987628509429800,5.8684296875,-0.905364990234375,-0.419281005859375,0.079376220703125
1782987628519505000,5.8785048828125,-0.9161376953125,-0.422607421875,0.0841064453125
1782987628529578800,5.888578857421875,-0.9246368408203125,-0.4224700927734375,0.09228515625
1782987628539654000,5.89865380859375,-0.9344329833984375,-0.4259796142578125,0.1053009033203125
1782987628549728800,5.908728759765625,-0.933441162109375,-0.432952880859375,0.1101837158203125
1782987628559803600,5.9188037109375,-0.920196533203125,-0.4365997314453125,0.1054534912109375
1782987628569877800,5.928877685546875,-0.9030914306640625,-0.4432830810546875,0.0948486328125
1782987628579952600,5.93895263671875,-0.8881988525390625,-0.45428466796875,0.0806121826171875
1782987628590027800,5.94902783203125,-0.8852691650390625,-0.4622344970703125,0.0641937255859375
1782987628600101600,5.9591015625,-0.8955230712890625,-0.466217041015625,0.052978515625
1782987628610176800,5.9691767578125,-0.9123687744140625,-0.4697723388671875,0.052032470703125
1782987628620252000,5.979251953125,-0.9268798828125,-0.47265625,0.053558349609375
1782987628630325800,5.98932568359375,-0.9339752197265625,-0.473358154296875,0.0576324462890625
1782987628640401000,5.99940087890625,-0.931549072265625,-0.472900390625,0.0634918212890625
1782987628650475800,6.009475830078125,-0.913665771484375,-0.4750823974609375,0.07373046875
1782987628660551000,6.019551025390625,-0.892181396484375,-0.476470947265625,0.082366943359375
1782987628670624800,6.029624755859375,-0.8689422607421875,-0.475921630859375,0.095916748046875
1782987628680700000,6.039699951171875,-0.8535614013671875,-0.473876953125,0.1107177734375
1782987628690774800,6.04977490234375,-0.8392181396484375,-0.4735107421875,0.123931884765625
1782987628700849000,6.059848876953125,-0.830810546875,-0.475799560546875,0.139923095703125
1782987628710924000,6.069924072265625,-0.8251495361328125,-0.47314453125,0.154876708984375
1782987628720998700,6.07999853515625,-0.8243255615234375,-0.4709625244140625,0.169921875
1782987628731073800,6.09007373046875,-0.842132568359375,-0.466766357421875,0.1740875244140625
1782987628741147600,6.100147705078125,-0.8823699951171875,-0.456512451171875,0.170196533203125
1782987628751222800,6.110222900390625,-0.9332275390625,-0.443145751953125,0.160430908203125
1782987628761297700,6.120297607421875,-0.9774169921875,-0.4380950927734375,0.1546173095703125
1782987628771371800,6.130371826171875,-1.008209228515625,-0.4521331787109375,0.172576904296875
1782987628781446700,6.14044677734375,-0.998626708984375,-0.48828125,0.2175445556640625
1782987628791521800,6.150521728515625,-0.9541015625,-0.5074005126953125,0.2525177001953125
1782987628801595600,6.160595703125,-0.921875,-0.4891815185546875,0.251617431640625
1782987628811670800,6.1706708984375,-0.9333343505859375,-0.4643402099609375,0.2172698974609375
1782987628821746000,6.180745849609375,-0.98779296875,-0.4392547607421875,0.1537017822265625
1782987628831820800,6.19082080078125,-1.0681610107421875,-0.4330291748046875,0.0972137451171875
1782987628841895000,6.20089501953125,-1.1464080810546875,-0.422576904296875,0.0648345947265625
1782987628851969800,6.2109697265625,-1.2061004638671875,-0.4036712646484375,0.0504150390625
1782987628862044400,6.22104443359375,-1.2347412109375,-0.377349853515625,0.0586395263671875
1782987628872118500,6.231118408203125,-1.2287750244140625,-0.349578857421875,0.0908050537109375
1782987628882193400,6.241193359375,-1.1885833740234375,-0.331787109375,0.13201904296875
1782987628892268500,6.2512685546875,-1.120941162109375,-0.3346099853515625,0.1698150634765625
1782987628902342400,6.26134228515625,-1.031585693359375,-0.3484649658203125,0.192901611328125
1782987628912417500,6.27141748046875,-0.9304656982421875,-0.363525390625,0.2122344970703125
1782987628922492400,6.281492431640625,-0.8355255126953125,-0.3800811767578125,0.2288818359375
1782987628932567300,6.2915673828125,-0.7657928466796875,-0.3878631591796875,0.2366790771484375
1782987628942641400,6.301641357421875,-0.72772216796875,-0.3797454833984375,0.23150634765625
1782987628952716300,6.31171630859375,-0.7317047119140625,-0.3605194091796875,0.2131195068359375
1782987628962791400,6.32179150390625,-0.7778167724609375,-0.335296630859375,0.186920166015625
1782987628972865300,6.331865234375,-0.8467864990234375,-0.31378173828125,0.1606292724609375
1782987628982940400,6.3419404296875,-0.917755126953125,-0.3019256591796875,0.13494873046875
1782987628993015600,6.352015625,-0.98162841796875,-0.2834930419921875,0.111785888671875
1782987629003090400,6.36209033203125,-1.033843994140625,-0.263519287109375,0.0924072265625
1782987629013164500,6.37216455078125,-1.0584259033203125,-0.2541656494140625,0.08544921875
1782987629023239400,6.382239501953125,-1.0520782470703125,-0.2473297119140625,0.0871734619140625
1782987629033314600,6.392314453125,-1.026611328125,-0.2451629638671875,0.0926513671875
1782987629043388400,6.402388427734375,-0.98077392578125,-0.2496490478515625,0.0973968505859375
1782987629053463600,6.412463623046875,-0.9286956787109375,-0.25640869140625,0.0995941162109375
1782987629063538400,6.422538330078125,-0.87274169921875,-0.26568603515625,0.0967864990234375
1782987629073613300,6.43261328125,-0.82012939453125,-0.27691650390625,0.0963287353515625
1782987629083687400,6.4426875,-0.7765655517578125,-0.2916259765625,0.1002197265625
1782987629093762300,6.45276220703125,-0.7454681396484375,-0.3096923828125,0.1009674072265625
1782987629103837400,6.46283740234375,-0.729705810546875,-0.3233184814453125,0.0950164794921875
1782987629113911300,6.472911376953125,-0.72100830078125,-0.3376617431640625,0.0855560302734375
1782987629123986400,6.482986328125,-0.7225494384765625,-0.3523712158203125,0.076416015625
1782987629134061300,6.493061279296875,-0.7296600341796875,-0.3624114990234375,0.069549560546875
1782987629144134400,6.503134521484375,-0.740325927734375,-0.3693084716796875,0.061920166015625
1782987629154209300,6.513209228515625,-0.7504730224609375,-0.37335205078125,0.0605621337890625
1782987629164284400,6.523284423828125,-0.76654052734375,-0.3781890869140625,0.065887451171875
1782987629174359300,6.533359375,-0.7918243408203125,-0.3814239501953125,0.07708740234375
1782987629184433400,6.543433349609375,-0.821136474609375,-0.384735107421875,0.0886993408203125
1782987629194508300,6.55350830078125,-0.848419189453125,-0.3888092041015625,0.0917510986328125
1782987629204583400,6.56358349609375,-0.86749267578125,-0.393310546875,0.0894012451171875
1782987629214657300,6.5736572265625,-0.88201904296875,-0.4008331298828125,0.0892333984375
1782987629224732400,6.583732421875,-0.8991546630859375,-0.408355712890625,0.0867767333984375
1782987629234807600,6.5938076171875,-0.9227447509765625,-0.41259765625,0.0798492431640625
1782987629244881400,6.60388134765625,-0.9404144287109375,-0.4140625,0.0736541748046875
1782987629254956500,6.61395654296875,-0.9526214599609375,-0.4151611328125,0.0648651123046875
1782987629265031400,6.624031494140625,-0.9535369873046875,-0.41656494140625,0.061981201171875
1782987629275106300,6.634106201171875,-0.94342041015625,-0.41845703125,0.0706939697265625
1782987629285180400,6.644180419921875,-0.9289703369140625,-0.42254638671875,0.0866546630859375
1782987629295255300,6.65425537109375,-0.91046142578125,-0.424285888671875,0.104217529296875
1782987629305330400,6.664330322265625,-0.895965576171875,-0.4294281005859375,0.119354248046875
1782987629315404300,6.674404296875,-0.8843536376953125,-0.4338531494140625,0.1277313232421875
1782987629325479400,6.6844794921875,-0.87969970703125,-0.4392242431640625,0.124542236328125
1782987629335554300,6.69455419921875,-0.8807830810546875,-0.44171142578125,0.1180877685546875
1782987629345628400,6.70462841796875,-0.88763427734375,-0.450836181640625,0.111114501953125
1782987629355703300,6.714703369140625,-0.90325927734375,-0.4599456787109375,0.10382080078125
1782987629365778400,6.7247783203125,-0.9136962890625,-0.4647674560546875,0.095794677734375
1782987629375853300,6.734853271484375,-0.916961669921875,-0.4669952392578125,0.0923004150390625
1782987629385927400,6.744927490234375,-0.920806884765625,-0.467864990234375,0.09405517578125
1782987629396002600,6.75500244140625,-0.92779541015625,-0.469879150390625,0.098175048828125
1782987629406077400,6.765077392578125,-0.94158935546875,-0.4731597900390625,0.0978240966796875
1782987629416151600,6.775151611328125,-0.959320068359375,-0.4765167236328125,0.0865631103515625
1782987629426226400,6.785226318359375,-0.9720306396484375,-0.4810638427734375,0.073760986328125
1782987629436301600,6.795301513671875,-0.98046875,-0.4973297119140625,0.08660888671875
1782987629446376400,6.80537646484375,-0.96209716796875,-0.5311126708984375,0.1232147216796875
1782987629456450600,6.815450439453125,-0.9347381591796875,-0.53765869140625,0.1406402587890625
1782987629466525400,6.825525390625,-0.9396514892578125,-0.51824951171875,0.1239776611328125
1782987629476600300,6.835600341796875,-0.9833221435546875,-0.4870758056640625,0.08758544921875
1782987629486675500,6.845675537109375,-1.048492431640625,-0.4551544189453125,0.056884765625
1782987629496749300,6.855749267578125,-1.118988037109375,-0.4329833984375,0.050018310546875
1782987629506824400,6.865824462890625,-1.1672821044921875,-0.4169769287109375,0.0529327392578125
1782987629516899300,6.8758994140625,-1.1783599853515625,-0.386566162109375,0.0494232177734375
1782987629526973400,6.885973388671875,-1.1583099365234375,-0.352630615234375,0.045501708984375
1782987629537048300,6.89604833984375,-1.1232757568359375,-0.3355255126953125,0.0496063232421875
1782987629547123500,6.90612353515625,-1.080352783203125,-0.335693359375,0.057952880859375
1782987629557198600,6.916198486328125,-1.0289459228515625,-0.3431243896484375,0.062744140625
1782987629567272400,6.9262724609375,-0.96466064453125,-0.3555908203125,0.06707763671875
1782987629577347600,6.93634765625,-0.9014739990234375,-0.36981201171875,0.0767822265625
1782987629587422500,6.94642236328125,-0.8485870361328125,-0.37774658203125,0.0808868408203125
1782987629597496600,6.95649658203125,-0.8170166015625,-0.3797760009765625,0.081298828125
1782987629607571500,6.966571533203125,-0.817535400390625,-0.3787078857421875,0.0702667236328125
1782987629617646300,6.976646240234375,-0.8406829833984375,-0.380584716796875,0.0464324951171875
1782987629627721200,6.98672119140625,-0.8842926025390625,-0.377227783203125,0.0197906494140625
1782987629637795300,6.99679541015625,-0.9274444580078125,-0.3735504150390625,0.00018310546875
1782987629647870200,7.0068701171875,-0.95574951171875,-0.3654937744140625,-0.008636474609375
1782987629657945300,7.0169453125,-0.969757080078125,-0.3557891845703125,-0.0014190673828125
1782987629668019500,7.02701953125,-0.9685211181640625,-0.344696044921875,0.0193023681640625
1782987629678094300,7.03709423828125,-0.9542236328125,-0.339080810546875,0.04522705078125
1782987629688169500,7.04716943359375,-0.9213104248046875,-0.3372650146484375,0.0756378173828125
1782987629698243300,7.057243408203125,-0.8640289306640625,-0.342742919921875,0.103912353515625
1782987629708318500,7.067318359375,-0.801727294921875,-0.3540191650390625,0.1373291015625
1782987629718393300,7.077393310546875,-0.75396728515625,-0.367279052734375,0.161865234375
1782987629728468500,7.087468505859375,-0.71282958984375,-0.3784027099609375,0.1729278564453125
1782987629738542300,7.097542236328125,-0.679901123046875,-0.385986328125,0.175689697265625
1782987629748617500,7.107617431640625,-0.657623291015625,-0.3996124267578125,0.1753082275390625
1782987629758692600,7.117692626953125,-0.6529541015625,-0.4137725830078125,0.1737060546875
1782987629768766500,7.127766357421875,-0.660858154296875,-0.4222869873046875,0.164886474609375
1782987629778841600,7.137841552734375,-0.6784820556640625,-0.4253997802734375,0.156158447265625
1782987629788916200,7.147916259765625,-0.7117767333984375,-0.4273834228515625,0.1417083740234375
1782987629798991400,7.157991455078125,-0.7515411376953125,-0.425750732421875,0.12677001953125
1782987629809065200,7.168065185546875,-0.790740966796875,-0.424560546875,0.1100616455078125
1782987629819140400,7.178140380859375,-0.8219146728515625,-0.4235382080078125,0.0956878662109375
1782987629829215500,7.188215576171875,-0.84600830078125,-0.423431396484375,0.088775634765625
1782987629839289300,7.198289306640625,-0.8650665283203125,-0.4250946044921875,0.0892486572265625
1782987629849364500,7.208364501953125,-0.87579345703125,-0.4240264892578125,0.09857177734375
1782987629859439400,7.218439453125,-0.87646484375,-0.4204864501953125,0.11358642578125
1782987629869513500,7.228513427734375,-0.87841796875,-0.419403076171875,0.1346282958984375
1782987629879588600,7.238588623046875,-0.8787384033203125,-0.41827392578125,0.154327392578125
1782987629889663700,7.248663818359375,-0.8831634521484375,-0.4149932861328125,0.1655120849609375
1782987629899738600,7.258738525390625,-0.8828277587890625,-0.412994384765625,0.171661376953125
1782987629909812700,7.268812744140625,-0.8798370361328125,-0.4170074462890625,0.1781005859375
1782987629919887600,7.2788876953125,-0.8736114501953125,-0.42694091796875,0.1815032958984375
1782987629929962800,7.288962646484375,-0.86553955078125,-0.4387969970703125,0.1732940673828125
1782987629940036600,7.29903662109375,-0.85888671875,-0.45166015625,0.160491943359375
1782987629950111700,7.30911181640625,-0.8512420654296875,-0.4593505859375,0.151336669921875
1782987629960186400,7.319186279296875,-0.851409912109375,-0.4672088623046875,0.141754150390625
1782987629970260700,7.3292607421875,-0.860870361328125,-0.4786376953125,0.1381072998046875
1782987629980335400,7.33933544921875,-0.8736572265625,-0.4835205078125,0.1397857666015625
1782987629990410500,7.349410400390625,-0.8893280029296875,-0.482208251953125,0.149322509765625
1782987630000485600,7.359485595703125,-0.89825439453125,-0.481842041015625,0.160064697265625
1782987630010559500,7.3695595703125,-0.9029998779296875,-0.4777679443359375,0.1728668212890625
1782987630020634600,7.379634521484375,-0.9074249267578125,-0.47564697265625,0.1798095703125
1782987630030709500,7.38970947265625,-0.918853759765625,-0.4730224609375,0.181427001953125
1782987630040783600,7.39978369140625,-0.9303436279296875,-0.472442626953125,0.175048828125
1782987630050858500,7.4098583984375,-0.9365234375,-0.4675445556640625,0.165191650390625
1782987630060933600,7.41993359375,-0.9383087158203125,-0.4633941650390625,0.160186767578125
1782987630071008800,7.4300087890625,-0.935333251953125,-0.461822509765625,0.1646270751953125
1782987630081082600,7.44008251953125,-0.9203643798828125,-0.4807586669921875,0.1966552734375
1782987630091157800,7.45015771484375,-0.8847808837890625,-0.5043792724609375,0.23583984375
1782987630101232600,7.460232666015625,-0.860504150390625,-0.493560791015625,0.239471435546875
1782987630111306800,7.470306640625,-0.89300537109375,-0.4545745849609375,0.210235595703125
1782987630121381600,7.480381591796875,-0.969390869140625,-0.4149932861328125,0.182403564453125
1782987630131456500,7.49045654296875,-1.0498504638671875,-0.3903961181640625,0.156005859375
1782987630141530600,7.500530517578125,-1.086273193359375,-0.368011474609375,0.1453704833984375
1782987630151605500,7.51060546875,-1.0693359375,-0.3555450439453125,0.157562255859375
1782987630161680600,7.5206806640625,-1.013702392578125,-0.3544921875,0.1750946044921875
1782987630171755500,7.530755615234375,-0.94195556640625,-0.348785400390625,0.1949462890625
1782987630181829600,7.54082958984375,-0.8936614990234375,-0.348785400390625,0.2052154541015625
1782987630191904500,7.550904541015625,-0.880126953125,-0.3456878662109375,0.207427978515625
1782987630201979600,7.560979736328125,-0.8964996337890625,-0.338623046875,0.1975555419921875
1782987630212053500,7.571053466796875,-0.91998291015625,-0.32513427734375,0.1809234619140625
1782987630222128600,7.581128662109375,-0.93994140625,-0.3116607666015625,0.16864013671875
1782987630232203500,7.59120361328125,-0.9474029541015625,-0.3014678955078125,0.16204833984375
1782987630242278700,7.601278564453125,-0.943389892578125,-0.2921905517578125,0.16864013671875
1782987630252352500,7.6113525390625,-0.92901611328125,-0.2907562255859375,0.1832733154296875
1782987630262427600,7.621427734375,-0.9118194580078125,-0.3016357421875,0.196624755859375
1782987630272502800,7.631502685546875,-0.8858489990234375,-0.316986083984375,0.1999359130859375
1782987630282576600,7.64157666015625,-0.850738525390625,-0.326019287109375,0.191619873046875
1782987630292651800,7.65165185546875,-0.816162109375,-0.338592529296875,0.1784820556640625
1782987630302726400,7.661726318359375,-0.8061981201171875,-0.3504180908203125,0.16717529296875
1782987630312800800,7.67180078125,-0.82940673828125,-0.355682373046875,0.149322509765625
1782987630322875400,7.68187548828125,-0.8726654052734375,-0.350738525390625,0.1334075927734375
1782987630332950500,7.691950439453125,-0.91943359375,-0.3383026123046875,0.1187286376953125
1782987630343024400,7.7020244140625,-0.95684814453125,-0.3252716064453125,0.113189697265625
1782987630353099500,7.712099609375,-0.9852142333984375,-0.31231689453125,0.1198272705078125
1782987630363174700,7.722174560546875,-0.9998626708984375,-0.3022003173828125,0.1356353759765625
1782987630373249500,7.73224951171875,-1.0044097900390625,-0.2921905517578125,0.155303955078125
1782987630383323600,7.74232373046875,-0.994476318359375,-0.29144287109375,0.1708526611328125
1782987630393398500,7.7523984375,-0.9721832275390625,-0.29608154296875,0.1837005615234375
1782987630403473700,7.7624736328125,-0.936431884765625,-0.30267333984375,0.1889495849609375
1782987630413547500,7.772547607421875,-0.89996337890625,-0.3116912841796875,0.1911163330078125
1782987630423622700,7.78262255859375,-0.866912841796875,-0.3224639892578125,0.1936798095703125
1782987630433697800,7.79269775390625,-0.843719482421875,-0.3325042724609375,0.1910400390625
1782987630443772700,7.802772705078125,-0.8304290771484375,-0.3391876220703125,0.1875762939453125
1782987630453846800,7.8128466796875,-0.8332061767578125,-0.3419036865234375,0.1912994384765625
1782987630463921700,7.822921630859375,-0.8443603515625,-0.3448028564453125,0.1975250244140625
1782987630473996500,7.83299658203125,-0.856231689453125,-0.34735107421875,0.199249267578125
1782987630484070700,7.843070556640625,-0.8655242919921875,-0.351715087890625,0.19769287109375
1782987630494145500,7.8531455078125,-0.87646484375,-0.353118896484375,0.19378662109375
1782987630504220400,7.863220458984375,-0.8905792236328125,-0.352752685546875,0.189697265625
1782987630514295600,7.873295654296875,-0.9035797119140625,-0.3515777587890625,0.185211181640625
1782987630524369400,7.883369384765625,-0.9173431396484375,-0.3541412353515625,0.18218994140625
1782987630534444500,7.893444580078125,-0.937255859375,-0.3543853759765625,0.1830902099609375
1782987630544519700,7.903519775390625,-0.951690673828125,-0.3509063720703125,0.18048095703125
1782987630554593500,7.913593505859375,-0.9621124267578125,-0.348876953125,0.175537109375
1782987630564668700,7.923668701171875,-0.9656982421875,-0.3467864990234375,0.1714019775390625
1782987630574743600,7.93374365234375,-0.9661102294921875,-0.347076416015625,0.1630096435546875
1782987630584817700,7.943817626953125,-0.97021484375,-0.35052490234375,0.1538848876953125
1782987630594892500,7.953892578125,-0.975555419921875,-0.356658935546875,0.1423797607421875
1782987630604967700,7.9639677734375,-0.981170654296875,-0.36163330078125,0.129058837890625
1782987630615042600,7.97404248046875,-0.989349365234375,-0.3684539794921875,0.1205291748046875
1782987630625116700,7.98411669921875,-1.0000152587890625,-0.3734130859375,0.1151123046875
1782987630635191600,7.994191650390625,-1.00726318359375,-0.37750244140625,0.1161041259765625
1782987630645266400,8.004266357421875,-1.004547119140625,-0.3843536376953125,0.1220703125
1782987630655340500,8.014340576171875,-0.9866943359375,-0.3932952880859375,0.1335906982421875
1782987630665415400,8.02441552734375,-0.9590606689453125,-0.413055419921875,0.147216796875
1782987630675490600,8.034490478515625,-0.9266204833984375,-0.4372711181640625,0.161346435546875
1782987630685564400,8.044564453125,-0.9032440185546875,-0.4544525146484375,0.166351318359375
1782987630695639600,8.0546396484375,-0.8803253173828125,-0.467437744140625,0.1645050048828125
1782987630705714700,8.064714599609376,-0.870513916015625,-0.4638519287109375,0.1504669189453125
1782987630715789600,8.07478955078125,-0.8886260986328125,-0.43975830078125,0.121246337890625
1782987630725863700,8.08486376953125,-0.9300537109375,-0.4034576416015625,0.0921478271484375
1782987630735938600,8.0949384765625,-0.98211669921875,-0.3714141845703125,0.0834808349609375
1782987630746013700,8.105013671875,-1.040985107421875,-0.3496551513671875,0.1073150634765625
1782987630756087600,8.115087646484374,-1.0801544189453125,-0.3308258056640625,0.1383514404296875
1782987630766162700,8.12516259765625,-1.0912017822265625,-0.3146209716796875,0.1673126220703125
1782987630776237600,8.135237548828124,-1.0720367431640625,-0.316314697265625,0.1856536865234375
1782987630786311700,8.145311767578125,-1.0411529541015625,-0.329132080078125,0.1871490478515625
1782987630796386600,8.155386474609376,-1.01898193359375,-0.3409271240234375,0.1606292724609375
1782987630806461700,8.165461669921875,-1.0135040283203125,-0.3432159423828125,0.1201934814453125
1782987630816536600,8.17553662109375,-1.0153656005859375,-0.3335723876953125,0.0922088623046875
1782987630826610700,8.185610595703125,-1.015899658203125,-0.3284912109375,0.0843353271484375
1782987630836685600,8.195685546875,-1.0146484375,-0.3309478759765625,0.0853118896484375
1782987630846760400,8.205760498046875,-1.0023193359375,-0.3160247802734375,0.083770751953125
1782987630856834600,8.21583447265625,-0.9879150390625,-0.30499267578125,0.0752410888671875
1782987630866910000,8.225909912109374,-0.980010986328125,-0.2975006103515625,0.06854248046875
1782987630876984800,8.23598486328125,-0.9719696044921875,-0.3040008544921875,0.063720703125
1782987630887060000,8.24606005859375,-0.965850830078125,-0.3134613037109375,0.057098388671875
1782987630897133800,8.2561337890625,-0.949920654296875,-0.3238525390625,0.057220458984375
1782987630907209000,8.266208984375,-0.9272308349609375,-0.32928466796875,0.0617218017578125
1782987630917284000,8.2762841796875,-0.90087890625,-0.330108642578125,0.0782012939453125
1782987630927358000,8.28635791015625,-0.873626708984375,-0.3288421630859375,0.1010284423828125
1782987630937433000,8.29643310546875,-0.853485107421875,-0.3270263671875,0.12579345703125
1782987630947508000,8.306508056640626,-0.8402557373046875,-0.32891845703125,0.1434173583984375
1782987630957582000,8.31658203125,-0.83123779296875,-0.3312530517578125,0.152008056640625
1782987630967657000,8.326656982421875,-0.8306427001953125,-0.3327789306640625,0.15057373046875
1782987630977731800,8.33673193359375,-0.8314056396484375,-0.3314666748046875,0.14794921875
1782987630987807000,8.346806884765625,-0.834808349609375,-0.3371124267578125,0.1400299072265625
1782987630997880800,8.356880859375,-0.8442535400390625,-0.34759521484375,0.1348876953125
1782987631007956000,8.3669560546875,-0.85821533203125,-0.355377197265625,0.1252593994140625
1782987631018030800,8.37703076171875,-0.8695068359375,-0.362579345703125,0.108734130859375
1782987631028105000,8.38710498046875,-0.8740234375,-0.3690338134765625,0.0921478271484375
1782987631038179800,8.397179931640625,-0.8694610595703125,-0.370269775390625,0.0818634033203125
1782987631048255000,8.4072548828125,-0.864227294921875,-0.37274169921875,0.080718994140625
1782987631058328800,8.417328857421875,-0.860443115234375,-0.3717041015625,0.08935546875
1782987631068404000,8.427404052734374,-0.8658294677734375,-0.3742523193359375,0.0936737060546875
1782987631078478800,8.437478759765625,-0.8860626220703125,-0.374053955078125,0.0897979736328125
1782987631088554000,8.447553955078124,-0.8988189697265625,-0.3735809326171875,0.0876312255859375
1782987631098627800,8.4576279296875,-0.8990631103515625,-0.3779754638671875,0.0871124267578125
1782987631108703000,8.467702880859376,-0.892608642578125,-0.38043212890625,0.089996337890625
1782987631118778000,8.477778076171875,-0.89508056640625,-0.37860107421875,0.0926055908203125
1782987631128852000,8.48785205078125,-0.89862060546875,-0.3739471435546875,0.094970703125
1782987631138927000,8.497927001953125,-0.89239501953125,-0.3703155517578125,0.10076904296875
1782987631149001700,8.508001708984375,-0.8823394775390625,-0.3768768310546875,0.112762451171875
1782987631159076000,8.518076171875,-0.8719940185546875,-0.378662109375,0.12542724609375
1782987631169150700,8.528150634765625,-0.8693695068359375,-0.3768463134765625,0.1331939697265625
1782987631179225900,8.538225830078124,-0.868621826171875,-0.377044677734375,0.1353607177734375
1782987631189301000,8.548301025390625,-0.8618316650390625,-0.3832550048828125,0.1369476318359375
1782987631199374800,8.558374755859376,-0.8535919189453125,-0.3900909423828125,0.1387786865234375
1782987631209450000,8.568449951171875,-0.8472442626953125,-0.396759033203125,0.132293701171875
1782987631219524900,8.57852490234375,-0.8439483642578125,-0.401336669921875,0.1240234375
1782987631229599000,8.588598876953125,-0.84619140625,-0.40411376953125,0.117645263671875
1782987631239673900,8.598673828125,-0.852142333984375,-0.4073028564453125,0.1162109375
1782987631249749000,8.6087490234375,-0.8689117431640625,-0.4068145751953125,0.114837646484375
1782987631259824000,8.61882421875,-0.8935699462890625,-0.4014892578125,0.1183624267578125
1782987631269898000,8.62889794921875,-0.924896240234375,-0.399566650390625,0.1244964599609375
1782987631279973000,8.63897314453125,-0.9445037841796875,-0.391448974609375,0.13116455078125
1782987631290048000,8.649048095703124,-0.9503631591796875,-0.385589599609375,0.139190673828125
1782987631300122000,8.6591220703125,-0.9394073486328125,-0.38409423828125,0.145599365234375
1782987631310197000,8.669197021484376,-0.922454833984375,-0.386505126953125,0.1544342041015625
1782987631320272000,8.67927197265625,-0.9059906005859375,-0.3920440673828125,0.1606292724609375
1782987631330346000,8.689345947265625,-0.897552490234375,-0.40191650390625,0.1730194091796875
1782987631340420900,8.6994208984375,-0.8896026611328125,-0.41949462890625,0.1923980712890625
1782987631350495700,8.709495849609375,-0.877349853515625,-0.442138671875,0.215423583984375
1782987631360571000,8.71957080078125,-0.8684234619140625,-0.455322265625,0.22076416015625
1782987631370644700,8.729644775390625,-0.8953857421875,-0.4420318603515625,0.1855316162109375
1782987631380719900,8.739719970703124,-0.9740753173828125,-0.41375732421875,0.141082763671875
1782987631390795000,8.749794921875,-1.0728759765625,-0.3777313232421875,0.1188201904296875
1782987631400868900,8.759868896484376,-1.1573638916015625,-0.3580474853515625,0.1118927001953125
1782987631410944000,8.769944091796875,-1.197967529296875,-0.3446197509765625,0.11859130859375
1782987631421019000,8.780018798828126,-1.1829681396484375,-0.328521728515625,0.1416015625
1782987631431093000,8.790093017578124,-1.128814697265625,-0.315093994140625,0.174102783203125
1782987631441168000,8.80016796875,-1.0659027099609375,-0.30682373046875,0.1977691650390625
1782987631451243000,8.810242919921874,-1.010833740234375,-0.3050689697265625,0.2066802978515625
1782987631461318100,8.820318115234375,-0.9629974365234375,-0.30218505859375,0.1929931640625
1782987631471392000,8.83039208984375,-0.91961669921875,-0.3043975830078125,0.17431640625
1782987631481467100,8.840467041015625,-0.874664306640625,-0.3147430419921875,0.170562744140625
1782987631491541800,8.850541748046876,-0.8312225341796875,-0.324981689453125,0.180755615234375
1782987631501616000,8.8606162109375,-0.7959747314453125,-0.3385162353515625,0.2057647705078125
1782987631511690800,8.870690673828125,-0.771392822265625,-0.3503570556640625,0.229522705078125
1782987631521766000,8.880765869140625,-0.7640838623046875,-0.3507232666015625,0.23419189453125
1782987631531839700,8.89083984375,-0.77789306640625,-0.3490447998046875,0.2176513671875
1782987631541915000,8.900914794921874,-0.8265228271484375,-0.3455352783203125,0.1769256591796875
1782987631551990000,8.910989990234375,-0.898651123046875,-0.342681884765625,0.116973876953125
1782987631562065000,8.92106494140625,-0.974334716796875,-0.335296630859375,0.0628509521484375
1782987631572139000,8.931138916015625,-1.04522705078125,-0.3237152099609375,0.0343475341796875
1782987631582214000,8.9412138671875,-1.093017578125,-0.317657470703125,0.025787353515625
1782987631592289000,8.9512890625,-1.103668212890625,-0.3151092529296875,0.040435791015625
1782987631602363000,8.96136279296875,-1.070892333984375,-0.319366455078125,0.06903076171875
1782987631612438000,8.97143798828125,-1.006927490234375,-0.3246307373046875,0.1046142578125
1782987631622513000,8.981512939453125,-0.9442901611328125,-0.333251953125,0.139801025390625
1782987631632587000,8.9915869140625,-0.890380859375,-0.3465728759765625,0.165679931640625
1782987631642662000,9.001661865234375,-0.841644287109375,-0.358642578125,0.1743316650390625
1782987631652737000,9.011737060546874,-0.7982940673828125,-0.36322021484375,0.174835205078125
1782987631662812000,9.02181201171875,-0.7636260986328125,-0.3717498779296875,0.1774444580078125
1782987631672886000,9.031885986328126,-0.743896484375,-0.3765716552734375,0.1779632568359375
1782987631682961000,9.0419609375,-0.73992919921875,-0.3800048828125,0.178985595703125
1782987631693035800,9.052035888671876,-0.749420166015625,-0.3819122314453125,0.1783294677734375
1782987631703110000,9.06210986328125,-0.769012451171875,-0.3843994140625,0.1773834228515625
1782987631713184800,9.072184814453125,-0.793487548828125,-0.385955810546875,0.17822265625
1782987631723260000,9.082260009765625,-0.8182373046875,-0.3935394287109375,0.1905670166015625
1782987631733335000,9.0923349609375,-0.8351593017578125,-0.4000396728515625,0.2041015625
1782987631743409000,9.102408935546874,-0.8446502685546875,-0.4073638916015625,0.2103271484375
1782987631753484000,9.112484130859375,-0.8469696044921875,-0.4185638427734375,0.20513916015625
1782987631763559000,9.122558837890624,-0.843597412109375,-0.4296112060546875,0.1994171142578125
1782987631773633000,9.132633056640625,-0.8444061279296875,-0.43804931640625,0.1977081298828125
1782987631783708000,9.1427080078125,-0.8559112548828125,-0.438995361328125,0.1903839111328125
1782987631793783000,9.152782958984375,-0.8627471923828125,-0.439239501953125,0.1826324462890625
1782987631803857000,9.16285693359375,-0.873138427734375,-0.4398345947265625,0.180084228515625
1782987631813932000,9.17293212890625,-0.881072998046875,-0.4396514892578125,0.1815948486328125
1782987631824007000,9.1830068359375,-0.8944091796875,-0.4348907470703125,0.1778106689453125
1782987631834081800,9.193081787109374,-0.9068603515625,-0.4269256591796875,0.171966552734375
1782987631844156000,9.203156005859375,-0.9213409423828125,-0.422149658203125,0.165771484375
1782987631854230800,9.213230712890624,-0.927398681640625,-0.4207000732421875,0.1613311767578125
1782987631864306000,9.223305908203125,-0.922698974609375,-0.4199981689453125,0.1508331298828125
1782987631874379800,9.2333798828125,-0.9052886962890625,-0.4230499267578125,0.137603759765625
1782987631884455000,9.243454833984375,-0.8790435791015625,-0.4331817626953125,0.1263427734375
1782987631894529800,9.25352978515625,-0.8562469482421875,-0.4492034912109375,0.1235504150390625
1782987631904604000,9.26360400390625,-0.852386474609375,-0.4640655517578125,0.122161865234375
1782987631914678800,9.2736787109375,-0.8545989990234375,-0.4710693359375,0.121795654296875
1782987631924754000,9.28375390625,-0.8638763427734375,-0.4795989990234375,0.1210174560546875
1782987631934829000,9.2938291015625,-0.882110595703125,-0.48052978515625,0.1168670654296875
1782987631944903000,9.30390283203125,-0.9075775146484375,-0.4798583984375,0.112152099609375
1782987631954978000,9.31397802734375,-0.9391632080078125,-0.4788360595703125,0.0997161865234375
1782987631965053000,9.324052978515626,-0.9694061279296875,-0.4827728271484375,0.088531494140625
1782987631975127000,9.334126953125,-0.9883270263671875,-0.49761962890625,0.0825042724609375
1782987631985202000,9.344201904296876,-0.9764404296875,-0.519683837890625,0.0838470458984375
1782987631995276800,9.35427685546875,-0.93853759765625,-0.5354766845703125,0.08367919921875
1782987632005351000,9.364350830078125,-0.9010467529296875,-0.5293121337890625,0.0684967041015625
1782987632015426000,9.374426025390624,-0.8988037109375,-0.50018310546875,0.0463409423828125
1782987632025501000,9.3845009765625,-0.9446868896484375,-0.46588134765625,0.0336456298828125
1782987632035575800,9.394575927734374,-1.0196685791015625,-0.433197021484375,0.042999267578125
1782987632045650000,9.40464990234375,-1.0713043212890625,-0.4000244140625,0.06683349609375
1782987632055724800,9.414724853515626,-1.0752105712890625,-0.3851470947265625,0.1002197265625
1782987632065800000,9.424800048828125,-1.0407867431640625,-0.3831634521484375,0.1378936767578125
1782987632075873800,9.434873779296876,-0.995361328125,-0.3880767822265625,0.1612701416015625
1782987632085949000,9.444948974609375,-0.94842529296875,-0.3954010009765625,0.1615753173828125
1782987632096024000,9.455024169921876,-0.911468505859375,-0.4037628173828125,0.1392059326171875
1782987632106098000,9.465097900390624,-0.8838958740234375,-0.407562255859375,0.100128173828125
1782987632116173000,9.475173095703125,-0.867218017578125,-0.399505615234375,0.067474365234375
1782987632126248000,9.485248046875,-0.855499267578125,-0.3886260986328125,0.06011962890625
1782987632136323000,9.495322998046875,-0.8477783203125,-0.37738037109375,0.0741729736328125
1782987632146397000,9.50539697265625,-0.8432769775390625,-0.3614654541015625,0.099517822265625
1782987632156472000,9.51547216796875,-0.8472137451171875,-0.349365234375,0.1206512451171875
1782987632166547000,9.525546875,-0.8572235107421875,-0.3488922119140625,0.12933349609375
1782987632176621000,9.53562109375,-0.8676300048828125,-0.3556060791015625,0.122100830078125
1782987632186696000,9.545696044921876,-0.8780670166015625,-0.3609161376953125,0.1017608642578125
1782987632196770800,9.555770751953125,-0.8883514404296875,-0.365081787109375,0.0874786376953125
1782987632206845000,9.565844970703125,-0.900299072265625,-0.367828369140625,0.08050537109375
1782987632216919800,9.575919921875,-0.914215087890625,-0.3712615966796875,0.0847015380859375
1782987632226995000,9.585994873046875,-0.933929443359375,-0.366241455078125,0.092010498046875
1782987632237069800,9.59606982421875,-0.9589691162109375,-0.3559417724609375,0.098785400390625
1782987632247144000,9.60614404296875,-0.9878997802734375,-0.34674072265625,0.10791015625
1782987632257218800,9.61621875,-1.011810302734375,-0.3459014892578125,0.1231536865234375
1782987632267294000,9.6262939453125,-1.0188140869140625,-0.3474273681640625,0.1395416259765625
1782987632277367800,9.636367919921875,-1.002838134765625,-0.3560333251953125,0.1531524658203125
1782987632287443000,9.64644287109375,-0.9725799560546875,-0.37152099609375,0.1642303466796875
1782987632297518000,9.65651806640625,-0.929290771484375,-0.3918304443359375,0.17132568359375
1782987632307592000,9.666592041015624,-0.881103515625,-0.41925048828125,0.1797332763671875
1782987632317667000,9.6766669921875,-0.831695556640625,-0.4470672607421875,0.1704254150390625
1782987632327742000,9.686741943359374,-0.785858154296875,-0.469818115234375,0.1443634033203125
1782987632337816800,9.69681689453125,-0.75421142578125,-0.486328125,0.1188507080078125
1782987632347891000,9.706890869140626,-0.744140625,-0.498992919921875,0.099334716796875
1782987632357965800,9.7169658203125,-0.7629547119140625,-0.503692626953125,0.0888824462890625
1782987632368040700,9.727040771484376,-0.8031005859375,-0.501617431640625,0.0909423828125
1782987632378114800,9.73711474609375,-0.8412322998046875,-0.4834747314453125,0.1004486083984375
1782987632388190000,9.74718994140625,-0.8669586181640625,-0.45263671875,0.1155242919921875
1782987632398264800,9.757264892578124,-0.8981170654296875,-0.4319610595703125,0.13604736328125
1782987632408339000,9.7673388671875,-0.9198760986328125,-0.4274749755859375,0.1497344970703125
1782987632418413800,9.777413818359374,-0.924407958984375,-0.4159393310546875,0.1606903076171875
1782987632428489000,9.787489013671875,-0.917388916015625,-0.4166412353515625,0.159881591796875
1782987632438563800,9.797563720703126,-0.9031524658203125,-0.4306182861328125,0.1647796630859375
1782987632448638000,9.807637939453125,-0.8752899169921875,-0.4388885498046875,0.1661224365234375
1782987632458712800,9.817712890625,-0.84014892578125,-0.44036865234375,0.15972900390625
1782987632468788000,9.8277880859375,-0.8046722412109375,-0.448944091796875,0.1558685302734375
1782987632478861800,9.83786181640625,-0.7761993408203125,-0.4632568359375,0.15618896484375
1782987632488937000,9.84793701171875,-0.7633209228515625,-0.4803924560546875,0.1556549072265625
1782987632499012000,9.85801220703125,-0.7672119140625,-0.4974517822265625,0.1517486572265625
1782987632509086000,9.8680859375,-0.778564453125,-0.498779296875,0.1447906494140625
1782987632519161000,9.8781611328125,-0.79266357421875,-0.4939422607421875,0.142059326171875
1782987632529235700,9.888235595703126,-0.8083953857421875,-0.4957733154296875,0.1505126953125
1782987632539310800,9.898310791015625,-0.8262939453125,-0.5079498291015625,0.1611175537109375
1782987632549385000,9.908385009765626,-0.84075927734375,-0.51678466796875,0.166656494140625
1782987632559459800,9.9184599609375,-0.846771240234375,-0.523040771484375,0.166015625
1782987632569535000,9.928534912109376,-0.847869873046875,-0.5300445556640625,0.1617889404296875
1782987632579608800,9.93860888671875,-0.8541259765625,-0.5385589599609375,0.15283203125
1782987632589684000,9.94868408203125,-0.8719329833984375,-0.5439453125,0.14447021484375
1782987632599758800,9.9587587890625,-0.890777587890625,-0.540435791015625,0.1297760009765625
1782987632609833000,9.9688330078125,-0.917816162109375,-0.5302276611328125,0.1148529052734375
1782987632619907800,9.978907958984376,-0.949554443359375,-0.522613525390625,0.10443115234375
1782987632629983000,9.98898291015625,-0.977783203125,-0.5140228271484375,0.1057586669921875
1782987632640057900,9.999057861328126,-0.9826202392578125,-0.512420654296875,0.1212921142578125
1782987632650132000,10.009132080078125,-0.959747314453125,-0.524078369140625,0.149566650390625
1782987632660207000,10.01920703125,-0.922576904296875,-0.5333709716796875,0.1711578369140625
1782987632670282000,10.029281982421875,-0.8947296142578125,-0.5311431884765625,0.1694183349609375
1782987632680356000,10.039356201171875,-0.894622802734375,-0.5268402099609375,0.1532745361328125
1782987632690431000,10.049430908203124,-0.92645263671875,-0.5086517333984375,0.1281585693359375
1782987632700505900,10.059505859375,-0.975372314453125,-0.4857635498046875,0.1165771484375
1782987632710580000,10.069580078125,-1.0156707763671875,-0.46759033203125,0.1307830810546875
1782987632720654800,10.07965478515625,-1.0243377685546875,-0.446685791015625,0.1500701904296875
1782987632730729700,10.089729736328126,-1.0011749267578125,-0.4262542724609375,0.170013427734375
1782987632740804900,10.099804931640625,-0.9784698486328125,-0.416107177734375,0.1895904541015625
1782987632750878700,10.109878662109375,-0.959869384765625,-0.4167022705078125,0.1937103271484375
1782987632760953900,10.119953857421875,-0.9459075927734375,-0.4123992919921875,0.182891845703125
1782987632771029000,10.130029052734375,-0.9337005615234375,-0.404022216796875,0.16876220703125
1782987632781102800,10.140102783203124,-0.91925048828125,-0.4048309326171875,0.17047119140625
1782987632791178000,10.150177978515625,-0.893798828125,-0.4117431640625,0.17523193359375
1782987632801252900,10.1602529296875,-0.8636932373046875,-0.4149627685546875,0.1866455078125
1782987632811328000,10.170327880859375,-0.8477020263671875,-0.4160308837890625,0.2035064697265625
1782987632821401900,10.18040185546875,-0.8375244140625,-0.4154052734375,0.2054443359375
1782987632831477000,10.19047705078125,-0.814910888671875,-0.4073944091796875,0.1952362060546875
1782987632841552100,10.20055224609375,-0.7944183349609375,-0.406524658203125,0.180877685546875
1782987632851626000,10.2106259765625,-0.794830322265625,-0.4086151123046875,0.170989990234375
1782987632861701000,10.220701171875,-0.8192138671875,-0.3970947265625,0.15869140625
1782987632871775500,10.230775390625,-0.8623504638671875,-0.3756561279296875,0.139678955078125
1782987632881849300,10.240849365234375,-0.91046142578125,-0.3587646484375,0.1194000244140625
1782987632891924500,10.250924560546874,-0.95025634765625,-0.3440704345703125,0.0998992919921875
1782987632901999400,10.260999267578125,-0.9528350830078125,-0.3490142822265625,0.0872344970703125
1782987632912074200,10.27107421875,-0.9381866455078125,-0.3472747802734375,0.0789337158203125
1782987632922148400,10.2811484375,-0.934539794921875,-0.3527679443359375,0.073760986328125
1782987632932223200,10.29122314453125,-0.9282379150390625,-0.3502655029296875,0.065521240234375
1782987632942298400,10.30129833984375,-0.9013519287109375,-0.3462982177734375,0.070556640625
1782987632952372200,10.311372314453125,-0.8706207275390625,-0.3498077392578125,0.093353271484375
1782987632962447400,10.321447265625,-0.8335418701171875,-0.351470947265625,0.1248779296875
1782987632972522200,10.331522216796875,-0.7830352783203125,-0.36285400390625,0.1479644775390625
1782987632982596400,10.341596435546874,-0.7328033447265625,-0.37701416015625,0.1592559814453125
