time,seconds_elapsed,z,y,x
1782987622722771700,0.081771728515625,0.3827303203195333,-1.328501643140614,-1.126579067805037
1782987622732845600,0.091845458984375,0.7971540020197629,-1.2503078118696809,-0.6863041018158197
1782987622742920700,0.101920654296875,1.1583411835730075,-1.1522682934001087,-0.3639268356502056
1782987622752995600,0.11199560546875,1.311440325963497,-1.0875853933483361,-0.2325735149912536
1782987622763069700,0.122069580078125,1.2258026084274052,-1.0082926609247922,-0.14249679209440946
1782987622773144600,0.13214453125,1.0327741912305355,-0.9549775425836443,-0.16296894062831996
1782987622783219500,0.142219482421875,0.7685486697822809,-0.9184773654431104,-0.21570158290639518
1782987622793293600,0.15229345703125,0.4855091422706842,-0.8920517153322696,-0.22455153657719493
1782987622803368400,0.162368408203125,0.2629553553819656,-0.7756812981411815,-0.14345219312310217
1782987622813443600,0.172443603515625,0.21124095023572442,-0.7246054831594229,0.03876300750598311
1782987622823518500,0.1825185546875,0.3412351113706827,-0.8221458199352025,0.24275837052762506
1782987622833592600,0.192592529296875,0.5401414806902408,-0.9870642871960997,0.4723839954987168
1782987622843667500,0.20266748046875,0.6783709707289933,-1.1021695067569612,0.5584159730494022
1782987622853742600,0.21274267578125,0.6405728627324104,-1.110989942072332,0.4149450752258301
1782987622863817000,0.22281689453125,0.29794425117671486,-1.045930902184546,0.04889525607228279
1782987622873891800,0.232891845703125,-0.3829354875028133,-0.9069541009098291,-0.28028182630129156
1782987622883967000,0.242967041015625,-1.1949211479514836,-0.6809092570349574,-0.42856348540745676
1782987622894040800,0.253040771484375,-1.8108464761614798,-0.3619993747189641,-0.39299445163719354
1782987622904116000,0.263115966796875,-2.1777923673719166,-0.10441636002510786,-0.26882344369776545
1782987622914191000,0.273191162109375,-2.2581606200724837,0.030502105769515037,-0.0969069342430681
1782987622924266000,0.283265869140625,-1.9646523055166005,0.030125965933501718,0.11452172058448194
1782987622934340000,0.293340087890625,-1.3987468534946441,-0.026892683100700376,0.35176892647519703
1782987622944415000,0.3034150390625,-0.8334142329245805,-0.08045330063551664,0.5063913329102099
1782987622954489900,0.31348974609375,-0.4508844036132097,-0.0975125719860196,0.5265831301327795
1782987622964564000,0.32356396484375,-0.38144963285923,0.0593625818118453,0.389421123195067
1782987622974638800,0.333638916015625,-0.526108863684535,0.41936610653847456,0.13202851650677622
1782987622984714000,0.3437138671875,-0.6693932990252971,0.7178294131532311,-0.03579224806688726
1782987622994787800,0.353787841796875,-0.635651772943139,0.8374328209161758,-0.05270999205484986
1782987623004863000,0.363863037109375,-0.2370750641942024,0.7656696072146296,0.044874768384546036
1782987623014937900,0.373937744140625,0.35687341000735756,0.5937050208345055,0.25645897909998894
1782987623025013000,0.384012939453125,0.8923334548830986,0.4337243022367358,0.5267218810163438
1782987623035086800,0.3940869140625,1.37333417981863,0.24526626169532537,0.6403890305981039
1782987623045162000,0.404161865234375,1.7113766326278448,0.10227993251830339,0.6673141546636819
1782987623055236900,0.41423681640625,1.7417162413120268,0.017095803968608377,0.6841410785630345
1782987623065311000,0.42431103515625,1.4448843352913856,0.02131809783875942,0.5159607599619775
1782987623075385900,0.4343857421875,0.8695856165021657,0.12457359739094973,0.25825879506357013
1782987623085461000,0.4444609375,0.23262451452612876,0.2804609091952443,-0.04468574861846864
1782987623095534800,0.454534912109375,-0.3257452812939882,0.37999388109296556,-0.29691183938905596
1782987623105610000,0.46460986328125,-0.8825193323552608,0.4242778439775109,-0.47349027624018486
1782987623115684900,0.474684814453125,-1.416402921694517,0.43399405908882616,-0.5760197996053844
1782987623125759700,0.484759765625,-1.8884020095288752,0.37963995308876036,-0.6916871100284159
1782987623135833900,0.494833740234375,-1.974655228614807,0.39464842938929795,-0.8494198305036872
1782987623145908700,0.50490869140625,-1.6533938147366045,0.37126813832372424,-0.950484468948096
1782987623155984000,0.51498388671875,-1.1045289293646812,0.27422435289323327,-0.7971002260059118
1782987623166057700,0.5250576171875,-0.4200193097501993,0.20081337198466062,-0.5551038528267294
1782987623176132900,0.5351328125,0.288439925250411,0.22255291010588407,-0.3774490919809788
1782987623186208000,0.5452080078125,0.9121265351116656,0.28259587539732456,-0.2507739922661334
1782987623196283000,0.555282958984375,1.346918466579914,0.25468700099140407,-0.13715002423897385
1782987623206357000,0.56535693359375,1.5476707560271024,0.2398205635100603,-0.07744067481607199
1782987623216431900,0.575431884765625,1.5033938074052333,0.30217677417993544,-0.11753449253439903
1782987623226507000,0.585507080078125,1.324171212720871,0.4031926781117916,-0.233073062011227
1782987623236580900,0.595580810546875,1.0230652826428412,0.5335626868218183,-0.31104470189884303
1782987623246656000,0.605656005859375,0.6258738907724618,0.6285600611165165,-0.35128238506726917
1782987623256731100,0.615731201171875,0.22056933507323265,0.7296417237609625,-0.44159408576376735
1782987623266805000,0.625804931640625,-0.008145312532782554,0.8270280390188097,-0.47072161524444817
1782987623276880100,0.635880126953125,-0.06361176368892192,0.8304813943430781,-0.3939702378667891
1782987623286954800,0.645954833984375,-0.06269523336589336,0.7667512649714946,-0.2216283426068723
1782987623297030000,0.65602978515625,0.01743161179423332,0.6156970724120736,0.031254677702486515
1782987623307104000,0.66610400390625,0.34934009189307685,0.5658163124337792,0.191567331668362
1782987623317179000,0.676178955078125,0.5866302601426839,0.5492430710345506,0.1971300803620368
1782987623327253800,0.686253662109375,0.5963081890702248,0.4489429141566157,-0.024917145244032143
1782987623337327900,0.696327880859375,0.42033962774574757,0.23099136036634443,-0.2557189013224095
1782987623347402800,0.70640283203125,0.32510756791234013,0.02925269023030996,-0.35829014493748546
1782987623357478000,0.716477783203125,0.23560616068542004,-0.07309095517396927,-0.49689606707319617
1782987623367551700,0.7265517578125,0.04973521402776241,-0.07774111906737088,-0.6353234177716076
1782987623377627000,0.736626953125,-0.27953707234859465,-0.05854278986155986,-0.7500752938501536
1782987623387702000,0.746701904296875,-0.5955407118290662,-0.00691547847688198,-0.7618468340560793
1782987623397777000,0.75677685546875,-0.8819552687317133,0.04619827207326889,-0.741271444343403
1782987623407851000,0.76685107421875,-1.036221701335907,0.10212415743470192,-0.6472331974044442
1782987623417926000,0.77692578125,-0.9476058447718619,0.1825581688478589,-0.49588360209502275
1782987623428001000,0.7870009765625,-0.7332207512915134,0.2393392097339034,-0.1455450006838888
1782987623438075000,0.797074951171875,-0.4555693465590477,0.19471739319711923,0.2435362960975617
1782987623448150000,0.80714990234375,-0.20470307289957998,0.10032061514407396,0.47622686159722505
1782987623458225000,0.817224853515625,0.017231120786070822,-0.010969137781858443,0.47302623892500995
1782987623468299800,0.8272998046875,0.293829801595211,-0.17809300613254309,0.3405402609743178
1782987623478374000,0.837373779296875,0.514859155395627,-0.4058119206994772,0.15324490753673017
1782987623488448800,0.84744873046875,0.7073024661809205,-0.6356304378941655,-0.05135945422872901
1782987623498524000,0.85752392578125,0.7661229039400815,-0.8808356170520186,-0.22433562880419194
1782987623508597800,0.86759765625,0.7132453002333641,-1.0594506012320517,-0.45649917475506663
1782987623518673000,0.8776728515625,0.6207973181605339,-1.167516131414473,-0.671990110585466
1782987623528748000,0.887748046875,0.4965069216251373,-1.1947574818223714,-0.8694450389876961
1782987623538822000,0.89782177734375,0.38348786068856716,-1.1990122166574,-0.9738768157776445
1782987623548897000,0.90789697265625,0.22710312075614927,-1.1724731692999601,-0.9733617789275943
1782987623558972000,0.917971923828125,0.06202654032409191,-1.079144605000317,-0.9197099029127508
1782987623569047000,0.928047119140625,-0.049589083555340766,-0.9816574597164988,-0.7753274432022124
1782987623579121000,0.938120849609375,-0.08463058632016182,-0.8995683745726942,-0.6582521656773984
1782987623589196000,0.948196044921875,-0.06240004981160163,-0.8685062968328595,-0.5608141202323138
1782987623599271000,0.95827099609375,0.07152209842205047,-0.824935158392787,-0.5084755918383598
1782987623609345000,0.968344970703125,0.2603027950465679,-0.8330503680482506,-0.49074002866148947
1782987623619420000,0.978419921875,0.4606967725753784,-0.8354664892792701,-0.5087967135515064
1782987623629494800,0.988494873046875,0.5494833095312118,-0.790577838499844,-0.4900785690780729
1782987623639569000,0.99856884765625,0.5091512991428375,-0.6387468163490295,-0.4255200260583311
1782987623649643800,1.008643798828125,0.4112485587954521,-0.4173606119349599,-0.22889036949910221
1782987623659719000,1.018718994140625,0.3347165232568979,-0.2712923910945654,0.019946005767956375
1782987623669793800,1.028793701171875,0.241445534363389,-0.18229133460521696,0.21598653732761738
1782987623679868000,1.038867919921875,0.0412567240178585,-0.1413940915495157,0.3301846519809216
1782987623689942800,1.04894287109375,-0.2425169629871845,-0.07125204930901527,0.34473047920577227
1782987623700018000,1.059017822265625,-0.4725064528346061,-0.04839022915959358,0.3152426650453359
1782987623710091800,1.069091796875,-0.5032786077171564,-0.07969196087419986,0.27816220379881557
1782987623720167000,1.0791669921875,-0.38274084171354766,-0.15050474198311567,0.27621304249241946
1782987623730242000,1.089241943359375,-0.1367985804527998,-0.2200532022446394,0.2699889072805643
1782987623740317000,1.09931689453125,0.09831365923583507,-0.22535043186992407,0.1884038992013782
1782987623750391000,1.10939111328125,0.3130231623649597,-0.30514263824820514,0.20497348733879625
1782987623760466000,1.1194658203125,0.6153022278755903,-0.42489539135396476,0.2717136121813208
1782987623770541000,1.129541015625,0.8746013988375664,-0.5048708453446626,0.37681663929633796
1782987623780615000,1.139614990234375,0.876785757139325,-0.48574704267978663,0.3778377259723842
1782987623790690000,1.14968994140625,0.603916910508275,-0.37247371472120283,0.23182832264713943
1782987623800765000,1.159764892578125,0.019946809485554693,-0.11824497889131307,0.11427461395561694
1782987623810839000,1.169839111328125,-0.6628484074264764,0.18198621417880056,0.014853212673589586
1782987623820914000,1.179913818359375,-1.1432938365668057,0.41639644307792184,-0.09713745506331324
1782987623830988800,1.18998876953125,-1.3943226073116064,0.5989478899240493,-0.07221333208922297
1782987623841064000,1.20006396484375,-1.4370675240606068,0.762431063684821,0.08435523997750133
1782987623851137800,1.2101376953125,-1.2996329837918281,0.799216487507522,0.26742417135909197
1782987623861213000,1.220212890625,-1.0063473720759153,0.6988365433916449,0.3873443534536287
1782987623871287800,1.230287841796875,-0.6063391692191362,0.531028784430027,0.4334583447769284
1782987623881362000,1.24036181640625,-0.17281038955450057,0.37862668439298863,0.4741856746258214
1782987623891436800,1.250436767578125,0.20824293746352193,0.21997136918008325,0.4617078858466819
1782987623901512000,1.260511962890625,0.45734804666936396,0.14813596702516077,0.38732985000424086
1782987623911587000,1.270587158203125,0.5566548085957765,0.11402794571816921,0.3008809622157365
1782987623921661000,1.280660888671875,0.48616146869957444,0.04902881932407617,0.2246837115895003
1782987623931736000,1.290736083984375,0.3219061415225267,0.000915069018304348,0.20473116648290304
1782987623941811000,1.30081103515625,0.16805471946001052,-0.03267535815536975,0.23105971289481966
1782987623951885000,1.310885009765625,0.10801496903896331,-0.03201864781230688,0.27323925084602085
1782987623961960000,1.3209599609375,0.11657821472287178,-0.04325549661964178,0.3214159468527883
1782987623972034800,1.331034912109375,0.08774725703597068,-0.04929506904482841,0.4111657758828252
1782987623982109000,1.34110888671875,0.07815466830432415,-0.012522504703700543,0.4064924137769267
1782987623992183800,1.351183837890625,0.01649403868317604,0.04859948799610138,0.3940022404402494
1782987624002259000,1.361259033203125,-0.0314490312308073,0.09994476756900549,0.4771014524746686
1782987624012333800,1.371333740234375,0.015008184039592741,0.17024404619783162,0.5698561989417299
1782987624022408000,1.381407958984375,0.12370061394870281,0.2338467497974634,0.613961919182539
1782987624032482800,1.39148291015625,0.2401771218627691,0.3143476889669895,0.633972295423597
1782987624042558000,1.401557861328125,0.3859031051367521,0.3910015973195433,0.6743541363030672
1782987624052631800,1.4116318359375,0.5690957724958657,0.4449462457358837,0.6983372886326163
1782987624062707000,1.42170703125,0.7215636312454938,0.44469373227953907,0.7345473237201571
1782987624072781800,1.43178173828125,0.7848854720771312,0.4061825075775385,0.6680396924592554
1782987624082856000,1.44185595703125,0.8581734111279249,0.30744711579829453,0.537165862412937
1782987624092931000,1.45193115234375,1.0125871432483196,0.16720950080752373,0.4085433914899826
1782987624103006000,1.462005859375,1.1553607064574956,0.030329964073002338,0.3330056642184034
1782987624113081000,1.4720810546875,1.1992816812485456,-0.08332944059371948,0.3216770820070058
1782987624123155000,1.482155029296875,1.2291285379797219,-0.15047376232296228,0.33507264321818947
1782987624133230000,1.49222998046875,1.2307295434355736,-0.216383573821187,0.36946843195799733
1782987624143304700,1.5023046875,1.2062135263383387,-0.2964963904559612,0.3953318450761959
1782987624153379000,1.512379150390625,1.149926990970969,-0.35751316921561954,0.44248051320947707
1782987624163453700,1.52245361328125,1.0115689061164856,-0.4263166563287377,0.5160084350286052
1782987624173528800,1.53252880859375,0.8190840942770242,-0.42279841907471416,0.5639926406705752
1782987624183604000,1.54260400390625,0.63426996319592,-0.41416999920010567,0.6262420664977282
1782987624193677800,1.552677734375,0.43047640635669226,-0.48468993484228845,0.637221068086475
1782987624203753000,1.5627529296875,0.2769283511549234,-0.5345756632566452,0.6087035967955365
1782987624213827800,1.572827880859375,0.12623977703750133,-0.5396241788178682,0.5237476875111461
1782987624223902000,1.58290185546875,0.003363338953256607,-0.5384525046899914,0.4904036728465929
1782987624233976800,1.592976806640625,-0.0358627560198307,-0.5058645325571298,0.5382380216890946
1782987624244052000,1.603052001953125,-0.04765139349102974,-0.46795302731394767,0.6080590883469209
1782987624254125800,1.613125732421875,-0.0764005181133747,-0.4450955910786986,0.6276011529564857
1782987624264201000,1.623200927734375,-0.016607435929775236,-0.4240983957573771,0.6003542861232534
1782987624274276000,1.633276123046875,-0.12038988196551799,-0.4612853861182928,0.673504972127825
1782987624284351000,1.64335107421875,-0.43023558333814144,-0.4250616878315806,0.7300323305137455
1782987624294425000,1.653425048828125,-0.8534726860910653,-0.3094330289185047,0.656384325978905
1782987624304500000,1.6635,-1.29160983633399,-0.23489362850189208,0.5383038534669206
1782987624314574800,1.673574951171875,-1.6738076572120189,-0.2849123356461525,0.3172116270307451
1782987624324649000,1.68364892578125,-1.8409020072072744,-0.3315285408705473,0.06787281866688281
1782987624334723800,1.693723876953125,-1.8350106110811233,-0.34635347729772326,-0.13141447626166045
1782987624344798700,1.703798828125,-1.6273673930764196,-0.4466191473841667,-0.08586889594346285
1782987624354873900,1.713873779296875,-1.1764952644228934,-0.6359206530123949,0.2437212972756475
1782987624364948000,1.723947998046875,-0.4861947864472866,-0.7428446119442582,0.5340856147173791
1782987624375022800,1.73402294921875,0.11587035871446132,-0.8069207782745361,0.6362286960482597
1782987624385098000,1.744097900390625,0.46961716113388535,-0.8588210613816976,0.5595382550776005
1782987624395171800,1.754171875,0.5210147554159165,-0.6568669949293137,0.32364801675379273
1782987624405247000,1.7642470703125,0.12278759075701236,-0.2946574845910072,-0.12205774211250245
1782987624415321900,1.77432177734375,-0.5023761059194803,0.08133651321083307,-0.6155666509654373
1782987624425396000,1.78439599609375,-1.0610703113883733,0.3361982862472534,-0.8450101973678916
1782987624435470800,1.794470947265625,-1.520257848444581,0.5380699351131916,-0.7537440454907715
1782987624445546000,1.8045458984375,-1.6582734034717082,0.6242571032255888,-0.5729563203815371
1782987624455621000,1.81462109375,-1.4626245746433735,0.6303802622810005,-0.2415548399567604
1782987624465695000,1.824695068359375,-1.05406423201859,0.5865645014300942,0.1336331021592021
1782987624475770000,1.83477001953125,-0.5062742824018002,0.5908613218411803,0.4097165999878198
1782987624485844700,1.8448447265625,-0.004807692542672157,0.5203071916684509,0.5567689364947378
1782987624495919000,1.854919189453125,0.3683715400993824,0.4713640048012137,0.6122486124586314
1782987624505993700,1.86499365234375,0.6166600722253323,0.49173634622246026,0.49964047041051085
1782987624516068900,1.87506884765625,0.7894605249077081,0.5215180287629365,0.2655312702845782
1782987624526142700,1.885142822265625,0.7357049693226814,0.5590788208723068,-0.05781221056468785
1782987624536217900,1.8952177734375,0.5419850627303123,0.6083379418209195,-0.3658515931677073
1782987624546293000,1.90529296875,0.2196422833561897,0.5933595683977008,-0.6052461863506585
1782987624556368000,1.915367919921875,-0.2262304295748472,0.5020569569677115,-0.850562059341371
1782987624566442000,1.92544189453125,-0.6531248857915402,0.48304275215715164,-1.080208215643838
1782987624576516900,1.935516845703125,-0.8384311843037605,0.6643006520614028,-1.1401424598637968
1782987624586592000,1.945592041015625,-0.6507026270806789,0.849474848626554,-0.9410696479361503
1782987624596665900,1.955665771484375,-0.20065525881350038,0.9407494030058383,-0.6287557298190891
1782987624606741000,1.965740966796875,0.36401860558688637,0.9540355855584144,-0.29478797910287974
1782987624616815900,1.97581591796875,0.9326362391769886,0.900680427467823,-0.08299509407281876
1782987624626891000,1.98589111328125,1.4511860657840967,0.8310255842223763,0.016540654303878546
1782987624636965000,1.995965087890625,1.9022358890920876,0.6767749337092042,0.035930925885215396
1782987624647040000,2.0060400390625,2.2023101380348202,0.4885030633896589,0.025119609013572335
1782987624657115000,2.016114990234375,2.3374743952840564,0.2737389074638486,-0.2010778681397438
1782987624667189000,2.02618896484375,2.3409207363456486,0.1852855479851365,-0.3580069440819323
1782987624677264000,2.036263916015625,2.082924464675784,0.16772124972194433,-0.37211861767321824
1782987624687338800,2.0463388671875,1.7095324660658835,0.13123685467243193,-0.5152110375732183
1782987624697412900,2.056412841796875,1.4336638530969619,0.12540829464942216,-0.6706261287558823
1782987624707487700,2.06648779296875,1.3902151719927787,0.12502484828978777,-0.6742544022556394
1782987624717563000,2.07656298828125,1.5510557222902774,0.0170142631649971,-0.5440601154386997
1782987624727638000,2.086637939453125,1.6872937462508677,-0.08178542602211236,-0.3005871669009328
1782987624737711900,2.0967119140625,1.6559236254751681,-0.19425912803560494,-0.04385930773168802
1782987624747787000,2.106787109375,1.3881085551023482,-0.24006343235522506,0.16894399644993244
1782987624757862000,2.11686181640625,1.0551789152622222,-0.22850188163816929,0.1807483429469168
1782987624767936000,2.12693603515625,0.7596458168804645,-0.19983459008038043,0.02964833848439157
1782987624778011000,2.137010986328125,0.6323614992260933,-0.22427286576628683,-0.04480959419384598
1782987624788086000,2.1470859375,0.612007277983427,-0.4005839569181204,-0.08985058599077164
1782987624798160000,2.157159912109375,0.497505285012722,-0.6313634280994534,-0.12931187795922158
1782987624808235000,2.167235107421875,0.38657355174422264,-0.7484364406019449,-0.183607970161736
1782987624818310100,2.17731005859375,0.23586802649199962,-0.8057856367647648,-0.27517463935539127
1782987624828384800,2.187384765625,0.03308043182492256,-0.7513295316949486,-0.2100155000939965
1782987624838459100,2.197459228515625,-0.13791618630588054,-0.6857759862884879,-0.15212810540124774
1782987624848533800,2.20753369140625,-0.23752339248359203,-0.6866711815625429,-0.0908703574925661
1782987624858608000,2.217608154296875,-0.2831459104955196,-0.7115808741524815,-0.014347674304246901
1782987624868682200,2.22768212890625,-0.3950140478312969,-0.7606281059160828,0.03547580252885818
1782987624878757000,2.237757080078125,-0.3661339903056621,-0.7818605712980031,0.08525909348204731
1782987624888832000,2.24783203125,-0.2932207297861576,-0.7736807719737291,0.18354001949205995
1782987624898907100,2.2579072265625,-0.16191139439940452,-0.7364505269929766,0.2831301284044981
1782987624908981200,2.267981201171875,0.008994038316607474,-0.7609872946172952,0.35337650780230756
1782987624919056100,2.27805615234375,0.17291209636330604,-0.8332669334083795,0.3883101662784815
1782987624929131300,2.28813134765625,0.3006330518692732,-0.9235276345700025,0.36605566437244413
1782987624939205000,2.298205078125,0.14398819969594479,-0.7138774606570601,0.47172684676423665
1782987624949280300,2.3082802734375,-0.06294833134412765,-0.5549164404958487,0.46068698183372614
1782987624959355100,2.318355224609375,-0.2548626498192549,-0.6356248849362135,0.5759327789090574
1782987624969429200,2.32842919921875,-0.3646761927127838,-0.9507076101794838,0.7282442780531942
1782987624979504000,2.338504150390625,-0.3478027993232012,-1.335144734416902,1.021881625816226
1782987624989579300,2.348579345703125,-0.5068506209850311,-1.4502467391073703,1.183074058291316
1782987624999654400,2.358654296875,-0.8152876246035099,-1.2117810973376035,0.940532691515237
1782987625009728300,2.368728271484375,-1.323533499339223,-0.9129936733350157,0.35873978840112686
1782987625019803400,2.378803466796875,-2.1721698513150214,-0.7000771911025047,-0.2345429153680801
1782987625029878000,2.3888779296875,-3.045472442513704,-0.49210108788162465,-0.6399266737833619
1782987625039952400,2.398952392578125,-3.2995874888360497,-0.3682280399754643,-0.7333660049811005
1782987625050027000,2.409027099609375,-2.7325480643481015,-0.33631139123290776,-0.6086407241597771
1782987625060102100,2.41910205078125,-1.6447347074627876,-0.3092015582501888,-0.3603906243480742
1782987625070176000,2.429176025390625,-0.5675578954041004,-0.25395664089024067,-0.009323124140501023
1782987625080251100,2.439251220703125,-0.15994214015305042,-0.1218514789506793,0.20785598397254942
1782987625090326300,2.449326171875,-0.17539105369746685,0.04724047460258007,0.24383140658661723
1782987625100401200,2.459401123046875,-0.1592412984073162,0.1629097577869892,0.24541063860207796
1782987625110475300,2.469475341796875,0.010745265898108482,0.24329028544723985,0.3495535885132849
1782987625120550100,2.479550048828125,0.15532617079019545,0.2095470057994127,0.5153602367855609
1782987625130625300,2.489625244140625,0.1995791540145874,0.345792628544569,0.4409463624447584
1782987625140699100,2.49969921875,0.0064876084536314,0.5823714336544275,0.35480274121314287
1782987625150774300,2.509774169921875,-0.20705401993989944,0.6788917797327041,0.36698520030751824
1782987625160849200,2.51984912109375,-0.3641881169348955,0.7465905204743146,0.3707296475328505
1782987625170924300,2.52992431640625,-0.3877694835305214,0.735487527179718,0.3713825584836304
1782987625180998400,2.539998291015625,-0.30310674850642677,0.6583984422802924,0.3469965975068509
1782987625191073300,2.5500732421875,-0.07926525989472866,0.5542915865957737,0.23888664366081355
1782987625201148200,2.560148193359375,0.10007014751434326,0.554956772506237,0.07907733610719442
1782987625211222300,2.57022216796875,0.023168694141507146,0.626220512253046,-0.11560644708126783
1782987625221297200,2.580297119140625,-0.22198855422139166,0.704549075819552,-0.29977555825710295
1782987625231372000,2.5903720703125,-0.48929801315963267,0.7323027596637606,-0.42607057261317965
1782987625241446100,2.600446044921875,-0.74119070725739,0.8015817553341388,-0.6329875221699476
1782987625251521000,2.61052099609375,-0.7045294943362475,0.8612067874744535,-0.811702751854062
1782987625261596200,2.62059619140625,-0.4757470421910286,0.8344538051053881,-0.8482134503886103
1782987625271671300,2.63067138671875,-0.1045955159842968,0.7695037785500287,-0.7405297591306269
1782987625281745200,2.6407451171875,0.4226584260821342,0.7513286549121141,-0.49102951312735676
1782987625291820300,2.6508203125,1.0171148498058318,0.7417693839281797,-0.22560601406618952
1782987625301895200,2.660895263671875,1.5535177284896373,0.7081675585776567,0.040354222220182416
1782987625311969300,2.67096923828125,1.9268658879578113,0.6732195793151855,0.1987130387045443
1782987625322044200,2.681044189453125,2.0899825664937497,0.6158996092468499,0.21075418963208795
1782987625332119300,2.691119384765625,2.0911089401751757,0.5323077183246612,0.1885381200402975
1782987625342193200,2.701193115234375,1.9682552984446287,0.4266881199896335,0.09473112457394599
1782987625352268300,2.711268310546875,1.6768781506985424,0.3372393197327852,-0.0070222998522222035
1782987625362343400,2.721343505859375,1.406697520238161,0.2008516581684351,-0.054997518470138305
1782987625372418000,2.73141796875,1.162280861109495,0.1145861641228199,-0.024009528879821298
1782987625382492400,2.741492431640625,0.9912228681802749,0.03590133446455002,0.03591097907572984
1782987625392567000,2.751567138671875,0.9730383921921253,-0.042754269099235534,0.123606067533046
1782987625402642200,2.76164208984375,1.1129846230208873,-0.10978548584282398,0.2236076798558235
1782987625412716000,2.771716064453125,1.368136611175537,-0.10648819786310196,0.3039554742902517
1782987625422791200,2.781791259765625,1.5855319923877715,-0.06966682594418526,0.44770635809898374
1782987625432866000,2.791865966796875,1.6295149264991282,-0.10415011030435561,0.5781263434305787
1782987625442941200,2.801941162109375,1.439154267206788,-0.14309680381417272,0.6382124172113836
1782987625453015300,2.812015380859375,0.99712537022233,-0.08100275121182203,0.5426796208657324
1782987625463090200,2.822090087890625,0.49086511634588237,-0.029917876140773295,0.3508458202809095
1782987625473165300,2.832165283203125,-0.014434768065810203,-0.07155570843070745,0.23039280995130537
1782987625483239200,2.8422392578125,-0.4927244804769754,-0.12843611803799868,0.1392261729259044
1782987625493314300,2.852314208984375,-0.9120154759526252,-0.15630962886959313,0.02818995636962354
1782987625503389200,2.86238916015625,-1.1690426103293896,-0.0612251608133316,-0.053065819755196565
1782987625513463300,2.87246337890625,-1.1978881810635327,0.05184095413535833,-0.010242504007741808
1782987625523538200,2.8825380859375,-1.0653536877959966,0.053251989977061744,0.090156729330495
1782987625533613300,2.89261328125,-0.9235328952670097,0.012747253370285034,0.11037928701750933
1782987625543688200,2.902688232421875,-0.7993219937086105,0.0040653497427701945,-0.0474823935996741
1782987625553762300,2.91276220703125,-0.6593786854892969,-0.05141776028722524,-0.19194843994043767
1782987625563837200,2.922837158203125,-0.42853170202970503,-0.1400701494693756,-0.2889491168815642
1782987625573912000,2.932912109375,-0.10753273847997188,-0.26207185054570437,-0.3241317816827446
1782987625583986200,2.942986083984375,0.1992337015777826,-0.37327100257873536,-0.35238406269885597
1782987625594061000,2.95306103515625,0.4231488399475813,-0.45071167739480733,-0.3430116195239126
1782987625604136200,2.96313623046875,0.4792120879530906,-0.5078995455160736,-0.36952224450446663
1782987625614211300,2.97321142578125,0.23228081565499303,-0.5866249994456768,-0.42486010084487497
1782987625624285200,2.98328515625,-0.09349427625536919,-0.7498027605190872,-0.41715325279459353
1782987625634360300,2.9933603515625,-0.22120529488921165,-0.9944345237031579,-0.32159451829008756
1782987625644435200,3.003435302734375,-0.13501871129870413,-1.2526561285614966,-0.2605132959920913
1782987625654509300,3.01350927734375,-0.13928747465908525,-1.2384694900378583,-0.4859923957429826
1782987625664584200,3.023584228515625,-0.60905485791862,-0.9491898990929126,-0.9700754507333039
1782987625674659300,3.033659423828125,-1.4121674760818481,-0.6049260875508189,-1.2619202159911393
1782987625684733200,3.043733154296875,-2.1668846043884753,-0.11310820052474736,-1.4390414544820784
1782987625694808300,3.053808349609375,-2.6140292369514704,0.3379009985119104,-1.3618044855445623
1782987625704883200,3.06388330078125,-2.6368700143128634,0.5445581280887126,-1.0066873446200042
1782987625714958000,3.0739580078125,-2.195524423417449,0.6070137074798345,-0.5666953602906316
1782987625725032200,3.0840322265625,-1.473295021739602,0.5703922420471906,-0.20662622298188507
1782987625735107000,3.094107177734375,-0.8130909913420676,0.470707002197206,-0.00915427037961781
1782987625745182200,3.10418212890625,-0.2609475226908922,0.3318284005999565,-0.02429353345297277
1782987625755256000,3.114256103515625,0.16432956145703792,0.21604075173288584,-0.25321875506974756
1782987625765331200,3.124331298828125,0.5067366392165422,0.18873978009223938,-0.63544485219419
1782987625775406000,3.134406005859375,0.7824357408374547,0.15457126076966524,-1.0092961388789117
1782987625785480200,3.144480224609375,0.9159463856607675,0.1520811975196004,-1.295326080378145
1782987625795555000,3.15455517578125,0.6947153718084097,0.2287342290893197,-1.6441361570477484
1782987625805630200,3.164630126953125,0.06091419516801834,0.37080081307291984,-1.9796844549536703
1782987625815705300,3.174705322265625,-0.4749912553876638,0.4804822540193796,-2.153356137512624
1782987625825779200,3.184779296875,-0.8273872277200222,0.48377866521626706,-2.144547977156937
1782987625835854300,3.194854248046875,-0.9357470646739006,0.4799927169367671,-1.9959248111367225
1782987625845929200,3.20492919921875,-0.7758873421072959,0.5199275447010994,-1.7345028028018772
1782987625856003300,3.21500341796875,-0.43042730651795863,0.6097519002720714,-1.4353557517066597
1782987625866079000,3.225078857421875,-0.014019757524132728,0.6744540895462036,-1.1074089417804032
1782987625876153600,3.235153564453125,0.4622860875934362,0.7012503265351057,-0.8525345284581184
1782987625886228700,3.245228759765625,0.8965800064116716,0.6854109523683786,-0.6402412196252495
1782987625896302600,3.255302490234375,1.277814535215497,0.6237412626579404,-0.469221951271221
1782987625906377700,3.265377685546875,1.573796546408534,0.5645388398438692,-0.33424452183097597
1782987625916452900,3.275452880859375,1.774320287796855,0.4944979198902845,-0.24017259181812403
1782987625926526700,3.285526611328125,1.8280951326042412,0.39232115548551083,-0.2134036812275648
1782987625936601900,3.295601806640625,1.7356746230602262,0.30785832694768905,-0.25766053690947593
1782987625946676700,3.3056767578125,1.5530354979306458,0.1938134300947189,-0.4113032115921378
1782987625956750800,3.315750732421875,1.2188146492362022,0.06613456016480922,-0.57616797590442
1782987625966825700,3.32582568359375,0.8283487662285566,0.009587035773694515,-0.7686658664211631
1782987625976900900,3.33590087890625,0.5139169061094522,-0.029482115072011945,-0.87315609540008
1782987625986976000,3.34597607421875,0.24555939942300317,-0.057333121810853475,-0.8983907090954482
1782987625997049900,3.3560498046875,-0.002552607092261314,-0.06857435453236102,-0.9416245784051716
1782987626007125000,3.366125,-0.1136754790186882,-0.09856149651706218,-0.9913286666423082
1782987626017199900,3.376199951171875,-0.12875380568504333,-0.14474398649930953,-1.0250793989442288
1782987626027274000,3.38627392578125,-0.06326221959888935,-0.16299451346099375,-0.9747143625803292
1782987626037348900,3.396348876953125,-0.07752396918535231,-0.20854016684442758,-0.866010461429134
1782987626047423700,3.406423828125,-0.11173954252004623,-0.25738456951230765,-0.8252789303291589
1782987626057498600,3.41649853515625,-0.14528466924726963,-0.25263620594143865,-0.8325476792231201
1782987626067572700,3.42657275390625,-0.16740180850923062,-0.2783320804730058,-0.8785118502795696
1782987626077647600,3.436647705078125,-0.12490531356334686,-0.3061582450315356,-0.8696922917470336
1782987626087722800,3.44672265625,-0.07077917110025882,-0.35717765365093945,-0.847027017083019
1782987626097796600,3.456796630859375,-0.07048924824297428,-0.4082929238602519,-0.8115174584150314
1782987626107871700,3.466871826171875,-0.08464227675795555,-0.42077918820679183,-0.8063407864294946
1782987626117947000,3.47694677734375,-0.06056582012176513,-0.42655104960650203,-0.7842850219659507
1782987626128020700,3.487020751953125,0.003011456775665283,-0.5017784322872758,-0.7295345370594412
1782987626138095900,3.497095947265625,0.08097557094395161,-0.5616425338804721,-0.6636101125139743
1782987626148170800,3.507170654296875,0.18576923984885216,-0.6066600717365741,-0.6268525996115059
1782987626158246000,3.517245849609375,0.22588731522560118,-0.681681994973123,-0.6212564601048827
1782987626168319700,3.52731982421875,0.200732415702939,-0.7295458621710539,-0.5949040213607252
1782987626178395000,3.537394775390625,0.026754151412844655,-0.7265136548683047,-0.5285093489550053
1782987626188469800,3.5474697265625,-0.20813246282637118,-0.6555488980680704,-0.516418732862547
1782987626198544000,3.5575439453125,-0.38295010055005546,-0.5782110991045832,-0.523860646366328
1782987626208618800,3.56761865234375,-0.45452363689839836,-0.6013593349799513,-0.4302645171716809
1782987626218693600,3.577693603515625,-0.27824410992860793,-0.8395157646700739,-0.12694346832744777
1782987626228767700,3.587767822265625,0.1941273183494806,-1.0839093351840972,0.24519451163336634
1782987626238842600,3.597842529296875,0.6219967570781707,-1.0503235841855405,0.27415114152655
1782987626248917800,3.607917724609375,0.6979232279390096,-0.9261085909739136,-0.17847499118745325
1782987626258993000,3.617992919921875,0.1722515866279602,-0.7679279075354337,-0.7291459030680358
1782987626269066800,3.628066650390625,-0.7760708819806575,-0.6320297830536962,-0.9729672997172921
1782987626279142000,3.638141845703125,-1.720559471514821,-0.5054083132222295,-0.9404248472265898
1782987626289216800,3.648216796875,-2.3574948545277117,-0.3258496184512973,-0.8122367856655269
1782987626299291000,3.658290771484375,-2.5853876643568277,-0.06481880139112473,-0.5730107539825141
1782987626309365800,3.66836572265625,-2.404526654815674,0.15433511392623186,-0.2557560915276408
1782987626319441000,3.67844091796875,-1.9790438189625739,0.2651876444786787,0.06031776364482939
1782987626329515800,3.688515869140625,-1.5055302349120379,0.265989023989439,0.33758974060565233
1782987626339590000,3.69858984375,-1.1586679313093424,0.30105069275945423,0.42403307543620467
1782987626349664800,3.708664794921875,-0.7848451400667429,0.4032078756809234,0.33255978361442684
1782987626359740000,3.718739990234375,-0.36224691973924633,0.5471805855467915,0.27259156405963003
1782987626369813800,3.728813720703125,0.12382570163309574,0.5794453170746564,0.3173610454387963
1782987626379889000,3.738888916015625,0.5232078815460205,0.544005462642014,0.4573843600917607
1782987626389963800,3.7489638671875,0.8022896113425493,0.5217123822912574,0.5340270894631743
1782987626400038000,3.759037841796875,0.958055342593789,0.537567538549006,0.5482609281294047
1782987626410112800,3.76911279296875,0.8400643384635448,0.5180599972635507,0.5321867953587323
1782987626420187600,3.779187744140625,0.6153776311993598,0.527645571732521,0.5207389341492206
1782987626430262800,3.7892626953125,0.39972120260894295,0.559815026192367,0.4964554836988449
1782987626440336600,3.799336669921875,0.16953180627524853,0.5822568673640489,0.5044119225960224
1782987626450411800,3.809411865234375,-0.056581718921661375,0.5880410037234425,0.5103678353257477
1782987626460487000,3.81948681640625,-0.2692261062145233,0.6351064140200614,0.46912155963666735
1782987626470560800,3.829560791015625,-0.4515823227494955,0.7401137256756425,0.3004551380190998
1782987626480636000,3.839635986328125,-0.5723176571518183,0.8230845620900392,0.1373874131914228
1782987626490710800,3.849710693359375,-0.6725467946201562,0.8261530097499489,0.0019350597158074379
1782987626500786000,3.859785888671875,-0.7208060908764601,0.8437877429008483,-0.10899660048745571
1782987626510859800,3.86985986328125,-0.6269184313893318,0.8695210268333554,-0.16890695237517356
1782987626520935000,3.879934814453125,-0.46399230698943134,0.835780085273087,-0.1604598804168403
1782987626531009800,3.890009765625,-0.19664719221591948,0.7905933283299207,-0.08341755726858972
1782987626541084000,3.900083984375,0.12426993826925754,0.7646390951231121,-0.01476210032403469
1782987626551158800,3.91015869140625,0.47839258826375003,0.7816895986452699,-0.015366422892734408
1782987626561233700,3.920233642578125,0.8807575833797454,0.7317658763080835,-0.015749869252368806
1782987626571307800,3.930307861328125,1.257068099784851,0.6283206994026899,-0.0544708642475307
1782987626581382700,3.940382568359375,1.5597890638440846,0.5174269600570202,-0.10094751487076283
1782987626591457800,3.950457763671875,1.7260639141499996,0.45733927884101866,-0.08687412746325135
1782987626601532700,3.96053271484375,1.8005483695089817,0.42507863896638154,-0.026877193270623684
1782987626611606800,3.970606689453125,1.7439876933753489,0.41537294524908064,0.056111397996172305
1782987626621681700,3.980681640625,1.5696008482843637,0.4178609626725316,0.14794884695522487
1782987626631756800,3.9907568359375,1.3694167141139506,0.38562195010781286,0.22360044639743865
1782987626641830700,4.00083056640625,1.1683698256343602,0.3047486704945564,0.2236987922053784
1782987626651905800,4.01090576171875,0.9881628960877656,0.20028759454488754,0.22994915783703326
1782987626661981000,4.02098095703125,0.8258908516824245,0.11523264533281326,0.19381620657369494
1782987626672054800,4.0310546875,0.5737228477746248,0.0391565368682146,0.1801197627197951
1782987626682130000,4.0411298828125,0.40650165652930736,0.015652034901082516,0.19315840025208889
1782987626692204800,4.051204833984375,0.3213584445118904,-0.02313888352513313,0.16644816104620694
1782987626702279700,4.06127978515625,0.2934638908922672,-0.05205167427659035,0.1237080666027963
1782987626712353800,4.071353759765625,0.28196751436591144,-0.11446019965559244,0.05140570452325046
1782987626722428700,4.0814287109375,0.2521843705207109,-0.15543284603506327,-0.006678454850614071
1782987626732503800,4.09150390625,0.19839023649096488,-0.1989034467101097,-0.006248100609332323
1782987626742577700,4.10157763671875,0.10211071343123912,-0.2199412663027644,-0.016086334665119648
1782987626752652800,4.11165283203125,-0.034793080961704255,-0.20778730265051126,-0.014954188830032944
1782987626762727700,4.121727783203125,-0.16147943272292614,-0.18580781829357146,0.0056564183264970775
1782987626772802800,4.131802734375,-0.21415479185581207,-0.2288970184355974,0.09506707853004336
1782987626782876700,4.141876708984375,-0.26857904048264025,-0.2954363600090146,0.18553338526636362
1782987626792951800,4.151951904296875,-0.3366974679410457,-0.31057343112528324,0.19312449798248707
1782987626803026700,4.162026611328125,-0.35520693809986115,-0.3279325622051954,0.17457878746651112
1782987626813100800,4.172100830078125,-0.32117315107285976,-0.362721259252727,0.14314853400141
1782987626823176000,4.182176025390625,-0.32057635422348973,-0.4303942810311913,0.08381810089349746
1782987626833250800,4.192250732421875,-0.31752690352499485,-0.4873398648291826,-0.007193930092081427
1782987626843325000,4.202324951171875,-0.3227396697372198,-0.5703361279457807,-0.07490574951097369
1782987626853399800,4.21239990234375,-0.3438526003926992,-0.6290978212550282,-0.12474464310891925
1782987626863475200,4.22247509765625,-0.3817214355379343,-0.6394435664415359,-0.1422363145273179
1782987626873550000,4.232550048828125,-0.37849955088198184,-0.6143661160692572,-0.13681633530519902
1782987626883624200,4.242624267578125,-0.38187224218547344,-0.582448882804811,-0.05164725819416344
1782987626893699000,4.252698974609375,-0.4135217644244432,-0.5920867719829083,0.04888568452633917
1782987626903774200,4.262774169921875,-0.4725684121549129,-0.679313512276113,0.12952091760002077
1782987626913848000,4.27284814453125,-0.2884106991559267,-0.9094193219795823,0.36097726512961087
1782987626923923200,4.282923095703125,0.041865211305022236,-0.9962044559851289,0.4876040687233209
1782987626933998000,4.292998046875,0.29771511859595773,-0.9278238704591989,0.38708398548439144
1782987626944072200,4.303072265625,0.2562678404420614,-0.8872977988034486,0.08981324965506791
1782987626954147000,4.31314697265625,-0.17755670729875564,-0.802127991040051,-0.17057831965349612
1782987626964222200,4.32322216796875,-0.8232832995325327,-0.67364949516505,-0.38431210961826145
1782987626974297300,4.33329736328125,-1.3749082972675561,-0.4385606363520026,-0.3908966756403446
1782987626984371200,4.34337109375,-1.7524071466743945,-0.15854980901181698,-0.2734139132931828
1782987626994446300,4.3534462890625,-1.9409633868932723,0.0920727190196514,-0.03553374326117337
1782987627004521200,4.363521240234375,-1.9128420387804508,0.287376972194016,0.23060871772430835
1782987627014595300,4.37359521484375,-1.6454840645253657,0.4325447370633483,0.465646723132953
1782987627024670200,4.383670166015625,-1.2090057874053717,0.5261597170889377,0.6002236089482903
1782987627034745300,4.393745361328125,-0.6098451315134763,0.526675849917531,0.694429905930534
1782987627044820000,4.403820068359375,-0.01112228251695633,0.42065965348035095,0.754926387143135
1782987627054894300,4.413894287109375,0.5197463429152965,0.2868345358803868,0.8118824192699045
1782987627064969000,4.423968994140625,0.911266118890047,0.19789865358173847,0.8175263434410095
1782987627075044000,4.434044189453125,1.1243237631589174,0.1311386549949646,0.6981283220570534
1782987627085118000,4.444117919921875,1.092661965960264,0.08261223223507404,0.5177751159075648
1782987627095193000,4.454193115234375,0.8072457724452018,0.06262567526102066,0.2234752856478095
1782987627105268200,4.464268310546875,0.21426760458052158,0.12517185554504393,-0.10425481278784572
1782987627115342000,4.474342041015625,-0.4383130913317203,0.25592268026620146,-0.3875385973840952
1782987627125417200,4.484417236328125,-0.9346686217874288,0.3531397764369845,-0.5268411234818399
1782987627135492000,4.4944921875,-1.219458207836747,0.4541416518434882,-0.5135347749240696
1782987627145567200,4.504567138671875,-1.1741390566855667,0.5610846077367663,-0.35172231085449457
1782987627155641000,4.51464111328125,-0.8507254332095384,0.6321317821234465,-0.07031579137220978
1782987627165716200,4.52471630859375,-0.2871908019721508,0.6654743720158934,0.22230565734654664
1782987627175791400,4.534791259765625,0.39805356165766714,0.6380369145140051,0.4652195106968283
1782987627185865200,4.544865234375,1.0072942975372075,0.5447834612771868,0.6782707252249122
1782987627195940400,4.5549404296875,1.5323136124193668,0.4664741869330406,0.8375962678495794
1782987627206015200,4.56501513671875,1.91407421092391,0.39662323659360404,0.9033720046393573
1782987627216090000,4.575090087890625,2.147146469217539,0.3582189793974161,0.8968153495375066
1782987627226164200,4.585164306640625,2.241071538105607,0.2929156093597412,0.9294207111965864
1782987627236239000,4.595239013671875,2.1730928113788366,0.200452721978724,0.9426314173601568
1782987627246314200,4.605314208984375,2.0402730714291333,0.1093617074728012,0.9158923904512077
1782987627256388000,4.61538818359375,1.7686784825175998,0.008429097910225392,0.8738246423114091
1782987627266463200,4.625463134765625,1.4176216498345136,-0.06193915430158376,0.808509801031649
1782987627276538000,4.6355380859375,1.0593448027700185,-0.07536269949823618,0.7346435506362468
1782987627286612200,4.6456123046875,0.7081611288368701,-0.06064297701120376,0.635558176375553
1782987627296687000,4.65568701171875,0.4002122009962797,-0.05717880803197622,0.5800147875256836
1782987627306762200,4.66576220703125,0.10933481946587562,-0.028559447269141672,0.5188882647812366
1782987627316837000,4.675837158203125,-0.13899112206101416,0.029505203686654567,0.47848866904936727
1782987627326911200,4.6859111328125,-0.3125099521458149,0.10144903465211391,0.4667221703447401
1782987627336986000,4.695986083984375,-0.38509938753843304,0.1954436616450548,0.5096232275035232
1782987627347061200,4.706061279296875,-0.36402854245901106,0.28603140280395745,0.6243832138232887
1782987627357135000,4.716135009765625,-0.24165888485312462,0.3670627955883741,0.781752361683175
1782987627367210200,4.726210205078125,-0.04298457072377205,0.46345103971958157,0.9549801729321479
1782987627377285000,4.73628515625,0.10958850196599959,0.5422255934879183,1.0966923905201256
1782987627387360000,4.746360107421875,0.1827823329925537,0.6478954607054591,1.1577033971261232
1782987627397434000,4.75643408203125,0.20659049408137797,0.7745628155052662,1.1449500062759965
1782987627407509000,4.766509033203125,0.12506956421434878,0.8681430164784193,1.1372657353837043
1782987627417584000,4.776584228515625,-0.015053776746988295,0.8973208879068494,1.1264102871093897
1782987627427658000,4.786657958984375,-0.022335165926814077,0.8896098751381039,1.0854729312390088
1782987627437733000,4.796733154296875,0.08404372634291649,0.8488181382834911,1.0006623852420597
1782987627447808300,4.806808349609375,0.2547568513572216,0.8134305985599756,0.9092303752787411
1782987627457882000,4.816882080078125,0.454190459421277,0.8022171306282282,0.7913874743822962
1782987627467957200,4.826957275390625,0.641200054720044,0.7703758852094411,0.7359405316442251
1782987627478032100,4.8370322265625,0.8122001799821853,0.6782113962531089,0.7722162523791194
1782987627488107300,4.847107177734375,0.9434364501327276,0.528729275316,0.9297669673509895
1782987627498181000,4.85718115234375,1.0680489182293413,0.19816519556343554,1.2235118671417236
1782987627508256300,4.86725634765625,1.2863029620975255,-0.1716542052567005,1.5395191598840057
1782987627518331100,4.8773310546875,1.4906746110856532,-0.2168418389827013,1.5573831717461346
1782987627528405200,4.8874052734375,1.1686509806632994,-0.01806172639131546,1.3668858804620803
1782987627538480400,4.89748046875,0.126201198592782,0.1544879664003849,1.0821866030447185
1782987627548555000,4.907554931640625,-1.3479250132739544,0.3454173654913902,0.6390191304843872
1782987627558629400,4.91762939453125,-2.8747359366238117,0.5737739934399724,0.2633953177018091
1782987627568704300,4.927704345703125,-3.8796395396322008,0.7122592118054628,0.14749401585981248
1782987627578779100,4.937779052734375,-4.049622012284398,0.745120155660808,0.369549059446156
1782987627588854000,4.94785400390625,-3.453313823214173,0.7816130262777209,0.820451583237946
1782987627598928100,4.95792822265625,-2.4774714795172215,0.7902171884939074,1.418693370719254
1782987627609003000,4.9680029296875,-1.4619108734160662,0.7673594599977135,2.003257053720951
1782987627619078100,4.978078125,-0.6144611008763313,0.6765314803421497,2.362998274249583
1782987627629152000,4.988152099609375,-0.06170622232854366,0.597236409831047,2.4868930955961344
1782987627639227100,4.99822705078125,0.18181378022134304,0.6287950389161706,2.33710410066694
1782987627649302300,5.00830224609375,0.1474731192022562,0.6578007686480879,1.9993911720730364
1782987627659377200,5.018377197265625,-0.08852759375870227,0.6081301442891359,1.6636851993873714
1782987627669451300,5.028451171875,-0.46787528590261934,0.5393506225734949,1.3810454848483205
1782987627679526100,5.038526123046875,-0.8448702774405479,0.5047995336741209,1.167530671396479
1782987627689601300,5.048601318359375,-1.165613804924488,0.5631950240194797,1.0303339584715663
1782987627699675100,5.058675048828125,-1.371508717957139,0.6595034809127449,1.0177163228303194
1782987627709750300,5.068750244140625,-1.4590636672914028,0.7244768883436918,1.0754949233863502
1782987627719825200,5.0788251953125,-1.3718138383835554,0.8011623608782887,1.169631223872304
1782987627729899300,5.088899169921875,-1.0423504133492707,0.892394245159626,1.2486517152257264
1782987627739974100,5.09897412109375,-0.5155202496528625,0.9070677904173732,1.3210561494402586
1782987627750049000,5.109049072265625,0.08527648300826549,0.9074348701640963,1.439841518818587
1782987627760124200,5.119124267578125,0.649766223013401,0.8653948868140577,1.5570238369144498
1782987627770198000,5.129197998046875,1.0523615197539329,0.8213391797274351,1.670623766478896
1782987627780273200,5.139273193359375,1.3720014699101448,0.7826838703796267,1.7440403003454208
1782987627790348000,5.14934814453125,1.4997645109921693,0.7353200616583228,1.8401010660879313
1782987627800422100,5.159422119140625,1.5085820236980914,0.7213008886560798,1.985802353312075
1782987627810497300,5.169497314453125,1.450306944862008,0.7496525383934378,2.1382048917405307
1782987627820572200,5.179572265625,1.2860410962909459,0.7976829943299293,2.301530390721559
1782987627830647300,5.189647216796875,0.9776561151206493,0.8333683479562402,2.39270937577188
1782987627840721200,5.19972119140625,0.5467758041381836,0.8478954704806209,2.3491170484133064
1782987627850796300,5.20979638671875,0.08370178103744984,0.830738876235485,2.2163694969169794
1782987627860871000,5.219870849609375,-0.3619534897506237,0.7883762368023395,2.044087369020283
1782987627870944800,5.22994482421875,-0.6622574557960033,0.7004597606793046,1.8448612662270665
1782987627881020000,5.24002001953125,-0.8133505190610885,0.6240180337727069,1.658919007898867
1782987627891094800,5.2500947265625,-0.8827677541583776,0.550751137509942,1.5362749172657728
1782987627901169000,5.2601689453125,-0.8871464076340198,0.4661129524052143,1.4903518088720737
1782987627911243800,5.270243896484375,-0.9095125532209872,0.4100193092614412,1.4973346534967422
1782987627921318700,5.280318603515625,-1.0238917965948582,0.3997948523670435,1.5039567019850015
1782987627931393800,5.290393798828125,-1.0740607258647679,0.4176633942738175,1.4906915622204542
1782987627941467600,5.300467529296875,-1.0484563290089368,0.42664574215263124,1.4455892686903475
1782987627951542800,5.310542724609375,-0.9708318220585584,0.41861937982439995,1.418051857945323
1782987627961617700,5.32061767578125,-0.7887175975859164,0.3718520756915211,1.4250146826952694
1782987627971691800,5.33069189453125,-0.5224602780491113,0.3056698769927025,1.4091340997353194
1782987627981766700,5.3407666015625,-0.3500853573024273,0.1923307903215289,1.4106211234226822
1782987627991841800,5.350841796875,-0.21958149307966232,0.10179302578419447,1.4033435336351394
1782987628001915600,5.36091552734375,-0.18537761018276214,0.04526186800599098,1.2854742561884223
1782987628011990800,5.37099072265625,-0.17356325374841688,-0.013486089038848877,1.1789840124987065
1782987628022066000,5.38106591796875,-0.18814006063342092,-0.04393588009923696,1.1141238561838864
1782987628032140800,5.391140869140625,-0.168753223118186,-0.026427988198399543,1.0466432882376016
1782987628042215000,5.40121484375,-0.13168226035237313,-0.02523644032627344,1.0145483603186904
1782987628052289800,5.411289794921875,-0.09333236369192599,-0.07129179679751396,1.0117553685992955
1782987628062365000,5.421364990234375,-0.00844224965274334,-0.14392507133185864,1.0266766780730336
1782987628072438800,5.431438720703125,0.06247779122292995,-0.30592355949282646,1.0711698267288505
1782987628082514000,5.441513916015625,0.2881301286488771,-0.41537382203191514,1.0982217920444906
1782987628092588800,5.4515888671875,0.45350773785412307,-0.2909600913777947,0.9324952963363379
1782987628102663700,5.46166357421875,0.2811018374472856,-0.021240356427431106,0.6359579162828624
1782987628112737800,5.47173779296875,-0.20458967565298078,0.18688158500492572,0.4013045993428677
1782987628122812700,5.481812744140625,-0.8549608788222074,0.40530426343828435,0.1643817483020015
1782987628132887800,5.4918876953125,-1.4094085327625274,0.7679147557929158,-0.011224628646578638
1782987628142961700,5.501961669921875,-1.6527525942236183,1.0806918344423173,-0.021982863624114543
1782987628153036800,5.512036865234375,-1.6044669944822787,1.2424340097546576,0.22561125649688765
1782987628163111700,5.522111572265625,-1.3258411917597055,1.3191305882051587,0.6151050978682935
1782987628173185800,5.532185791015625,-1.0034177483648061,1.331381290230155,0.9792357855275273
1782987628183260700,5.5422607421875,-0.8340425939559936,1.3657222435101866,1.186287467379868
1782987628193335800,5.552335693359375,-0.7020821011841297,1.3653218460157512,1.1473275490622967
1782987628203411000,5.562410888671875,-0.5306324785888195,1.3406009539961814,0.9674345077704638
1782987628213484800,5.57248486328125,-0.38726445661783215,1.2733908735543489,0.7807292291805148
1782987628223560000,5.582559814453125,-0.2490408117979765,1.2207760124370455,0.5869070677900686
1782987628233634800,5.592634765625,-0.18262509660422802,1.1836606260076163,0.28765768883153797
1782987628243709000,5.602708984375,-0.24062545015215872,1.1492489455789328,0.04443002029173076
1782987628253783800,5.61278369140625,-0.40800329326391216,1.1065957987666128,-0.036052433373034
1782987628263858700,5.622858642578125,-0.6004734920561313,1.067078027370572,-0.0621952479545027
1782987628273933800,5.632933837890625,-0.6548673455446958,1.0430676217079162,-0.05737210211437195
1782987628284007700,5.643007568359375,-0.6193944656252861,0.997561715812981,-0.03463259317036718
1782987628294082800,5.653082763671875,-0.46214930947124955,0.9552350244760512,-0.02639514537472278
1782987628304157700,5.66315771484375,-0.24142682966291903,0.9512047460466623,-0.011804054236039519
1782987628314231800,5.673231689453125,-0.020194646766781805,0.9722177234590053,0.036033509476855394
1782987628324306700,5.683306640625,0.13605565313100815,1.034942182919383,0.07334865626208484
1782987628334381800,5.6933818359375,0.25548575015366076,1.0799863165214658,0.1600170320201665
1782987628344455700,5.70345556640625,0.36899639399945733,1.0527858826458454,0.20530750506613402
1782987628354530800,5.71353076171875,0.5800514662742614,1.0062512182250618,0.31144926411174234
1782987628364606000,5.72360595703125,0.7781821750462055,0.9471911264911294,0.4567010540027171
1782987628374680800,5.733680908203125,0.9852841257810592,0.8674027195051311,0.5552188209759071
1782987628384755000,5.7437548828125,1.0802812078148125,0.7579498266175388,0.5986406871384009
1782987628394829800,5.753829833984375,1.074208025380969,0.6661831048071384,0.5940045883029699
1782987628404905000,5.763905029296875,0.9984463896930217,0.6045481941491365,0.5946288576811551
1782987628414978800,5.773978759765625,0.9861398658275604,0.5069654795363545,0.541044019020535
1782987628425054000,5.784053955078125,1.0721189441472292,0.41426527626812454,0.48165849472451955
1782987628435128600,5.794128662109375,1.14483405174613,0.29809476556330916,0.43040209901146587
1782987628445203000,5.804202880859375,1.1190122127473354,0.18785335264652966,0.3550174799423665
1782987628455277600,5.814277587890625,1.0672206507116555,0.10969137781858443,0.25619864766336975
1782987628465352700,5.824352783203125,0.9017647155731916,0.07015168685168027,0.19852756260242313
1782987628475427800,5.834427734375,0.6644552581012249,0.08713000192046165,0.19913056999687104
1782987628485501700,5.844501708984375,0.408583723500371,0.12604630029201508,0.2538340374238789
1782987628495576800,5.854576904296875,0.19316168818771837,0.19302900171875953,0.2922991579618305
1782987628505651700,5.864651611328125,0.0020616087049245835,0.23114187475293874,0.3427460273902863
1782987628515725800,5.874725830078125,-0.1592290234476328,0.19925766697525976,0.3647674877254292
1782987628525800700,5.88480078125,-0.2213338897049427,0.1683145394399762,0.43560686458032577
1782987628535875800,5.894875732421875,-0.3096598234117031,0.13335370069593191,0.5548717611039057
1782987628545951000,5.904950927734375,-0.36466157966554164,0.07305968325287103,0.6615216888673603
1782987628556024800,5.91502490234375,-0.2858738741546869,0.008066402077674865,0.6636413844350725
1782987628566100000,5.925099853515625,-0.12266659472584723,-0.031220775432884693,0.5792699970403686
1782987628576174800,5.9351748046875,0.043699440994858736,-0.13581833724379538,0.4669751587251201
1782987628586249000,5.9452490234375,0.14702712900042533,-0.24058161101043224,0.32455530432444063
1782987628596323800,5.95532373046875,0.10779577333033084,-0.3058928720936179,0.1647593677090481
1782987628606398700,5.965398681640625,-0.03397007414102554,-0.3495549036875367,0.12857497851941735
1782987628616472800,5.975472900390625,-0.19094576570391653,-0.38470045134872194,0.12703045249115674
1782987628626547700,5.985547607421875,-0.2848363478004932,-0.41844694586694237,0.156794087918289
1782987628636622800,5.995622802734375,-0.3281745542675257,-0.41351007398664946,0.1844395256150514
1782987628646697700,6.00569775390625,-0.22077508677840232,-0.41536973037868735,0.24989308124575763
1782987628656771800,6.015771728515625,-0.015575170272588729,-0.43715076955407856,0.3193446935366839
1782987628666846700,6.0258466796875,0.2052911019206047,-0.4323822399780154,0.3968686261894181
1782987628676921900,6.035921875,0.3842699509769678,-0.4246314797207713,0.5245980937954038
1782987628686995700,6.04599560546875,0.5213210448861122,-0.39297406643629074,0.6306950273185968
1782987628697070800,6.05607080078125,0.6442769779473543,-0.4207964316025376,0.7372548291131854
1782987628707145700,6.066145751953125,0.7021966674745083,-0.41625381973683834,0.8633684224877506
1782987628717220900,6.076220947265625,0.7529553793311119,-0.37785628454238174,0.9764853908408433
1782987628727294700,6.086294677734375,0.6845932062447071,-0.3719152040556073,1.0486359964247793
1782987628737369900,6.096369873046875,0.39176059899330135,-0.3146595313951373,1.0238936962909997
1782987628747445000,6.106445068359375,-0.07754092032015324,-0.2006681182950735,0.9493559033095836
1782987628757518800,6.116518798828125,-0.5401204379022121,-0.10968290225118398,0.8156886796850711
1782987628767594000,6.126593994140625,-0.9361059611141681,-0.139416653996706,0.8325191107157617
1782987628777668600,6.136668701171875,-1.0763356850594281,-0.4006465007603168,1.105478850500658
1782987628787743000,6.146742919921875,-0.7678273697704077,-0.7471364639192819,1.4983414924517273
1782987628797817600,6.156817626953125,-0.3381897523254156,-0.7125801143229007,1.6264172527447343
1782987628807892700,6.166892822265625,-0.20974398967623709,-0.4997197461917996,1.4595591957233844
1782987628817967900,6.1769677734375,-0.538169888356328,-0.24118951377570627,0.9570829173650592
1782987628828041700,6.187041748046875,-1.22829267167747,-0.11694470994770526,0.35787900685332713
1782987628838116900,6.197116943359375,-2.0148440311402083,-0.10237462506443261,-0.05005911221988499
1782987628848191700,6.207191650390625,-2.682476750233769,0.025386954712867737,-0.2940394257578999
1782987628858265900,6.217265869140625,-3.1214094347685575,0.21497546058893202,-0.35758221586383876
1782987628868340500,6.227340576171875,-3.221858936989307,0.4714391158640384,-0.18993870755322276
1782987628878415400,6.237415283203125,-3.0036469786971804,0.698202337141335,0.11125110141597687
1782987628888489500,6.247489501953125,-2.4718033707529306,0.77818305182904,0.43545090683363374
1782987628898564400,6.257564453125,-1.7148609676122664,0.6869190188437699,0.6687516401208937
1782987628908639500,6.267639404296875,-0.7864742025732994,0.5835986373618245,0.7762277530428021
1782987628918714600,6.277714599609375,0.1794055500358343,0.45989510080367324,0.9019031011305749
1782987628928788500,6.28778857421875,0.9741326171696185,0.3504425001770258,0.9845708629451692
1782987628938863600,6.297863525390625,1.4993378100126982,0.373764046792686,0.9799009714379906
1782987628948938500,6.3079384765625,1.6794009471744298,0.5310854830533266,0.8749811919353901
1782987628959012600,6.3180126953125,1.4197715213447808,0.7556336586296558,0.6671366061396896
1782987628969087500,6.32808740234375,0.8484569037556647,0.9861796133160591,0.43513577646985646
1782987628979162400,6.338162353515625,0.14562427646517753,1.1058712838843465,0.2041056915283203
1782987628989237200,6.3482373046875,-0.4944529117047786,1.2085688572928308,-0.019765973025932908
1782987628999311400,6.358311279296875,-1.0640519575476646,1.4031675925463438,-0.2170532167110592
1782987629009386200,6.36838623046875,-1.4488275199592113,1.511624752394855,-0.35599604265093804
1782987629019461400,6.37846142578125,-1.525194720324874,1.575836820064485,-0.37116350890547034
1782987629029535500,6.388535400390625,-1.3653379203677176,1.6427426568627357,-0.3270715614616871
1782987629039610400,6.3986103515625,-1.0132996754318475,1.6383558200806378,-0.2744965208981186
1782987629049685500,6.408685546875,-0.534148962277174,1.6012164682537315,-0.2291872335538268
1782987629059759400,6.41875927734375,-0.020586860954761504,1.558820803333819,-0.2356329025618732
1782987629069834500,6.42883447265625,0.5142910001188516,1.4904484011143444,-0.24869689373113213
1782987629079909400,6.438909423828125,0.9814642752319573,1.4029752848446368,-0.21839016440324485
1782987629089984500,6.448984619140625,1.3331149821549653,1.2553843844816088,-0.16427943870499728
1782987629100058400,6.459058349609375,1.5464590421497821,1.1330959754183887,-0.17756876306273042
1782987629110133500,6.469133544921875,1.6612591412842272,1.023890043029189,-0.21734840026535093
1782987629120208400,6.47920849609375,1.6808733578145503,0.8970575607955455,-0.29102314667664464
1782987629130282500,6.489282470703125,1.635986752861738,0.7964224728748202,-0.32238691077679393
1782987629140357400,6.499357421875,1.531346813213825,0.7129828499048948,-0.37085349310822785
1782987629150431500,6.509431396484375,1.4466659580111503,0.6714984546110033,-0.36971338316239416
1782987629160506400,6.51950634765625,1.3195856384962796,0.6432160707175731,-0.3215651460651308
1782987629170581200,6.529581298828125,1.1195791989803314,0.5941217849418521,-0.2060343215033412
1782987629180655400,6.5396552734375,0.8590016786456107,0.5509425684288144,-0.0334526992034167
1782987629190730200,6.549730224609375,0.5788812534511089,0.5047092250421643,0.0688346859689802
1782987629200805400,6.559805419921875,0.370951619720459,0.45217473568469285,0.0892298968091607
1782987629210879200,6.569879150390625,0.22042086651325224,0.36998832764625544,0.11321275687776505
1782987629220954400,6.579954345703125,0.0841302355825901,0.27376024251282216,0.1323334908027202
1782987629231029500,6.590029541015625,-0.10930383980572222,0.19220278002768754,0.1094224977493286
1782987629241103400,6.600103271484375,-0.3090197719424963,0.14445990886092186,0.06989427802450955
1782987629251178500,6.610178466796875,-0.45039866592288014,0.11898965977877378,0.00828172532878816
1782987629261253400,6.62025341796875,-0.5078577522009611,0.09849603006541728,-0.051806028952449554
1782987629271328500,6.63032861328125,-0.45147886237502094,0.07354571320414542,-0.0053013943437486884
1782987629281402400,6.64040234375,-0.3243903595536947,0.02757657371163368,0.11369396452344953
1782987629291477500,6.6504775390625,-0.15624094754755496,-0.012949497944116591,0.2794514398917556
1782987629301552600,6.660552734375,0.017118892583251,-0.05623743552863598,0.43499607573822135
1782987629311626500,6.67062646484375,0.14821253939270973,-0.11556056211292744,0.5657056186009198
1782987629321701600,6.68070166015625,0.2434276480913162,-0.16447276932001112,0.5851614296991378
1782987629331776300,6.6907763671875,0.2582452779948711,-0.20517419754266739,0.5425084290172905
1782987629341850600,6.7008505859375,0.21976854008436203,-0.26427345224320886,0.4829401685655117
1782987629351925200,6.71092529296875,0.11235621311366557,-0.37649405627846716,0.4411266143824905
1782987629362000400,6.72100048828125,-0.03181260384619236,-0.4536041839659214,0.35762769897338
1782987629372075300,6.7310751953125,-0.08728490022122859,-0.4910381348252296,0.31775453826840966
1782987629382149400,6.7411494140625,-0.11426643064916134,-0.5046645091176033,0.320843663390167
1782987629392224300,6.751224365234375,-0.1582470266729593,-0.5137205067545175,0.3734142104417085
1782987629402299400,6.76129931640625,-0.2556412329763174,-0.5497498515129089,0.4187771642019972
1782987629412373200,6.771373291015625,-0.41936698332130906,-0.5748571125015616,0.39328799122367053
1782987629422448400,6.781448486328125,-0.5726806452453136,-0.627723610292375,0.249174776908569
1782987629432523500,6.7915234375,-0.6700953098148107,-0.7143126372039318,0.2193410719199106
1782987629442598400,6.801598388671875,-0.6560726296812296,-0.9948080331906676,0.4991167387973517
1782987629452672500,6.811672607421875,-0.35871757656931874,-1.238237142586708,0.8044177094124257
1782987629462747400,6.821747314453125,-0.2149894891142845,-1.1765487481757997,0.8156739935725927
1782987629472822500,6.831822509765625,-0.44632045669853687,-0.9347364263266325,0.5576539026357233
1782987629482896400,6.841896484375,-0.9829080442994832,-0.6392571039587259,0.22607165881656108
1782987629492971500,6.851971435546875,-1.67533501290977,-0.4032075834199786,0.0756532434100285
1782987629503046400,6.86204638671875,-2.266719189581275,-0.2643336579978466,0.10224529959633946
1782987629513120500,6.87212060546875,-2.556865334227681,-0.07845540481656789,0.10524155880287289
1782987629523195400,6.8821953125,-2.4932868882864714,0.2734878553122282,0.033955168832838535
1782987629533270300,6.892270263671875,-2.2028379613012072,0.5343827710330487,0.022751162849180398
1782987629543345400,6.902345458984375,-1.8292659299492835,0.6281696004942059,0.05851546346321702
1782987629553419300,6.912419189453125,-1.384284028378129,0.6139326930880546,0.1046394281912595
1782987629563494400,6.922494384765625,-0.8317319789260625,0.5517682055979967,0.1050053388942033
1782987629573569500,6.932569580078125,-0.21559622283577917,0.4664727256283164,0.15716708594914525
1782987629583643400,6.942643310546875,0.34198213034570213,0.4108978456616401,0.23757614558413623
1782987629593718500,6.952718505859375,0.753887691745162,0.40772009240835905,0.252389903030172
1782987629603793400,6.96279345703125,0.8844704664230346,0.4479924815639853,0.2430622488450259
1782987629613867500,6.972867431640625,0.7411199801087379,0.48981122337877747,0.07677081273049116
1782987629623942400,6.9829423828125,0.3999368911862373,0.5072632934391498,-0.15131854258403182
1782987629634017500,6.993017578125,-0.06909633257985115,0.5756733973205089,-0.3661183908777311
1782987629644092400,7.003092529296875,-0.4347258804947138,0.6450313034459948,-0.49823798320144413
1782987629654166500,7.01316650390625,-0.6516688417643308,0.7444099615648389,-0.5076818476447835
1782987629664241400,7.023241455078125,-0.7204588848739862,0.8695581439733505,-0.38452904030457136
1782987629674316300,7.03331640625,-0.650597997662425,0.9667664723157882,-0.1666505517505109
1782987629684390400,7.043390380859375,-0.44933600512742994,1.03586163585186,0.07593907461408525
1782987629694465300,7.05346533203125,-0.006131050100922584,1.043179849910736,0.34091453764680774
1782987629704540400,7.06354052734375,0.5891185698270798,0.9864578457355498,0.5950828850589692
1782987629714615300,7.073615234375,1.1111638373345136,0.8981517857730388,0.8737561801850795
1782987629724689400,7.083689453125,1.5222949072301386,0.8108920199930667,1.0074027994129806
1782987629734764300,7.093764404296875,1.8697499160289763,0.7529910351663828,1.0430856688212602
1782987629744839400,7.10383935546875,2.133675577747822,0.6809300075620413,1.0240168112140149
1782987629754913300,7.113913330078125,2.255907872709632,0.555079814364016,1.0141026623778044
1782987629764988400,7.123988525390625,2.227247595414519,0.4518064868941903,0.9615343438159674
1782987629775063600,7.1340634765625,2.10803494053483,0.38151685287654397,0.8746639426797628
1782987629785137400,7.144137451171875,1.8542583323866129,0.3733782623454928,0.7794114976454526
1782987629795212500,7.154212646484375,1.4959668722748756,0.34402094269692896,0.6425559993736446
1782987629805287400,7.164287353515625,1.101079081171751,0.3519385839536786,0.4982009391266852
1782987629815362600,7.174362548828125,0.7724930234938859,0.3404141503766179,0.3428648314643651
1782987629825436400,7.1844365234375,0.5148281757354736,0.3314893779039383,0.2327179649632424
1782987629835511600,7.194511474609375,0.3204962747246027,0.2900903228059411,0.20406652856171129
1782987629845586200,7.204586181640625,0.17128829455375671,0.27002514763772484,0.24738873374201356
1782987629855660500,7.21466064453125,0.1410457165032625,0.27184651784598823,0.3604448387533426
1782987629865735400,7.2247353515625,0.13549568116068839,0.2873953846335411,0.54144153043814
1782987629875810600,7.234810546875,0.12404022116661072,0.2806850733399391,0.7314413935940712
1782987629885884400,7.244884521484375,0.12168050629794597,0.2890893290698528,0.8904609390094875
1782987629895959600,7.25495947265625,0.07072597960829734,0.317043503922224,0.9537385753732174
1782987629906034400,7.265034423828125,0.10475567498207092,0.314695479491353,1.0073091297801584
1782987629916109600,7.275109619140625,0.15073708943426609,0.23216011188477276,1.0499655645281076
1782987629926183700,7.28518359375,0.22633388994932174,0.14379004677534102,1.0260112729668616
1782987629936258600,7.295258544921875,0.2787503058850765,0.01884557024538517,0.907653116024658
1782987629946333700,7.305333740234375,0.35466976248323917,-0.0834174111381173,0.7970259917259216
1782987629956407600,7.315407470703125,0.40721126610338687,-0.13908026164919138,0.7014965563811362
1782987629966482700,7.325482666015625,0.3437491400182247,-0.23484219057559966,0.6390927071772515
1782987629976557600,7.3355576171875,0.2373983047991991,-0.3324573461532593,0.6274354410007595
1782987629986632700,7.3456328125,0.09075871381163597,-0.32926088819950816,0.6827178408268839
1782987629996706600,7.35570654296875,-0.042916766184568404,-0.3196700530335307,0.7829711628884076
1782987630006781700,7.36578173828125,-0.10973755504786968,-0.2924479918479919,0.9028023880578577
1782987630016856600,7.375856689453125,-0.14483224930465222,-0.2555278357297182,1.0001176108408718
1782987630026930700,7.3859306640625,-0.2177566157400608,-0.22991496330648659,1.049327705015987
1782987630037005600,7.396005615234375,-0.35949499068260193,-0.20696049643754957,1.0284029173437506
1782987630047080400,7.40608056640625,-0.44844636281132694,-0.17943769873976706,0.9467162755209952
1782987630057154600,7.416154541015625,-0.48391748916506766,-0.11593319481760263,0.8706453546881675
1782987630067229400,7.4262294921875,-0.48504327832460403,-0.07598901470303535,0.8596966751724481
1782987630077304600,7.4363046875,-0.41360067487955093,-0.1265393445059657,1.0044679880701004
1782987630087379700,7.446379638671875,-0.16677344747781753,-0.4030661291226744,1.403737501388788
1782987630097453600,7.45645361328125,0.19404197815358637,-0.4964598676130175,1.6544260803937911
1782987630107528700,7.46652880859375,0.19127017535269258,-0.2346785244464874,1.5081205436661838
1782987630117603600,7.476603515625,-0.36576691055893895,0.15571575462967158,1.2320792044788598
1782987630127677700,7.486677734375,-1.1776461880236864,0.4454579946503043,1.0125690961349756
1782987630137752600,7.496752685546875,-1.7836387357622383,0.6321072322040796,0.812874499047175
1782987630147827700,7.50682763671875,-1.8542548252552746,0.808364547342062,0.8149054934181272
1782987630157902600,7.516902587890625,-1.474255391204357,0.8320894140616059,0.9450202852580696
1782987630167976700,7.526976806640625,-0.7975953160464763,0.8690034327000379,1.109451553523913
1782987630178051600,7.537051513671875,-0.18404373123049736,0.8906254819214343,1.237905134153366
1782987630188126500,7.54712646484375,0.13661679414510727,0.8959852553889155,1.3163853811502455
1782987630198200600,7.55720068359375,0.09841010534763335,0.9274947846353053,1.2877145824611187
1782987630208275500,7.567275390625,-0.11254852081537246,1.025880047802627,1.145947273685038
1782987630218350600,7.5773505859375,-0.32738603423833845,1.1439958473563194,1.0047450514458118
1782987630228424400,7.587424560546875,-0.46414545172452926,1.244766252094507,0.9102760118741542
1782987630238499600,7.59749951171875,-0.46845220900774,1.3329486856773496,0.8881347610842436
1782987630248574500,7.607574462890625,-0.3746177410125732,1.3921405870974064,1.0039735556166618
1782987630258649600,7.617649658203125,-0.2144493908882141,1.3399182324290275,1.1338882217746227
1782987630268723500,7.627723388671875,-0.024356442621350286,1.206577098953724,1.2276818463027477
1782987630278798600,7.637798583984375,0.2760094827443361,1.1177721495583652,1.2033718001063913
1782987630288873700,7.647873779296875,0.6305120719671249,1.025167807880044,1.106422926417738
1782987630298947600,7.657947509765625,0.8810013290077447,0.898380918353796,1.0367400991868227
1782987630309022700,7.668022705078125,0.8118325157135724,0.8081430135458707,0.9347725936185568
1782987630319097600,7.67809765625,0.4709346734732389,0.7937444858372211,0.8084038564391434
1782987630329172700,7.6881728515625,0.02994330284297466,0.8589689454197883,0.6866166748963296
1782987630339246600,7.69824658203125,-0.3736906892955303,0.9563082066655159,0.6058807944597676
1782987630349321700,7.70832177734375,-0.6817015764564275,1.0610177044183016,0.625406419391185
1782987630359396600,7.718396728515625,-0.8724749082028865,1.1261021710082888,0.7380263980075716
1782987630369470700,7.728470703125,-0.9570727612972258,1.2177078570380806,0.9265664177440106
1782987630379545600,7.738545654296875,-0.9170452868133783,1.2501420999139548,1.1020794903859497
1782987630389620500,7.748620361328125,-0.7754886981785297,1.2178542797714471,1.2239848184157163
1782987630399694600,7.758694580078125,-0.4757382743626833,1.1670233794614673,1.3229098144829272
1782987630409769500,7.76876953125,-0.115078331553936,1.090476438614726,1.348311382243037
1782987630419844600,7.7788447265625,0.2316775890648365,0.9962491719096899,1.3812575201638042
1782987630429919500,7.78891943359375,0.507718051469326,0.8985866700589656,1.3761454378470777
1782987630439993600,7.79899365234375,0.7014706912875175,0.8191980760455131,1.345530373222381
1782987630450068500,7.809068359375,0.7478203545302152,0.7653504582628607,1.3504805429756641
1782987630460143600,7.8191435546875,0.6752016930431127,0.738749451585114,1.408066178242862
1782987630470217500,7.829217529296875,0.5600456200778484,0.6935790612548589,1.4437874799653887
1782987630480292600,7.839292724609375,0.4641892908662557,0.6394996805429458,1.445239724600315
1782987630490367700,7.84936767578125,0.3779442550867796,0.5945055235624312,1.4131770915158093
1782987630500441600,7.859441650390625,0.26041911490261554,0.5678150850355624,1.3836043755508958
1782987630510516700,7.869516845703125,0.1360661745250225,0.5566776049494743,1.3381658358037472
1782987630520591600,7.879591552734375,0.01410685128569603,0.5423062575086951,1.3114509934879839
1782987630530666500,7.88966650390625,-0.13735036911666393,0.5062544086575508,1.3065357489176095
1782987630540740600,7.89974072265625,-0.3180670017510652,0.513288837338984,1.3311165018141269
1782987630550815500,7.9098154296875,-0.42169747209548947,0.5372545270770788,1.2873394655384123
1782987630560890600,7.919890625,-0.49025721358060836,0.5340700518220662,1.2463961913838981
1782987630570964500,7.929964599609375,-0.49974984906911846,0.5365498859390616,1.1986276012539863
1782987630581039600,7.94003955078125,-0.5184983886808157,0.5118406843572855,1.1227321100533008
1782987630591114500,7.950114501953125,-0.5608189425379038,0.4556269219651818,1.0346114896602927
1782987630601188600,7.960188720703125,-0.6139858845800161,0.4009305783987045,0.9116255998522043
1782987630611263500,7.970263427734375,-0.6819330471247435,0.34342589941322804,0.8213795117378234
1782987630621338600,7.980338623046875,-0.7774842559099197,0.28614216970205303,0.7821418724574148
1782987630631413800,7.990413818359375,-0.8739315367519855,0.2491638536557555,0.7731956188052892
1782987630641487600,8.000487548828126,-0.925225670659542,0.20739245811402796,0.8246023462418466
1782987630651562800,8.010562744140625,-0.8171458196908236,0.16064531998634338,0.915987448323518
1782987630661637600,8.0206376953125,-0.5988970365196467,0.04045096059292554,1.0528813058443367
1782987630671711700,8.030711669921875,-0.29937983693778514,-0.17084464243948458,1.1969997077912091
1782987630681786600,8.04078662109375,-0.028292613026499748,-0.36530718409270047,1.305325350214541
1782987630691861500,8.050861572265624,0.20002105256319044,-0.500336416785419,1.327740595640242
1782987630701936400,8.060936279296875,0.373202613517642,-0.5634560130432248,1.2843410143747924
1782987630712010500,8.071010498046874,0.350781522873044,-0.4313336077079177,1.0892161363553254
1782987630722085400,8.08108544921875,0.044721769779920574,-0.12695581635236738,0.7897770435109734
1782987630732160500,8.091160400390624,-0.4013315604150295,0.19859394236952066,0.591024805307202
1782987630742234400,8.101234375,-0.9592997896969317,0.4270888097450137,0.6868471226513385
1782987630752309500,8.1113095703125,-1.4542518830955027,0.5870633908629417,0.98117961307168
1782987630762384600,8.121384521484375,-1.6970593534618614,0.7579454427033663,1.2622270899832249
1782987630772458500,8.13145849609375,-1.64704298440516,0.8304957151293754,1.4728279887497424
1782987630782533600,8.14153369140625,-1.3780518559902906,0.7535176893889903,1.5802593126818536
1782987630792608500,8.1516083984375,-1.101245085388422,0.6301625278770924,1.45008380363062
1782987630802683600,8.16168359375,-0.9691104050934314,0.5735334626823664,1.1029794349003583
1782987630812757500,8.171757568359375,-0.9881325009495019,0.6391200335755944,0.7494383111208677
1782987630822832600,8.18183251953125,-0.9957125808149576,0.7628671170145273,0.5832539155773818
1782987630832907800,8.19190771484375,-1.0172300006181,0.7544085007488727,0.5537308839730918
1782987630842981600,8.201981689453126,-0.964540028437972,0.8419540977329015,0.5581145789500326
1782987630853056800,8.212056884765625,-0.8251900099366902,1.0083195489317178,0.4835964405171573
1782987630863131600,8.222131591796876,-0.727309481421113,1.1212424560174346,0.3967800345905125
1782987630873206000,8.2322060546875,-0.6533072566211223,1.148703586655855,0.3327292584298178
1782987630883281000,8.242281005859375,-0.6188777482748031,1.0793547406196593,0.25583244469948113
1782987630893355800,8.252355712890624,-0.5175327585190534,1.0059259317934512,0.2100162307463586
1782987630903431000,8.262430908203125,-0.338935017734766,0.9442056809395551,0.2093948839776218
1782987630913504800,8.2725048828125,-0.09757833069860934,0.937027459873259,0.28826402069423346
1782987630923580000,8.282579833984375,0.15491291381418704,0.958853799495101,0.4726327095627784
1782987630933655000,8.292655029296874,0.39535599313676356,0.9903227044701576,0.6872106222014874
1782987630943729000,8.30272900390625,0.5359416909128427,1.0069847931966185,0.8873257827889174
1782987630953804000,8.312803955078126,0.6511907028585672,0.9801265968874097,1.0023397438697517
1782987630963879000,8.32287890625,0.6959709248274565,0.963061188057065,1.013440837468207
1782987630973953000,8.332953125,0.6867167742699384,0.9775850957110523,0.9957783395275474
1782987630984028000,8.34302783203125,0.6636719987690448,0.9669967739403247,0.9320726870100945
1782987630994103000,8.35310302734375,0.599563975995779,0.8781927013278007,0.871684196216613
1782987631004178000,8.363177978515624,0.484573322725296,0.7986354727491736,0.8261763906255364
1782987631014252000,8.373251953125,0.35315643531084057,0.7153460719048976,0.6884607683930546
1782987631024327000,8.383326904296876,0.2680138078153133,0.6518988511279225,0.5276454621346667
1782987631034401800,8.39340185546875,0.2707715820908546,0.6162099903702736,0.3961034870358184
1782987631044476200,8.40347607421875,0.33555005147159095,0.5975584813922643,0.3373986019477248
1782987631054550800,8.41355078125,0.3677034315794706,0.5880827970385551,0.3877629807244986
1782987631064626000,8.4236259765625,0.3939969797432422,0.5859890396296977,0.46257619311381126
1782987631074699800,8.43369970703125,0.24411153870224953,0.5597393306076527,0.4583267555084079
1782987631084775000,8.44377490234375,0.06865911020636559,0.5799506362482905,0.4298884869335219
1782987631094849800,8.453849853515624,0.0054489130556583405,0.5462316142588853,0.4118182119095698
1782987631104925000,8.463925048828125,0.051173137876391404,0.5126227746456862,0.43196825234964487
1782987631114998800,8.473998779296876,0.08413783436715602,0.49959524302929637,0.4636166055448353
1782987631125074000,8.484073974609375,0.029832828205823895,0.5477510789111256,0.482728169782646
1782987631135149000,8.494149169921876,0.0466290647059679,0.5989508125334978,0.5144744303943589
1782987631145223000,8.504222900390625,0.12559329582750797,0.5757251275077462,0.58685208619982
1782987631155298000,8.514298095703126,0.23914368716180323,0.523361610803008,0.7101974569700658
1782987631165373000,8.524373046875,0.30011867260634895,0.5427572161465883,0.7951222039312124
1782987631175448000,8.534447998046875,0.29316578472852706,0.559139903409779,0.833374193175137
1782987631185522000,8.54452197265625,0.3246399504005909,0.5342071222051977,0.8480046299435198
1782987631195597000,8.55459716796875,0.41035774743556974,0.4890606972724199,0.8747834774062037
1782987631205672000,8.564671875,0.46722237495183944,0.4291483726233244,0.8571553201265633
1782987631215746000,8.57474609375,0.5143061976879835,0.3852852654993534,0.796186033770442
1782987631225821000,8.584821044921876,0.5112684374272823,0.3596013736665249,0.7083852199163287
1782987631235895800,8.594895751953125,0.4697849189162254,0.34075288081169125,0.6721365333188325
1782987631245970000,8.604969970703126,0.3731973528206348,0.3241661954089999,0.6435178301431238
1782987631256044800,8.615044921875,0.1647521707832813,0.3428855089262128,0.6530027937818318
1782987631266120000,8.625119873046875,-0.12198270411491394,0.38542233588248487,0.6944254489511251
1782987631276194800,8.63519482421875,-0.39242052420675755,0.41643356021791694,0.7455098125655204
1782987631286269000,8.64526904296875,-0.521375405421853,0.5013701437473297,0.7923528853483498
1782987631296343800,8.65534375,-0.4955927293896675,0.5384390606865287,0.8462313366606831
1782987631306419000,8.6654189453125,-0.3369710241854191,0.5426669075146318,0.8843648140914737
1782987631316493000,8.6754931640625,-0.17922610181570053,0.500692390616238,0.9548325080897658
1782987631326568000,8.68556787109375,-0.06180266844034195,0.4350482443168759,1.009379798574373
1782987631336643000,8.69564306640625,0.016457213804125785,0.29701778398156164,1.1368564969956874
1782987631346717000,8.705717041015625,0.11127134048640727,0.09250438843518495,1.3438742765784262
1782987631356792000,8.7157919921875,0.24178046540617942,-0.13276508715301752,1.4983295097529887
1782987631366867000,8.725866943359375,0.23154548711776732,-0.16922259419560431,1.338819039015472
1782987631376941800,8.73594189453125,-0.29650866541564463,0.018532851034402845,0.9246507203157991
1782987631387016000,8.746015869140624,-1.177475507631898,0.29280805733203885,0.5896115409757942
1782987631397090800,8.7560908203125,-2.093304404392838,0.5432435383588076,0.4721180380389094
1782987631407166000,8.766166015625,-2.715703897053003,0.6259086698248982,0.4435171627808362
1782987631417239800,8.77623974609375,-2.8350580062299966,0.7486351780444384,0.5519716922808439
1782987631427315000,8.78631494140625,-2.4493244124412534,0.8745911697044968,0.7693956420004368
1782987631437389800,8.796389892578125,-1.8513006516247987,0.9763523390457034,1.0212413551513104
1782987631447465000,8.80646484375,-1.2741425687044858,1.0374389681711793,1.1457676793344318
1782987631457538800,8.816538818359374,-0.7827461219608783,1.078855558925867,1.0953638453301042
1782987631467614000,8.826614013671875,-0.3654308104723692,1.1124959627211093,0.8850542576603591
1782987631477689000,8.836689208984374,0.04980360308885574,1.0881161392241716,0.7405494136791676
1782987631487763000,8.846762939453125,0.48591304689645765,0.9964815193608403,0.7449172534998506
1782987631497838000,8.856838134765624,0.8615139537274837,0.9111497990339994,0.8882940432991832
1782987631507913000,8.866912841796875,1.1378583675146101,0.7851289254441857,1.141802282834798
1782987631517987000,8.876987060546876,1.3001561308830976,0.7533715589165687,1.2995301079392432
1782987631528062000,8.88706201171875,1.2740753486871719,0.7829889908060431,1.2687598527528345
1782987631538136800,8.89713671875,0.9824386732220649,0.8115589594691991,1.0502313027922063
1782987631548211700,8.907211669921875,0.36511399960815905,0.8309656707286834,0.606597966285795
1782987631558285800,8.917285888671875,-0.36130759306252,0.8793947705939411,0.08920205895416439
1782987631568360700,8.927360595703124,-1.074797223445773,0.9478869998008013,-0.2727729850411415
1782987631578435800,8.937435791015625,-1.6644646593272685,1.0230430708110332,-0.41580110753327604
1782987631588510000,8.947510009765624,-1.9647657027631997,1.06354780741781,-0.3847280700080096
1782987631598584800,8.957584716796875,-1.860317486295104,1.058741576179862,-0.16894019705764948
1782987631608660000,8.967659912109376,-1.3590420350939034,1.0078089690610765,0.12460238509401678
1782987631618733800,8.97773388671875,-0.7174234627008438,0.956902665427327,0.4767329114232212
1782987631628809000,8.98780908203125,-0.15919979735314846,0.8786205713510513,0.7691034541208297
1782987631638883800,8.9978837890625,0.3184136232316494,0.7640700630635022,0.9452978600904345
1782987631648959000,9.007958984375,0.7696762125074863,0.7304960025027394,0.9610551089316606
1782987631659032800,9.01803271484375,1.1386842969447373,0.6813990863785148,0.9808671861216426
1782987631669108000,9.02810791015625,1.4061580065339803,0.638566783607006,1.0075038486346601
1782987631679183000,9.03818310546875,1.523980083838105,0.6054384209871292,0.9997478276804089
1782987631689257000,9.048257080078125,1.4828770890772343,0.5902002275839447,1.0078214632164686
1782987631699332000,9.05833203125,1.3385685713857411,0.5439508098453283,0.9931162807114422
1782987631709407000,9.068406982421875,1.1290116287142038,0.5241261654347181,0.987177392181754
1782987631719481000,9.078481201171876,0.8894389024853706,0.4614762325152755,1.0514146673578768
1782987631729556000,9.088555908203125,0.6718342624366282,0.38028731108158825,1.1979503595795482
1782987631739630800,9.098630859375,0.562049361115694,0.3114554746568203,1.3077455630987882
1782987631749706000,9.1087060546875,0.49791971103250976,0.21368834338784218,1.3293991765022277
1782987631759779800,9.11877978515625,0.5182189872175454,0.09833382524102925,1.261872285196185
1782987631769855000,9.12885498046875,0.5429565381109714,-0.0013876549661159514,1.259733227340877
1782987631779929900,9.138929931640625,0.4732604860723018,-0.04528934053480625,1.2345729209907352
1782987631790004000,9.14900390625,0.38927755000591274,-0.06624941871613264,1.1609295926310121
1782987631800078800,9.159078857421875,0.31123394086062905,-0.07043751805573702,1.1145808792363852
1782987631810154000,9.169154052734376,0.2246662489980459,-0.10531155529916286,1.1170520185902715
1782987631820227800,9.179227783203125,0.13058394372165202,-0.08586012811511755,1.1232173362869768
1782987631830303000,9.189302978515625,0.006619710400700569,-0.03611731530278921,1.0765922901690006
1782987631840377900,9.1993779296875,-0.11608604729175567,0.016245324619114397,1.0302632313229143
1782987631850453000,9.209452880859375,-0.21079554455578325,0.03277969531267881,0.9839712165515869
1782987631860526800,9.21952685546875,-0.2161351520180702,0.030418811400234697,0.9206472568280994
1782987631870602000,9.22960205078125,-0.11739011562764644,0.023308687134087083,0.7937296535942703
1782987631880676900,9.2396767578125,0.1112836154460907,-0.045619010880589485,0.672769570525363
1782987631890751000,9.2497509765625,0.37063422433435916,-0.17107026788890362,0.5986947919458151
1782987631900825900,9.259825927734376,0.5025082078665495,-0.33537440264374013,0.5930583204288036
1782987631910900700,9.269900634765625,0.5010819744557142,-0.4368783823534846,0.5666043940715492
1782987631920976000,9.279975830078126,0.44525370424985883,-0.5126718744844198,0.5691852774102241
1782987631931049700,9.2900498046875,0.31451193961799145,-0.573584608347714,0.5324687541052698
1782987631941124900,9.300124755859375,0.09320669148564338,-0.5668485780909657,0.5034423469115048
1782987631951200000,9.310199951171874,-0.18420155214071274,-0.5508125123083591,0.41620837315991516
1782987631961273900,9.32027392578125,-0.49882981161475176,-0.5679822582960129,0.2849406118925661
1782987631971349000,9.330348876953124,-0.7594388961315155,-0.6384308822676539,0.1707064030125737
1782987631981423900,9.340423828125,-0.8242495142161845,-0.8340750349208712,0.11645780321359633
1782987631991498000,9.350498046875,-0.5560206023454666,-1.0302841279804706,0.10619915178865194
1782987632001572900,9.36057275390625,-0.1604524277627468,-1.0960703130990266,-0.006087210959196091
1782987632011648000,9.37064794921875,0.0813935040950775,-0.9065741616815328,-0.2430029929384589
1782987632021721900,9.380721923828125,-0.1304629476904869,-0.5999857085391879,-0.468171492370218
1782987632031797000,9.390796875,-0.7690203789472579,-0.3123857412442565,-0.5258393990933895
1782987632041872100,9.4008720703125,-1.4285340889930724,-0.007893383598327636,-0.4216348551880568
1782987632051946800,9.41094677734375,-1.710562978157401,0.2273597258657217,-0.21696868023276328
1782987632062021000,9.421021240234374,-1.5428496194809673,0.28380349762141704,0.05065700504779815
1782987632072095700,9.431095703125,-1.1384247692257166,0.2800491135239601,0.2922910477206111
1782987632082171000,9.4411708984375,-0.6926940951138735,0.2440358431175351,0.34465675638243554
1782987632092244700,9.45124462890625,-0.30286943261921406,0.1945072575777769,0.18552534809038043
1782987632102319900,9.46131982421875,-0.006190086811780929,0.1602884693726897,-0.1757303686544299
1782987632112394800,9.471394775390625,0.18744798671603202,0.21337211704552173,-0.5915770688951015
1782987632122470000,9.481469970703126,0.30004034667313095,0.3468672720387578,-0.8425693070217967
1782987632132543700,9.491543701171874,0.3757563896536827,0.45555034959763285,-0.8555075529195367
1782987632142619000,9.501618896484375,0.4182546381652355,0.6120064012005925,-0.6999082642763853
1782987632152694000,9.511694091796874,0.4201625176131725,0.752136464163661,-0.4960048173218965
1782987632162768000,9.521767822265625,0.3414928855240345,0.8353042844548821,-0.39130876357257366
1782987632172843000,9.531843017578124,0.2207803474754095,0.7900573217570781,-0.4167594311714172
1782987632182918000,9.54191796875,0.11729659212529658,0.7317547703921794,-0.5760097896680235
1782987632192992000,9.551991943359376,-0.0011386486411094664,0.6864174990624189,-0.7859921181447803
1782987632203067000,9.56206689453125,-0.09091068950295447,0.6570818067237735,-0.8897297021254896
1782987632213142000,9.57214208984375,-0.2328887184202671,0.627477526576817,-0.9183495012797415
1782987632223217000,9.582216796875,-0.37048692481815815,0.6126081664860248,-0.8421385143890976
1782987632233291000,9.592291015625,-0.5911538750469685,0.6722966192513704,-0.7731720917992293
1782987632243366000,9.602365966796874,-0.8444792322963476,0.7694514638409018,-0.7051543482363224
1782987632253440800,9.612440673828125,-1.1111229208022355,0.7792863368958234,-0.6017192543335259
1782987632263515000,9.622514892578126,-1.281813249462843,0.7618103014379739,-0.4425274941563606
1782987632273589800,9.63258984375,-1.217168051072955,0.7084770629182457,-0.32527795604318377
1782987632283665000,9.642664794921876,-0.9969675493121146,0.5837269399166107,-0.21383885777443645
1782987632293738800,9.65273876953125,-0.6470259843945503,0.4381827429503202,-0.1492183554343879
1782987632303814000,9.66281396484375,-0.19575053563714026,0.22131401596069333,-0.07653715010508895
1782987632313889000,9.672888916015625,0.26518998256623744,-0.0349696065723896,-0.055908057443797586
1782987632323964000,9.6829638671875,0.7354132928997278,-0.25437837343364955,-0.24193185657560823
1782987632334038000,9.6930380859375,1.1328016686469315,-0.4342366356730461,-0.5072819981396198
1782987632344113000,9.70311279296875,1.3213935647010802,-0.5729004254758358,-0.7078999936826527
1782987632354188000,9.71318798828125,1.3124877891898155,-0.6738727825269103,-0.8323656006544828
1782987632364262000,9.723261962890625,1.001245080500841,-0.7055524076431989,-0.863243115607649
1782987632374337000,9.7333369140625,0.6138976217746734,-0.6571569177865981,-0.7771138151623308
1782987632384412000,9.743411865234375,0.33114626355469223,-0.424764458450675,-0.6602947774209081
1782987632394486000,9.753486083984376,0.08043839532732963,-0.19139935469031333,-0.46858767195567486
1782987632404561000,9.763560791015625,-0.19390344646573066,-0.10252864658236503,-0.2736898076251149
1782987632414635800,9.7736357421875,-0.3018599633157253,-0.06844166806340217,-0.1599973774716258
1782987632424711000,9.7837109375,-0.2814209863990545,0.015086802233755588,-0.11236834194287657
1782987632434784800,9.79378466796875,-0.18271628201901913,-0.08249445107430219,-0.08751534797623753
1782987632444860000,9.80385986328125,0.014264672195911406,-0.18349281934946773,-0.027624066115170716
1782987632454934800,9.813934814453125,0.3287152370154857,-0.19840631084293125,-0.06607932284623384
1782987632465009000,9.8240087890625,0.6817302180290222,-0.21607202365398406,-0.10976371240243316
1782987632475083800,9.834083740234375,0.9904799408584832,-0.3184589236781001,-0.11158902813345194
1782987632485159000,9.844158935546876,1.2038362758129835,-0.45250499055236576,-0.10625438910722732
1782987632495232800,9.854232666015625,1.2356921342790126,-0.6188637197494506,-0.10519260509461163
1782987632505308000,9.864307861328125,1.14358434394598,-0.7077613158643246,-0.16647636422738432
1782987632515383000,9.874383056640625,0.9978437476247548,-0.6602496231049299,-0.21850275793224572
1782987632525458000,9.8844580078125,0.864799551269412,-0.6189943603917956,-0.18034297701641916
1782987632535532000,9.894531982421874,0.6836947961002587,-0.6951365198299289,-0.07382263044938445
1782987632545607000,9.90460693359375,0.514036733096838,-0.7889969990491866,0.023944062428176403
1782987632555682000,9.91468212890625,0.410913043230772,-0.8597685713648796,0.04023892527744174
1782987632565756000,9.924755859375,0.3896230024427175,-0.8975780775383114,0.029704233390092847
1782987632575831000,9.9348310546875,0.35352936027646065,-0.9696785603702067,-0.013189444179832935
1782987632585906000,9.944906005859375,0.22657822009921072,-1.028267527461052,-0.08676569865271448
1782987632595980000,9.95497998046875,0.043753801530599594,-1.0344456315740942,-0.16149726064056158
1782987632606055000,9.965054931640625,-0.17736966029405593,-0.9443938969880342,-0.3014676029972732
1782987632616129800,9.9751298828125,-0.46396658802628515,-0.8535659173324703,-0.4087070576190948
1782987632626205000,9.985204833984374,-0.7842547729581594,-0.7730559180736541,-0.45616468210369343
1782987632636278800,9.99527880859375,-0.9707049808084964,-0.6899433351010084,-0.3785121181026101
1782987632646354000,10.00535400390625,-0.8964034808009862,-0.7352788528650999,-0.17836816981211304
1782987632656428800,10.0154287109375,-0.5698199951171875,-0.8394283786475658,0.08333382450789213
1782987632666503000,10.0255029296875,-0.24130466458797453,-0.8606161281049252,0.1669536263503134
1782987632676577800,10.035577880859375,-0.08171323756873607,-0.8299170384585857,0.09306465266644955
1782987632686653000,10.04565283203125,-0.2334942830979824,-0.7316071786150335,-0.08771963837668299
1782987632696727000,10.05572705078125,-0.6457891360759734,-0.5199073786959052,-0.2718570392400026
1782987632706802000,10.065802001953125,-1.0971762285143136,-0.3430000752165913,-0.22919366329461335
1782987632716877000,10.075876953125,-1.3600298770874737,-0.1878124361142516,-0.0507052281036973
1782987632726952000,10.085951904296875,-1.245331484761834,0.01450461843162775,0.1235325639054179
1782987632737026000,10.096026123046874,-1.0026806662619114,0.15427140104025602,0.3175307029172778
1782987632747101000,10.106100830078125,-0.7866665102750062,0.18029753043949603,0.42864670671150085
1782987632757175800,10.11617578125,-0.6251578514575958,0.18846768515259027,0.3912219620719552
1782987632767250000,10.12625,-0.5067348856508731,0.25565643054544923,0.2488688162319362
1782987632777324800,10.13632470703125,-0.3943038537353277,0.3207186853036284,0.17648206380456685
1782987632787400000,10.14639990234375,-0.20148820250630378,0.2745116454020142,0.2141496772892773
1782987632797473800,10.156473876953125,0.0811801536053419,0.235796422560513,0.2840983889147639
1782987632807549000,10.166548828125,0.31215514735877514,0.2501338677316904,0.4244854953788221
1782987632817623800,10.176623779296875,0.3865641993939876,0.2619455938175321,0.5588666394263505
1782987632827699000,10.186698974609374,0.5302332501381636,0.34873774208575486,0.5048711376056075
1782987632837772800,10.196772705078125,0.7585597752094269,0.4306237058728933,0.4040831972107291
1782987632847848000,10.206847900390626,0.8822165500164032,0.41314737815409897,0.3208659848198294
1782987632857923000,10.216923095703125,0.7510252880513668,0.46102556613832707,0.2806570162892341
1782987632867996200,10.22699609375,0.4205208295315504,0.6496230151504278,0.1655081037171185
1782987632878071300,10.2370712890625,-0.03580839548408985,0.8335507187858223,0.01760740675255656
1782987632888146400,10.247146484375,-0.4809954642385244,1.0194064678743482,-0.14364566986858843
1782987632898220300,10.25722021484375,-0.7221440614819526,1.0522259106755256,-0.26986213909573853
1782987632908295400,10.26729541015625,-0.6026064124315976,1.0414718769490718,-0.3449509170234203
1782987632918370300,10.277370361328124,-0.518244121658802,1.0447449072703718,-0.3674204499196261
1782987632928445400,10.287445556640625,-0.5078378784567117,1.0248165102243423,-0.4265951810091734
1782987632938519300,10.297519287109376,-0.3541705807894468,1.0996958101198075,-0.46865598795153196
1782987632948594400,10.307594482421875,-0.053747956800460815,1.1121221609726548,-0.3331478126354515
1782987632958669300,10.31766943359375,0.2291407640635967,1.1267623884826898,-0.06396108858324587
1782987632968743400,10.327743408203125,0.6604618045508861,1.1017562497809528,0.2243610555063933
1782987632978818300,10.337818359375,1.1384072335690258,0.9869438756868243,0.3841271084401756
