time,seconds_elapsed,z,y,x
1782987622722771700,0.081771728515625,-0.43268629908561707,0.14991061389446259,0.2638424336910248
1782987622732845600,0.091845458984375,-0.42151913046836853,0.062313906848430634,0.26434844732284546
1782987622742920700,0.101920654296875,-0.3797265589237213,-0.02832464687526226,0.21855928003787994
1782987622752995600,0.11199560546875,-0.33017924427986145,-0.07335124909877777,0.155585378408432
1782987622763069700,0.122069580078125,-0.292189359664917,-0.07534688711166382,0.1060369685292244
1782987622773144600,0.13214453125,-0.27359142899513245,-0.06304894387722015,0.06914632767438889
1782987622783219500,0.142219482421875,-0.2617220878601074,-0.03718298301100731,0.05661005154252052
1782987622793293600,0.15229345703125,-0.2455599009990692,-0.00046917865984141827,0.06039972975850105
1782987622803368400,0.162368408203125,-0.22412443161010742,0.031345609575510025,0.07764504849910736
1782987622813443600,0.172443603515625,-0.18826043605804443,0.04857732355594635,0.08047119528055191
1782987622823518500,0.1825185546875,-0.14426785707473755,0.032207805663347244,0.058734048157930374
1782987622833592600,0.192592529296875,-0.08905067294836044,-0.04629232734441757,0.00420475983992219
1782987622843667500,0.20266748046875,-0.041644033044576645,-0.18524569272994995,-0.0773685872554779
1782987622853742600,0.21274267578125,-0.02306821569800377,-0.357134610414505,-0.19559961557388306
1782987622863817000,0.22281689453125,-0.0347721092402935,-0.48401227593421936,-0.32209402322769165
1782987622873891800,0.232891845703125,-0.06445090472698212,-0.4851664900779724,-0.4072054624557495
1782987622883967000,0.242967041015625,-0.08548891544342041,-0.3621291220188141,-0.4272748827934265
1782987622894040800,0.253040771484375,-0.0828598365187645,-0.16668930649757385,-0.3831702768802643
1782987622904116000,0.263115966796875,-0.05589191988110542,0.04525649920105934,-0.3046604096889496
1782987622914191000,0.273191162109375,-0.0178539901971817,0.21364550292491913,-0.19646602869033813
1782987622924266000,0.283265869140625,0.028827905654907227,0.27218392491340637,-0.09656276553869247
1782987622934340000,0.293340087890625,0.08508984744548798,0.207175612449646,-0.043745093047618866
1782987622944415000,0.3034150390625,0.12158606946468353,0.07302235066890717,-0.04670413210988045
1782987622954489900,0.31348974609375,0.1555677354335785,-0.05769411846995354,-0.06483253836631775
1782987622964564000,0.32356396484375,0.19411449134349823,-0.09606800973415375,-0.07805249840021133
1782987622974638800,0.333638916015625,0.2380792796611786,-0.0195322223007679,-0.06574736535549164
1782987622984714000,0.3437138671875,0.27818575501441956,0.16978737711906433,-0.015025017783045769
1782987622994787800,0.353787841796875,0.3187611401081085,0.41192999482154846,0.06726692616939545
1782987623004863000,0.363863037109375,0.34449613094329834,0.5659609436988831,0.1482650339603424
1782987623014937900,0.373937744140625,0.38026371598243713,0.5522696375846863,0.20965515077114105
1782987623025013000,0.384012939453125,0.4135155975818634,0.40778061747550964,0.2388458102941513
1782987623035086800,0.3940869140625,0.4258532226085663,0.19480790197849274,0.20593765377998352
1782987623045162000,0.404161865234375,0.4255973994731903,-0.07954642176628113,0.12288635969161987
1782987623055236900,0.41423681640625,0.41545236110687256,-0.3368051052093506,0.0047115120105445385
1782987623065311000,0.42431103515625,0.39580056071281433,-0.502047061920166,-0.1221243217587471
1782987623075385900,0.4343857421875,0.37474295496940613,-0.5536841154098511,-0.22969871759414673
1782987623085461000,0.4444609375,0.3425927460193634,-0.5274098515510559,-0.3164454698562622
1782987623095534800,0.454534912109375,0.305378258228302,-0.4441381096839905,-0.3715100586414337
1782987623105610000,0.46460986328125,0.269424706697464,-0.30824577808380127,-0.36732327938079834
1782987623115684900,0.474684814453125,0.22526176273822784,-0.14009538292884827,-0.2906290292739868
1782987623125759700,0.484759765625,0.16819177567958832,0.010602515190839767,-0.14527887105941772
1782987623135833900,0.494833740234375,0.08413868397474289,0.09871160238981247,0.02648356184363365
1782987623145908700,0.50490869140625,-0.002662278711795807,0.1202901303768158,0.19022782146930695
1782987623155984000,0.51498388671875,-0.07129646837711334,0.11266070604324341,0.3186289668083191
1782987623166057700,0.5250576171875,-0.12245003134012222,0.09387955814599991,0.3859576880931854
1782987623176132900,0.5351328125,-0.15166276693344116,0.06686897575855255,0.39072394371032715
1782987623186208000,0.5452080078125,-0.17216463387012482,0.027387745678424835,0.3409939408302307
1782987623196283000,0.555282958984375,-0.19003844261169434,-0.010747921653091908,0.25073331594467163
1782987623206357000,0.56535693359375,-0.2006467878818512,-0.03659549355506897,0.15625417232513428
1782987623216431900,0.575431884765625,-0.21398016810417175,-0.061720822006464005,0.07282878458499908
1782987623226507000,0.585507080078125,-0.22905027866363525,-0.10037273913621902,0.007881362922489643
1782987623236580900,0.595580810546875,-0.24029441177845,-0.13391658663749695,-0.013393033295869827
1782987623246656000,0.605656005859375,-0.24529050290584564,-0.14253723621368408,0.01372833363711834
1782987623256731100,0.615731201171875,-0.2573429048061371,-0.13110801577568054,0.08416281640529633
1782987623266805000,0.625804931640625,-0.2659095823764801,-0.1159551590681076,0.17067661881446838
1782987623276880100,0.635880126953125,-0.2641369700431824,-0.11279265582561493,0.2589215338230133
1782987623286954800,0.645954833984375,-0.2533048391342163,-0.107911616563797,0.34046298265457153
1782987623297030000,0.65602978515625,-0.235286146402359,-0.16001343727111816,0.4037431478500366
1782987623307104000,0.66610400390625,-0.19644251465797424,-0.3279273509979248,0.41278618574142456
1782987623317179000,0.676178955078125,-0.17054274678230286,-0.48222556710243225,0.377897709608078
1782987623327253800,0.686253662109375,-0.17543509602546692,-0.4979671239852905,0.3219582140445709
1782987623337327900,0.696327880859375,-0.20176976919174194,-0.44737744331359863,0.2589462399482727
1782987623347402800,0.70640283203125,-0.2301170974969864,-0.4415487051010132,0.17009729146957397
1782987623357478000,0.716477783203125,-0.2621341645717621,-0.4785616099834442,0.06771659106016159
1782987623367551700,0.7265517578125,-0.30166420340538025,-0.5039026737213135,-0.015197353437542915
1782987623377627000,0.736626953125,-0.33343440294265747,-0.46497732400894165,-0.08030898123979568
1782987623387702000,0.746701904296875,-0.3546923100948334,-0.35018298029899597,-0.1290443390607834
1782987623397777000,0.75677685546875,-0.36229321360588074,-0.18542519211769104,-0.1587074249982834
1782987623407851000,0.76685107421875,-0.3528338372707367,-0.003934219479560852,-0.17291195690631866
1782987623417926000,0.77692578125,-0.3087955415248871,0.103773333132267,-0.17890353500843048
1782987623428001000,0.7870009765625,-0.23364374041557312,0.1356937140226364,-0.16841436922550201
1782987623438075000,0.797074951171875,-0.12346609681844711,0.13886074721813202,-0.14340701699256897
1782987623448150000,0.80714990234375,-0.015817422419786453,0.11857452243566513,-0.10566822439432144
1782987623458225000,0.817224853515625,0.07418383657932281,0.07525953650474548,-0.06469868868589401
1782987623468299800,0.8272998046875,0.13834793865680695,0.01560286059975624,-0.03276239335536957
1782987623478374000,0.837373779296875,0.17762796580791473,-0.04230811074376106,-0.023255441337823868
1782987623488448800,0.84744873046875,0.20212852954864502,-0.09577039629220963,-0.03998962789773941
1782987623498524000,0.85752392578125,0.20538131892681122,-0.13311085104942322,-0.07037603110074997
1782987623508597800,0.86759765625,0.18007822334766388,-0.13344746828079224,-0.12042171508073807
1782987623518673000,0.8776728515625,0.14116570353507996,-0.12296687066555023,-0.17558883130550385
1782987623528748000,0.887748046875,0.09979468584060669,-0.09176234155893326,-0.2449895739555359
1782987623538822000,0.89782177734375,0.05351347103714943,-0.03297758847475052,-0.2945430278778076
1782987623548897000,0.90789697265625,0.016953013837337494,0.038161568343639374,-0.3131359815597534
1782987623558972000,0.917971923828125,-0.011447466909885406,0.08378259092569351,-0.2955538034439087
1782987623569047000,0.928047119140625,-0.02946505881845951,0.12031968683004379,-0.24659737944602966
1782987623579121000,0.938120849609375,-0.0310903862118721,0.16267433762550354,-0.17577247321605682
1782987623589196000,0.948196044921875,-0.016730066388845444,0.19844672083854675,-0.09293705970048904
1782987623599271000,0.95827099609375,-0.004763685166835785,0.19679714739322662,-0.024702345952391624
1782987623609345000,0.968344970703125,-0.0011110847117379308,0.1692655384540558,0.019008567556738853
1782987623619420000,0.978419921875,-0.013307563960552216,0.14414924383163452,0.03138001635670662
1782987623629494800,0.988494873046875,-0.017481878399848938,0.1286655068397522,0.020861145108938217
1782987623639569000,0.99856884765625,0.000855850987136364,0.1477462500333786,-0.00011444506526459008
1782987623649643800,1.008643798828125,0.04185768961906433,0.18392783403396606,-0.025011619552969933
1782987623659719000,1.018718994140625,0.11306902021169662,0.21795690059661865,-0.04499758034944534
1782987623669793800,1.028793701171875,0.19758771359920502,0.2210063487291336,-0.049114108085632324
1782987623679868000,1.038867919921875,0.27827057242393494,0.19591085612773895,-0.009655914269387722
1782987623689942800,1.04894287109375,0.35265323519706726,0.14238224923610687,0.08405511826276779
1782987623700018000,1.059017822265625,0.4063122272491455,0.08321399241685867,0.19263751804828644
1782987623710091800,1.069091796875,0.444612592458725,0.016800090670585632,0.29803213477134705
1782987623720167000,1.0791669921875,0.4724777936935425,-0.030461430549621582,0.3591253161430359
1782987623730242000,1.089241943359375,0.4908163249492645,-0.02994171716272831,0.3625313639640808
1782987623740317000,1.09931689453125,0.5055680871009827,0.045534662902355194,0.3170935809612274
1782987623750391000,1.10939111328125,0.5159801244735718,0.13602501153945923,0.2262200266122818
1782987623760466000,1.1194658203125,0.528287410736084,0.14731068909168243,0.1091514602303505
1782987623770541000,1.129541015625,0.5328384637832642,0.06569519639015198,-0.022004958242177963
1782987623780615000,1.139614990234375,0.5363293886184692,-0.04323315620422363,-0.1548420935869217
1782987623790690000,1.14968994140625,0.5418244004249573,-0.1546134650707245,-0.25859391689300537
1782987623800765000,1.159764892578125,0.5488578081130981,-0.19948719441890717,-0.30455899238586426
1782987623810839000,1.169839111328125,0.5469273328781128,-0.14913268387317657,-0.28757819533348083
1782987623820914000,1.179913818359375,0.5438047647476196,-0.04944630712270737,-0.22937749326229095
1782987623830988800,1.18998876953125,0.5619655847549438,0.06296639144420624,-0.1463720053434372
1782987623841064000,1.20006396484375,0.6067647337913513,0.14264576137065887,-0.04114225506782532
1782987623851137800,1.2101376953125,0.6506142616271973,0.1815221905708313,0.07187777012586594
1782987623861213000,1.220212890625,0.6741438508033752,0.1759846806526184,0.17007091641426086
1782987623871287800,1.230287841796875,0.6782128214836121,0.1278214156627655,0.23589907586574554
1782987623881362000,1.24036181640625,0.6699942946434021,0.06238408386707306,0.2513717710971832
1782987623891436800,1.250436767578125,0.6528723239898682,0.03035357967019081,0.21176928281784058
1782987623901512000,1.260511962890625,0.6358973383903503,0.03366735205054283,0.13670675456523895
1782987623911587000,1.270587158203125,0.6054986119270325,0.0647570937871933,0.05372082069516182
1782987623921661000,1.280660888671875,0.56809002161026,0.11361464858055115,-0.01377939060330391
1782987623931736000,1.290736083984375,0.5201714634895325,0.15942741930484772,-0.042041532695293427
1782987623941811000,1.30081103515625,0.4684225618839264,0.17691053450107574,-0.039933640509843826
1782987623951885000,1.310885009765625,0.4196406900882721,0.15622016787528992,-0.03704052418470383
1782987623961960000,1.3209599609375,0.3790229558944702,0.11710312962532043,-0.03519868105649948
1782987623972034800,1.331034912109375,0.3358317017555237,0.08831501752138138,-0.03921430557966232
1782987623982109000,1.34110888671875,0.2910299003124237,0.09152413159608841,-0.04342582821846008
1782987623992183800,1.351183837890625,0.2510734796524048,0.1496695876121521,-0.04902354255318642
1782987624002259000,1.361259033203125,0.2298390120267868,0.2309412807226181,-0.042341671884059906
1782987624012333800,1.371333740234375,0.21392619609832764,0.2973423898220062,-0.02976118214428425
1782987624022408000,1.381407958984375,0.20373322069644928,0.32662704586982727,-0.000042168801883235574
1782987624032482800,1.39148291015625,0.20340949296951294,0.31260696053504944,0.03898648917675018
1782987624042558000,1.401557861328125,0.21924278140068054,0.2667662501335144,0.08139865845441818
1782987624052631800,1.4116318359375,0.2502789795398712,0.21231698989868164,0.11349361389875412
1782987624062707000,1.42170703125,0.28265371918678284,0.16544455289840698,0.13066141307353973
1782987624072781800,1.43178173828125,0.3010830283164978,0.15830010175704956,0.13129538297653198
1782987624082856000,1.44185595703125,0.30931776762008667,0.1703924536705017,0.11140263825654984
1782987624092931000,1.45193115234375,0.31266093254089355,0.18704399466514587,0.0671018734574318
1782987624103006000,1.462005859375,0.30459582805633545,0.19552509486675262,0.021079784259200096
1782987624113081000,1.4720810546875,0.288128525018692,0.19676347076892853,-0.022821122780442238
1782987624123155000,1.482155029296875,0.2703370153903961,0.19158229231834412,-0.057943958789110184
1782987624133230000,1.49222998046875,0.2556178867816925,0.16367875039577484,-0.08890077471733093
1782987624143304700,1.5023046875,0.2376391440629959,0.13119643926620483,-0.11302635073661804
1782987624153379000,1.512379150390625,0.2200477123260498,0.120292529463768,-0.1404910832643509
1782987624163453700,1.52245361328125,0.2115548849105835,0.12306621670722961,-0.1533067524433136
1782987624173528800,1.53252880859375,0.21196238696575165,0.12471415847539902,-0.16408704221248627
1782987624183604000,1.54260400390625,0.20812609791755676,0.12354130297899246,-0.16250139474868774
1782987624193677800,1.552677734375,0.2011653184890747,0.1330776810646057,-0.14896978437900543
1782987624203753000,1.5627529296875,0.17625464498996735,0.12624934315681458,-0.1285659819841385
1782987624213827800,1.572827880859375,0.1354527771472931,0.1256159245967865,-0.09361582249403
1782987624223902000,1.58290185546875,0.1045079231262207,0.11620750278234482,-0.05696087330579758
1782987624233976800,1.592976806640625,0.08097317814826965,0.10245933383703232,-0.025854919105768204
1782987624244052000,1.603052001953125,0.07424470782279968,0.09872717410326004,-0.008488180115818977
1782987624254125800,1.613125732421875,0.05666014179587364,0.07159581780433655,-0.01319472212344408
1782987624264201000,1.623200927734375,0.036274977028369904,0.012225174345076084,-0.04320721700787544
1782987624274276000,1.633276123046875,0.03376477584242821,-0.02198299579322338,-0.06979797780513763
1782987624284351000,1.64335107421875,0.05473663657903671,-0.027618778869509697,-0.06871140748262405
1782987624294425000,1.653425048828125,0.0748363584280014,-0.008424175903201103,-0.024560466408729553
1782987624304500000,1.6635,0.09204304218292236,0.06205505132675171,0.05907290801405907
1782987624314574800,1.673574951171875,0.09256633371114731,0.1672907918691635,0.16332122683525085
1782987624324649000,1.68364892578125,0.07406242191791534,0.25420278310775757,0.2808142900466919
1782987624334723800,1.693723876953125,0.02939022146165371,0.3190228044986725,0.39636269211769104
1782987624344798700,1.703798828125,-0.011373454704880714,0.3878157138824463,0.5031298398971558
1782987624354873900,1.713873779296875,-0.03855914622545242,0.36846745014190674,0.577875554561615
1782987624364948000,1.723947998046875,-0.06310923397541046,0.20317170023918152,0.5727079510688782
1782987624375022800,1.73402294921875,-0.09390009194612503,-0.033988259732723236,0.49396562576293945
1782987624385098000,1.744097900390625,-0.1406865119934082,-0.24746112525463104,0.35771429538726807
1782987624395171800,1.754171875,-0.18155522644519806,-0.39466148614883423,0.18449202179908752
1782987624405247000,1.7642470703125,-0.22503720223903656,-0.3738766014575958,0.02225065417587757
1782987624415321900,1.77432177734375,-0.27985963225364685,-0.16709330677986145,-0.08661871403455734
1782987624425396000,1.78439599609375,-0.3188941180706024,0.08733044564723969,-0.10951656848192215
1782987624435470800,1.794470947265625,-0.3500751852989197,0.28364643454551697,-0.044959571212530136
1782987624445546000,1.8045458984375,-0.36776551604270935,0.39531731605529785,0.07902602851390839
1782987624455621000,1.81462109375,-0.35625460743904114,0.4084525406360626,0.2301761507987976
1782987624465695000,1.824695068359375,-0.3238428831100464,0.32833507657051086,0.36961498856544495
1782987624475770000,1.83477001953125,-0.2783980965614319,0.16299419105052948,0.4670426845550537
1782987624485844700,1.8448447265625,-0.22811360657215118,-0.023482490330934525,0.5154837369918823
1782987624495919000,1.854919189453125,-0.17846299707889557,-0.16926072537899017,0.5042348504066467
1782987624505993700,1.86499365234375,-0.12101194262504578,-0.261162668466568,0.4374387860298157
1782987624516068900,1.87506884765625,-0.0736873596906662,-0.31915101408958435,0.32469040155410767
1782987624526142700,1.885142822265625,-0.05435840040445328,-0.3487169146537781,0.2134815901517868
1782987624536217900,1.8952177734375,-0.060362398624420166,-0.35933956503868103,0.12240585684776306
1782987624546293000,1.90529296875,-0.09437629580497742,-0.31528449058532715,0.061109479516744614
1782987624556368000,1.915367919921875,-0.15100860595703125,-0.20171520113945007,0.04428699612617493
1782987624566442000,1.92544189453125,-0.23117534816265106,-0.013928260654211044,0.08307700604200363
1782987624576516900,1.935516845703125,-0.29015836119651794,0.1737995445728302,0.14749065041542053
1782987624586592000,1.945592041015625,-0.3100830614566803,0.3013082444667816,0.21434557437896729
1782987624596665900,1.955665771484375,-0.2865963280200958,0.369643896818161,0.2719469368457794
1782987624606741000,1.965740966796875,-0.2468443661928177,0.34822195768356323,0.32640910148620605
1782987624616815900,1.97581591796875,-0.19778256118297577,0.2793514132499695,0.37029892206192017
1782987624626891000,1.98589111328125,-0.1476868987083435,0.17025582492351532,0.37916484475135803
1782987624636965000,1.995965087890625,-0.10519032180309296,0.05100000277161598,0.3457734286785126
1782987624647040000,2.0060400390625,-0.08226104080677032,-0.01665307581424713,0.27823007106781006
1782987624657115000,2.016114990234375,-0.103788822889328,-0.022862501442432404,0.1873905509710312
1782987624667189000,2.02618896484375,-0.11489687114953995,-0.024815399199724197,0.07558012753725052
1782987624677264000,2.036263916015625,-0.1179012879729271,0.03154987469315529,-0.022165589034557343
1782987624687338800,2.0463388671875,-0.13711999356746674,0.19311799108982086,-0.08322574943304062
1782987624697412900,2.056412841796875,-0.16524510085582733,0.32306188344955444,-0.12135928124189377
1782987624707487700,2.06648779296875,-0.18259724974632263,0.36069366335868835,-0.15565018355846405
1782987624717563000,2.07656298828125,-0.18623220920562744,0.3166280686855316,-0.18876805901527405
1782987624727638000,2.086637939453125,-0.16728168725967407,0.19949108362197876,-0.2115679234266281
1782987624737711900,2.0967119140625,-0.1384989619255066,0.06059684231877327,-0.22530604898929596
1782987624747787000,2.106787109375,-0.09590889513492584,-0.010463755577802658,-0.2225307673215866
1782987624757862000,2.11686181640625,-0.046587731689214706,0.015874240547418594,-0.2133180946111679
1782987624767936000,2.12693603515625,-0.014981601387262344,0.08774629235267639,-0.20882320404052734
1782987624778011000,2.137010986328125,0.005826885811984539,0.14683012664318085,-0.22140386700630188
1782987624788086000,2.1470859375,0.012519408948719501,0.20853078365325928,-0.2474442571401596
1782987624798160000,2.157159912109375,0.004480005241930485,0.2605038285255432,-0.2742157280445099
1782987624808235000,2.167235107421875,-0.014542421326041222,0.30486011505126953,-0.2961985468864441
1782987624818310100,2.17731005859375,-0.03824031725525856,0.35287463665008545,-0.2990494966506958
1782987624828384800,2.187384765625,-0.043204184621572495,0.40392157435417175,-0.2850463390350342
1782987624838459100,2.197459228515625,-0.029445156455039978,0.45184651017189026,-0.24442562460899353
1782987624848533800,2.20753369140625,-0.01522467564791441,0.4758184254169464,-0.1885107010602951
1782987624858608000,2.217608154296875,0.0012676757760345936,0.49088072776794434,-0.11606183648109436
1782987624868682200,2.22768212890625,0.006965508684515953,0.5078386068344116,-0.021809374913573265
1782987624878757000,2.237757080078125,0.011914508417248726,0.4790779650211334,0.06505706906318665
1782987624888832000,2.24783203125,0.027148853987455368,0.4578602910041809,0.14275771379470825
1782987624898907100,2.2579072265625,0.053310055285692215,0.43373194336891174,0.2008930891752243
1782987624908981200,2.267981201171875,0.07797252386808395,0.38802462816238403,0.2274477332830429
1782987624919056100,2.27805615234375,0.0802564024925232,0.3071652054786682,0.2262590527534485
1782987624929131300,2.28813134765625,0.08875321596860886,0.27519872784614563,0.20533965528011322
1782987624939205000,2.298205078125,0.14071860909461975,0.31343787908554077,0.17129628360271454
1782987624949280300,2.3082802734375,0.21639606356620789,0.37969493865966797,0.13904406130313873
1782987624959355100,2.318355224609375,0.2797781527042389,0.5138877034187317,0.11611033231019974
1782987624969429200,2.32842919921875,0.3064776659011841,0.5755263566970825,0.08693487197160721
1782987624979504000,2.338504150390625,0.3367455005645752,0.4600241184234619,0.05613969266414642
1782987624989579300,2.348579345703125,0.3731037676334381,0.227609783411026,0.030875880271196365
1782987624999654400,2.358654296875,0.4300159513950348,-0.11089116334915161,-0.003538052784278989
1782987625009728300,2.368728271484375,0.46266230940818787,-0.3439348042011261,-0.03577481955289841
1782987625019803400,2.378803466796875,0.44324177503585815,-0.2722741961479187,-0.009698020294308662
1782987625029878000,2.3888779296875,0.375413179397583,0.055355869233608246,0.09093058109283447
1782987625039952400,2.398952392578125,0.2955760955810547,0.3924449384212494,0.21625696122646332
1782987625050027000,2.409027099609375,0.2213175743818283,0.5573662519454956,0.30010420083999634
1782987625060102100,2.41910205078125,0.18884822726249695,0.5016008615493774,0.30004575848579407
1782987625070176000,2.429176025390625,0.20014002919197083,0.29606103897094727,0.2514007091522217
1782987625080251100,2.439251220703125,0.23036544024944305,0.20077724754810333,0.22400449216365814
1782987625090326300,2.449326171875,0.23019446432590485,0.1757430136203766,0.22407878935337067
1782987625100401200,2.459401123046875,0.20839546620845795,0.15366777777671814,0.23749412596225739
1782987625110475300,2.469475341796875,0.1827564239501953,0.09361004829406738,0.22733177244663239
1782987625120550100,2.479550048828125,0.16992226243019104,0.030746929347515106,0.18376654386520386
1782987625130625300,2.489625244140625,0.18507803976535797,-0.016796622425317764,0.10878471285104752
1782987625140699100,2.49969921875,0.229361429810524,-0.05239909142255783,0.02641957998275757
1782987625150774300,2.509774169921875,0.279629111289978,-0.08931796252727509,-0.05046268552541733
1782987625160849200,2.51984912109375,0.33328986167907715,-0.1274407058954239,-0.1090850904583931
1782987625170924300,2.52992431640625,0.3735075891017914,-0.19181543588638306,-0.1656341254711151
1782987625180998400,2.539998291015625,0.3896758258342743,-0.2742394804954529,-0.22701044380664825
1782987625191073300,2.5500732421875,0.38766542077064514,-0.3772646486759186,-0.3027089238166809
1782987625201148200,2.560148193359375,0.38569945096969604,-0.43792960047721863,-0.3662549555301666
1782987625211222300,2.57022216796875,0.3996877074241638,-0.42104169726371765,-0.3846174478530884
1782987625221297200,2.580297119140625,0.4030994474887848,-0.32621267437934875,-0.3545698821544647
1782987625231372000,2.5903720703125,0.4009992778301239,-0.19502268731594086,-0.2659263014793396
1782987625241446100,2.600446044921875,0.366795152425766,-0.053194575011730194,-0.13835491240024567
1782987625251521000,2.61052099609375,0.29627785086631775,0.04544518142938614,0.00406001228839159
1782987625261596200,2.62059619140625,0.21863919496536255,0.08392225950956345,0.14207741618156433
1782987625271671300,2.63067138671875,0.1477450579404831,0.08983101695775986,0.2583630383014679
1782987625281745200,2.6407451171875,0.09702765941619873,0.0479566752910614,0.3283067047595978
1782987625291820300,2.6508203125,0.06933211535215378,-0.008052264340221882,0.329525351524353
1782987625301895200,2.660895263671875,0.06752029806375504,-0.0513392835855484,0.2666158676147461
1782987625311969300,2.67096923828125,0.07635719329118729,-0.08048758655786514,0.17095300555229187
1782987625322044200,2.681044189453125,0.08867496997117996,-0.07790977507829666,0.06033703684806824
1782987625332119300,2.691119384765625,0.08733326941728592,-0.07436857372522354,-0.03587818145751953
1782987625342193200,2.701193115234375,0.07329262793064117,-0.05511138588190079,-0.1015387624502182
1782987625352268300,2.711268310546875,0.045734766870737076,-0.0254573542624712,-0.12242646515369415
1782987625362343400,2.721343505859375,0.009270912036299706,-0.02158631943166256,-0.11647433787584305
1782987625372418000,2.73141796875,-0.03133483976125717,-0.010863635689020157,-0.07980580627918243
1782987625382492400,2.741492431640625,-0.07668481767177582,-0.0014472233597189188,-0.04999709874391556
1782987625392567000,2.751567138671875,-0.11514299362897873,-0.009744035080075264,-0.031626880168914795
1782987625402642200,2.76164208984375,-0.1496420055627823,-0.049046702682971954,-0.05317959561944008
1782987625412716000,2.771716064453125,-0.16582150757312775,-0.11925987899303436,-0.1162528321146965
1782987625422791200,2.781791259765625,-0.1669367551803589,-0.20993638038635254,-0.212717205286026
1782987625432866000,2.791865966796875,-0.1517476886510849,-0.29347148537635803,-0.3264480531215668
1782987625442941200,2.801941162109375,-0.12807859480381012,-0.33772191405296326,-0.41780757904052734
1782987625453015300,2.812015380859375,-0.1137947291135788,-0.33967238664627075,-0.47813618183135986
1782987625463090200,2.822090087890625,-0.10968799144029617,-0.33234113454818726,-0.5090139508247375
1782987625473165300,2.832165283203125,-0.11970360577106476,-0.30707332491874695,-0.5116262435913086
1782987625483239200,2.8422392578125,-0.13624431192874908,-0.25082069635391235,-0.4784294664859772
1782987625493314300,2.852314208984375,-0.14894385635852814,-0.16445386409759521,-0.41749686002731323
1782987625503389200,2.86238916015625,-0.14595264196395874,-0.08017785847187042,-0.34151196479797363
1782987625513463300,2.87246337890625,-0.12058230489492416,-0.006270610727369785,-0.26485899090766907
1782987625523538200,2.8825380859375,-0.07037227600812912,0.03470344841480255,-0.19523738324642181
1782987625533613300,2.89261328125,-0.022075848653912544,0.05094793438911438,-0.10957947373390198
1782987625543688200,2.902688232421875,0.0011120217386633158,0.05217858776450157,-0.0011680531315505505
1782987625553762300,2.91276220703125,0.004120328463613987,0.0606226772069931,0.11546295881271362
1782987625563837200,2.922837158203125,-0.011510145850479603,0.0417373962700367,0.22484920918941498
1782987625573912000,2.932912109375,-0.03962220996618271,-0.004174437373876572,0.2922287583351135
1782987625583986200,2.942986083984375,-0.05641135573387146,-0.07473062723875046,0.3111381530761719
1782987625594061000,2.95306103515625,-0.06430363655090332,-0.1539444923400879,0.28501734137535095
1782987625604136200,2.96313623046875,-0.06950215250253677,-0.19757159054279327,0.22865109145641327
1782987625614211300,2.97321142578125,-0.08386511355638504,-0.18296495079994202,0.17397558689117432
1782987625624285200,2.98328515625,-0.1180286705493927,-0.14106237888336182,0.11714039742946625
1782987625634360300,2.9933603515625,-0.16918666660785675,-0.13413655757904053,0.04656929150223732
1782987625644435200,3.003435302734375,-0.22953924536705017,-0.2897935211658478,-0.08404616266489029
1782987625654509300,3.01350927734375,-0.29758167266845703,-0.5574215054512024,-0.2606390416622162
1782987625664584200,3.023584228515625,-0.37679392099380493,-0.6576308012008667,-0.4148201048374176
1782987625674659300,3.033659423828125,-0.45083537697792053,-0.5161452889442444,-0.4957471787929535
1782987625684733200,3.043733154296875,-0.505727231502533,-0.2655879259109497,-0.48969176411628723
1782987625694808300,3.053808349609375,-0.5167370438575745,0.0138932466506958,-0.3894006013870239
1782987625704883200,3.06388330078125,-0.4763166308403015,0.21719549596309662,-0.21401385962963104
1782987625714958000,3.0739580078125,-0.3959040641784668,0.19735947251319885,-0.014084764756262302
1782987625725032200,3.0840322265625,-0.30328071117401123,0.011342869140207767,0.16566556692123413
1782987625735107000,3.094107177734375,-0.21279288828372955,-0.2243170589208603,0.3050524890422821
1782987625745182200,3.10418212890625,-0.14546461403369904,-0.4005955457687378,0.38923051953315735
1782987625755256000,3.114256103515625,-0.11531069874763489,-0.520808219909668,0.4061322510242462
1782987625765331200,3.124331298828125,-0.1248365119099617,-0.6106164455413818,0.3404814898967743
1782987625775406000,3.134406005859375,-0.15348227322101593,-0.6613001227378845,0.20774607360363007
1782987625785480200,3.144480224609375,-0.19005665183067322,-0.6400423645973206,0.020657630637288094
1782987625795555000,3.15455517578125,-0.2237403243780136,-0.5446851849555969,-0.14204366505146027
1782987625805630200,3.164630126953125,-0.2812393009662628,-0.32841095328330994,-0.2471977174282074
1782987625815705300,3.174705322265625,-0.3639179468154907,-0.11661269515752792,-0.2692212462425232
1782987625825779200,3.184779296875,-0.4574669301509857,0.04065562039613724,-0.2221023142337799
1782987625835854300,3.194854248046875,-0.5363220572471619,0.13237833976745605,-0.128062903881073
1782987625845929200,3.20492919921875,-0.5836608409881592,0.15969546139240265,-0.026870744302868843
1782987625856003300,3.21500341796875,-0.594504177570343,0.13995930552482605,0.07022304832935333
1782987625866079000,3.225078857421875,-0.5830654501914978,0.09807736426591873,0.1387661099433899
1782987625876153600,3.235153564453125,-0.5637593865394592,0.03585952892899513,0.16765528917312622
1782987625886228700,3.245228759765625,-0.5404563546180725,-0.005703888833522797,0.16164268553256989
1782987625896302600,3.255302490234375,-0.5062509775161743,-0.043235551565885544,0.11734099686145782
1782987625906377700,3.265377685546875,-0.4627665579319,-0.0759933590888977,0.04512324556708336
1782987625916452900,3.275452880859375,-0.4091648459434509,-0.09325570613145828,-0.03867870941758156
1782987625926526700,3.285526611328125,-0.35436034202575684,-0.10916835814714432,-0.11837117373943329
1782987625936601900,3.295601806640625,-0.3100738227367401,-0.14404244720935822,-0.17947207391262054
1782987625946676700,3.3056767578125,-0.28307977318763733,-0.21087394654750824,-0.2162705659866333
1782987625956750800,3.315750732421875,-0.2811572551727295,-0.2530307471752167,-0.2181432992219925
1782987625966825700,3.32582568359375,-0.284892737865448,-0.2755485475063324,-0.1947796791791916
1782987625976900900,3.33590087890625,-0.29452645778656006,-0.2882576882839203,-0.16136419773101807
1782987625986976000,3.34597607421875,-0.290217787027359,-0.27226129174232483,-0.13155542314052582
1782987625997049900,3.3560498046875,-0.28461289405822754,-0.2000533938407898,-0.09381336718797684
1782987626007125000,3.366125,-0.28566786646842957,-0.13086380064487457,-0.06780964881181717
1782987626017199900,3.376199951171875,-0.28557491302490234,-0.08938533812761307,-0.05796634033322334
1782987626027274000,3.38627392578125,-0.27321743965148926,-0.07958410680294037,-0.04595431312918663
1782987626037348900,3.396348876953125,-0.2535153925418854,-0.08118333667516708,-0.02032884582877159
1782987626047423700,3.406423828125,-0.23818081617355347,-0.08676066249608994,0.015097497031092644
1782987626057498600,3.41649853515625,-0.2276133894920349,-0.07019153982400894,0.05774455890059471
1782987626067572700,3.42657275390625,-0.21691478788852692,-0.04534011334180832,0.0985904186964035
1782987626077647600,3.436647705078125,-0.20521658658981323,-0.036224380135536194,0.13128818571567535
1782987626087722800,3.44672265625,-0.183357372879982,-0.03630920872092247,0.16522212326526642
1782987626097796600,3.456796630859375,-0.1675589680671692,-0.020035430788993835,0.19526951014995575
1782987626107871700,3.466871826171875,-0.15526069700717926,-0.010963503271341324,0.22387662529945374
1782987626117947000,3.47694677734375,-0.14173850417137146,0.0025198154617100954,0.23747766017913818
1782987626128020700,3.487020751953125,-0.1293836086988449,0.0267987921833992,0.2436499446630478
1782987626138095900,3.497095947265625,-0.11475114524364471,0.028702419251203537,0.233414888381958
1782987626148170800,3.507170654296875,-0.10385927557945251,0.0011538835242390633,0.20806589722633362
1782987626158246000,3.517245849609375,-0.10007971525192261,-0.028886307030916214,0.17599664628505707
1782987626168319700,3.52731982421875,-0.09203958511352539,-0.06373284012079239,0.14847207069396973
1782987626178395000,3.537394775390625,-0.07191221415996552,-0.0728115513920784,0.14092706143856049
1782987626188469800,3.5474697265625,-0.05573670566082001,-0.06287343800067902,0.15746769309043884
1782987626198544000,3.5575439453125,-0.0431135892868042,-0.007291931193321943,0.18532994389533997
1782987626208618800,3.56761865234375,-0.035916008055210114,0.12431909888982773,0.2076210379600525
1782987626218693600,3.577693603515625,-0.011935574933886528,0.16583403944969177,0.212962806224823
1782987626228767700,3.587767822265625,0.0365886464715004,0.009603827260434628,0.1675906479358673
1782987626238842600,3.597842529296875,0.06574253737926483,-0.2714475393295288,0.04092085361480713
1782987626248917800,3.607917724609375,0.05622323602437973,-0.5786343812942505,-0.15112340450286865
1782987626258993000,3.617992919921875,0.004134202376008034,-0.7053409218788147,-0.33987441658973694
1782987626269066800,3.628066650390625,-0.05750853195786476,-0.5333735942840576,-0.4666357934474945
1782987626279142000,3.638141845703125,-0.1071019172668457,-0.19352492690086365,-0.5130125880241394
1782987626289216800,3.648216796875,-0.13439883291721344,0.1274283230304718,-0.4740506708621979
1782987626299291000,3.658290771484375,-0.13908971846103668,0.3202550411224365,-0.3554222881793976
1782987626309365800,3.66836572265625,-0.11492599546909332,0.3329720199108124,-0.1954691857099533
1782987626319441000,3.67844091796875,-0.0650780126452446,0.2085917592048645,-0.03968092426657677
1782987626329515800,3.688515869140625,-0.01149799581617117,0.06116941571235657,0.09387868642807007
1782987626339590000,3.69858984375,0.024895697832107544,-0.005204544402658939,0.19319914281368256
1782987626349664800,3.708664794921875,0.04599277675151825,0.027884826064109802,0.23606671392917633
1782987626359740000,3.718739990234375,0.06602960079908371,0.09693659842014313,0.2302202731370926
1782987626369813800,3.728813720703125,0.09716621786355972,0.14722439646720886,0.1801777482032776
1782987626379889000,3.738888916015625,0.13181713223457336,0.1448536515235901,0.136117085814476
1782987626389963800,3.7489638671875,0.15964390337467194,0.07809700071811676,0.08350149542093277
1782987626400038000,3.759037841796875,0.17686496675014496,-0.025966815650463104,0.03668578714132309
1782987626410112800,3.76911279296875,0.18749721348285675,-0.09887604415416718,0.012793535366654396
1782987626420187600,3.779187744140625,0.1967543661594391,-0.14330582320690155,0.003298833267763257
1782987626430262800,3.7892626953125,0.19947969913482666,-0.19553840160369873,0.0035213783849030733
1782987626440336600,3.799336669921875,0.20454582571983337,-0.23881636559963226,0.011477571912109852
1782987626450411800,3.809411865234375,0.2096223086118698,-0.2764332592487335,0.023441167548298836
1782987626460487000,3.81948681640625,0.21101993322372437,-0.28742972016334534,0.03843636065721512
1782987626470560800,3.829560791015625,0.2054196149110794,-0.280960351228714,0.044314347207546234
1782987626480636000,3.839635986328125,0.19042415916919708,-0.25172364711761475,0.047931719571352005
1782987626490710800,3.849710693359375,0.16806571185588837,-0.1844632625579834,0.05493321642279625
1782987626500786000,3.859785888671875,0.13562043011188507,-0.10772107541561127,0.07220194488763809
1782987626510859800,3.86985986328125,0.09909667074680328,-0.032533105462789536,0.09474882483482361
1782987626520935000,3.879934814453125,0.06576534360647202,0.021500568836927414,0.12768866121768951
1782987626531009800,3.890009765625,0.03608623147010803,0.060739319771528244,0.1717769056558609
1782987626541084000,3.900083984375,0.013710083439946175,0.07515954226255417,0.21441784501075745
1782987626551158800,3.91015869140625,-0.007412196137011051,0.0681530237197876,0.2449260801076889
1782987626561233700,3.920233642578125,-0.03289252147078514,0.03550213575363159,0.24611490964889526
1782987626571307800,3.930307861328125,-0.06683453172445297,-0.011973239481449127,0.20859983563423157
1782987626581382700,3.940382568359375,-0.10896893590688705,-0.0462835431098938,0.1465947926044464
1782987626591457800,3.950457763671875,-0.14527392387390137,-0.06544072180986404,0.06760002672672272
1782987626601532700,3.96053271484375,-0.17528136074543,-0.0803309828042984,-0.01752472296357155
1782987626611606800,3.970606689453125,-0.1872503012418747,-0.08083020150661469,-0.10800044983625412
1782987626621681700,3.980681640625,-0.18242597579956055,-0.06728562712669373,-0.17797555029392242
1782987626631756800,3.9907568359375,-0.17753741145133972,-0.04820474609732628,-0.23084548115730286
1782987626641830700,4.00083056640625,-0.17485535144805908,-0.037417877465486526,-0.2506237328052521
1782987626651905800,4.01090576171875,-0.1768598109483719,-0.04780926555395126,-0.24630942940711975
1782987626661981000,4.02098095703125,-0.19314584136009216,-0.1011076346039772,-0.21866901218891144
1782987626672054800,4.0310546875,-0.20306172966957092,-0.13200776278972626,-0.16241489350795746
1782987626682130000,4.0411298828125,-0.20695580542087555,-0.16049639880657196,-0.10897164046764374
1782987626692204800,4.051204833984375,-0.21408279240131378,-0.18912139534950256,-0.08239273726940155
1782987626702279700,4.06127978515625,-0.2220887839794159,-0.19658224284648895,-0.0745537206530571
1782987626712353800,4.071353759765625,-0.23760412633419037,-0.17490144073963165,-0.08900956064462662
1782987626722428700,4.0814287109375,-0.2505106031894684,-0.13843956589698792,-0.11922179162502289
1782987626732503800,4.09150390625,-0.2618415951728821,-0.10326320677995682,-0.14526940882205963
1782987626742577700,4.10157763671875,-0.27298107743263245,-0.06738483160734177,-0.15767335891723633
1782987626752652800,4.11165283203125,-0.2804853618144989,-0.04949704185128212,-0.1402776539325714
1782987626762727700,4.121727783203125,-0.2822585105895996,-0.05576559156179428,-0.10924968868494034
1782987626772802800,4.131802734375,-0.277837872505188,-0.08402080088853836,-0.07271585613489151
1782987626782876700,4.141876708984375,-0.26180699467658997,-0.11209185421466827,-0.036024682223796844
1782987626792951800,4.151951904296875,-0.24630960822105408,-0.12893646955490112,-0.000004551773599814624
1782987626803026700,4.162026611328125,-0.22652365267276764,-0.1534404754638672,0.029198873788118362
1782987626813100800,4.172100830078125,-0.21600408852100372,-0.17626497149467468,0.042302343994379044
1782987626823176000,4.182176025390625,-0.21119734644889832,-0.2003822922706604,0.044484805315732956
1782987626833250800,4.192250732421875,-0.21361856162548065,-0.21392127871513367,0.038212887942790985
1782987626843325000,4.202324951171875,-0.2257641702890396,-0.2028113603591919,0.022862162441015244
1782987626853399800,4.21239990234375,-0.23875963687896729,-0.18185162544250488,0.01436456199735403
1782987626863475200,4.22247509765625,-0.24622634053230286,-0.15819396078586578,0.01541917398571968
1782987626873550000,4.232550048828125,-0.24559970200061798,-0.15588021278381348,0.03691008314490318
1782987626883624200,4.242624267578125,-0.23612576723098755,-0.16214396059513092,0.07205422222614288
1782987626893699000,4.252698974609375,-0.22124075889587402,-0.1336931437253952,0.1277337670326233
1782987626903774200,4.262774169921875,-0.2188689410686493,-0.08305686712265015,0.1981823742389679
1782987626913848000,4.27284814453125,-0.2208019644021988,-0.15305793285369873,0.23679490387439728
1782987626923923200,4.282923095703125,-0.22112688422203064,-0.32386162877082825,0.1981910616159439
1782987626933998000,4.292998046875,-0.23827074468135834,-0.49808764457702637,0.07756532728672028
1782987626944072200,4.303072265625,-0.27080127596855164,-0.5978126525878906,-0.07223215699195862
1782987626954147000,4.31314697265625,-0.3285084068775177,-0.5336502194404602,-0.22371326386928558
1782987626964222200,4.32322216796875,-0.380711168050766,-0.3445602357387543,-0.321620374917984
1782987626974297300,4.33329736328125,-0.4096997082233429,-0.13629519939422607,-0.3469572365283966
1782987626984371200,4.34337109375,-0.4082765281200409,0.016110863536596298,-0.28868645429611206
1782987626994446300,4.3534462890625,-0.37742534279823303,0.10780935734510422,-0.14853781461715698
1782987627004521200,4.363521240234375,-0.3231911361217499,0.1422152817249298,0.04678560420870781
1782987627014595300,4.37359521484375,-0.2557549774646759,0.14352913200855255,0.25741007924079895
1782987627024670200,4.383670166015625,-0.18075397610664368,0.10433220118284225,0.4453514814376831
1782987627034745300,4.393745361328125,-0.12700790166854858,0.038320690393447876,0.5781906843185425
1782987627044820000,4.403820068359375,-0.08227479457855225,-0.037263285368680954,0.6376998424530029
1782987627054894300,4.413894287109375,-0.039355676621198654,-0.11836358904838562,0.6172354817390442
1782987627064969000,4.423968994140625,0.014013539999723434,-0.2176547646522522,0.5152401924133301
1782987627075044000,4.434044189453125,0.050298575311899185,-0.3069228529930115,0.3490977883338928
1782987627085118000,4.444117919921875,0.07394664734601974,-0.36111152172088623,0.15892332792282104
1782987627095193000,4.454193115234375,0.07405765354633331,-0.3512190580368042,-0.016921721398830414
1782987627105268200,4.464268310546875,0.06249367445707321,-0.2515084445476532,-0.1421550065279007
1782987627115342000,4.474342041015625,0.03788149356842041,-0.09482977539300919,-0.19722169637680054
1782987627125417200,4.484417236328125,0.009818965569138527,0.08214020729064941,-0.16926570236682892
1782987627135492000,4.4944921875,-0.01285373605787754,0.2395414113998413,-0.07761751115322113
1782987627145567200,4.504567138671875,-0.019033867865800858,0.34969669580459595,0.06412151455879211
1782987627155641000,4.51464111328125,0.006652682088315487,0.4068036377429962,0.2201547622680664
1782987627165716200,4.52471630859375,0.05383217707276344,0.38808563351631165,0.34324899315834045
1782987627175791400,4.534791259765625,0.0983024463057518,0.3255307674407959,0.4228382408618927
1782987627185865200,4.544865234375,0.14272557199001312,0.2662264108657837,0.4463225305080414
1782987627195940400,4.5549404296875,0.18718299269676208,0.22180943191051483,0.41985058784484863
1782987627206015200,4.56501513671875,0.23257951438426971,0.20952560007572174,0.3361106812953949
1782987627216090000,4.575090087890625,0.2744719684123993,0.21744690835475922,0.223294198513031
1782987627226164200,4.585164306640625,0.32156598567962646,0.23022662103176117,0.09786809980869293
1782987627236239000,4.595239013671875,0.3629876375198364,0.23220214247703552,-0.021404996514320374
1782987627246314200,4.605314208984375,0.39122965931892395,0.21424497663974762,-0.11310561746358871
1782987627256388000,4.61538818359375,0.4140280783176422,0.1835511177778244,-0.16957300901412964
1782987627266463200,4.625463134765625,0.43667879700660706,0.14493794739246368,-0.19611966609954834
1782987627276538000,4.6355380859375,0.4552282392978668,0.11743389070034027,-0.19991999864578247
1782987627286612200,4.6456123046875,0.47000062465667725,0.13238459825515747,-0.19501334428787231
1782987627296687000,4.65568701171875,0.4819735288619995,0.16488754749298096,-0.17603681981563568
1782987627306762200,4.66576220703125,0.48915475606918335,0.22998720407485962,-0.15340155363082886
1782987627316837000,4.675837158203125,0.4979165494441986,0.315512478351593,-0.12069393694400787
1782987627326911200,4.6859111328125,0.5147914290428162,0.40619978308677673,-0.08811362087726593
1782987627336986000,4.695986083984375,0.5384616255760193,0.4916759431362152,-0.04940911754965782
1782987627347061200,4.706061279296875,0.5813822150230408,0.5549147725105286,-0.0065354215912520885
1782987627357135000,4.716135009765625,0.632355272769928,0.5667001008987427,0.027362918481230736
1782987627367210200,4.726210205078125,0.6938197016716003,0.5478183031082153,0.055339958518743515
1782987627377285000,4.73628515625,0.7708889245986938,0.5016642212867737,0.0788269191980362
1782987627387360000,4.746360107421875,0.8474246859550476,0.4573814868927002,0.10250162333250046
1782987627397434000,4.75643408203125,0.9314001202583313,0.43391847610473633,0.12619054317474365
1782987627407509000,4.766509033203125,1.0203683376312256,0.4273849427700043,0.1747727245092392
1782987627417584000,4.776584228515625,1.097506046295166,0.4494949281215668,0.24947112798690796
1782987627427658000,4.786657958984375,1.1529104709625244,0.4671517014503479,0.3295947313308716
1782987627437733000,4.796733154296875,1.2010091543197632,0.47038689255714417,0.39055463671684265
1782987627447808300,4.806808349609375,1.229709267616272,0.4651268720626831,0.42259007692337036
1782987627457882000,4.816882080078125,1.2483669519424438,0.466474711894989,0.4182671308517456
1782987627467957200,4.826957275390625,1.2551844120025635,0.4927736818790436,0.37612420320510864
1782987627478032100,4.8370322265625,1.2524479627609253,0.544514536857605,0.30125269293785095
1782987627488107300,4.847107177734375,1.25357186794281,0.6292288899421692,0.19242769479751587
1782987627498181000,4.85718115234375,1.2615859508514404,0.67628014087677,0.044968731701374054
1782987627508256300,4.86725634765625,1.2723041772842407,0.5480201840400696,-0.17786993086338043
1782987627518331100,4.8773310546875,1.278525471687317,0.19292305409908295,-0.4982844889163971
1782987627528405200,4.8874052734375,1.3027236461639404,-0.19796426594257355,-0.8153979778289795
1782987627538480400,4.89748046875,1.3042396306991577,-0.32841578125953674,-1.0209609270095825
1782987627548555000,4.907554931640625,1.2573578357696533,-0.13789987564086914,-1.0933773517608643
1782987627558629400,4.91762939453125,1.193090796470642,0.2779075801372528,-0.9995748996734619
1782987627568704300,4.927704345703125,1.1188503503799438,0.7503241300582886,-0.7830793261528015
1782987627578779100,4.937779052734375,1.0482887029647827,1.07380211353302,-0.5143353343009949
1782987627588854000,4.94785400390625,1.0283936262130737,1.14469575881958,-0.25645267963409424
1782987627598928100,4.95792822265625,1.0762574672698975,1.036675214767456,-0.04876863211393356
1782987627609003000,4.9680029296875,1.1514334678649902,0.8033721446990967,0.08416171371936798
1782987627619078100,4.978078125,1.2205315828323364,0.5618718266487122,0.1198255717754364
1782987627629152000,4.988152099609375,1.286388635635376,0.40130022168159485,0.06782735139131546
1782987627639227100,4.99822705078125,1.3446204662322998,0.350443035364151,-0.04486909136176109
1782987627649302300,5.00830224609375,1.3755879402160645,0.38071173429489136,-0.1982855349779129
1782987627659377200,5.018377197265625,1.3769296407699585,0.46427425742149353,-0.32641348242759705
1782987627669451300,5.028451171875,1.3458055257797241,0.5445784330368042,-0.39278531074523926
1782987627679526100,5.038526123046875,1.3042675256729126,0.5927194356918335,-0.3986256420612335
1782987627689601300,5.048601318359375,1.2635210752487183,0.6147254109382629,-0.34591904282569885
1782987627699675100,5.058675048828125,1.2320027351379395,0.6282217502593994,-0.25428932905197144
1782987627709750300,5.068750244140625,1.2148916721343994,0.6671286821365356,-0.14031055569648743
1782987627719825200,5.0788251953125,1.2087997198104858,0.7204750180244446,-0.03155107423663139
1782987627729899300,5.088899169921875,1.1985753774642944,0.7657743096351624,0.05326394736766815
1782987627739974100,5.09897412109375,1.1853715181350708,0.8078144788742065,0.10126680135726929
1782987627750049000,5.109049072265625,1.1740479469299316,0.8334804177284241,0.11163501441478729
1782987627760124200,5.119124267578125,1.168326735496521,0.8472916483879089,0.08233372122049332
1782987627770198000,5.129197998046875,1.159143328666687,0.8395476937294006,0.023974813520908356
1782987627780273200,5.139273193359375,1.147503137588501,0.7995108366012573,-0.0402812659740448
1782987627790348000,5.14934814453125,1.1314234733581543,0.7485139966011047,-0.10793007910251617
1782987627800422100,5.159422119140625,1.1300913095474243,0.6924721598625183,-0.17533046007156372
1782987627810497300,5.169497314453125,1.1504578590393066,0.6202259659767151,-0.23912090063095093
1782987627820572200,5.179572265625,1.19032621383667,0.554165780544281,-0.29753363132476807
1782987627830647300,5.189647216796875,1.2421891689300537,0.4754757881164551,-0.32666832208633423
1782987627840721200,5.19972119140625,1.2860560417175293,0.41824525594711304,-0.32970112562179565
1782987627850796300,5.20979638671875,1.3131753206253052,0.4035017192363739,-0.29794371128082275
1782987627860871000,5.219870849609375,1.3204710483551025,0.42182788252830505,-0.2564221918582916
1782987627870944800,5.22994482421875,1.311745524406433,0.43377429246902466,-0.2101295292377472
1782987627881020000,5.24002001953125,1.290870189666748,0.4501636326313019,-0.18976230919361115
1782987627891094800,5.2500947265625,1.2619997262954712,0.47909435629844666,-0.17515221238136292
1782987627901169000,5.2601689453125,1.2364343404769897,0.4965361952781677,-0.17652899026870728
1782987627911243800,5.270243896484375,1.2091305255889893,0.5041512250900269,-0.16779302060604095
1782987627921318700,5.280318603515625,1.1906601190567017,0.5437403321266174,-0.1372159719467163
1782987627931393800,5.290393798828125,1.1776156425476074,0.5851319432258606,-0.09464746713638306
1782987627941467600,5.300467529296875,1.1626795530319214,0.6198359131813049,-0.050429798662662506
1782987627951542800,5.310542724609375,1.1556605100631714,0.6506524085998535,-0.008171559311449528
1782987627961617700,5.32061767578125,1.1520507335662842,0.644350528717041,0.026660410687327385
1782987627971691800,5.33069189453125,1.1476088762283325,0.5900068879127502,0.05129491537809372
1782987627981766700,5.3407666015625,1.1413933038711548,0.5335587859153748,0.06999912858009338
1782987627991841800,5.350841796875,1.1276577711105347,0.4781040549278259,0.08974486589431763
1782987628001915600,5.36091552734375,1.0999823808670044,0.44449949264526367,0.0967913419008255
1782987628011990800,5.37099072265625,1.0665855407714844,0.4279625713825226,0.09703688323497772
1782987628022066000,5.38106591796875,1.0413742065429688,0.4262191653251648,0.09111553430557251
1782987628032140800,5.391140869140625,1.0195854902267456,0.425343781709671,0.08798658847808838
1782987628042215000,5.40121484375,0.9975129961967468,0.4243539869785309,0.09019900113344193
1782987628052289800,5.411289794921875,0.9660437703132629,0.41213542222976685,0.097012959420681
1782987628062365000,5.421364990234375,0.9301785230636597,0.41272425651550293,0.1001373678445816
1782987628072438800,5.431438720703125,0.88404780626297,0.39801427721977234,0.08905941992998123
1782987628082514000,5.441513916015625,0.837157666683197,0.2764967679977417,0.03587832674384117
1782987628092588800,5.4515888671875,0.7900050282478333,0.07968597859144211,-0.07908234000205994
1782987628102663700,5.46166357421875,0.7358697652816772,-0.039035480469465256,-0.21029452979564667
1782987628112737800,5.47173779296875,0.6769756078720093,0.0023907877039164305,-0.3229811489582062
1782987628122812700,5.481812744140625,0.6247779726982117,0.2131597399711609,-0.3855011761188507
1782987628132887800,5.4918876953125,0.5853975415229797,0.48043113946914673,-0.3894471824169159
1782987628142961700,5.501961669921875,0.5550679564476013,0.705935001373291,-0.33139124512672424
1782987628153036800,5.512036865234375,0.5574895143508911,0.8136758208274841,-0.22658014297485352
1782987628163111700,5.522111572265625,0.598638653755188,0.7897471785545349,-0.10253943502902985
1782987628173185800,5.532185791015625,0.6750609874725342,0.6797738075256348,0.028665989637374878
1782987628183260700,5.5422607421875,0.7529413104057312,0.5846872329711914,0.16000761091709137
1782987628193335800,5.552335693359375,0.8146677613258362,0.5156235098838806,0.25213032960891724
1782987628203411000,5.562410888671875,0.854338526725769,0.4825804531574249,0.29529130458831787
1782987628213484800,5.57248486328125,0.8833440542221069,0.4811825454235077,0.2871393859386444
1782987628223560000,5.582559814453125,0.9043552279472351,0.491249144077301,0.2293403595685959
1782987628233634800,5.592634765625,0.9135846495628357,0.5055796504020691,0.14650806784629822
1782987628243709000,5.602708984375,0.910913348197937,0.531000554561615,0.07465329021215439
1782987628253783800,5.61278369140625,0.9066624045372009,0.5725155472755432,0.03435567021369934
1782987628263858700,5.622858642578125,0.9071395993232727,0.6192862391471863,0.017448127269744873
1782987628273933800,5.632933837890625,0.9020569920539856,0.6480950117111206,0.016033988445997238
1782987628284007700,5.643007568359375,0.8969552516937256,0.6520794034004211,0.02420135587453842
1782987628294082800,5.653082763671875,0.8875758647918701,0.6296513676643372,0.02034696191549301
1782987628304157700,5.66315771484375,0.8753508925437927,0.5992707014083862,-0.005611290689557791
1782987628314231800,5.673231689453125,0.8778660297393799,0.5902977585792542,-0.04695500060915947
1782987628324306700,5.683306640625,0.8864626884460449,0.6197349429130554,-0.10252231359481812
1782987628334381800,5.6933818359375,0.8937301635742188,0.6933116912841797,-0.14815105497837067
1782987628344455700,5.70345556640625,0.904679536819458,0.7766851782798767,-0.1865091770887375
1782987628354530800,5.71353076171875,0.9211301207542419,0.8245243430137634,-0.20701152086257935
1782987628364606000,5.72360595703125,0.9502390027046204,0.8063518404960632,-0.20911893248558044
1782987628374680800,5.733680908203125,0.9819415211677551,0.7378689050674438,-0.19964712858200073
1782987628384755000,5.7437548828125,1.006556510925293,0.6555215716362,-0.1756504327058792
1782987628394829800,5.753829833984375,1.0355713367462158,0.5599814653396606,-0.13756537437438965
1782987628404905000,5.763905029296875,1.0654247999191284,0.5044156908988953,-0.09572841972112656
1782987628414978800,5.773978759765625,1.0844826698303223,0.45827510952949524,-0.0839865431189537
1782987628425054000,5.784053955078125,1.0943244695663452,0.4094918370246887,-0.11257866770029068
1782987628435128600,5.794128662109375,1.0983562469482422,0.3849092721939087,-0.17096181213855743
1782987628445203000,5.804202880859375,1.0894935131072998,0.3585255742073059,-0.2373604029417038
1782987628455277600,5.814277587890625,1.0639705657958984,0.33336615562438965,-0.3038907051086426
1782987628465352700,5.824352783203125,1.0334398746490479,0.3208225667476654,-0.3530014157295227
1782987628475427800,5.834427734375,1.0120296478271484,0.34463173151016235,-0.3834781050682068
1782987628485501700,5.844501708984375,1.002052903175354,0.37926095724105835,-0.39049360156059265
1782987628495576800,5.854576904296875,1.0025643110275269,0.39470967650413513,-0.3731611967086792
1782987628505651700,5.864651611328125,1.0008035898208618,0.4158594608306885,-0.3412613272666931
1782987628515725800,5.874725830078125,1.000378966331482,0.42393550276756287,-0.28906843066215515
1782987628525800700,5.88480078125,1.0048575401306152,0.40341198444366455,-0.23062843084335327
1782987628535875800,5.894875732421875,1.014983892440796,0.4109950661659241,-0.16719406843185425
1782987628545951000,5.904950927734375,1.031821846961975,0.4613906145095825,-0.12270176410675049
1782987628556024800,5.91502490234375,1.0449461936950684,0.48015549778938293,-0.09604964405298233
1782987628566100000,5.925099853515625,1.0445138216018677,0.46839427947998047,-0.09740781784057617
1782987628576174800,5.9351748046875,1.028145432472229,0.43660441040992737,-0.11868461221456528
1782987628586249000,5.9452490234375,0.9947105646133423,0.40770697593688965,-0.14506617188453674
1782987628596323800,5.95532373046875,0.9546840786933899,0.4019865095615387,-0.15470682084560394
1782987628606398700,5.965398681640625,0.907858669757843,0.41805776953697205,-0.14445209503173828
1782987628616472800,5.975472900390625,0.865114688873291,0.45480644702911377,-0.12439209967851639
1782987628626547700,5.985547607421875,0.825505793094635,0.5008087158203125,-0.08153724670410156
1782987628636622800,5.995622802734375,0.7857890129089355,0.555554211139679,-0.03398570790886879
1782987628646697700,6.00569775390625,0.7515763640403748,0.5880067348480225,0.005255657248198986
1782987628656771800,6.015771728515625,0.7166820168495178,0.6001768708229065,0.02373027242720127
1782987628666846700,6.0258466796875,0.6852278113365173,0.6144251227378845,0.025634389370679855
1782987628676921900,6.035921875,0.6643073558807373,0.6308743953704834,0.011453589424490929
1782987628686995700,6.04599560546875,0.6457036733627319,0.6558953523635864,-0.014813720248639584
1782987628697070800,6.05607080078125,0.6318512558937073,0.6886708736419678,-0.049087006598711014
1782987628707145700,6.066145751953125,0.6351758241653442,0.690605640411377,-0.08457965403795242
1782987628717220900,6.076220947265625,0.6452388763427734,0.6439662575721741,-0.1229238510131836
1782987628727294700,6.086294677734375,0.6655861139297485,0.5651557445526123,-0.15376177430152893
1782987628737369900,6.096369873046875,0.6859526038169861,0.528042197227478,-0.16714096069335938
1782987628747445000,6.106445068359375,0.7033253908157349,0.5287180542945862,-0.1678033322095871
1782987628757518800,6.116518798828125,0.7187895774841309,0.6084896326065063,-0.1411253809928894
1782987628767594000,6.126593994140625,0.7392858862876892,0.8252051472663879,-0.10467392206192017
1782987628777668600,6.136668701171875,0.7657721042633057,1.0112504959106445,-0.06752415746450424
1782987628787743000,6.146742919921875,0.809390664100647,0.9460030794143677,-0.07556136697530746
1782987628797817600,6.156817626953125,0.8599574565887451,0.6899774074554443,-0.13115058839321136
1782987628807892700,6.166892822265625,0.8998908400535583,0.3712022602558136,-0.21431374549865723
1782987628817967900,6.1769677734375,0.9110574722290039,0.13928566873073578,-0.31758102774620056
1782987628828041700,6.187041748046875,0.8743336796760559,0.09283813089132309,-0.39990708231925964
1782987628838116900,6.197116943359375,0.8110241889953613,0.2486591637134552,-0.4460873603820801
1782987628848191700,6.207191650390625,0.7412876486778259,0.5147836208343506,-0.44965997338294983
1782987628858265900,6.217265869140625,0.6931041479110718,0.7950714826583862,-0.3907148838043213
1782987628868340500,6.227340576171875,0.6856552362442017,1.0084174871444702,-0.27156898379325867
1782987628878415400,6.237415283203125,0.7173795700073242,1.1376745700836182,-0.11797942221164703
1782987628888489500,6.247489501953125,0.7688769698143005,1.2081272602081299,0.0498233437538147
1782987628898564400,6.257564453125,0.8031883239746094,1.2278250455856323,0.18223251402378082
1782987628908639500,6.267639404296875,0.8299282789230347,1.1557927131652832,0.2593497335910797
1782987628918714600,6.277714599609375,0.8465341329574585,0.9940455555915833,0.27032941579818726
1782987628928788500,6.28778857421875,0.856095016002655,0.7431111931800842,0.20485703647136688
1782987628938863600,6.297863525390625,0.8729355335235596,0.46716058254241943,0.07747644931077957
1782987628948938500,6.3079384765625,0.8957405090332031,0.25584927201271057,-0.09053461253643036
1782987628959012600,6.3180126953125,0.9237721562385559,0.1329726278781891,-0.2632453739643097
1782987628969087500,6.32808740234375,0.954774022102356,0.10439158976078033,-0.3915156126022339
1782987628979162400,6.338162353515625,0.9653148055076599,0.17314589023590088,-0.46419036388397217
1782987628989237200,6.3482373046875,0.9781659245491028,0.26283952593803406,-0.4712200462818146
1782987628999311400,6.358311279296875,0.9881394505500793,0.37008848786354065,-0.41447392106056213
1782987629009386200,6.36838623046875,0.9914465546607971,0.45300576090812683,-0.2988858222961426
1782987629019461400,6.37846142578125,0.9969662427902222,0.4831135869026184,-0.15751270949840546
1782987629029535500,6.388535400390625,1.0122740268707275,0.4792732000350952,-0.01932578906416893
1782987629039610400,6.3986103515625,1.0342192649841309,0.45795273780822754,0.09492328763008118
1782987629049685500,6.408685546875,1.059409737586975,0.43517056107521057,0.18105486035346985
1782987629059759400,6.41875927734375,1.0749050378799438,0.4208342432975769,0.22576241195201874
1782987629069834500,6.42883447265625,1.0837310552597046,0.39230525493621826,0.23057521879673004
1782987629079909400,6.438909423828125,1.0895644426345825,0.33954405784606934,0.21557843685150146
1782987629089984500,6.448984619140625,1.0886738300323486,0.2844982147216797,0.18042373657226562
1782987629100058400,6.459058349609375,1.0773661136627197,0.23371362686157227,0.14007365703582764
1782987629110133500,6.469133544921875,1.0574767589569092,0.18035107851028442,0.10456914454698563
1782987629120208400,6.47920849609375,1.0193277597427368,0.12427500635385513,0.07427621632814407
1782987629130282500,6.489282470703125,0.9621856808662415,0.07690031081438065,0.04975709691643715
1782987629140357400,6.499357421875,0.8935336470603943,0.034832485020160675,0.01824178174138069
1782987629150431500,6.509431396484375,0.8228312134742737,-0.01346008200198412,-0.025631042197346687
1782987629160506400,6.51950634765625,0.7605395913124084,-0.04630059003829956,-0.0834602564573288
1782987629170581200,6.529581298828125,0.7138230800628662,-0.06813078373670578,-0.13827253878116608
1782987629180655400,6.5396552734375,0.6796808242797852,-0.08112647384405136,-0.18500329554080963
1782987629190730200,6.549730224609375,0.6441616415977478,-0.07007236033678055,-0.2143222838640213
1782987629200805400,6.559805419921875,0.613211989402771,-0.050923969596624374,-0.24223540723323822
1782987629210879200,6.569879150390625,0.5732545256614685,-0.04948333278298378,-0.27019360661506653
1782987629220954400,6.579954345703125,0.5335199236869812,-0.0638449639081955,-0.28294509649276733
1782987629231029500,6.590029541015625,0.4948273003101349,-0.056400228291749954,-0.2707163095474243
1782987629241103400,6.600103271484375,0.44309964776039124,-0.022587401792407036,-0.2447555661201477
1782987629251178500,6.610178466796875,0.38438722491264343,0.024764668196439743,-0.2031526267528534
1782987629261253400,6.62025341796875,0.32456809282302856,0.07545900344848633,-0.1740187108516693
1782987629271328500,6.63032861328125,0.2729087173938751,0.1217452734708786,-0.1479695588350296
1782987629281402400,6.64040234375,0.2423638552427292,0.16138537228107452,-0.13179591298103333
1782987629291477500,6.6504775390625,0.23038583993911743,0.1665017008781433,-0.1278124451637268
1782987629301552600,6.660552734375,0.23626263439655304,0.13464735448360443,-0.12149329483509064
1782987629311626500,6.67062646484375,0.2426394671201706,0.08560484647750854,-0.11611907184123993
1782987629321701600,6.68070166015625,0.24211294949054718,0.03197810426354408,-0.10660252720117569
1782987629331776300,6.6907763671875,0.23863661289215088,-0.008419916965067387,-0.09782997518777847
1782987629341850600,6.7008505859375,0.23179174959659576,-0.03397427871823311,-0.08605454117059708
1782987629351925200,6.71092529296875,0.21750755608081818,-0.04729301482439041,-0.06990332901477814
1782987629362000400,6.72100048828125,0.1938251256942749,-0.0527048259973526,-0.0551677867770195
1782987629372075300,6.7310751953125,0.16800428926944733,-0.05809146165847778,-0.03938212990760803
1782987629382149400,6.7411494140625,0.14854696393013,-0.09552725404500961,-0.03436686471104622
1782987629392224300,6.751224365234375,0.1450466513633728,-0.13131454586982727,-0.044054821133613586
1782987629402299400,6.76129931640625,0.14591911435127258,-0.1425517499446869,-0.057335469871759415
1782987629412373200,6.771373291015625,0.13528265058994293,-0.12563149631023407,-0.06636429578065872
1782987629422448400,6.781448486328125,0.11203990131616592,-0.06804436445236206,-0.08152247965335846
1782987629432523500,6.7915234375,0.09204062819480896,0.06762851774692535,-0.08461121469736099
1782987629442598400,6.801598388671875,0.0737665444612503,0.11693774163722992,-0.08988481014966965
1782987629452672500,6.811672607421875,0.061728328466415405,-0.03353658318519592,-0.14405864477157593
1782987629462747400,6.821747314453125,0.051684752106666565,-0.20072343945503235,-0.23314298689365387
1782987629472822500,6.831822509765625,0.03794947639107704,-0.3317023515701294,-0.30728277564048767
1782987629482896400,6.841896484375,0.009211036376655102,-0.37999504804611206,-0.35356372594833374
1782987629492971500,6.851971435546875,-0.006277470383793116,-0.27256983518600464,-0.34139201045036316
1782987629503046400,6.86204638671875,0.00809055007994175,-0.0649002343416214,-0.27264782786369324
1782987629513120500,6.87212060546875,0.03563322871923447,0.12293997406959534,-0.16608010232448578
1782987629523195400,6.8821953125,0.07228471338748932,0.23701034486293793,-0.038402292877435684
1782987629533270300,6.892270263671875,0.12063481658697128,0.30591925978660583,0.10761559754610062
1782987629543345400,6.902345458984375,0.1804416924715042,0.35536137223243713,0.25375017523765564
1782987629553419300,6.912419189453125,0.22454287111759186,0.3927221894264221,0.3966123163700104
1782987629563494400,6.922494384765625,0.24412456154823303,0.3749018907546997,0.511680543422699
1782987629573569500,6.932569580078125,0.25930139422416687,0.3018929362297058,0.5726932287216187
1782987629583643400,6.942643310546875,0.28115931153297424,0.16220828890800476,0.571312665939331
1782987629593718500,6.952718505859375,0.3136877715587616,-0.0016895727021619678,0.5180078744888306
1782987629603793400,6.96279345703125,0.34176814556121826,-0.11718714237213135,0.4272601306438446
1782987629613867500,6.972867431640625,0.3510858416557312,-0.15733468532562256,0.31990846991539
1782987629623942400,6.9829423828125,0.33058640360832214,-0.11393182724714279,0.22737188637256622
1782987629634017500,6.993017578125,0.29286694526672363,-0.011167097836732864,0.17114531993865967
1782987629644092400,7.003092529296875,0.24082264304161072,0.09517505764961243,0.14199969172477722
1782987629654166500,7.01316650390625,0.1958019882440567,0.18591813743114471,0.1425921618938446
1782987629664241400,7.023241455078125,0.1752445101737976,0.2738107144832611,0.16584154963493347
1782987629674316300,7.03331640625,0.17297682166099548,0.3776003420352936,0.22337129712104797
1782987629684390400,7.043390380859375,0.18404705822467804,0.4721846580505371,0.2974276840686798
1782987629694465300,7.05346533203125,0.20331436395645142,0.5222965478897095,0.3562583327293396
1782987629704540400,7.06354052734375,0.23101603984832764,0.5224512815475464,0.38376718759536743
1782987629714615300,7.073615234375,0.27846261858940125,0.4941348433494568,0.38165906071662903
1782987629724689400,7.083689453125,0.3191964626312256,0.46661850810050964,0.3479442298412323
1782987629734764300,7.093764404296875,0.35051190853118896,0.4296993613243103,0.2890404462814331
1782987629744839400,7.10383935546875,0.373446524143219,0.36862456798553467,0.20773787796497345
1782987629754913300,7.113913330078125,0.40276697278022766,0.29578229784965515,0.11785304546356201
1782987629764988400,7.123988525390625,0.41397541761398315,0.21896770596504211,0.023014148697257042
1782987629775063600,7.1340634765625,0.41964831948280334,0.13246943056583405,-0.06676710397005081
1782987629785137400,7.144137451171875,0.42590782046318054,0.09244851022958755,-0.14812374114990234
1782987629795212500,7.154212646484375,0.4311892092227936,0.0973186269402504,-0.21209554374217987
1782987629805287400,7.164287353515625,0.43758320808410645,0.11628885567188263,-0.24947062134742737
1782987629815362600,7.174362548828125,0.43038180470466614,0.1545945703983307,-0.27654406428337097
1782987629825436400,7.1844365234375,0.4171198010444641,0.197548970580101,-0.2791922986507416
1782987629835511600,7.194511474609375,0.4038456976413727,0.23691794276237488,-0.26418110728263855
1782987629845586200,7.204586181640625,0.39648765325546265,0.2770107686519623,-0.23853248357772827
1782987629855660500,7.21466064453125,0.39604103565216064,0.2927921414375305,-0.20808428525924683
1782987629865735400,7.2247353515625,0.41503432393074036,0.3000224828720093,-0.1854361891746521
1782987629875810600,7.234810546875,0.45557016134262085,0.3176487386226654,-0.15596763789653778
1782987629885884400,7.244884521484375,0.5087884068489075,0.3507060110569,-0.12133562564849854
1782987629895959600,7.25495947265625,0.574448823928833,0.39040616154670715,-0.0899844691157341
1782987629906034400,7.265034423828125,0.6463462114334106,0.4248349964618683,-0.0570526160299778
1782987629916109600,7.275109619140625,0.7148107290267944,0.43881726264953613,-0.02792762592434883
1782987629926183700,7.28518359375,0.7707469463348389,0.4299153685569763,-0.013947892934083939
1782987629936258600,7.295258544921875,0.8088065981864929,0.42926886677742004,-0.008880729787051678
1782987629946333700,7.305333740234375,0.8325116634368896,0.4257955849170685,-0.011726850643754005
1782987629956407600,7.315407470703125,0.8436521887779236,0.4099847674369812,-0.022338153794407845
1782987629966482700,7.325482666015625,0.8435505032539368,0.4034653604030609,-0.037403654307127
1782987629976557600,7.3355576171875,0.8408291339874268,0.41811835765838623,-0.041905444115400314
1782987629986632700,7.3456328125,0.8430161476135254,0.43814346194267273,-0.03664863109588623
1782987629996706600,7.35570654296875,0.8582203388214111,0.46656763553619385,-0.024747733026742935
1782987630006781700,7.36578173828125,0.8834004998207092,0.46683767437934875,-0.020715441554784775
1782987630016856600,7.375856689453125,0.9113152623176575,0.4371759295463562,-0.019269155338406563
1782987630026930700,7.3859306640625,0.9396044015884399,0.42163532972335815,-0.006888385396450758
1782987630037005600,7.396005615234375,0.9576489329338074,0.4238162040710449,0.008947959169745445
1782987630047080400,7.40608056640625,0.9582042098045349,0.42996516823768616,0.015429293736815453
1782987630057154600,7.416154541015625,0.962253749370575,0.4602193236351013,0.013700260780751705
1782987630067229400,7.4262294921875,0.959192156791687,0.5302314758300781,-0.006839368958026171
1782987630077304600,7.4363046875,0.9654877185821533,0.6373002529144287,-0.04180111363530159
1782987630087379700,7.446379638671875,0.9856734275817871,0.6158937215805054,-0.11007072031497955
1782987630097453600,7.45645361328125,1.021045207977295,0.40594395995140076,-0.23817773163318634
1782987630107528700,7.46652880859375,1.0584133863449097,0.1784258633852005,-0.37295711040496826
1782987630117603600,7.476603515625,1.0801390409469604,0.11296962946653366,-0.42318418622016907
1782987630127677700,7.486677734375,1.0827226638793945,0.274934321641922,-0.4021129906177521
1782987630137752600,7.496752685546875,1.0953272581100464,0.5905139446258545,-0.33389776945114136
1782987630147827700,7.50682763671875,1.1139217615127563,0.8454937934875488,-0.25479575991630554
1782987630157902600,7.516902587890625,1.140386700630188,0.9429321885108948,-0.18171970546245575
1782987630167976700,7.526976806640625,1.1723148822784424,0.84891676902771,-0.14672869443893433
1782987630178051600,7.537051513671875,1.2028205394744873,0.6711187958717346,-0.15292224287986755
1782987630188126500,7.54712646484375,1.2431058883666992,0.5116170048713684,-0.18501226603984833
1782987630198200600,7.55720068359375,1.2716513872146606,0.46434590220451355,-0.22039203345775604
1782987630208275500,7.567275390625,1.2908951044082642,0.5258148908615112,-0.2508671283721924
1782987630218350600,7.5773505859375,1.3082741498947144,0.6439594626426697,-0.26666954159736633
1782987630228424400,7.587424560546875,1.3309656381607056,0.7405354976654053,-0.25092625617980957
1782987630238499600,7.59749951171875,1.3643739223480225,0.7943035960197449,-0.21245728433132172
1782987630248574500,7.607574462890625,1.4081350564956665,0.8002610802650452,-0.13439098000526428
1782987630258649600,7.617649658203125,1.4407292604446411,0.767853319644928,-0.04436291754245758
1782987630268723500,7.627723388671875,1.463222861289978,0.676845371723175,0.032445043325424194
1782987630278798600,7.637798583984375,1.4597877264022827,0.5344786047935486,0.05987519398331642
1782987630288873700,7.647873779296875,1.44266676902771,0.36706462502479553,0.022126751020550728
1782987630298947600,7.657947509765625,1.4193469285964966,0.20164211094379425,-0.07215818762779236
1782987630309022700,7.668022705078125,1.3801113367080688,0.12154886871576309,-0.20161311328411102
1782987630319097600,7.67809765625,1.321860909461975,0.16079960763454437,-0.315129816532135
1782987630329172700,7.6881728515625,1.2634851932525635,0.26103806495666504,-0.398065447807312
1782987630339246600,7.69824658203125,1.2120884656906128,0.3766980767250061,-0.4452359974384308
1782987630349321700,7.70832177734375,1.1748145818710327,0.47099873423576355,-0.4432106614112854
1782987630359396600,7.718396728515625,1.1556767225265503,0.5299343466758728,-0.39545488357543945
1782987630369470700,7.728470703125,1.1496065855026245,0.5604360699653625,-0.31438878178596497
1782987630379545600,7.738545654296875,1.15654718875885,0.57990562915802,-0.20798943936824799
1782987630389620500,7.748620361328125,1.1609960794448853,0.5903286933898926,-0.1114083006978035
1782987630399694600,7.758694580078125,1.1620509624481201,0.5710203647613525,-0.03323201835155487
1782987630409769500,7.76876953125,1.1625146865844727,0.5439032912254333,0.00029212026856839657
1782987630419844600,7.7788447265625,1.1571794748306274,0.5090778470039368,0.005417311564087868
1782987630429919500,7.78891943359375,1.1406316757202148,0.48547688126564026,-0.029270362108945847
1782987630439993600,7.79899365234375,1.1135351657867432,0.4813139736652374,-0.08558466285467148
1782987630450068500,7.809068359375,1.0993537902832031,0.4805065095424652,-0.1533738225698471
1782987630460143600,7.8191435546875,1.0892624855041504,0.49911266565322876,-0.201750248670578
1782987630470217500,7.829217529296875,1.0786221027374268,0.5078563690185547,-0.23488104343414307
1782987630480292600,7.839292724609375,1.0645098686218262,0.4996078908443451,-0.25472620129585266
1782987630490367700,7.84936767578125,1.0461335182189941,0.4529586136341095,-0.25728124380111694
1782987630500441600,7.859441650390625,1.0277284383773804,0.40100234746932983,-0.2506512403488159
1782987630510516700,7.869516845703125,1.004308819770813,0.3513503968715668,-0.23624195158481598
1782987630520591600,7.879591552734375,0.9866613149642944,0.30784645676612854,-0.22206252813339233
1782987630530666500,7.88966650390625,0.9699390530586243,0.31296664476394653,-0.20787879824638367
1782987630540740600,7.89974072265625,0.9657853841781616,0.335799902677536,-0.19371280074119568
1782987630550815500,7.9098154296875,0.9643012285232544,0.36414578557014465,-0.184646338224411
1782987630560890600,7.919890625,0.9671111106872559,0.36921271681785583,-0.16993215680122375
1782987630570964500,7.929964599609375,0.9754257202148438,0.34711673855781555,-0.15932531654834747
1782987630581039600,7.94003955078125,0.9789295196533203,0.3191606104373932,-0.13162288069725037
1782987630591114500,7.950114501953125,0.9720497727394104,0.2833133935928345,-0.10626453161239624
1782987630601188600,7.960188720703125,0.9520520567893982,0.24162881076335907,-0.0610569603741169
1782987630611263500,7.970263427734375,0.923754096031189,0.20185741782188416,-0.012428968213498592
1782987630621338600,7.980338623046875,0.8942306637763977,0.18123777210712433,0.04258006438612938
1782987630631413800,7.990413818359375,0.8681561946868896,0.18979157507419586,0.09495246410369873
1782987630641487600,8.000487548828126,0.8414660096168518,0.2220219522714615,0.14371174573898315
1782987630651562800,8.010562744140625,0.8186946511268616,0.2684195339679718,0.1767171025276184
1782987630661637600,8.0206376953125,0.8007933497428894,0.2979663908481598,0.18727806210517883
1782987630671711700,8.030711669921875,0.776680052280426,0.28257811069488525,0.1748935580253601
1782987630681786600,8.04078662109375,0.7449996471405029,0.2460440695285797,0.13671034574508667
1782987630691861500,8.050861572265624,0.70359867811203,0.17892548441886902,0.06157911568880081
1782987630701936400,8.060936279296875,0.6509990096092224,0.07938024401664734,-0.041843317449092865
1782987630712010500,8.071010498046874,0.5922285914421082,0.0030218237079679966,-0.1572767049074173
1782987630722085400,8.08108544921875,0.5279450416564941,0.013241968117654324,-0.2662062644958496
1782987630732160500,8.091160400390624,0.4879438281059265,0.08710047602653503,-0.33215412497520447
1782987630742234400,8.101234375,0.4839504659175873,0.2274625152349472,-0.3298044204711914
1782987630752309500,8.1113095703125,0.5170333385467529,0.37599605321884155,-0.2522052526473999
1782987630762384600,8.121384521484375,0.5842381119728088,0.4803447127342224,-0.1415032148361206
1782987630772458500,8.13145849609375,0.6663553714752197,0.5024579763412476,-0.014823826029896736
1782987630782533600,8.14153369140625,0.7341480255126953,0.4133141338825226,0.08596429228782654
1782987630792608500,8.1516083984375,0.7744978666305542,0.28999993205070496,0.1463642567396164
1782987630802683600,8.16168359375,0.7807661890983582,0.2440345734357834,0.1886804699897766
1782987630812757500,8.171757568359375,0.769646167755127,0.2808591425418854,0.20766295492649078
1782987630822832600,8.18183251953125,0.7642455697059631,0.3535127341747284,0.20899325609207153
1782987630832907800,8.19190771484375,0.7683787941932678,0.44682884216308594,0.20501555502414703
1782987630842981600,8.201981689453126,0.7928967475891113,0.500920832157135,0.2022150456905365
1782987630853056800,8.212056884765625,0.8210064172744751,0.5161530375480652,0.19679710268974304
1782987630863131600,8.222131591796876,0.8507272601127625,0.5144893527030945,0.1958320438861847
1782987630873206000,8.2322060546875,0.8759087920188904,0.5241534113883972,0.2008611559867859
1782987630883281000,8.242281005859375,0.8850875496864319,0.5490463972091675,0.21312344074249268
1782987630893355800,8.252355712890624,0.8741699457168579,0.5855820178985596,0.2196093052625656
1782987630903431000,8.262430908203125,0.8644965291023254,0.6174888610839844,0.20387409627437592
1782987630913504800,8.2725048828125,0.8614224195480347,0.6501458287239075,0.1783226579427719
1782987630923580000,8.282579833984375,0.8837101459503174,0.6609203815460205,0.13674843311309814
1782987630933655000,8.292655029296874,0.919593334197998,0.6564550399780273,0.09502363204956055
1782987630943729000,8.30272900390625,0.963520884513855,0.65207839012146,0.05881647765636444
1782987630953804000,8.312803955078126,1.0111395120620728,0.6388632655143738,0.028163760900497437
1782987630963879000,8.32287890625,1.0571237802505493,0.6173123717308044,0.007594854570925236
1782987630973953000,8.332953125,1.1065407991409302,0.5758246183395386,-0.010396396741271019
1782987630984028000,8.34302783203125,1.1526830196380615,0.5361764430999756,-0.025376833975315094
1782987630994103000,8.35310302734375,1.194928765296936,0.49490886926651,-0.04159441962838173
1782987631004178000,8.363177978515624,1.2194350957870483,0.4768993556499481,-0.049836669117212296
1782987631014252000,8.373251953125,1.2325785160064697,0.49680304527282715,-0.04795514792203903
1782987631024327000,8.383326904296876,1.2280205488204956,0.5338694453239441,-0.04882018640637398
1782987631034401800,8.39340185546875,1.2153269052505493,0.564955472946167,-0.06455814093351364
1782987631044476200,8.40347607421875,1.208776831626892,0.5827401876449585,-0.07966718822717667
1782987631054550800,8.41355078125,1.214985728263855,0.5758767127990723,-0.09991094470024109
1782987631064626000,8.4236259765625,1.224141240119934,0.548721194267273,-0.1134168729186058
1782987631074699800,8.43369970703125,1.2366037368774414,0.552003026008606,-0.10646601766347885
1782987631084775000,8.44377490234375,1.2413393259048462,0.5740596055984497,-0.07509709894657135
1782987631094849800,8.453849853515624,1.2316811084747314,0.5738039612770081,-0.05664245784282684
1782987631104925000,8.463925048828125,1.2235766649246216,0.5563533306121826,-0.05144666135311127
1782987631114998800,8.473998779296876,1.2247942686080933,0.5759904384613037,-0.05208368971943855
1782987631125074000,8.484073974609375,1.2317111492156982,0.640504002571106,-0.05062949284911156
1782987631135149000,8.494149169921876,1.2331918478012085,0.6931800246238708,-0.04890909045934677
1782987631145223000,8.504222900390625,1.2386415004730225,0.7250645756721497,-0.042292531579732895
1782987631155298000,8.514298095703126,1.2533988952636719,0.7239284515380859,-0.029472870752215385
1782987631165373000,8.524373046875,1.2766166925430298,0.701461911201477,0.006466739345341921
1782987631175448000,8.534447998046875,1.2930201292037964,0.6745754480361938,0.04429161548614502
1782987631185522000,8.54452197265625,1.3045165538787842,0.6222479343414307,0.07509034872055054
1782987631195597000,8.55459716796875,1.3062803745269775,0.5864353179931641,0.09288585931062698
1782987631205672000,8.564671875,1.3025405406951904,0.5922945737838745,0.08118485659360886
1782987631215746000,8.57474609375,1.2908200025558472,0.6016132235527039,0.04349793121218681
1782987631225821000,8.584821044921876,1.2680270671844482,0.6312679052352905,-0.003717816201969981
1782987631235895800,8.594895751953125,1.2421066761016846,0.6531808972358704,-0.05236231908202171
1782987631245970000,8.604969970703126,1.2152386903762817,0.6656357645988464,-0.09532944113016129
1782987631256044800,8.615044921875,1.1954973936080933,0.6835700273513794,-0.11565655469894409
1782987631266120000,8.625119873046875,1.186734914779663,0.71442711353302,-0.10214520990848541
1782987631276194800,8.63519482421875,1.178664207458496,0.7699209451675415,-0.07239183783531189
1782987631286269000,8.64526904296875,1.1860158443450928,0.8192581534385681,-0.038135867565870285
1782987631296343800,8.65534375,1.1958386898040771,0.8471958041191101,-0.018543791025877
1782987631306419000,8.6654189453125,1.2107264995574951,0.8454914093017578,-0.013633158057928085
1782987631316493000,8.6754931640625,1.220249056816101,0.8511071801185608,-0.03434189781546593
1782987631326568000,8.68556787109375,1.239174246788025,0.8684724569320679,-0.07766038924455643
1782987631336643000,8.69564306640625,1.2517791986465454,0.9024717211723328,-0.13338890671730042
1782987631346717000,8.705717041015625,1.2790299654006958,0.8911482095718384,-0.21759797632694244
1782987631356792000,8.7157919921875,1.2948049306869507,0.748845636844635,-0.35544878244400024
1782987631366867000,8.725866943359375,1.2942402362823486,0.49564817547798157,-0.5258999466896057
1782987631376941800,8.73594189453125,1.2844642400741577,0.36280277371406555,-0.647807776927948
1782987631387016000,8.746015869140624,1.2643394470214844,0.4380723536014557,-0.6860871911048889
1782987631397090800,8.7560908203125,1.2484344244003296,0.6819119453430176,-0.6483147740364075
1782987631407166000,8.766166015625,1.248744010925293,0.9868825674057007,-0.5375999808311462
1782987631417239800,8.77623974609375,1.2616400718688965,1.1869828701019287,-0.38591912388801575
1782987631427315000,8.78631494140625,1.2956676483154297,1.1968190670013428,-0.22032605111598969
1782987631437389800,8.796389892578125,1.3571351766586304,1.083152413368225,-0.07278560101985931
1782987631447465000,8.80646484375,1.4222520589828491,0.9732326865196228,0.04452135041356087
1782987631457538800,8.816538818359374,1.4659419059753418,0.9262550473213196,0.12135301530361176
1782987631467614000,8.826614013671875,1.4846493005752563,0.9490607976913452,0.1583889275789261
1782987631477689000,8.836689208984374,1.4818071126937866,1.013508915901184,0.16107819974422455
1782987631487763000,8.846762939453125,1.4782254695892334,1.0464099645614624,0.13531862199306488
1782987631497838000,8.856838134765624,1.4920419454574585,0.977556586265564,0.09348463267087936
1782987631507913000,8.866912841796875,1.5339347124099731,0.8051246404647827,0.050006572157144547
1782987631517987000,8.876987060546876,1.572202205657959,0.5589172840118408,-0.010554778389632702
1782987631528062000,8.88706201171875,1.6051255464553833,0.26616328954696655,-0.09284493327140808
1782987631538136800,8.89713671875,1.6176397800445557,0.030455170199275017,-0.17250753939151764
1782987631548211700,8.907211669921875,1.5845047235488892,-0.06707750260829926,-0.23764333128929138
1782987631558285800,8.917285888671875,1.5059003829956055,-0.02173878252506256,-0.2914551794528961
1782987631568360700,8.927360595703124,1.423129916191101,0.1760816127061844,-0.3026430606842041
1782987631578435800,8.937435791015625,1.3512629270553589,0.4419500529766083,-0.26313266158103943
1782987631588510000,8.947510009765624,1.288655161857605,0.6782554984092712,-0.17748917639255524
1782987631598584800,8.957584716796875,1.242100477218628,0.801183819770813,-0.06505664438009262
1782987631608660000,8.967659912109376,1.2162731885910034,0.7953637838363647,0.04879472404718399
1782987631618733800,8.97773388671875,1.2125298976898193,0.7178972363471985,0.1428980529308319
1782987631628809000,8.98780908203125,1.2120301723480225,0.6470178365707397,0.21141308546066284
1782987631638883800,8.9978837890625,1.2120213508605957,0.5978894829750061,0.24140773713588715
1782987631648959000,9.007958984375,1.1972037553787231,0.5667250156402588,0.2160014808177948
1782987631659032800,9.01803271484375,1.1764044761657715,0.5600228905677795,0.1439906656742096
1782987631669108000,9.02810791015625,1.1590077877044678,0.5727264285087585,0.04206513240933418
1782987631679183000,9.03818310546875,1.1428767442703247,0.5870329141616821,-0.065275177359581
1782987631689257000,9.048257080078125,1.1294323205947876,0.5870201587677002,-0.15182003378868103
1782987631699332000,9.05833203125,1.108398675918579,0.5690291523933411,-0.20841540396213531
1782987631709407000,9.068406982421875,1.089781403541565,0.5374946594238281,-0.2286870926618576
1782987631719481000,9.078481201171876,1.0851997137069702,0.4843190908432007,-0.2157055139541626
1782987631729556000,9.088555908203125,1.0840195417404175,0.4386795461177826,-0.17741155624389648
1782987631739630800,9.098630859375,1.0866501331329346,0.4011998176574707,-0.13493359088897705
1782987631749706000,9.1087060546875,1.0784902572631836,0.3657439649105072,-0.1052255630493164
1782987631759779800,9.11877978515625,1.0531483888626099,0.3432421088218689,-0.10119593888521194
1782987631769855000,9.12885498046875,1.0228973627090454,0.3323124945163727,-0.11889468133449554
1782987631779929900,9.138929931640625,0.9996035695075989,0.34365224838256836,-0.1522555649280548
1782987631790004000,9.14900390625,0.9683660864830017,0.35772666335105896,-0.18424676358699799
1782987631800078800,9.159078857421875,0.9381358027458191,0.3634583055973053,-0.2180798202753067
1782987631810154000,9.169154052734376,0.9152825474739075,0.36208251118659973,-0.2493361085653305
1782987631820227800,9.179227783203125,0.9021398425102234,0.35170575976371765,-0.26477766036987305
1782987631830303000,9.189302978515625,0.8956484198570251,0.33167746663093567,-0.2601243853569031
1782987631840377900,9.1993779296875,0.897010326385498,0.3310551047325134,-0.2346392571926117
1782987631850453000,9.209452880859375,0.8923507332801819,0.35135531425476074,-0.18501268327236176
1782987631860526800,9.21952685546875,0.8854084014892578,0.3770119547843933,-0.12688998878002167
1782987631870602000,9.22960205078125,0.8678434491157532,0.40323886275291443,-0.0686919093132019
1782987631880676900,9.2396767578125,0.8374362587928772,0.4029403328895569,-0.038620296865701675
1782987631890751000,9.2497509765625,0.7900598645210266,0.3835093677043915,-0.02927383780479431
1782987631900825900,9.259825927734376,0.745869517326355,0.3888266384601593,-0.038920070976018906
1782987631910900700,9.269900634765625,0.7067621350288391,0.3772698640823364,-0.052162785083055496
1782987631920976000,9.279975830078126,0.6646226644515991,0.3375919461250305,-0.06442238390445709
1782987631931049700,9.2900498046875,0.6271217465400696,0.2810872495174408,-0.0723499208688736
1782987631941124900,9.300124755859375,0.5985369682312012,0.2714996039867401,-0.0735829621553421
1782987631951200000,9.310199951171874,0.5739840269088745,0.29267746210098267,-0.06802362948656082
1782987631961273900,9.32027392578125,0.5398353934288025,0.3872508406639099,-0.032293327152729034
1782987631971349000,9.330348876953124,0.4917049705982208,0.5442915558815002,0.02014562487602234
1782987631981423900,9.340423828125,0.4241621494293213,0.6596365571022034,0.06096788868308067
1782987631991498000,9.350498046875,0.33936697244644165,0.6488394737243652,0.042271122336387634
1782987632001572900,9.36057275390625,0.2499752938747406,0.532231867313385,-0.048944007605314255
1782987632011648000,9.37064794921875,0.16902975738048553,0.39395999908447266,-0.19330382347106934
1782987632021721900,9.380721923828125,0.1006469652056694,0.39896702766418457,-0.32113954424858093
1782987632031797000,9.390796875,0.061884805560112,0.6052477359771729,-0.3651396632194519
1782987632041872100,9.4008720703125,0.07026177644729614,0.8871119022369385,-0.3025069236755371
1782987632051946800,9.41094677734375,0.0957677885890007,1.0833348035812378,-0.17489978671073914
1782987632062021000,9.421021240234374,0.1520017832517624,1.0996594429016113,-0.008452745154500008
1782987632072095700,9.431095703125,0.22961707413196564,0.9659943580627441,0.16169632971286774
1782987632082171000,9.4411708984375,0.28801754117012024,0.7612391114234924,0.29584479331970215
1782987632092244700,9.45124462890625,0.3024013936519623,0.6022341251373291,0.365970641374588
1782987632102319900,9.46131982421875,0.27777352929115295,0.540677547454834,0.3624512851238251
1782987632112394800,9.471394775390625,0.24024765193462372,0.5611997246742249,0.3003201484680176
1782987632122470000,9.481469970703126,0.19567590951919556,0.639937698841095,0.21098975837230682
1782987632132543700,9.491543701171874,0.1685907542705536,0.703569233417511,0.11536862701177597
1782987632142619000,9.501618896484375,0.17861409485340118,0.7014951705932617,0.042941030114889145
1782987632152694000,9.511694091796874,0.22154168784618378,0.6390563249588013,-0.00191221060231328
1782987632162768000,9.521767822265625,0.2603306174278259,0.536568284034729,-0.009569598361849785
1782987632172843000,9.531843017578124,0.2827000617980957,0.4187455177307129,-0.007161159534007311
1782987632182918000,9.54191796875,0.28390806913375854,0.33288174867630005,-0.006850901059806347
1782987632192992000,9.551991943359376,0.27120262384414673,0.2598966360092163,-0.02709365077316761
1782987632203067000,9.56206689453125,0.2503223717212677,0.17946569621562958,-0.07279083132743835
1782987632213142000,9.57214208984375,0.2248617261648178,0.11547352373600006,-0.14134590327739716
1782987632223217000,9.582216796875,0.21498511731624603,0.09145580977201462,-0.21529869735240936
1782987632233291000,9.592291015625,0.22193337976932526,0.11855333298444748,-0.2798346281051636
1782987632243366000,9.602365966796874,0.24319392442703247,0.18453341722488403,-0.3100511133670807
1782987632253440800,9.612440673828125,0.2732522785663605,0.2692202031612396,-0.2835654616355896
1782987632263515000,9.622514892578126,0.3034333288669586,0.3465413749217987,-0.20282746851444244
1782987632273589800,9.63258984375,0.34417250752449036,0.40692803263664246,-0.09213124960660934
1782987632283665000,9.642664794921876,0.3834626376628876,0.39999687671661377,0.024591634050011635
1782987632293738800,9.65273876953125,0.4156288504600525,0.35834211111068726,0.13190577924251556
1782987632303814000,9.66281396484375,0.42977264523506165,0.2881510257720947,0.21070604026317596
1782987632313889000,9.672888916015625,0.42692744731903076,0.1883128434419632,0.22896616160869598
1782987632323964000,9.6829638671875,0.39149755239486694,0.08129505813121796,0.17820072174072266
1782987632334038000,9.6930380859375,0.33861207962036133,-0.022214166820049286,0.06651719659566879
1782987632344113000,9.70311279296875,0.2599436342716217,-0.10960260778665543,-0.0797707736492157
1782987632354188000,9.71318798828125,0.17038728296756744,-0.1616186499595642,-0.22322919964790344
1782987632364262000,9.723261962890625,0.08080574125051498,-0.16038082540035248,-0.32953858375549316
1782987632374337000,9.7333369140625,0.013979671522974968,-0.12431590259075165,-0.4022981524467468
1782987632384412000,9.743411865234375,-0.014841856434941292,-0.0762660801410675,-0.4247502088546753
1782987632394486000,9.753486083984376,-0.0078013804741203785,-0.06466507911682129,-0.3899167776107788
1782987632404561000,9.763560791015625,0.022510185837745667,-0.057656966149806976,-0.29401952028274536
1782987632414635800,9.7736357421875,0.0772373229265213,-0.03371994569897652,-0.17309145629405975
1782987632424711000,9.7837109375,0.1089896634221077,-0.029451431706547737,-0.051156219094991684
1782987632434784800,9.79378466796875,0.15046440064907074,0.01412480603903532,0.0671648383140564
1782987632444860000,9.80385986328125,0.19897247850894928,0.03185213729739189,0.16487109661102295
1782987632454934800,9.813934814453125,0.23755982518196106,0.02059255912899971,0.21318456530570984
1782987632465009000,9.8240087890625,0.26684126257896423,0.003451921744272113,0.2095421701669693
1782987632475083800,9.834083740234375,0.29726776480674744,0.01773086190223694,0.17914435267448425
1782987632485159000,9.844158935546876,0.33547747135162354,0.05126085877418518,0.11924852430820465
1782987632495232800,9.854232666015625,0.3561895191669464,0.09808149188756943,0.06517939269542694
1782987632505308000,9.864307861328125,0.3700603246688843,0.12899121642112732,0.03492508828639984
1782987632515383000,9.874383056640625,0.37488752603530884,0.13021065294742584,0.026324361562728882
1782987632525458000,9.8844580078125,0.3799634873867035,0.11897585541009903,0.030979301780462265
1782987632535532000,9.894531982421874,0.39366093277931213,0.1309472918510437,0.04832207411527634
1782987632545607000,9.90460693359375,0.4120391309261322,0.13715645670890808,0.06500571221113205
1782987632555682000,9.91468212890625,0.42068564891815186,0.0988234430551529,0.07771984487771988
1782987632565756000,9.924755859375,0.41191503405570984,0.022031722590327263,0.08039791882038116
1782987632575831000,9.9348310546875,0.38978439569473267,-0.04026533663272858,0.07250039279460907
1782987632585906000,9.944906005859375,0.35739022493362427,-0.08887734264135361,0.059724677354097366
1782987632595980000,9.95497998046875,0.3156745433807373,-0.11801685392856598,0.040280718356370926
1782987632606055000,9.965054931640625,0.2668830454349518,-0.11891806870698929,0.025483932346105576
1782987632616129800,9.9751298828125,0.21376600861549377,-0.06557081639766693,0.02017272636294365
1782987632626205000,9.985204833984374,0.16497209668159485,0.05999216064810753,0.057159241288900375
1782987632636278800,9.99527880859375,0.1320335566997528,0.24106115102767944,0.11133506149053574
1782987632646354000,10.00535400390625,0.11684634536504745,0.33785879611968994,0.15956145524978638
1782987632656428800,10.0154287109375,0.1136196106672287,0.24637214839458466,0.15167078375816345
1782987632666503000,10.0255029296875,0.10598646104335785,-0.002472548047080636,0.08184323459863663
1782987632676577800,10.035577880859375,0.08286654204130173,-0.26768264174461365,-0.028144128620624542
1782987632686653000,10.04565283203125,0.053792282938957214,-0.40375766158103943,-0.14886921644210815
1782987632696727000,10.05572705078125,0.03818545490503311,-0.29345059394836426,-0.23524807393550873
1782987632706802000,10.065802001953125,0.06621336191892624,-0.018480541184544563,-0.2578948140144348
1782987632716877000,10.075876953125,0.13275019824504852,0.2255803346633911,-0.24568864703178406
1782987632726952000,10.085951904296875,0.2317550778388977,0.31784072518348694,-0.22946679592132568
1782987632737026000,10.096026123046874,0.328026682138443,0.2899891436100006,-0.1971970498561859
1782987632747101000,10.106100830078125,0.4096459150314331,0.2531730532646179,-0.15314996242523193
1782987632757175800,10.11617578125,0.46881183981895447,0.2417752742767334,-0.09675408154726028
1782987632767250000,10.12625,0.5035013556480408,0.25195813179016113,-0.02679896540939808
1782987632777324800,10.13632470703125,0.5309592485427856,0.3064573407173157,0.040566585958004
1782987632787400000,10.14639990234375,0.5435219407081604,0.3600188195705414,0.09703412652015686
1782987632797473800,10.156473876953125,0.5563265085220337,0.34754884243011475,0.131930410861969
1782987632807549000,10.166548828125,0.5836111307144165,0.2531203329563141,0.17127862572669983
1782987632817623800,10.176623779296875,0.5997227430343628,0.1568654477596283,0.21530799567699432
1782987632827699000,10.186698974609374,0.6048998832702637,0.06481488794088364,0.23505614697933197
1782987632837772800,10.196772705078125,0.5840758085250854,-0.06986996531486511,0.18465948104858398
1782987632847848000,10.206847900390626,0.5600559711456299,-0.20970109105110168,0.08738379925489426
1782987632857923000,10.216923095703125,0.5519927740097046,-0.27370432019233704,-0.012044064700603485
1782987632867996200,10.22699609375,0.5617290139198303,-0.2739253640174866,-0.08436513692140579
1782987632878071300,10.2370712890625,0.5645730495452881,-0.22337029874324799,-0.11184830218553543
1782987632888146400,10.247146484375,0.5316150784492493,-0.14819273352622986,-0.01923314481973648
1782987632898220300,10.25722021484375,0.4745398461818695,-0.10507042706012726,0.05341516435146332
1782987632908295400,10.26729541015625,0.4296935200691223,-0.11170037090778351,0.09573492407798767
1782987632918370300,10.277370361328124,0.39209333062171936,-0.07333540171384811,0.11230400204658508
1782987632928445400,10.287445556640625,0.34671759605407715,0.08873392641544342,0.14253035187721252
1782987632938519300,10.297519287109376,0.30339595675468445,0.23843926191329956,0.17880366742610931
1782987632948594400,10.307594482421875,0.27287694811820984,0.2913581132888794,0.25207599997520447
1782987632958669300,10.31766943359375,0.2697409987449646,0.26856666803359985,0.33395206928253174
1782987632968743400,10.327743408203125,0.30506542325019836,0.19870583713054657,0.36475393176078796
1782987632978818300,10.337818359375,0.3488922417163849,0.12405663728713989,0.31975188851356506
