time,seconds_elapsed,z,y,x
1782987689798807800,0.067807861328125,0.5167617741465568,-1.5155033473938702,0.4954112353429198
1782987689808883000,0.077883056640625,0.255080676484108,-1.526130539870262,0.5637843682147562
1782987689818956800,0.087956787109375,0.007935469174385071,-1.580637206083536,0.1694093489393592
1782987689829032000,0.098031982421875,-0.10252923110425471,-1.7753695045888422,-0.3320352482836693
1782987689839106000,0.10810595703125,-0.09375964919328689,-1.939026281350851,-0.4987359958514571
1782987689849181000,0.118180908203125,0.007502922976016998,-2.0722844127178193,-0.5759886007495224
1782987689859256000,0.128256103515625,0.09468260925710201,-2.0848504643023014,-0.481083361717686
1782987689869330000,0.138329833984375,0.08399228841662407,-2.081115369427204,-0.24054186352193355
1782987689879405000,0.148405029296875,-0.05484685795307159,-2.0015718771129847,-0.015191577782481909
1782987689889479000,0.15847900390625,-0.337937238869071,-1.9188702130287885,0.1874924834448844
1782987689899554000,0.168553955078125,-0.481199462378025,-1.937168670785427,0.40243616065606475
1782987689909628000,0.1786279296875,-0.4544891501069069,-2.037142372187972,0.5409176526945084
1782987689919705600,0.18870556640625,-0.3105482966840267,-2.1318711586743593,0.4091619617797434
1782987689929780700,0.19878076171875,-0.13587678943276404,-2.2006962730973956,0.22901355748735366
1782987689939854600,0.2088544921875,-0.2562859606206417,-2.243497303947806,0.1411874630615115
1782987689949929700,0.2189296875,-0.6401449927091598,-2.1397329780906436,-0.015851904854737222
1782987689960003600,0.229003662109375,-1.0212187779933213,-1.8390216002881525,-0.1588767394112423
1782987689970078700,0.23907861328125,-1.3369395088791847,-1.447874749279022,-0.21091646752171217
1782987689980152600,0.249152587890625,-1.4580419230282307,-1.0198097879782317,-0.16839768767878413
1782987689990227700,0.259227783203125,-1.3861071521520614,-0.6201791862621903,-0.12089074415974319
1782987690000301600,0.269301513671875,-1.2583856121242045,-0.3002019669756293,-0.06329714478179813
1782987690010376700,0.279376708984375,-1.188234217533469,-0.08522036890685558,-0.04475676802806556
1782987690020451800,0.289451904296875,-1.0967314073562622,0.1465826001033187,-0.08111220293566584
1782987690030525700,0.299525634765625,-0.8993313509464264,0.3018964959338307,-0.11944164132997392
1782987690040600800,0.309600830078125,-0.5672720642000436,0.4076645628288388,-0.04999547239914536
1782987690050674700,0.3196748046875,-0.12314940980672835,0.41727936339229343,0.14425759122185408
1782987690060749800,0.329749755859375,0.28643267708122727,0.4132631134882569,0.233595697645843
1782987690070823700,0.33982373046875,0.5497498515129089,0.397628614243865,0.20920959053859114
1782987690080898800,0.34989892578125,0.6180652628481388,0.48388241785168645,0.06385777433924376
1782987690090973700,0.3599736328125,0.3517179269403219,0.6288572904974222,-0.18255510010793805
1782987690101047800,0.3700478515625,-0.030980244675278663,0.8115116131961345,-0.5193499640088528
1782987690111122700,0.380122802734375,-0.3990659535706043,1.0287234545350075,-0.8113752004001289
1782987690121196800,0.39019677734375,-0.6064437986373901,1.1748650328725576,-1.0640823526859282
1782987690131271700,0.400271728515625,-0.655021659323573,1.2603045974880456,-1.1858668308150022
1782987690141345800,0.410345703125,-0.6778747116446495,1.2817618115365506,-1.2002564445648343
1782987690151421000,0.4204208984375,-0.6085486619621515,1.2492922050863504,-1.1889073675546795
1782987690161494800,0.430494873046875,-0.38012276816964147,1.2350707875102758,-1.1640046161621809
1782987690171570000,0.44056982421875,-0.10567454339265822,1.2148603586524724,-1.1697169293943792
1782987690181644800,0.450644775390625,0.20917992605268954,1.206772329264879,-1.0691258267458528
1782987690191719000,0.460718994140625,0.5140770651072264,1.177115442147851,-0.9233039818819612
1782987690201793800,0.470793701171875,0.7947837657570839,1.21915425645411,-0.7955440826050937
1782987690211868000,0.480867919921875,1.0192845950603484,1.267797583591938,-0.6897572379443794
1782987690221942800,0.49094287109375,1.160956919029355,1.2995219246327876,-0.5192795291211456
1782987690232017000,0.501016845703125,1.2551409311145543,1.3018167575716972,-0.35104506918005646
1782987690242091800,0.511091796875,1.365928287476301,1.2942150503963232,-0.2292377946972847
1782987690252166700,0.521166748046875,1.5420266126602886,1.254401510924101,-0.12264620952494441
1782987690262240800,0.53124072265625,1.7145079163908958,1.1364426554977893,-0.076356605906412
1782987690272315600,0.541315673828125,1.8880898748397825,0.9570037877142429,-0.010653569026663898
1782987690282389800,0.5513896484375,2.0096061304867265,0.7690782466143369,0.03781140586957335
1782987690292464600,0.561464599609375,1.966353848737478,0.5293026912897825,0.030700258690118786
1782987690302538800,0.571538818359375,1.8418506862342356,0.3411433414340019,-0.07530600087493658
1782987690312613600,0.581613525390625,1.7074556597918271,0.23768822765648365,-0.18076522101648151
1782987690322687700,0.591687744140625,1.4412836804509161,0.1615367158681154,-0.24441373651921747
1782987690332762600,0.6017626953125,1.2597902182251215,0.0994277579575777,-0.2213569783195853
1782987690342837800,0.611837646484375,1.0634703582674265,0.0006499883413314818,-0.15354454807043075
1782987690352911600,0.62191162109375,0.8270791846841573,-0.10274170481115578,-0.1057222549919039
1782987690362986800,0.63198681640625,0.7718330982804298,-0.19841975484639404,-0.10588555579483508
1782987690373060600,0.642060546875,0.7264163319736718,-0.3189604434594512,-0.05597922298386693
1782987690383135700,0.6521357421875,0.6675356884598732,-0.39513562838435173,0.022858897539973257
1782987690393209600,0.662209716796875,0.663578475266695,-0.48154637611955403,0.04962503165155649
1782987690403284700,0.67228466796875,0.691007164940238,-0.5652081174075603,0.06506152410581707
1782987690413359600,0.682359619140625,0.726772305804491,-0.6369470734506845,0.080089874150604
1782987690423433700,0.692433837890625,0.7132406240582466,-0.6992974389016627,0.06599675912931562
1782987690433508600,0.702508544921875,0.7146288635462522,-0.7506912337914109,0.060453445788472886
1782987690443582700,0.712582763671875,0.6699474257767201,-0.82757778185606,0.07613266095742582
1782987690453657600,0.72265771484375,0.5421668490380048,-0.8933107754826545,0.14813976641744375
1782987690463731700,0.732731689453125,0.3953279360860586,-0.9420268755957484,0.152906250166893
1782987690473806600,0.742806640625,0.19693302341997623,-0.9969862540125847,0.13251944182887673
1782987690483880700,0.752880615234375,0.007092588609457016,-1.0061740613356231,0.11394991204589605
1782987690493955600,0.76295556640625,-0.022079729861021042,-1.0196244945392012,0.09038345075845718
1782987690504030700,0.77303076171875,0.008961305090785026,-1.0517164998486637,0.11617109522670507
1782987690514104600,0.7831044921875,-0.04297404932975769,-1.0729638705387712,0.1494281987927854
1782987690524179700,0.7931796875,-0.09545593171715736,-1.0885688514277339,0.19332009361982344
1782987690534253600,0.803253662109375,-0.020177111110091208,-1.140758765131235,0.31980668502524495
1782987690544328700,0.81332861328125,0.1316436819076538,-1.2476824318021535,0.4858705229289829
1782987690554402800,0.82340283203125,0.24905016414821146,-1.3964061355873942,0.6174408473394811
1782987690564477700,0.833477783203125,0.3989443730175495,-1.5432488479316233,0.7266869656085968
1782987690574552800,0.843552734375,0.5718482860744,-1.6374723152443766,0.7509002003669738
1782987690584626700,0.853626708984375,0.6470856056272983,-1.6479226898491381,0.7436646961554885
1782987690594701800,0.863701904296875,0.44064533367156977,-1.6164090689495205,0.7933117935083807
1782987690604775700,0.873775634765625,-0.004606617012619972,-1.5504744152709842,0.7328928345113992
1782987690614850800,0.883850830078125,-0.3247866653949022,-1.4505170804813503,0.5478557083293796
1782987690624924700,0.893924560546875,-0.566236291411519,-1.3172919746011496,0.3185394415684044
1782987690634999800,0.903999755859375,-0.7148737782180309,-1.2641340926483273,0.12008870706185698
1782987690645074700,0.91407470703125,-0.7541951502591371,-1.2642951284289359,0.0557690873645246
1782987690655148800,0.924148681640625,-0.7867138565480709,-1.3530498089417815,0.2173334218919277
1782987690665223700,0.9342236328125,-0.7224357379049062,-1.5375047513216733,0.5744995312355459
1782987690675297800,0.9442978515625,-0.6674392423480748,-1.6109078411847353,0.7850745649084448
1782987690685373000,0.954373046875,-0.8391881401509046,-1.582110785767436,0.7346702194474637
1782987690695446800,0.96444677734375,-1.106185464400053,-1.4696402986243366,0.45074002670645713
1782987690705522000,0.97452197265625,-1.4798995345711707,-1.2101982120603323,0.13461553732529283
1782987690715596800,0.9845966796875,-1.8215759599685668,-0.8650523569867015,-0.029695757822692393
1782987690725671000,0.9946708984375,-2.054243144592643,-0.5788596261411905,-0.05420110739544034
1782987690735745800,1.004745849609375,-2.1011896046847105,-0.2708379253253341,-0.14716376099213957
1782987690745820000,1.01481982421875,-1.89057526191473,-0.0019148937106132505,-0.2180839479982853
1782987690755894800,1.024894775390625,-1.6011843195497988,0.21040537619441746,-0.19574644398391244
1782987690765969000,1.034968994140625,-1.2621236296087504,0.30607465840131043,-0.08382263093814253
1782987690776043800,1.045043701171875,-0.8869780653297901,0.37459172978848215,0.09442088958099484
1782987690786118000,1.055117919921875,-0.482518143761158,0.4638745258286595,0.1505779533497989
1782987690796192800,1.06519287109375,-0.10326923581659793,0.6039829614818096,0.15045447310060261
1782987690806267600,1.075267578125,0.23614859699904917,0.8002329710736871,0.20793387151435017
1782987690816341800,1.085341796875,0.4982376909404993,0.9522399343132972,0.2939639493688941
1782987690826416600,1.095416748046875,0.6493062042862177,1.0694497249379753,0.37378888897299767
1782987690836490800,1.10549072265625,0.7257967387706041,1.1871499294281005,0.42850159915238617
1782987690846565600,1.115565673828125,0.6843477070510388,1.3182996903389692,0.39848756916075945
1782987690856639700,1.1256396484375,0.5061866041183471,1.3670017619267105,0.3405708022430539
1782987690866714600,1.135714599609375,0.32149230002462864,1.368944128166139,0.29721301429271696
1782987690876788700,1.145788818359375,0.137635615798831,1.3787424686029552,0.2386500584259629
1782987690886863600,1.155863525390625,-0.01620996104478836,1.3619631832376122,0.1076820838227868
1782987690896938800,1.165938720703125,-0.13804127399027347,1.3529650532677768,-0.008892185377329588
1782987690907012600,1.1760126953125,-0.21389000343978404,1.3654600854426622,-0.16702727610841392
1782987690917087700,1.186087646484375,-0.2521463765978813,1.4019187615290283,-0.27449279457107184
1782987690927159000,1.196158935546875,-0.2460907298207283,1.4201505837902426,-0.3721634797282517
1782987690937234000,1.20623388671875,-0.19429156900048256,1.4236983393996954,-0.4039839746199548
1782987690947308000,1.21630810546875,-0.08391045535206794,1.40679279730618,-0.45328649631887674
1782987690957383000,1.2263828125,0.06341010363698005,1.3479898952037095,-0.46150531247928733
1782987690967458000,1.2364580078125,0.2609387548625469,1.210299334347248,-0.4099098575375974
1782987690977532000,1.246531982421875,0.45402211711704726,1.0980734696149825,-0.33851547714844343
1782987690987607000,1.25660693359375,0.5941518878191709,1.0275801297187805,-0.3161709588713944
1782987690997681000,1.266680908203125,0.7410790635764598,0.9668822076499461,-0.3303108356438577
1782987691007756000,1.276756103515625,0.8612707926213741,0.8735007441192865,-0.37173327161744235
1782987691017830000,1.286829833984375,0.9923311216831207,0.8287661148577928,-0.4239315147578716
1782987691027905000,1.296905029296875,1.0716893205583096,0.8240320720732212,-0.42198739495277404
1782987691037979000,1.306978759765625,1.20999713653028,0.7727531357347964,-0.4597901791244745
1782987691048054000,1.317053955078125,1.3945868112057447,0.6658189476698637,-0.42327758089378476
1782987691058129200,1.327129150390625,1.517866569393873,0.5968681610405445,-0.3232360749520361
1782987691068203000,1.337203125,1.6143109276264904,0.4774754734188318,-0.19591040237396953
1782987691078278100,1.347278076171875,1.574813029974699,0.386848861554265,-0.09216229699924587
1782987691088352000,1.35735205078125,1.3574106344997883,0.25502865403592584,-0.05208908367753028
1782987691098427100,1.36742724609375,0.9672674075752496,0.13106325167119504,-0.12943871920928357
1782987691108501000,1.3775009765625,0.6242296306967735,0.1145031620144844,-0.29092392408587037
1782987691118576000,1.387576171875,0.3716916244328022,0.113034258505702,-0.4428048497930169
1782987691128650000,1.39764990234375,0.2663473359078169,0.05402794278562069,-0.42201808235198257
1782987691138725000,1.40772509765625,0.299933963689208,-0.009928688818216323,-0.3075968995325267
1782987691148800000,1.417800048828125,0.4362748635023832,-0.017544424518942833,-0.10788067513480781
1782987691158874000,1.4278740234375,0.6028098260492086,-0.05988952829539775,0.18155264506712554
1782987691168949000,1.437948974609375,0.667424044778943,-0.13969371737241745,0.4474731338649988
1782987691179023000,1.448023193359375,0.6364560750633478,-0.2458025605291128,0.5616717599749564
1782987691189098200,1.45809814453125,0.5668845261871814,-0.3206751384228468,0.5214651295319199
1782987691199172000,1.468172119140625,0.43947453632652755,-0.39615328099429603,0.4865878774181008
1782987691209247200,1.478247314453125,0.25630408079922196,-0.43423254401981826,0.4359989691704511
1782987691219321000,1.488321044921875,0.07765256400108336,-0.5315186137735843,0.3605234569475054
1782987691229396200,1.498396240234375,-0.03831014917194843,-0.5676625248223542,0.3401157519519329
1782987691239470800,1.508470947265625,-0.3289595671653747,-0.6083394031256437,0.3234289671756327
1782987691249545200,1.518545166015625,-0.6117986036688089,-0.630506226748228,0.2414225918792188
1782987691259619800,1.528619873046875,-0.7445242355942726,-0.7324152801275253,0.15150807380676268
1782987691269694200,1.538694091796875,-0.7391594936907291,-0.8472954587608575,0.156770524379611
1782987691279768800,1.548768798828125,-0.6028793841540813,-0.9238625656127929,0.19884791713058947
1782987691289843200,1.55884326171875,-0.439497917202115,-0.9432961648792028,0.3177316323168576
1782987691299917800,1.568917724609375,-0.367879957190156,-0.9325228419303894,0.3569572888985276
1782987691309993000,1.578992919921875,-0.421135162037611,-0.8926350681781768,0.28510055169463155
1782987691320066800,1.58906689453125,-0.7504740839093923,-0.8512035721153021,0.2891971733585
1782987691330142000,1.599141845703125,-1.0230348875045776,-0.9820482125997543,0.4489847074717283
1782987691340215800,1.6092158203125,-0.9277630801826715,-1.129225563725829,0.6804414933927356
1782987691350291000,1.619291015625,-0.7272054365247488,-1.1973510054469108,0.6339239262372255
1782987691360364800,1.62936474609375,-0.569445901107788,-1.2508394345283507,0.37743528265133497
1782987691370440000,1.63943994140625,-0.6698410427927971,-1.2718693630754947,0.02339241989478469
1782987691380513800,1.649513671875,-1.0406097071617841,-1.1556108818262816,-0.38445465989410876
1782987691390589000,1.6595888671875,-1.4110679904073475,-0.8600468037843704,-0.7447931156635283
1782987691400664000,1.6696640625,-1.7006991712689399,-0.4710661908984184,-0.9550877249598503
1782987691410738000,1.679738037109375,-1.8981296228170395,-0.06753624365627765,-1.0089182454772292
1782987691420813000,1.68981298828125,-2.0012474674642085,0.3285603387147188,-0.9080306441001593
1782987691430887000,1.699886962890625,-1.9841998865514991,0.6516168193161487,-0.7079879642270505
1782987691440962000,1.709962158203125,-1.8526959053754806,0.8358084345847367,-0.45713338100537654
1782987691451036000,1.720035888671875,-1.50140409489274,0.939466961979866,-0.22425343041345475
1782987691461111000,1.730111083984375,-0.9773258602529764,0.9768962366640567,-0.05476064097434282
1782987691471186000,1.74018603515625,-0.41418285868167876,0.910305749425292,0.16903598558232188
1782987691481260000,1.750260009765625,0.08468202424645424,0.788918088594079,0.3734621412366628
1782987691491335000,1.7603349609375,0.502494179341197,0.6876216141551733,0.5097263225518167
1782987691501409000,1.770408935546875,0.7112643555492162,0.5652046102762222,0.5499263771235943
1782987691511484000,1.78048388671875,0.700721918746829,0.48038814599514007,0.38444326171725984
1782987691521558000,1.79055810546875,0.48567631553113455,0.41333471741974354,0.003150719115883112
1782987691531633000,1.8006328125,0.06312310338914394,0.3652238897234201,-0.49149055476784703
1782987691541707000,1.81070703125,-0.40883272982537744,0.34933658476173873,-0.933526758275926
1782987691551782000,1.820781982421875,-0.9290618878215551,0.40821021401286123,-1.209077975858748
1782987691561857000,1.83085693359375,-1.070893786266446,0.5168558821707964,-1.254492404077947
1782987691571931100,1.84093115234375,-0.6737088241368532,0.6630448067814111,-0.9956837931118905
1782987691582006000,1.851006103515625,0.055765141841769214,0.7238824295818805,-0.5832590301439166
1782987691592080100,1.861080078125,1.099622452622652,0.5770668975055218,-0.123786977057904
1782987691602155000,1.871155029296875,1.6502812356740235,0.47557285466790195,0.34148192573860287
1782987691612229000,1.88122900390625,1.9029320546627044,0.5263245522618294,0.35744244206696746
1782987691622304000,1.891303955078125,2.0193921959638597,0.6172264739364385,0.331320158816874
1782987691632378000,1.901378173828125,2.208549324685335,0.5997200433403254,0.3245974264331162
1782987691642453000,1.911452880859375,2.529847563442588,0.4368681532204151,0.44898499973267314
1782987691652528000,1.921528076171875,2.8023908313810826,0.18374737863242624,0.49579248974546786
1782987691662602000,1.93160205078125,2.6026322291463613,0.14245382973551748,0.46669133681505914
1782987691672677000,1.941677001953125,2.0996178253233433,0.2473188103109598,0.3072578768365085
1782987691682751000,1.9517509765625,1.3651076187431812,0.34117139848470684,0.08737097106948494
1782987691692826000,1.961826171875,0.4170967003017664,0.4056318879574537,-0.31398075535073877
1782987691702900000,1.97189990234375,0.4368681532204151,0.37845921887159345,-0.3108379272803664
1782987691712975000,1.98197509765625,0.3904349033474922,0.3414174822002649,-0.27793022167384623
1782987691723049000,1.992049072265625,0.5247352372437715,0.23318156388700007,-0.14748144863918422
1782987691733124000,2.0021240234375,0.7085556811124086,0.10580138464272022,-0.10495791955590247
1782987691743199200,2.01219921875,0.9322089536756276,0.03717208505272865,-0.12365282928422093
1782987691753273000,2.022273193359375,1.0454092163980007,-0.02015489927828312,-0.13488558643832801
1782987691763348200,2.03234814453125,1.0959382111519576,-0.08009820358753204,-0.12270721899718046
1782987691773422000,2.042422119140625,1.079613099294901,-0.14937573795318604,-0.08187968017682433
1782987691783497200,2.052497314453125,1.0089935026705263,-0.20541092890799045,-0.06212415547966957
1782987691793571000,2.062571044921875,0.881321647003293,-0.24941549032926558,-0.06775076318979263
1782987691803646200,2.072646240234375,0.7709107227385044,-0.3082049484282732,-0.08445596040561795
1782987691813720000,2.082719970703125,0.6135919168263674,-0.393148838481307,-0.10503609935864805
1782987691823795200,2.092795166015625,0.41471360455751416,-0.46505204517543314,-0.10245002838820219
1782987691833869800,2.102869873046875,0.1488537599056959,-0.5059136323958635,-0.19045389053374528
1782987691843944200,2.112944091796875,-0.004871989950537681,-0.571070287439227,-0.24555983781442045
1782987691854018800,2.123018798828125,-0.11512041712999344,-0.6785930890470743,-0.2688952668249607
1782987691864093200,2.13309326171875,-0.12570318594276905,-0.7262567574977874,-0.2680177533380687
1782987691874167800,2.143167724609375,-0.10980302149951457,-0.7617576944679021,-0.21108239867314696
1782987691884242200,2.1532421875,-0.3184738289862871,-0.8271019810378551,-0.06393705012053251
1782987691894316800,2.16331689453125,-0.58999476813972,-0.8856482780307531,0.06240633342191577
1782987691904392000,2.173391845703125,-0.6631324850648641,-0.9450000461876392,0.19142229717448353
1782987691914465800,2.1834658203125,-0.5894149224251508,-1.035833578801155,0.20823168541714548
1782987691924540200,2.1935400390625,-0.48074002817273137,-1.0655150158375502,0.15780644329860805
1782987691934614500,2.203614501953125,-0.5797708957672119,-1.013067620241642,0.04937120302096009
1782987691944689200,2.213689208984375,-0.802428143030405,-0.9010258799046278,-0.049635260784626004
1782987691954763500,2.223763427734375,-0.9853437470138072,-0.8882149136483669,0.042064971660822625
1782987691964838100,2.233838134765625,-0.9244342280209064,-1.0124550413012503,0.3508540035873651
1782987691974912500,2.24391259765625,-0.7245318334013223,-1.0128098460882902,0.5223685081124305
1782987691984987100,2.253987060546875,-0.7301017424881457,-0.8993868805259466,0.39267303766310213
1782987691995062300,2.264062255859375,-0.8587678698897361,-0.7323942373394966,0.15183336023837327
1782987692005136100,2.27413623046875,-1.135760518452525,-0.5125859497666359,-0.13203633448705077
1782987692015211300,2.284211181640625,-1.3695903171151875,-0.3453764489591121,-0.2672799405828118
1782987692025285000,2.29428515625,-1.340370652371645,-0.15377192708551882,-0.09574731587916611
1782987692035360300,2.3043603515625,-1.1736679320424794,0.10625906528234481,0.12760317434519527
1782987692045434000,2.31443408203125,-0.9464835627436637,0.4023573963314295,0.326570041680336
1782987692055509200,2.32450927734375,-0.7898848877996206,0.6793857007294893,0.5267060989253223
1782987692065583000,2.3345830078125,-0.6891127294957637,0.8280898230314254,0.6717997756451368
1782987692075658200,2.344658203125,-0.45064767224788665,0.9233668910503386,0.7779001432344317
1782987692085733400,2.3547333984375,0.02315115848481655,0.9047568831264973,0.8559576347745954
1782987692095807200,2.36480712890625,0.6374123528748751,0.7882412122458219,0.9779898771196603
1782987692105882400,2.37488232421875,1.1134779594957829,0.5961527062475681,1.1422481269061564
1782987692115956200,2.384956298828125,1.2831973972976207,0.41016894686520095,1.379020701022446
1782987692126031400,2.39503125,1.0334066439151763,0.3685281919658184,1.4551321730613707
1782987692136105200,2.405105224609375,0.4938970313876867,0.5070563726902008,1.221025311022997
1782987692146180400,2.415180419921875,-0.09955576825141906,0.6729068601042032,0.8288152146965265
1782987692156254200,2.425254150390625,-0.6107412035703659,0.7744348052114248,0.4609761740386486
1782987692166329300,2.435329345703125,-0.9669014968723059,0.8807003002345561,0.14968085837960243
1782987692176404200,2.445404296875,-1.0856383509337901,1.0023094948619604,-0.09957798008322716
1782987692186478300,2.455478271484375,-1.102884084767103,1.0758218903183936,-0.27671587744802234
1782987692196553200,2.46555322265625,-0.9277952288866043,1.0894739835739136,-0.3765846571713686
1782987692206627300,2.47562744140625,-0.5494003074228764,1.0629314290851355,-0.4129854655906558
1782987692216702200,2.4857021484375,0.02785246804356575,1.0446423236787319,-0.3171621618658304
1782987692226776300,2.4957763671875,0.646136926600337,1.059088197660446,-0.12911255599483848
1782987692236851500,2.5058515625,1.1526105309665202,1.100305174189806,0.12841259103193878
1782987692246925300,2.51592529296875,1.4868541760146616,1.107189088484645,0.3545904136367142
1782987692257000400,2.52600048828125,1.642134169575572,1.1309335366874933,0.5016236801169812
1782987692267074300,2.53607421875,1.7161568526417017,1.0865461134284735,0.5319898845471441
1782987692277149400,2.5461494140625,1.721003123629093,1.001360815834999,0.5500277916714549
1782987692287224300,2.556224365234375,1.6227397332757711,0.8597083656102419,0.4896617319054901
1782987692297298400,2.56629833984375,1.4438286887586116,0.7245522916674614,0.40902196878716346
1782987692307373300,2.576373291015625,1.22463765630126,0.6460270364850759,0.3432369527123868
1782987692317447400,2.586447509765625,1.043530563044548,0.5526999334901571,0.2903196015171707
1782987692327522300,2.596522216796875,0.9013613954693078,0.4490975201964378,0.23075872065424918
1782987692337596400,2.606596435546875,0.7724667200088501,0.2969727757960558,0.14755933618098496
1782987692347671300,2.61667138671875,0.7172077741235494,0.1897188542574644,0.0788861974492669
1782987692357745400,2.626745361328125,0.6793196497559547,0.12494447652995586,0.020972791532427072
1782987692367820300,2.6368203125,0.6247077696025372,0.039459319207072255,-0.013953268159180878
1782987692377895400,2.6468955078125,0.42472997165918347,-0.04296820411086082,-0.03462693061456084
1782987692387969300,2.65696923828125,0.19405249954760073,-0.12687924398481845,-0.05325564323887229
1782987692398044400,2.66704443359375,0.08966156622469425,-0.16297200936824083,-0.08610460439547896
1782987692408118300,2.6771181640625,0.10443769507408142,-0.2447574353903532,-0.10941446057334542
1782987692418193400,2.687193359375,0.17214987981915472,-0.3272477948114276,-0.07913739573135972
1782987692428267300,2.697267333984375,0.275302795779705,-0.4072387386322021,-0.030190701732784507
1782987692438342400,2.70734228515625,0.41306291474103923,-0.4600622740641236,0.047276861090213056
1782987692448416300,2.717416259765625,0.5126888256192207,-0.5067454070448875,0.11217515745833516
1782987692458491400,2.727491455078125,0.6335831499755382,-0.5663312762185931,0.2160359294272959
1782987692468566500,2.73756640625,0.7729799302279948,-0.6663064389258623,0.3030222850933671
1782987692478640400,2.747640380859375,0.8643599908083677,-0.7961644064605236,0.3504353397838771
1782987692488715500,2.757715576171875,0.8555857327222823,-0.9713049925282597,0.2990213788889348
1782987692498789400,2.767789306640625,0.6750941410154104,-1.0964490832835436,0.21962562448233364
1782987692508864500,2.777864501953125,0.40732115621864795,-1.1494780781596898,0.09292831293568014
1782987692518938400,2.7879384765625,0.14807459222674368,-1.1532815620958805,0.004588204573094844
1782987692529013500,2.798013427734375,-0.19717443096041679,-1.217378771214187,-0.08652969793975353
1782987692539088100,2.808088134765625,-0.5685813932329415,-1.3106456684544683,-0.1243492871157825
1782987692549162500,2.81816259765625,-0.930253727954626,-1.3885554220870135,-0.13423296774849294
1782987692559237000,2.828237060546875,-1.2110504449754953,-1.4049123903870582,-0.13454232595860957
1782987692569311500,2.8383115234375,-1.368703597408533,-1.331651631604135,-0.12024039049223065
1782987692579386000,2.84838623046875,-1.4077484905958175,-1.275061437115073,-0.032744331738352776
1782987692589460500,2.85846044921875,-1.428801800018549,-1.2622425798133015,0.07462342543825506
1782987692599535000,2.86853515625,-1.5129256058603524,-1.2041554247647523,0.14163886009082197
1782987692609609500,2.878609375,-1.6827794836968182,-1.1112550227493048,0.0584019200861454
1782987692619684400,2.888684326171875,-1.7967103987812996,-1.1218301927775145,0.08259352753460407
1782987692629758500,2.898758544921875,-1.373850897169113,-1.3571587055653334,0.36195933496952054
1782987692639833300,2.908833251953125,-0.7817226241320371,-1.5886483708426355,0.6208655610911548
1782987692649908200,2.918908203125,-0.5248784451067448,-1.7399764119073748,0.6242611948788166
1782987692659982300,2.928982421875,-0.6926321357935666,-1.6948507375016808,0.3454778635069728
1782987692670057200,2.93905712890625,-1.2861363733589648,-1.351098090352118,-0.1796180237427354
1782987692680131300,2.94913134765625,-1.9995552765935658,-0.9522884496301413,-0.6158730135008692
1782987692690206200,2.959206298828125,-2.4896792191833255,-0.658561523887515,-0.8128563058033585
1782987692700280300,2.9692802734375,-2.632508311972022,-0.3470388292133808,-0.9404226552695035
1782987692710355200,2.979355224609375,-2.508220253524184,0.020263035827875135,-1.0057640192300081
1782987692720429300,2.98942919921875,-2.278018582230806,0.3516165123924613,-0.975910002105683
1782987692730504200,2.999504150390625,-2.1001485711991785,0.6155547413319349,-0.8854895803377032
1782987692740579300,3.009579345703125,-1.9434668941467999,0.8800356988459825,-0.8358468668989837
1782987692750653200,3.019653076171875,-1.6381518219411373,1.1164029070317745,-0.8641143454842269
1782987692760728300,3.029728271484375,-1.1772019513875245,1.2829928146362304,-0.9848401814058423
1782987692770802200,3.03980224609375,-0.6679378395199775,1.346398242098093,-1.0925875855498015
1782987692780877300,3.049877197265625,-0.18427403285503385,1.3353808812603354,-1.1798264546722173
1782987692790951200,3.059951171875,0.19948679955601692,1.3233923373028635,-1.3407441618591547
1782987692801026300,3.0700263671875,0.4904851771175861,1.3253402565002441,-1.508611688183993
1782987692811100200,3.08010009765625,0.6979594682961702,1.343899411019683,-1.6408103736259043
1782987692821175300,3.09017529296875,0.8369763093203306,1.3373255855873227,-1.6914888598531483
1782987692831250400,3.10025048828125,0.9237199422717094,1.3160326221898198,-1.6749746551647782
1782987692841324300,3.11032421875,0.9779413618028163,1.3521253875732422,-1.6075101615704595
1782987692851399400,3.1203994140625,0.9495224920481443,1.400634274676442,-1.4936357989788054
1782987692861473300,3.130473388671875,0.8768506390690803,1.4451552611872553,-1.296756113181263
1782987692871548400,3.14054833984375,0.8430874856770038,1.417251355217397,-1.1118171866767108
1782987692881622300,3.150622314453125,0.9262105900436639,1.339626263745129,-0.947722310758382
1782987692891697400,3.160697509765625,1.0528104325652121,1.23373866212368,-0.8273873738504945
1782987692901771300,3.170771240234375,1.1831442009180784,1.1358116641178726,-0.7297637427054345
1782987692911846400,3.180846435546875,1.2770850518971681,1.0773106675714255,-0.6280535728991031
1782987692921921000,3.190921142578125,1.253332420387864,1.0036725999087095,-0.47948155254423613
1782987692931995100,3.2009951171875,1.129725329941511,0.9562661210894584,-0.3530911149896681
1782987692942070000,3.211070068359375,0.9432476495623588,0.9345356430575251,-0.2834567300103605
1782987692952144100,3.22114404296875,0.7177566401779651,0.8768760657712816,-0.346039735173434
1782987692962219000,3.231218994140625,0.517177369210124,0.7808604543447494,-0.3805263805344701
1782987692972293000,3.241293212890625,0.25679683275222775,0.7022112805217504,-0.42648105311021206
1782987692982368000,3.251367919921875,0.020838205367326734,0.6530474366411566,-0.5220135571949184
1782987692992442000,3.261442138671875,-0.1639069521307945,0.5593485777243972,-0.6645289078593254
1782987693002517000,3.27151708984375,-0.1369990714609623,0.4569146236881613,-0.7204445640876889
1782987693012591000,3.281591064453125,0.08071779679059982,0.26646453254669905,-0.7005187973901629
1782987693022666000,3.291666015625,0.35592531550228595,0.09623743748366832,-0.6290396613270044
1782987693032741000,3.3017412109375,0.7268436174750328,-0.04208937544971704,-0.5447093731276691
1782987693042815200,3.311815185546875,1.061746018692851,-0.2057069892451167,-0.5311619092904031
1782987693052890000,3.32189013671875,1.3585218106120824,-0.4040121778011322,-0.5433277095109224
1782987693062964200,3.331964111328125,1.5807669699430464,-0.5569464850187301,-0.5504778735265136
1782987693073039000,3.3420390625,1.7632815919101237,-0.6902852804064751,-0.6009222587369382
1782987693083113200,3.35211328125,1.7935715162336825,-0.8398989187687635,-0.6211816413030028
1782987693093188000,3.36218798828125,1.6911065825372933,-0.9145984781831502,-0.6332140244022011
1782987693103262200,3.37226220703125,1.340873925718665,-0.9400985378816723,-0.6187170047551394
1782987693113337000,3.382337158203125,0.8674369140356779,-0.8709215412810445,-0.5980870353110134
1782987693123412200,3.392412109375,0.45176586262285706,-0.7746388033509254,-0.5333658490754664
1782987693133486000,3.402486083984375,0.1218710604339838,-0.6754121209233999,-0.42921968429386614
1782987693143561200,3.412561279296875,-0.058982934844493864,-0.596494067031145,-0.3281291076906025
1782987693153635000,3.422635009765625,-0.10716799682080745,-0.5329121139585972,-0.23724895945638416
1782987693163710200,3.432710205078125,-0.04937807115316391,-0.5151765507817269,-0.09599968320503831
1782987693173784000,3.4427841796875,0.07441197464466094,-0.5198921811267734,0.04031301342695951
1782987693183859200,3.452859130859375,0.14251988070905208,-0.5426712914288043,0.13574088809341192
1782987693193933000,3.46293310546875,0.15707798289358615,-0.6031137774318456,0.14001315858513116
1782987693204008200,3.47300830078125,0.06131926883757114,-0.6870008519083262,0.13333558051735162
1782987693214083000,3.4830830078125,-0.11560907742977142,-0.7517807825937867,0.15409750577807427
1782987693224157200,3.4931572265625,-0.39102819306552405,-0.7654828524708748,0.15824848797768354
1782987693234232000,3.503232177734375,-0.7610498384594917,-0.7550035440325736,0.13507760187909007
1782987693244306200,3.51330615234375,-1.0744073473453521,-0.7357248430669308,0.11391264877542853
1782987693254381000,3.523381103515625,-1.2482944262206555,-0.7575479678183794,0.07979089120402932
1782987693264455200,3.533455078125,-1.2596522710591553,-0.8869023697450756,0.1674861257918179
1782987693274530000,3.543530029296875,-1.151426874139905,-1.0001268901258706,0.25740020547285675
1782987693284604200,3.553604248046875,-1.052200776234269,-1.114283138398826,0.2404498013243079
1782987693294679000,3.563678955078125,-1.0152969867289066,-1.233923371040821,0.21664821610674262
1782987693304753200,3.573753173828125,-1.1406091275274752,-1.2297639132738112,0.0017396832741796969
1782987693314828000,3.583828125,-1.474777369251847,-0.9748495332673192,-0.3633690556369722
1782987693324903000,3.59390283203125,-1.9513585241794584,-0.582616640587151,-0.716953945492953
1782987693334977000,3.60397705078125,-2.4537200170516966,-0.16868483405709267,-1.0621635134525595
1782987693345052000,3.614052001953125,-2.7832296193152666,0.221984170307219,-1.2488839165464043
1782987693355126000,3.6241259765625,-2.7977333609640596,0.6061907006591558,-1.1967279051125048
1782987693365201000,3.634200927734375,-2.417862521728873,0.858100345891714,-0.9185244194552302
1782987693375275000,3.64427490234375,-1.6811498366683721,0.8779320045650005,-0.45729982361346483
1782987693385350000,3.654349853515625,-0.7125958964139223,0.76452189848423,0.08178148049935698
1782987693395424000,3.664424072265625,0.2185702702105045,0.5954074408382177,0.6042486266806721
1782987693405499000,3.674498779296875,0.9802964004963636,0.30898440836817026,1.09477735067904
1782987693415574000,3.684573974609375,1.5832733998060224,0.09989186833798885,1.4916126225881277
1782987693425647900,3.69464794921875,1.8407447708189486,-0.02798135512024164,1.6207124652318656
1782987693435723000,3.704722900390625,1.617571975249052,-0.11734773779064417,1.43259023251608
1782987693445797000,3.714797119140625,1.0562626188457012,-0.13709580983370542,0.9207315741106867
1782987693455872000,3.7248720703125,0.36191374226212497,-0.10126754060536622,0.22383915052413939
1782987693465946000,3.734946044921875,-0.2033779617756605,-0.06307458807229996,-0.3464467085391283
1782987693476021000,3.74502099609375,-0.6787666920483112,-0.0030418519139289854,-0.775144999307394
1782987693486095000,3.75509521484375,-0.9858312382698059,0.0746317548751831,-1.0315474259145558
1782987693496170000,3.765169921875,-0.9955641122549772,0.2160305225998163,-1.036614792306721
1782987693506245000,3.7752451171875,-0.6637830579280853,0.3549281211584806,-0.7420799111820757
1782987693516319000,3.785319091796875,-0.10818214229941367,0.4700251574128866,-0.29567177620008583
1782987693526394000,3.79539404296875,0.4411047678768635,0.6062813015520573,0.19240122520923614
1782987693536468000,3.805468017578125,0.8966922346144914,0.7935361037835479,0.5670312411814927
1782987693546543000,3.815543212890625,1.2772481335043906,0.8945134292706847,0.8347558567918837
1782987693556617000,3.825616943359375,1.5713567520409821,0.9054401892155408,0.9982705947346985
1782987693566692000,3.835692138671875,1.7522312055855989,0.864053409077227,1.0706474102899433
1782987693576766000,3.845765869140625,1.8262445363014936,0.8412602702498435,1.0650985439911484
1782987693586841000,3.855841064453125,1.7938310439527034,0.8171960885733366,0.9491362692095339
1782987693596915000,3.8659150390625,1.6541975323349236,0.7458888019457459,0.773603468953818
1782987693606990000,3.875989990234375,1.4986018969535826,0.6296010946020484,0.5886695839505642
1782987693617065200,3.886065185546875,1.188495498818159,0.521075253431499,0.4436567904472351
1782987693627139000,3.89613916015625,0.8037146757096052,0.4883417353481054,0.3134044167675078
1782987693637214200,3.906214111328125,0.4152303219079971,0.4980196642756462,0.20884806374981998
1782987693647288000,3.9162880859375,0.15537059445381163,0.5446335314124823,0.15348989527374504
1782987693657363200,3.92636328125,0.017571897047758103,0.6183008251696824,0.23645342516452073
1782987693667437000,3.93643701171875,-0.029689035820960996,0.6268614405050873,0.44130978892967104
1782987693677512200,3.94651220703125,-0.014773206239938734,0.5783613212302327,0.6948790379375219
1782987693687586000,3.9565859375,0.13351824360787867,0.5843032784998416,0.8739974415950477
1782987693697661200,3.9666611328125,0.4112836301088333,0.5349962267562747,0.9737554544202983
1782987693707735000,3.976735107421875,0.7019365552335977,0.39768414382338524,0.9945935136571525
1782987693717810200,3.98681005859375,0.8274562013030051,0.24505028085708616,0.9673859193883836
1782987693727885000,3.996885009765625,0.7347866854339837,0.12711392952352762,0.774784203170985
1782987693737959200,4.006959228515625,0.5505073918819428,0.12447276736497878,0.4942364924751222
1782987693748034000,4.017033935546875,0.3208265295922756,0.12229746915251016,0.23654490284025667
1782987693758108200,4.027108154296875,0.05971884790360927,0.07781243073791265,0.173618052675575
1782987693768183000,4.03718310546875,-0.19976795458495616,0.07823387102037668,0.2697102364696562
1782987693778257200,4.047257080078125,-0.447782345944643,0.04792933364957571,0.36996056285649537
1782987693788332000,4.05733203125,-0.512755461114645,0.02289893728941679,0.4861860186189413
1782987693798406100,4.06740625,-0.42923137473165984,-0.05854015951305627,0.5615292827643453
1782987693808481000,4.07748095703125,-0.3547422431975603,-0.11207242773622274,0.6227328162677586
1782987693818556200,4.08755615234375,-0.4195055150091648,-0.13281331020891665,0.6590694734096527
1782987693828630000,4.097630126953125,-0.5166267495900392,-0.11860709020197391,0.6604781711637974
1782987693838705200,4.107705078125,-0.5893459488421678,-0.10920067169219255,0.6157631233856081
1782987693848779300,4.117779296875,-0.6367255396544933,-0.1314689098626375,0.6169013336353003
1782987693858854100,4.127854248046875,-0.5479401717424393,-0.1335655898809433,0.6462336649730801
1782987693868928300,4.13792822265625,-0.352161579054594,-0.13779694384038446,0.6474000784039498
1782987693879003100,4.148003173828125,-0.10800853929817676,-0.21529694762825966,0.6825510328926145
1782987693889077200,4.1580771484375,0.049016836625337595,-0.30678105310499665,0.7429976105488836
1782987693899152100,4.168152099609375,0.13772504764795301,-0.3902101546809077,0.7095747950270772
1782987693909226200,4.178226318359375,0.1532242300748825,-0.4398644124269485,0.7467861891768872
1782987693919301000,4.188301025390625,0.12334405559599398,-0.48939913544654845,0.8027835323393344
1782987693929376300,4.198376220703125,0.1632587173551321,-0.6532640020012855,0.9580477438092231
1782987693939450400,4.208450439453125,0.3415840709388256,-0.8420596039339899,1.178095246965438
1782987693949525200,4.218525146484375,0.5847007533848285,-0.9192325677245855,1.2826469238080083
1782987693959599400,4.228599365234375,0.6885743848353624,-0.9374202585831284,1.2117787592500449
1782987693969674200,4.23867431640625,0.5230611665517091,-0.7670406033068895,0.9847433699678629
1782987693979748400,4.248748291015625,-0.043263972187042234,-0.5002648128539323,0.6392861839227378
1782987693989823200,4.2588232421875,-0.7695850270926952,-0.23021511529684066,0.21649397539310156
1782987693999897300,4.2688974609375,-1.3816910892754792,0.07701601966321468,-0.23465244015716014
1782987694009972200,4.27897216796875,-1.8221756794273851,0.39684593943357466,-0.6795133456971496
1782987694020047000,4.289047119140625,-1.869953914168477,0.6768102972835301,-0.9357375661931931
1782987694030121200,4.299121337890625,-1.4602069921076297,0.6927502092152834,-0.8773705712899565
1782987694040196000,4.309196044921875,-0.7758803278446197,0.44233255610615013,-0.4513431802313775
1782987694050270200,4.319270263671875,0.061792731568217275,0.13096768234223127,0.04951594525389373
1782987694060345000,4.329344970703125,0.8235802366524935,-0.0482823848709464,0.4727593316171318
1782987694070419200,4.339419189453125,1.301360245975852,-0.2737976519137621,0.8818934555418789
1782987694080494000,4.349494140625,1.452405378445983,-0.4129144461810589,1.266959963724017
1782987694090568200,4.359568115234375,1.2152245157897472,-0.2536544430732727,1.3482153745226562
1782987694100643000,4.36964306640625,0.6376689579844474,0.09044219520837068,1.0852433602668343
1782987694110717200,4.37971728515625,-0.10275485655367374,0.3363312649771571,0.524597801534459
1782987694120792000,4.3897919921875,-0.985553005850315,0.42631139563173054,0.045205388578400015
1782987694130867200,4.3998671875,-1.856328124397993,0.504588521271944,-0.3376347487911582
1782987694140941000,4.409941162109375,-2.424982582867145,0.5661269858181476,-0.6316627763722091
1782987694151016200,4.42001611328125,-2.5249966162800788,0.5798568204849958,-0.8557407771535217
1782987694161090300,4.43009033203125,-2.0064450361073014,0.5940305995270609,-0.8958414630040525
1782987694171165200,4.440165283203125,-1.0874638127952814,0.5265934323310851,-0.6087642044089734
1782987694181239300,4.4502392578125,-0.08817746514678002,0.472668949919939,-0.22889256145618855
1782987694191314200,4.460314208984375,0.7602128031134605,0.489595827062428,0.10703552954755723
1782987694201388300,4.47038818359375,1.4013666806042193,0.5389721446499228,0.3676917411416769
1782987694211463200,4.480463134765625,1.8416706534922123,0.5873474685013294,0.5867016448784619
1782987694221537300,4.490537353515625,2.1431173598319293,0.6168903738498688,0.8151502619594335
1782987694231612200,4.500612060546875,2.2375533008515833,0.5968097088515758,1.0342545659814029
1782987694241687300,4.510687255859375,2.2505092285364863,0.6729334558501839,1.2125852533273398
1782987694251761200,4.52076123046875,2.174803706949949,0.7258680504411459,1.3782118688575922
1782987694261836300,4.530836181640625,2.04714237267673,0.7198492285430431,1.4956271189264951
1782987694271910100,4.54091015625,1.8243951090425252,0.6722901895105838,1.5578379297763107
1782987694281985300,4.5509853515625,1.457504162889719,0.6058534315288067,1.5290610403642058
1782987694292059100,4.56105908203125,1.0954086343199014,0.5454772887602448,1.435522194314748
1782987694302134300,4.57113427734375,0.8400941490799189,0.45893122420758004,1.297566698911786
1782987694312208100,4.5812080078125,0.6271241830945015,0.3349707902789116,1.1200763348475098
1782987694322283300,4.591283203125,0.362969388794899,0.22909371005147694,0.9277877762325107
1782987694332358400,4.6013583984375,0.08381108663082122,0.20480156483799217,0.781187494342029
1782987694342432300,4.611432373046875,-0.1335311030894518,0.2750663566753268,0.7254488021157681
1782987694352507400,4.62150732421875,-0.21082184804081916,0.33626141461133957,0.7688777556061744
1782987694362581200,4.631581298828125,-0.2282347551345825,0.3294900207802653,0.8977259615764022
1782987694372656400,4.641656494140625,-0.27918051399588584,0.24660335551798343,1.0702388294890521
1782987694382730200,4.651730224609375,-0.33213995076715946,0.17483400433659552,1.14229298896119
1782987694392805400,4.661805419921875,-0.37157004387974735,0.09819675485789775,1.1206691861741245
1782987694402879200,4.671879150390625,-0.3583072422027588,-0.01296615681797266,1.053758234809339
1782987694412954400,4.681954345703125,-0.3160463095784187,-0.12059154201745986,0.9482980648197233
1782987694423028200,4.6920283203125,-0.2825917837440967,-0.21601211016029118,0.8622592191368341
1782987694433103400,4.702103271484375,-0.24281916080415247,-0.27303718893527984,0.7882790600381792
1782987694443178200,4.71217822265625,-0.18105156367719172,-0.32732173683047294,0.7317648533947766
1782987694453252400,4.72225244140625,-0.13173895897567273,-0.3601628069415688,0.7050126016780733
1782987694463327200,4.7323271484375,-0.12536299420297145,-0.4208376403957605,0.6577690583355724
1782987694473401300,4.7424013671875,-0.07765840921998024,-0.5113207521364093,0.6036814943172037
1782987694483476200,4.752476318359375,-0.059385085904598234,-0.5667135535344481,0.5270129729174077
1782987694493550300,4.76255029296875,-0.02518938631415367,-0.628400778901577,0.49521235176995393
1782987694503625200,4.772625244140625,0.02103752733170986,-0.6526970157682895,0.47903249360248445
1782987694513699300,4.78269921875,0.0503629905372858,-0.6534186080411076,0.4535260041631758
1782987694523774200,4.792774169921875,0.054115036547183984,-0.6708680477529764,0.48589624189212915
1782987694533848300,4.802848388671875,0.007470774272084236,-0.6884159794032574,0.5154720265969633
1782987694543923200,4.812923095703125,-0.08915946192145346,-0.6683402828410268,0.5582013073854148
1782987694553998300,4.822998291015625,-0.1319406190276146,-0.6101145961046218,0.5809734034247696
1782987694564072400,4.833072509765625,-0.18170915080308914,-0.5512123252809047,0.548725769162178
1782987694574147300,4.843147216796875,-0.17599486480951307,-0.47427170894145965,0.49401890420168637
1782987694584221400,4.853221435546875,-0.1641162109673023,-0.4053761596307158,0.42322906557694073
1782987694594296300,4.86329638671875,-0.16855097854435444,-0.3135749510288238,0.33097894416376944
1782987694604370400,4.873370361328125,-0.23723171606063842,-0.23589432997703552,0.26650807942748067
1782987694614445300,4.8834453125,-0.3982037837833166,-0.20187164886593817,0.30877398048788307
1782987694624519400,4.89351953125,-0.42994332239329813,-0.46299774299412966,0.6192223239287734
1782987694634594300,4.90359423828125,-0.07802958061993122,-0.7556888959482312,1.109745787230134
1782987694644668400,4.91366845703125,0.2722930925697088,-0.86436495924443,1.3936597594887017
1782987694654743300,4.923743408203125,0.26868016276955603,-0.8382406301677227,1.4174619292281567
1782987694664818200,4.933818115234375,-0.2088461640536785,-0.5176514164626598,1.166314208278805
1782987694674892300,4.943892333984375,-0.9648317048609256,-0.21232465381920337,0.8920122601047158
1782987694684967200,4.95396728515625,-1.5136726248353718,-0.04328793758451938,0.8540586692854761
1782987694695041300,4.964041259765625,-1.756373127695918,0.10764525894373654,0.8358242166757583
1782987694705116200,4.9741162109375,-1.750429124599695,0.27772213188111783,0.7565856986574828
1782987694715190300,4.984190185546875,-1.530879195702076,0.49895431477725505,0.5849973982438444
1782987694725265200,4.99426513671875,-1.224602000465989,0.6338412163898348,0.533248944697529
1782987694735339300,5.00433935546875,-0.9133937785685062,0.6720365070104598,0.6708404290936887
1782987694745414100,5.0144140625,-0.5237690225601196,0.6646691931128501,0.8450475337035953
1782987694755488300,5.02448828125,-0.008948445609211922,0.7239145782858133,0.9948080331906676
1782987694765563100,5.034563232421875,0.505759903138876,0.8305348780959844,1.140544976250082
1782987694775638300,5.04463818359375,0.8754378496617078,0.9345949720293283,1.3042407698482275
1782987694785712000,5.054712158203125,1.0597867013186215,1.0742530335664748,1.4006154238454998
1782987694795787300,5.064787353515625,0.9483283138275146,1.2223013223081827,1.43893594828099
1782987694805861000,5.074861083984375,0.7039233451366425,1.4058125540971755,1.360931355971843
1782987694815936300,5.084936279296875,0.4748948092758655,1.5937077000588178,1.2406653926469384
1782987694826010000,5.095010009765625,0.24027941319346427,1.778684328225255,1.173818154168129
1782987694836085200,5.105085205078125,0.008552139768004417,1.8896479179367422,1.0340377814255655
1782987694846159000,5.1151591796875,-0.11927695228755474,1.908089291295409,0.880552270065993
1782987694856234200,5.125234130859375,-0.1691407611310482,1.8248779241234063,0.6748610629118978
1782987694866308000,5.13530810546875,-0.16713059035241604,1.617637149439752,0.4047529131658375
1782987694876383200,5.14538330078125,-0.044915831047296524,1.4849156091675162,0.2535720254868269
1782987694886458000,5.1554580078125,0.1052490114569664,1.4149617829754948,0.19009923187717795
1782987694896532200,5.1655322265625,0.20805004523992537,1.4304697332307696,0.31085020224004983
1782987694906607000,5.175607177734375,0.15464578731060027,1.5027818129867314,0.4699630519621074
1782987694916681200,5.18568115234375,0.00036649522483348846,1.58794080709517,0.5595112209402024
1782987694926756000,5.195756103515625,-0.12977788803577422,1.6424419203504919,0.5839727313712239
1782987694936830000,5.205829833984375,-0.05632686737775802,1.616650768750906,0.5447060121268034
1782987694946905000,5.215905029296875,0.15687164666652678,1.5635940090849996,0.5883864561602473
1782987694956979000,5.22597900390625,0.35152445019483564,1.4476488315686582,0.6812216839849948
1782987694967054000,5.23605419921875,0.3958458224803209,1.3086311137616633,0.6793570591568946
1782987694977128000,5.2461279296875,0.42197745808064935,1.1892547927528618,0.6038799394987523
1782987694987203000,5.256203125,0.4567465736448765,1.0277361970633268,0.463312215770781
1782987694997278200,5.2662783203125,0.5159487041980028,0.8589449800223111,0.3144967420488596
1782987695007352000,5.27635205078125,0.5890712235540151,0.7133399927794933,0.24385814846307038
1782987695017427200,5.28642724609375,0.6836690771371126,0.5918897881060838,0.2677043034747243
1782987695027501000,5.2965009765625,0.7803525048226118,0.5089437938719987,0.3551879411384463
1782987695037576200,5.306576171875,0.7747253125905991,0.4112608337551355,0.44154827386066314
1782987695047650000,5.316650146484375,0.6273831262916326,0.32787761714756486,0.48729514890462156
1782987695057725200,5.32672509765625,0.4093143758624792,0.2593862647235393,0.5169019132696092
1782987695067799000,5.336799072265625,0.18265899887382983,0.21542671148777007,0.4653434293374419
1782987695077874200,5.346874267578125,-0.03479892618060112,0.15083207424134015,0.3356169792279601
1782987695087948000,5.356947998046875,-0.24100597390234468,0.08666472249627113,0.23670696153417228
1782987695098023200,5.367023193359375,-0.3490484154701233,0.03692775490283966,0.18302856283858418
1782987695108098000,5.37709814453125,-0.3796773624897003,0.003271569016575813,0.14446312373131512
1782987695118172200,5.387172119140625,-0.3911059344768524,0.0013113748595118522,0.0982375983249396
1782987695128247000,5.3972470703125,-0.41584173180460926,0.07247223875373601,0.13781864421553908
1782987695138321200,5.407321044921875,-0.32213644314706325,0.09890314956158398,0.20620478269942102
1782987695148396000,5.41739599609375,-0.1284025080293417,0.136061498349905,0.2948995497185737
1782987695158470100,5.42747021484375,0.05033902513980865,0.14294658168852328,0.3981532957050949
1782987695168545300,5.437545166015625,0.12982464978694916,0.13548866689801214,0.5534289053518324
1782987695178619100,5.447619140625,0.08132043885886668,0.11815087086707353,0.6611565088167787
1782987695188694300,5.4576943359375,-0.049066520985960954,0.06875117240399121,0.6753343064468353
1782987695198768000,5.46776806640625,-0.13516951794624327,-0.07399287244975566,0.6634775721754879
1782987695208843300,5.47784326171875,-0.20190204400420186,-0.18888094212859868,0.5572285898957401
1782987695218918100,5.487918212890625,-0.225803728595376,-0.2695125219404697,0.42115043267197905
1782987695228992300,5.4979921875,-0.18209318168461322,-0.3198345959454775,0.406264486772567
1782987695239067100,5.508067138671875,-0.17357026801109313,-0.3589832417681813,0.43774215957596896
1782987695249141200,5.518141357421875,-0.1718073499917984,-0.3779308110833168,0.5088409180194139
1782987695259216100,5.528216064453125,-0.11768179205060005,-0.5156073434144258,0.6957249872423708
1782987695269290200,5.538290283203125,0.09389818088114261,-0.8943401185303926,1.0924774762388318
1782987695279365000,5.548365234375,0.3850672388345003,-1.1707540904223919,1.3786650194525718
1782987695289439200,5.558439208984375,0.48538580815196036,-1.2788742734014986,1.3648273404970763
1782987695299514000,5.56851416015625,0.15574351941943168,-1.2262877615958452,1.085609490165487
1782987695309588200,5.578588134765625,-0.6258832431226968,-0.9344733914762735,0.564579683310911
1782987695319663000,5.5886630859375,-1.5613690265119076,-0.5683998991861939,0.02258475677371025
1782987695329738200,5.59873828125,-2.417161679983139,-0.11002572433948517,-0.373513140771538
1782987695339812000,5.60881201171875,-2.9852210951685905,0.3133838123708963,-0.6125847856104374
1782987695349887200,5.61888720703125,-3.1090777764618394,0.7842825377479196,-0.728709630542621
1782987695359961000,5.628961181640625,-2.679856923124194,1.1396855829417705,-0.6528655042029917
1782987695370036200,5.6390361328125,-1.7941688976049421,1.237886721713841,-0.281996813525632
1782987695380110000,5.649110107421875,-0.7329296593904495,1.161507246388495,0.19048801199905574
1782987695390185200,5.659185302734375,0.20433774671852586,1.0929352299436925,0.6365783862687647
1782987695400259000,5.669259033203125,0.9090203857898712,1.0456105841889978,1.0683904251433909
1782987695410334200,5.679334228515625,1.2573317191570996,0.9892767025485634,1.425263981281221
1782987695420408300,5.689408203125,1.1607669494152069,0.9777689278453587,1.5179747059434652
1782987695430483200,5.699483154296875,0.6952484557718038,1.1235142003417014,1.2099654262177646
1782987695440558000,5.70955810546875,0.0912625716805458,1.2484867339223622,0.6849339825063944
1782987695450632200,5.719632080078125,-0.5252934556484222,1.2423615290403365,0.20109233505651353
1782987695460707000,5.72970703125,-1.1170821214675903,1.1545178258925675,-0.26076851286217567
1782987695470781200,5.73978125,-1.537203138026595,1.0940613113641737,-0.7034956212438642
1782987695480856000,5.74985595703125,-1.7208762823790311,1.0359726950109005,-1.043487600685656
1782987695490930200,5.75993017578125,-1.6324287681192158,0.9703075059235096,-1.1980589345205575
1782987695501005000,5.770005126953125,-1.2914052536725997,0.9196931709736585,-1.063262268474698
1782987695511079200,5.7800791015625,-0.7230413025826216,0.9151087657928466,-0.678939199071005
1782987695521154000,5.790154052734375,-0.06593231559097766,0.9372603918462992,-0.2095522664964199
1782987695531228200,5.800228271484375,0.5923638353586197,0.9983978743761778,0.1817570085328072
1782987695541303000,5.810302978515625,1.2012924365490674,0.9649088617503643,0.4797277093250304
1782987695551378200,5.820378173828125,1.71101247549057,0.8419412382513284,0.7353287564214318
1782987695561452000,5.8304521484375,2.0879390779674054,0.6818851163297891,0.9094144996739923
1782987695571527200,5.840527099609375,2.3354601328521967,0.541015925437212,0.9854346401676535
1782987695581601000,5.85060107421875,2.37094411868751,0.4227414281904697,0.9840796453621238
1782987695591676200,5.86067626953125,2.172932067859173,0.3540712120682001,0.9060838939465582
1782987695601750000,5.87075,1.7804712116420267,0.3653729428052902,0.7990252027191221
1782987695611825200,5.8808251953125,1.2920055576533078,0.3806517604798078,0.6684626671116799
1782987695621899000,5.89089892578125,0.7509808643877506,0.411970443329215,0.5880420266367494
1782987695631974100,5.90097412109375,0.2319856321007013,0.442739383341372,0.4261031597085297
1782987695642048000,5.911048095703125,-0.15396365026533604,0.4160252716779709,0.2375179125908762
1782987695652122000,5.9211220703125,-0.4356009097635746,0.34962270822674035,0.1064325221531093
1782987695662197000,5.931197021484375,-0.6255009658068418,0.3134691525667906,0.06132547938264906
1782987695672271000,5.94127099609375,-0.6923211701482535,0.34502690486907955,0.16767434184029698
1782987695682346000,5.951345947265625,-0.616837766879797,0.41584173180460926,0.3596525193318724
1782987695692420400,5.96142041015625,-0.430488096794486,0.45208442705273627,0.5596974642273038
1782987695702495000,5.971494873046875,-0.161593414491415,0.4613911845803261,0.7162452857669442
1782987695712569300,5.9815693359375,0.13285598030686377,0.3951198462933302,0.7603309496004134
1782987695722644000,5.99164404296875,0.4090449112713337,0.30319179644137617,0.7214800446152687
1782987695732718300,6.00171826171875,0.6079664781600237,0.11269435902684927,0.6327557592406868
1782987695742793000,6.01179296875,0.7107511453300714,-0.07774637976437807,0.51829680169411
1782987695752867300,6.021867431640625,0.7099602872133255,-0.2282435229629278,0.38101723279133437
1782987695762942000,6.03194189453125,0.5927256544083357,-0.3065057432949543,0.30197555251941083
1782987695773017000,6.04201708984375,0.4179670533955097,-0.34624124909490345,0.22982290110886094
1782987695783091000,6.052091064453125,0.23135668654739855,-0.40810295424610377,0.14379106968864797
1782987695793166000,6.062166015625,0.07944470811486244,-0.4472743964225053,0.08896518145836889
1782987695803240000,6.072239990234375,-0.010833528703451155,-0.4794344985321164,0.06320150238759815
1782987695813315000,6.082315185546875,-0.027865327525138855,-0.47520548266023394,0.07089249528162181
1782987695823389000,6.092388916015625,0.006453121662139892,-0.4959992643639445,0.09351283482536674
1782987695833464000,6.102464111328125,0.1033662664502859,-0.5421867227822542,0.2115464359883219
1782987695843538000,6.112537841796875,0.2629734755605459,-0.6032020402371883,0.35944464873485266
1782987695853613000,6.122613037109375,0.4183241962701082,-0.6391966059431433,0.5469302640475332
1782987695863687000,6.13268701171875,0.49446635570824143,-0.662259793883562,0.677039283733815
1782987695873762000,6.142761962890625,0.4951134214401245,-0.6524380725711584,0.7656247451595961
1782987695883836000,6.1528359375,0.47548283829689025,-0.6264969911068677,0.8237081008158623
1782987695893911000,6.1629111328125,0.4037362834692001,-0.6087246030509471,0.8128539677157998
1782987695903986200,6.172986083984375,0.23688977075517176,-0.5543073686867952,0.7342372348576783
1782987695914060000,6.18306005859375,0.011244447591900825,-0.49162908645570275,0.6691219347380102
1782987695924135200,6.19313525390625,-0.20444412970244882,-0.6358814900457859,0.8129974678397178
1782987695934209300,6.203209228515625,-0.1615846466630697,-0.8851642939060926,1.1441713500536979
1782987695944284400,6.213284423828125,-0.1312123047530651,-0.9093801590129733,1.337258803961426
1782987695954358500,6.223358642578125,-0.41182080572545526,-0.7417164846971631,1.3218290335088967
1782987695964433400,6.233433349609375,-0.9551134439229965,-0.4876008538529277,1.088819172926992
1782987695974507500,6.243507568359375,-1.4799837057232856,-0.20960779607594013,0.7294806879803538
1782987695984582400,6.25358251953125,-1.866947133567929,0.12046586981117725,0.2936199582368135
1782987695994656500,6.263656494140625,-1.9880109692722558,0.5075117152422666,-0.05584419842734933
1782987696004731400,6.2737314453125,-1.8427251309812067,0.8106839302003384,-0.2941213318876922
1782987696014806500,6.283806640625,-1.4254413836747406,1.0547715035051106,-0.42862347196638584
1782987696024880400,6.29388037109375,-0.8415531157165765,1.2201917828083038,-0.348734673345834
1782987696034956500,6.30395654296875,-0.1985807906270027,1.232058161690831,-0.04186477291360497
1782987696045030400,6.314030517578125,0.4789321019679308,1.190932955098152,0.3354730407126248
1782987696055105500,6.32410546875,1.181727319857478,1.1310679767221212,0.7416444423742592
1782987696065179400,6.334179443359375,1.8730729229718446,1.0396370627373457,1.1339807954289018
1782987696075254500,6.344254638671875,2.301834926626086,0.8159843746960163,1.5229657922290265
1782987696085328600,6.35432861328125,2.3170769194215537,0.46006519667357204,1.8035250472322106
1782987696095403500,6.364403564453125,1.953676153472066,0.31436493236273527,1.613335798984021
1782987696105477600,6.3744775390625,1.1842495318114756,0.38893531243950125,0.9652807638026774
1782987696115552500,6.384552490234375,0.20218202998936174,0.47994946231693025,0.28705840776413677
1782987696125626600,6.394626708984375,-0.7766168254256248,0.5368637741938233,-0.21492095392271876
1782987696135701500,6.404701416015625,-1.6888322078645228,0.6529848927989602,-0.6222445943593978
1782987696145776400,6.4147763671875,-2.327947273004055,0.8205725792691111,-0.9314316856928169
1782987696155850500,6.4248505859375,-2.5823802992343903,0.9240534120097755,-1.0613491283297538
1782987696165925400,6.43492529296875,-2.4557138212174174,0.9559224222183227,-0.9451666349261999
1782987696175999500,6.44499951171875,-2.062178029245138,1.0197209406509995,-0.6327338396698237
1782987696186074400,6.455074462890625,-1.5719289989709853,1.049886361812055,-0.3454351934090257
1782987696196148500,6.4651484375,-1.0419915169090033,1.1023892869874834,-0.15103168846666812
1782987696206223400,6.475223388671875,-0.5601765529811382,1.1292901533946393,-0.027326836734265086
1782987696216297500,6.48529736328125,-0.10081599744558334,1.0882213531643152,0.08388488251939416
1782987696226372600,6.49537255859375,0.38393151280283927,1.0405188140079378,0.11536080175712704
1782987696236446500,6.505446533203125,0.8716846346080303,0.989387469446659,0.11568886466771364
1782987696246521600,6.515521484375,1.3042799328148365,0.8793617451071739,0.12021204118058085
1782987696256596500,6.525596435546875,1.6119892066806554,0.7839373775720596,0.19132365910559893
1782987696266670600,6.535670654296875,1.7824901502490043,0.6925663770809769,0.23497268508747218
1782987696276745500,6.545745361328125,1.8237305076539516,0.6392296314299106,0.279237066488713
1782987696286819600,6.555819580078125,1.760199992507696,0.5893330893605947,0.2958388033300638
1782987696296894500,6.56589453125,1.6202765580326317,0.5238254289224743,0.301577054721117
1782987696306968600,6.575968505859375,1.4342407762020826,0.41707682655751704,0.3237098299436271
1782987696317043500,6.58604345703125,1.2393167545169592,0.28068741142749787,0.33489830956459044
1782987696327117600,6.59611767578125,1.0788619886666535,0.14982465076446533,0.3236132377013564
1782987696337192400,6.6061923828125,0.9253367298185825,0.011679624138772486,0.3414553299926221
1782987696347266600,6.6162666015625,0.8000865483403206,-0.10223463207185268,0.3378182886645198
1782987696357341400,6.626341552734375,0.7246803019613027,-0.2194634196579456,0.2589933198831975
1782987696367416300,6.636416259765625,0.6616133126735687,-0.34304128400981426,0.21249621099382637
1782987696377490400,6.646490478515625,0.5787064814060926,-0.5086965411126614,0.23086232715919613
1782987696387565300,6.6565654296875,0.4662830482751131,-0.6714075614571571,0.25867080993056296
1782987696397639400,6.666639404296875,0.36976211767494677,-0.7824120677009224,0.3323994784861803
1782987696407714300,6.67671435546875,0.2535305244326591,-0.8597709094524383,0.3976319752447307
1782987696417788400,6.686788330078125,0.12466449054479599,-0.917633315834403,0.4479897050850093
1782987696427863300,6.69686328125,0.029546997001767158,-0.9517582882761955,0.5319669420629739
1782987696437937400,6.7069375,-0.042481297376751895,-1.0125313214078544,0.6086128132395446
1782987696448012300,6.71701220703125,-0.08623276081979274,-1.0431637755587697,0.6928408101081848
1782987696458086400,6.72708642578125,-0.14402970075011254,-1.0756623158425092,0.7149971123367548
1782987696468161500,6.73716162109375,-0.16995675368905067,-1.1013093827962874,0.719555652423948
1782987696478235400,6.7472353515625,-0.18456687832176685,-1.1432879913479088,0.6935771615587174
1782987696488310500,6.757310546875,-0.1818628800600767,-1.1972136428028344,0.6686337128296495
1782987696498385400,6.767385498046875,-0.2848001074433327,-1.1612024182230234,0.660436816240102
1782987696508459500,6.77745947265625,-0.4412888922721147,-1.0412781079426408,0.6218934428341686
1782987696518534400,6.787534423828125,-0.6294482421278953,-0.9030614773854613,0.6462598223276436
1782987696528608500,6.7976083984375,-0.8990905279278755,-0.7726970216333866,0.7968287155881524
1782987696538683400,6.807683349609375,-1.0787889234304426,-0.8156959131434559,1.0900934306465089
1782987696548757500,6.817757568359375,-1.1126362479746341,-0.8661798997119069,1.444488029450178
1782987696558832400,6.827832275390625,-1.1839923421800136,-0.7729322916939854,1.604748441772163
1782987696568906500,6.837906494140625,-1.4443582655906677,-0.5185694080904126,1.4741058997310696
1782987696578981400,6.8479814453125,-1.8907944576233624,-0.24218173968344925,1.1021852157827465
1782987696589055500,6.858055419921875,-2.329480473920703,-0.05948153201639652,0.6577773877725005
1782987696599130400,6.86813037109375,-2.556143449693918,-0.019577683912217616,0.35643289969824254
1782987696609204500,6.87820458984375,-2.3897727377980944,-0.00795329709202051,0.23622926101982591
1782987696619279400,6.888279296875,-1.8639070352196692,0.0556941224321723,0.0684297584298998
1782987696629354500,6.8983544921875,-1.2848089241474867,0.0911909677490592,-0.0947094972640276
1782987696639428400,6.908428466796875,-0.8909598284423351,0.08681377557814121,-0.21130539377406238
1782987696649503500,6.91850341796875,-0.7103565930545329,0.12953560371249914,-0.3106011959150433
1782987696659577300,6.928577392578125,-0.5905927340328693,0.22788199617415666,-0.3634245121512562
1782987696669652500,6.938652587890625,-0.3729027537882328,0.3066661945536733,-0.2904217467173934
1782987696679726300,6.948726318359375,-0.015769231539964675,0.3150754187196493,-0.0820921538837254
1782987696689801500,6.958801513671875,0.4453554110586643,0.2817754989251494,0.11593604436181484
1782987696699875300,6.968875244140625,0.8600210848212242,0.2538686703458428,0.23557737298235296
1782987696709950500,6.978950439453125,1.1736024655908346,0.2051709826722741,0.22444230404905974
1782987696720024300,6.9890244140625,1.223751521116495,0.19112521392405032,0.08677950798235833
1782987696730099500,6.999099365234375,1.0352753603965044,0.22350012782812118,-0.26087840297743675
1782987696740174600,7.009174560546875,0.6604606355071068,0.31485914562046524,-0.643939343490824
1782987696750248400,7.01924853515625,0.2652700620651245,0.39037177498340603,-0.9148793409511446
1782987696760323600,7.029323486328125,-0.08926993655860424,0.48230830040276046,-1.0285358960736541
1782987696770397400,7.0393974609375,-0.37419922333955763,0.6444780534774065,-1.0225565294031054
1782987696780472600,7.04947265625,-0.5618699128955602,0.8005915752530097,-0.9515437687426805
1782987696790546400,7.05954638671875,-0.6393424441546202,0.9605296237528324,-0.7780701660390943
1782987696800621600,7.06962158203125,-0.6363058529376984,1.0988865395635365,-0.5726086029224098
1782987696810695400,7.0796953125,-0.5618985544681548,1.1289987692326307,-0.2767055021844804
1782987696820770600,7.0897705078125,-0.3238765648126602,1.1144769074052572,-0.006829699889570474
1782987696830844400,7.099844482421875,0.07269991002976894,1.0009569112092256,0.191758981782943
1782987696840919600,7.10991943359375,0.5557908852428197,0.8826187010765075,0.2752472662001848
1782987696850994400,7.119994384765625,1.0270727647185325,0.7338344992756843,0.28615634435787796
1782987696861068500,7.130068603515625,1.4766180286824702,0.6129021809965371,0.23918036591038105
1782987696871143700,7.140143798828125,1.8189117091953753,0.5550923815846442,0.23046748262271283
1782987696881217500,7.150217529296875,2.0430852062404155,0.530577533531189,0.29311705021597445
1782987696891292700,7.160292724609375,2.0803578290581703,0.49322073956131934,0.42786965792439874
1782987696901366500,7.170366455078125,1.9751392127394676,0.46694005087912077,0.48045770410001276
1782987696911441700,7.180441650390625,1.80362879986763,0.4490805690616369,0.4753258941695094
1782987696921515500,7.190515625,1.555437298375368,0.4208978461503982,0.40844468035586173
1782987696931591000,7.2005908203125,1.3528244757533072,0.41587855668365953,0.33262736895792183
1782987696941664800,7.210664794921875,1.189139057418704,0.36283085710704327,0.2878492658808827
1782987696951740000,7.220739990234375,1.0556056162416934,0.31643560115694996,0.34094409253485497
1782987696961813800,7.230813720703125,1.0129548075169323,0.2840209397643804,0.3707196375954896
1782987696971889000,7.240888916015625,1.0155506692290306,0.29347616585195063,0.4122711798414588
1782987696981963500,7.250963623046875,0.9396978481262922,0.24989012210369108,0.43046361994035537
1782987696992038000,7.261037841796875,0.8042822464644909,0.15169804342091084,0.45483518706560133
1782987697002112500,7.271112548828125,0.6254770004093647,0.0641705666154623,0.4577824925638735
1782987697012187000,7.281186767578125,0.5062269361287355,-0.04205985709428787,0.4237896951343864
1782987697022261500,7.291261474609375,0.39910219392776486,-0.1654723017513752,0.42939825573116536
1782987697032336000,7.3013359375,0.2505126379162073,-0.28795418756008145,0.4449063521169126
1782987697042410500,7.311410400390625,0.0600005874544382,-0.38380057989954947,0.35664288918711246
1782987697052484900,7.32148486328125,-0.14267477900981904,-0.43217911862134933,0.2970653494503349
1782987697062559500,7.3315595703125,-0.37509529539644715,-0.4386228879332542,0.28648988716118035
1782987697072633900,7.3416337890625,-0.6393114644944667,-0.4774667055904865,0.2709640359230339
1782987697082708500,7.35170849609375,-0.7971709531545639,-0.5429635523736477,0.2555596191074699
1782987697092783600,7.36178369140625,-0.8010849117279052,-0.5927145484924317,0.21605302669256923
1782987697102857700,7.371857666015625,-0.6353507441699504,-0.6863321588665247,0.21658216513320802
1782987697112932600,7.3819326171875,-0.3116892834126949,-0.7775719341933727,0.29937530689314007
1782987697123006700,7.3920068359375,0.08491641752421855,-0.8926426669627427,0.4970544725053012
1782987697133081600,7.40208154296875,0.49037762508988375,-1.0169570288956165,0.6575277238603681
1782987697143155700,7.41215576171875,0.8778402346283197,-1.1185165381848812,0.7174361029867082
1782987697153230600,7.422230712890625,1.1464560999900102,-1.189012216168642,0.6391196682494134
1782987697163304700,7.4323046875,1.154075342822075,-1.240486382818222,0.5246628295946866
1782987697173379600,7.442379638671875,0.9409937331557273,-1.2715046214163304,0.40009288546554744
1782987697183453700,7.45245361328125,0.47071606228649615,-1.250298167258501,0.3860265853859484
1782987697193528600,7.462528564453125,-0.07106266421675682,-1.434359434145689,0.539505228613317
1782987697203603700,7.472603759765625,-0.30628070236742494,-1.7509978643983601,0.8295436751015484
1782987697213677600,7.482677490234375,-0.22197627926170824,-2.0194220065802333,0.9298757614877075
1782987697223752700,7.492752685546875,-0.005483984369039535,-2.2060656911760566,0.799734958423674
1782987697233826600,7.50282666015625,-0.03403904772400856,-2.333195110529661,0.6275001768000423
1782987697243901700,7.512901611328125,-0.3175707426667213,-2.196262090042233,0.4015172191802412
1782987697253975600,7.5229755859375,-0.8978595248281955,-1.8777935217529533,0.014578048994019627
1782987697264050700,7.53305078125,-1.604367625761032,-1.346034669482708,-0.5150898954115808
1782987697274124500,7.54312451171875,-2.0269857198327776,-0.6421154159992933,-0.9193104552663862
1782987697284199700,7.55319970703125,-2.0294535712510346,0.1738327183395624,-1.394410870116949
1782987697294273500,7.5632734375,-1.612221261870861,0.8571201026827097,-1.6062258208483458
1782987697304348700,7.5733486328125,-1.1587135240167379,1.2582453268706797,-1.2686059773653744
1782987697314422500,7.583422607421875,-0.7205185061067342,1.3983862034887076,-0.61771564569287
1782987697324497700,7.59349755859375,-0.20020459243655203,1.5142828656882046,-0.09521167463250457
1782987697334572800,7.60357275390625,0.32131226728260515,1.6702140166342256,0.19559052276983857
1782987697344646700,7.613646728515625,0.8187737131536006,1.7439473613649605,0.3457334457032382
1782987697354721800,7.6237216796875,1.2591653643250464,1.685948761382699,0.5194801662597804
1782987697364795600,7.633795654296875,1.5662643973380326,1.5140905579864978,0.7241595660228282
1782987697374870800,7.643870849609375,1.5980547893524168,1.4131179086744785,1.0247610537100582
1782987697384944600,7.653944580078125,1.3417425252467392,1.4277724569708108,1.258980509277433
1782987697395019800,7.664019775390625,0.826423351123929,1.6108201629012822,1.3130148818038403
1782987697405093600,7.67409375,0.33930209748148915,1.8161270469129085,1.1463885877117515
1782987697415168800,7.684168701171875,-0.018043606212735173,1.901848935601115,1.060814729192108
1782987697425242600,7.69424267578125,-0.3730173200786113,1.8186255857303737,1.1349823006216435
1782987697435317800,7.70431787109375,-0.7468488791495561,1.6924200032234191,1.2932728011101484
1782987697445391600,7.7143916015625,-1.133142444908619,1.666134638366103,1.4464720428742468
1782987697455466800,7.724466796875,-1.4489017542392015,1.7063520824640988,1.4251124439813196
1782987697465541600,7.734541748046875,-1.6873890233188866,1.7357906506553291,1.384572051539272
1782987697475615700,7.74461572265625,-1.8101649236381052,1.692172165942192,1.3233859075620769
1782987697485691000,7.75469091796875,-1.7670131796538828,1.5473574522942304,1.2470762826025485
1782987697495764700,7.7647646484375,-1.520841785812378,1.4347349894598125,1.2304266149662435
1782987697505839900,7.77483984375,-1.2662620445877313,1.3461813844770192,1.2020176090184598
1782987697515913700,7.784913818359375,-1.0005839862436054,1.2947685926258563,1.252646191689372
1782987697525988900,7.79498876953125,-0.7192752280473709,1.271460197752714,1.2962196682170033
1782987697536062700,7.805062744140625,-0.38055122271478176,1.2315206938132643,1.3345118433408438
1782987697546137900,7.815137939453125,-0.012180851659178734,1.1901374208062887,1.364452954226732
1782987697556211700,7.825211669921875,0.3892974237501621,1.0882117085531353,1.3459617503769694
1782987697566286800,7.835286865234375,0.7395324186563491,0.9466802543595433,1.337501818937063
1782987697576361700,7.84536181640625,0.9851169525206088,0.8556395087361335,1.3117916236191987
1782987697586435800,7.855435791015625,1.065046813803911,0.7640595416694879,1.3075132156476377
1782987697596510700,7.8655107421875,1.001204163968563,0.6749845431610941,1.3408449918851255
1782987697606584800,7.875584716796875,0.7859002020776271,0.6391159419223665,1.3737082738280295
1782987697616659700,7.88565966796875,0.5306394928514957,0.6598731910079717,1.3842317136690019
1782987697626733800,7.89573388671875,0.3295978650689125,0.7146294480681419,1.409743902196735
1782987697636808700,7.90580859375,0.19566402639746666,0.7303001876696944,1.4070890037737787
1782987697646882800,7.9158828125,0.08461480422914028,0.7045125432014465,1.349591192920506
1782987697656957700,7.925957763671875,0.06656301470994949,0.5993883271679282,1.31582687048465
1782987697667031800,7.93603173828125,-0.009058335724473,0.5083206935375929,1.2921912894837557
1782987697677106700,7.946106689453125,-0.22748481355011463,0.4085954139381647,1.3011043715186417
1782987697687180800,7.956180908203125,-0.4467366362839937,0.33191169496923684,1.3129963232338429
1782987697697255700,7.966255615234375,-0.6672890202224254,0.30298019951730965,1.2426003062322735
1782987697707330800,7.976330810546875,-0.811693399503827,0.24787352158427237,1.1888600212816147
1782987697717404700,7.98640478515625,-0.8519996909290551,0.2475672321140766,1.1491383978765457
1782987697727479800,7.996479736328125,-0.8325731059253215,0.26436171504855155,1.0838359046217054
1782987697737553700,8.0065537109375,-0.8053753023982048,0.2836816248074174,1.057417707164958
1782987697747628800,8.01662890625,-0.8451502634257078,0.24222207169383764,1.136129205634445
1782987697757703000,8.026702880859375,-0.907062237459421,0.19750176321864127,1.2414618037216365
1782987697767777800,8.03677783203125,-0.9202963975638151,0.13248305534124374,1.316170277094841
1782987697777852000,8.046851806640625,-0.9589484920412301,0.06693360158801079,1.345632372292131
1782987697787926800,8.0569267578125,-1.0185510200887917,-0.09926993704736232,1.483830444279313
1782987697798001000,8.0670009765625,-1.0300970809757708,-0.2535001292943954,1.6490280207425354
1782987697808075800,8.07707568359375,-1.0090753357350826,-0.3051151657193899,1.7644428907744585
1782987697818150700,8.087150634765624,-1.0141858106166124,-0.261098913860321,1.8359759489819407
1782987697828224800,8.097224853515625,-1.1673211933642624,0.004200374299287796,1.8055175362236797
1782987697838299600,8.107299560546876,-1.5114397512167692,0.4856137716889381,1.6247447894878684
1782987697848373800,8.117373779296875,-1.909832920092344,1.0456295811504126,1.3425558874562382
1782987697858448600,8.12744873046875,-2.2340543528199195,1.5621353347092866,1.1531932262253015
1782987697868522800,8.137522705078124,-2.417971242800355,2.009443048879504,0.9618789925351738
1782987697878597600,8.14759765625,-2.417778350576758,2.342707035240531,0.8293672225560993
1782987697888671700,8.157671630859374,-2.180399334999919,2.47366916462481,0.8109986221726984
1782987697898746600,8.16774658203125,-1.7813479944765567,2.407683073019981,0.9478061896495521
1782987697908820700,8.17782080078125,-1.2157055773049592,2.2902304135501383,1.2071524876888842
1782987697918895600,8.1878955078125,-0.6911994726419448,2.118445859912038,1.4585459270276129
1782987697928969500,8.197969482421875,-0.28055063330531116,2.0062474677085875,1.599363095472008
1782987697939044400,8.20804443359375,0.024824060133099554,1.9280039520770311,1.6136954260766505
1782987697949119200,8.218119140625,0.11375672756135463,1.8896108007967471,1.416316266324371
1782987697959193300,8.228193359375,-0.07471826411485671,1.886300653335452,1.16503644342795
1782987697969268200,8.238268310546875,-0.45830373995900153,1.9553940633058546,0.9367058267034589
1782987697979342300,8.24834228515625,-0.7696914100766181,2.0828379554361103,0.7661247305709868
1782987697989417200,8.258417236328125,-0.9387631976246833,2.1859780119150876,0.7493892843473702
1782987697999491300,8.2684912109375,-0.8852028723508119,2.1690046652823685,0.8766266941200941
1782987698009566200,8.278566162109374,-0.6328484059602022,2.08860134126842,1.042080510366708
1782987698019640300,8.288640380859375,-0.35351416270732877,1.9718723198980093,1.2163918060034513
1782987698029715200,8.298715087890624,-0.09977437943816185,1.8207506150603294,1.3339078860983251
1782987698039789300,8.308789306640625,0.08146013959050179,1.7004466578125952,1.3684908314406872
1782987698049864200,8.3188642578125,0.28873160167336465,1.6148650543779133,1.3746794569477438
1782987698059939300,8.328939208984375,0.5653928263247012,1.5441589485138654,1.4268230472914873
1782987698070013200,8.33901318359375,0.9005693683087825,1.4936018967092037,1.5263938669815658
1782987698080088300,8.34908837890625,1.2383534624427557,1.4488012164741753,1.624837874598801
1782987698090162200,8.359162109375,1.4675105931192636,1.4183283367991446,1.6897671506270766
1782987698100237300,8.3692373046875,1.5247089826345444,1.444762170216441,1.7258647383160888
1782987698110311200,8.379311279296875,1.4133318436861038,1.4737012644529341,1.6716251986064017
1782987698120386300,8.38938623046875,1.0714064119637012,1.5308277577757834,1.5507266364663839
1782987698130460200,8.399460205078125,0.5829331591904163,1.6058803684115408,1.3916788148045538
1782987698140535300,8.409535400390626,0.11622808611094951,1.7011065830260514,1.2949486253678797
1782987698150609400,8.419609375,-0.2515285369604826,1.7820359767407177,1.2473662054598331
1782987698160684300,8.429684326171875,-0.5064034617394209,1.8684458476930856,1.1934563360959292
1782987698170758400,8.43975830078125,-0.6700549778044224,1.9275550392657517,1.1158457115404308
1782987698180833300,8.449833251953125,-0.7404863583803176,1.9654145220607517,1.1011991273548454
1782987698190908400,8.459908447265626,-0.8610159410774707,1.9308283618479967,1.1035289585419
1782987698200982300,8.469982177734375,-0.997338136190176,1.9093980358064173,1.1245300263207405
1782987698211057400,8.480057373046876,-1.1597358528017998,1.935637223434448,1.0761243803963065
1782987698221131300,8.49013134765625,-1.3434639422118664,2.015228062021732,1.084558081416413
1782987698231206400,8.500206298828125,-1.3768559242039917,2.0887667609632015,1.1871807629577815
1782987698241280300,8.5102802734375,-1.2662427553653717,2.1425287462890146,1.38382488643378
1782987698251355400,8.52035546875,-1.0629138934284448,2.146619814994931,1.6075519548855721
1782987698261429200,8.53042919921875,-0.9509253445833921,2.123464564856887,1.7899729072198272
1782987698271504400,8.54050439453125,-0.9965221436321735,2.131051658985019,1.823064152699709
1782987698281578200,8.550578125,-1.1578788267582654,2.1914935604661703,1.7274352025032043
1782987698291653400,8.5606533203125,-1.3165221592724323,2.179015187165141,1.5953401235662399
1782987698301727200,8.570727294921875,-1.501842486310005,2.1727344994604585,1.4584808989673852
1782987698311802400,8.58080224609375,-1.7583190010666847,2.184414415860176,1.3356934543408452
1782987698321877500,8.59087744140625,-2.0412036302775145,2.2745564590781924,1.2547354190535842
1782987698331951400,8.600951416015626,-2.2891835348457095,2.457939680573344,1.2744880211412906
1782987698342026500,8.611026611328125,-2.5176339785575865,2.5758856765180824,1.3818702452346683
1782987698352100400,8.621100341796875,-2.5889251908332107,2.6169723046660422,1.542952056942135
1782987698362175500,8.631175537109375,-2.3170880253374575,2.4822698197096584,1.8188598328776657
1782987698372249300,8.641249267578125,-1.7666963687896728,2.1494149986714124,2.313093987265229
1782987698382324500,8.651324462890624,-1.195944061258435,1.766949466767907,2.9536054751992222
1782987698392398300,8.6613984375,-0.6586626461744308,1.5422341179311274,3.299803761935234
1782987698402473500,8.671473388671876,-0.3088409082442522,1.488354643705487,3.2305645137533543
1782987698412547300,8.68154736328125,-0.48458968933820723,1.532768370449543,2.84643660159558
1782987698422622500,8.69162255859375,-1.154914131733775,1.6479577611625194,2.305961066645384
1782987698432696300,8.7016962890625,-1.9830735128700732,1.7638433174461126,1.849525604776293
1782987698442771500,8.711771484375,-2.666962370237708,1.8611106824994086,1.557135188334435
1782987698452846300,8.721846435546874,-3.1338018833518024,1.9920114370852708,1.4831138204425574
1782987698462920400,8.73192041015625,-3.1698949409961696,2.1366636536478993,1.5387006831079721
1782987698472995300,8.741995361328126,-2.7483926992118355,2.2562650155842303,1.6905284903883933
1782987698483069400,8.7520693359375,-2.12830732871294,2.3014187470406293,1.927202280305326
1782987698493144300,8.762144287109376,-1.6041110206514595,2.248732866513729,2.18153506103158
1782987698503218400,8.772218505859374,-1.3258014442712067,2.258985964980721,2.2791442252598704
1782987698513293300,8.782293212890625,-1.2499977230072021,2.3500807788789273,2.199121863387525
1782987698523367400,8.792367431640624,-1.3751952975153923,2.524951023572683,1.9531956764787435
1782987698533442600,8.802442626953125,-1.56102883477211,2.692749722445011,1.6523235551565885
1782987698543516400,8.812516357421876,-1.662121311071515,2.8557687858253717,1.424632259248942
1782987698553591600,8.822591552734375,-1.667453319749236,2.9505741446793077,1.297392657519132
1782987698563666400,8.83266650390625,-1.5567179858356712,2.983075315311551,1.2856763546317815
1782987698573740500,8.842740478515625,-1.2779109813272953,2.9514363144665956,1.3480088921651243
1782987698583815400,8.8528154296875,-0.9029577247500419,2.884103484427929,1.4811033574029802
1782987698593889500,8.8628896484375,-0.5506137748658657,2.8238544751703736,1.670338227535784
1782987698603964400,8.87296435546875,-0.2937345245271921,2.77095056797862,1.8468138615995644
1782987698614038500,8.88303857421875,-0.1210036299496889,2.6340011808782813,1.9493186889149248
1782987698624113400,8.893113525390625,0.0319371070086956,2.4285855757951733,1.9722024286352098
1782987698634187500,8.9031875,0.06990297278761863,2.2472119405567645,1.8930638638600705
1782987698644262400,8.913262451171875,0.028306641551852224,2.1343477779209614,1.7629262026011943
1782987698654336500,8.92333642578125,-0.14099427857697008,2.131860637280345,1.6419458073966204
1782987698664411400,8.933411376953124,-0.3396189083456993,2.152776584059,1.5573977847933769
1782987698674485500,8.943485595703125,-0.5355079756706953,2.184671605491638,1.5257561535999178
1782987698684560400,8.953560302734376,-0.6714794576495885,2.2283049955129623,1.5467701539255678
1782987698694635300,8.96363525390625,-0.8061568081647157,2.26133808106482,1.5914426777362822
1782987698704709400,8.97370947265625,-1.02153851146698,2.2404542829900977,1.6592124378874897
1782987698714784300,8.9837841796875,-1.2548013238966464,2.1314918039679527,1.7061068755313753
1782987698724858400,8.9938583984375,-1.435633107343316,1.95935653719604,1.633241545806825
1782987698734933500,9.00393359375,-1.486887493762374,1.7140239322662352,1.4111504079937933
1782987698745007400,9.01400732421875,-1.3752671937078236,1.4655465995699166,1.0803657442931085
1782987698755082500,9.02408251953125,-1.1253227110683917,1.243901159697771,0.7919162474967539
1782987698765156400,9.03415625,-0.875765766441822,1.0466273600161076,0.618660379197076
1782987698775231500,9.0442314453125,-0.644971389952302,0.8866372890681028,0.5394373510088771
1782987698785305600,9.0543056640625,-0.5053092367619276,0.7809048780083656,0.4783998947873711
1782987698795380500,9.06438037109375,-0.4349538440316915,0.7535059989511966,0.3458265308141708
1782987698805454600,9.07445458984375,-0.429147203579545,0.7093851176738739,0.19473522111475466
1782987698815529500,9.084529541015625,-0.4517728768855333,0.6196282743811607,0.1222173896536231
1782987698825604400,9.094604248046876,-0.6061076985508204,0.5452198068678379,0.15003800125420091
1782987698835678500,9.104678466796875,-0.7965916919618845,0.4802905308395624,0.18774536222741006
1782987698845753300,9.11475341796875,-1.0217354953438043,0.5046574948549271,0.16223609630912542
1782987698855827500,9.124827392578124,-1.2244009249359369,0.5173989030063152,0.09661167762354016
1782987698865902300,9.13490234375,-1.353030227458477,0.4592360523730516,0.06445500958003103
1782987698875976400,9.1449765625,-1.3762415916979311,0.345410351228714,0.03332359293103218
1782987698886051300,9.15505126953125,-1.247890521594882,0.211208217009902,-0.07499452377296983
1782987698896125400,9.16512548828125,-1.04684655572474,0.008547463592886924,-0.22945158357843756
1782987698906200300,9.175200439453125,-0.8161977251857518,-0.28362872557640073,-0.23524923700653017
1782987698916274400,9.1852744140625,-0.5592664523988962,-0.6685621088981628,-0.054146892990171905
1782987698926349300,9.195349365234375,-0.24696692813336849,-1.0128571923613547,0.14032441649138927
1782987698936423700,9.205423583984375,-0.04638239646852016,-1.1816250285267829,0.09490713872797786
1782987698946498600,9.21549853515625,-0.04959902042746544,-1.1332961741656065,-0.32885756809562444
1782987698956573700,9.22557373046875,-0.42241351141035555,-0.9785323134332895,-0.9736386961728334
1782987698966647600,9.2356474609375,-1.0850374624311923,-0.7932973265916109,-1.440905202527344
1782987698976722700,9.24572265625,-1.7878052077919244,-0.48376492895185946,-1.5572322189681231
1782987698986796500,9.255796630859376,-2.3410639442086216,-0.10519581996500492,-1.6263120388045906
1782987698996871700,9.26587158203125,-2.4953344684660435,0.27874679875373837,-1.7716551602408288
1782987699006945500,9.275945556640625,-2.1922873411923645,0.5373942278087139,-1.7957625965371726
1782987699017020700,9.286020751953124,-1.525267201039195,0.6016156478285789,-1.6917556940957903
1782987699027094500,9.296094482421875,-0.732971744966507,0.5149047481030226,-1.5021674804806708
1782987699037169700,9.306169677734376,-0.1340402216553688,0.45796588630676266,-1.2196008311778306
1782987699047243500,9.316243408203125,0.287002001401782,0.5427162996143102,-1.0312267425928263
1782987699057318700,9.326318603515626,0.6557493890762329,0.6254664790153504,-0.9472293396096676
1782987699067392800,9.336392822265625,0.9377443759709596,0.6986053649842738,-0.8608726601492613
1782987699077467600,9.346467529296875,1.1759791315943002,0.6955301953226327,-0.7305889414831995
1782987699087542800,9.356542724609374,1.2900327962756155,0.6278185950994492,-0.6158639534115791
1782987699097616600,9.36661669921875,1.2362030064105987,0.5618780962020159,-0.5520461457565426
1782987699107691800,9.37669189453125,1.0539064111083745,0.5049748902410268,-0.49383726402446626
1782987699117765600,9.386765625,0.7441501415848731,0.4615209484398365,-0.5015506879460067
1782987699127840800,9.3968408203125,0.3837345289260149,0.39620997961759563,-0.5860925000041723
1782987699137914600,9.40691455078125,0.08825871368944645,0.355212783318758,-0.6972058734498917
1782987699147989800,9.41698974609375,-0.09653379008173942,0.28908465289473534,-0.8331931375198066
1782987699158063600,9.427063720703124,-0.18121639885008334,0.2822112599939108,-0.9105030986282974
1782987699168138800,9.437138671875,-0.21154022544324397,0.28431553879678245,-0.9150020905479789
1782987699178212600,9.447212646484376,-0.23226854069530964,0.30514614537954327,-0.8528422061678022
1782987699188287700,9.457287841796875,-0.21534955459833144,0.29900165127515793,-0.7496291575178503
1782987699198361600,9.467361572265625,-0.155948102080822,0.3233580938965082,-0.6125258219648152
1782987699208436700,9.477436767578125,-0.035278234130144116,0.36135786194503305,-0.5088363149095326
1782987699218512000,9.487511962890625,0.1587970617711544,0.3861360371097922,-0.48689051362648605
1782987699228585700,9.497585693359374,0.3943009311258793,0.3972264631837606,-0.4645272175837308
1782987699238660900,9.507660888671875,0.6985206093102693,0.38125820194035764,-0.4876943042900413
1782987699248734700,9.517734619140626,1.032640920239687,0.34081834726333615,-0.5687604761268943
1782987699258809900,9.527809814453125,1.3052268582761286,0.2759609674274921,-0.6825787246171384
1782987699268883700,9.5378837890625,1.4965736059963701,0.20846797839105127,-0.7957439160261303
1782987699278958800,9.547958740234375,1.6468424933969974,0.14824848748892544,-0.8996453122664242
1782987699289032700,9.55803271484375,1.6964070270329712,0.11984539982527494,-0.9841665929932146
1782987699299107800,9.56810791015625,1.784564618435502,0.08445084583908319,-1.070412724751234
1782987699309181700,9.578181640625,1.923248281982541,-0.0038028994143009184,-1.1022864842001348
1782987699319256800,9.5882568359375,2.0711632997334,-0.13705869269371032,-1.0978866418059914
1782987699329330700,9.59833056640625,2.168990636757016,-0.29349165568202734,-1.086297837755829
1782987699339405800,9.60840576171875,2.128826384150982,-0.4644356668427586,-1.084583727314323
1782987699349480700,9.618480712890625,1.9691881953805683,-0.6591019143745303,-1.076576142751798
1782987699359554800,9.628554931640625,1.6975491828054188,-0.8076429550692439,-1.0617511332593859
1782987699369629700,9.638629638671874,1.3336708624720572,-0.8822425612404942,-1.0305703245107083
1782987699379703800,9.648703857421875,0.8427432022839784,-0.9086822398766875,-0.9445980412580073
1782987699389778700,9.65877880859375,0.2853419592350721,-0.884635886117816,-0.8678308817893267
1782987699399852800,9.668852783203125,-0.27921441626548765,-0.8452496321469545,-0.7489426365584134
1782987699409927700,9.678927734375,-0.8454197280168533,-0.888212867821753,-0.6825039788804947
1782987699420001800,9.689001708984375,-1.2944915292501449,-0.9462447855517268,-0.6739815035983919
1782987699430076700,9.69907666015625,-1.473071149855852,-1.0021320924684405,-0.7153316780533641
1782987699440150800,9.70915087890625,-1.4581588274061679,-1.1054840381324291,-0.756442636924982
1782987699450226000,9.719225830078125,-1.3568261126101016,-1.2791215261608362,-0.7414458510622381
1782987699460300800,9.72930078125,-1.2659049017131327,-1.4848197475776075,-0.700399262663722
1782987699470375000,9.739375,-1.2320599152565002,-1.6198779141038655,-0.6740464585933834
1782987699480449800,9.74944970703125,-1.2016039867162704,-1.641438588526845,-0.697047906409204
1782987699490524000,9.75952392578125,-1.063997012490034,-1.58669109929502,-0.7329455876119434
1782987699500598800,9.769598876953125,-0.8405711189419031,-1.5436425234243272,-0.6967145828016101
1782987699510673000,9.7796728515625,-0.7086714164465665,-1.583119670549035,-0.5440427624450996
1782987699520747800,9.789747802734375,-0.6759907975941896,-1.5551812777876852,-0.3690344609875232
1782987699530822000,9.79982177734375,-0.6711041945964098,-1.4487322428911924,-0.28543519047647714
1782987699540896800,9.809896728515625,-0.6317682095080613,-1.3935831871211528,-0.09582520342096686
1782987699550971000,9.819970947265626,-0.444652815747261,-1.5731722770303487,0.26139482806697484
1782987699561045800,9.830045654296875,-0.21030103903710842,-1.6511919207781551,0.4472315071288496
1782987699571119900,9.840119873046875,-0.10084873067140579,-1.549859205982089,0.3603151479590684
1782987699581194800,9.85019482421875,-0.2528320207744837,-1.3877929132819176,0.1668894020076841
1782987699591268900,9.860268798828125,-0.6629343321442603,-1.1824684936136007,-0.0835178758379072
1782987699601343700,9.87034375,-1.0805307986617088,-0.972755483597517,-0.26226167402938005
1782987699611418600,9.880418701171875,-1.3526502882301807,-0.8057201703131198,-0.3680241149011999
1782987699621492700,9.89049267578125,-1.3805454263716936,-0.6027095805451274,-0.48344957939237354
1782987699631567600,9.900567626953125,-1.2335346639841793,-0.3139806092202663,-0.5524167326346039
1782987699641641700,9.910641845703125,-1.0091337879240512,-0.04895107791274786,-0.5498288350332527
1782987699651715800,9.9207158203125,-0.7996487414449452,0.21552724925279615,-0.37731918199099596
1782987699661789700,9.930789794921875,-0.6289560746967792,0.4278434275045991,-0.10600976669639349
1782987699671864800,9.94086474609375,-0.39207799437940116,0.5846797105967998,0.16809198273047804
1782987699681938700,9.950938720703125,-0.02038870803415775,0.7254653148591518,0.34468116017132994
1782987699692013800,9.961013916015625,0.48928223106861113,0.8339163372278213,0.49445619964040816
1782987699702087700,9.971087646484374,0.9547644843548536,0.8882587527900934,0.6254663328848779
1782987699712162800,9.981162841796875,1.2994921140164135,0.8271557570517063,0.6650044164165854
1782987699722236700,9.991236572265626,1.507656141024828,0.7854998045831918,0.6204501852232962
1782987699732311800,10.001311767578125,1.5941349855601787,0.7865618808567524,0.46909934780485923
1782987699742387000,10.011386962890626,1.5533669218420982,0.7968056269735098,0.3219209737654775
1782987699752460800,10.021460693359375,1.3092553831398486,0.7826859162062406,0.2225767293728888
1782987699762536000,10.031535888671876,0.8508353233247995,0.7741109800845384,0.1403456784751266
1782987699772609800,10.04160986328125,0.3491325866222381,0.8123708603739738,-0.0006849135242402554
1782987699782685000,10.051684814453125,0.0029565117180347443,0.8659785319209098,-0.21191621914878486
1782987699792758800,10.0617587890625,-0.22419453983306883,0.838072287863493,-0.4636033807370811
1782987699802834000,10.071833984375,-0.40387656872272487,0.7932160780489445,-0.6121134417716413
1782987699812907800,10.08190771484375,-0.49110184771120546,0.7778332154780626,-0.7411934106711298
1782987699822983000,10.09198291015625,-0.5598392838507891,0.7860732205569744,-0.8542718736447393
1782987699833056800,10.102056884765625,-0.6095400110870599,0.775652364307642,-0.9835108324982226
1782987699843132000,10.1121318359375,-0.554859741872549,0.7778221095621586,-1.1104338425595313
1782987699853206500,10.12220654296875,-0.3915075010150671,0.7712818941384554,-1.163323355899751
1782987699863281000,10.132281005859374,-0.08468553137779235,0.7726917609363794,-1.150965613303706
1782987699873355500,10.14235546875,0.274040228497982,0.7493716756254434,-1.0587037283875047
1782987699883430000,10.152429931640626,0.5837585040986537,0.6658814915120601,-0.9186386934846639
1782987699893504500,10.16250439453125,0.8545932145535945,0.5168728333055973,-0.7921491064045578
1782987699903579000,10.172578857421875,1.1404431233108043,0.3882201499074697,-0.7470353416323662
1782987699913653500,10.182653564453124,1.4925491727858782,0.2724392230421305,-0.7385252874404191
1782987699923728000,10.192727783203125,1.7269389434188602,0.18884499403238295,-0.6522356088016181
1782987699933803300,10.20280322265625,1.7272645221114158,0.16166531068384646,-0.5562266463115811
1782987699943877000,10.212877197265625,1.7369003654628992,0.09333820891082287,-0.5014071878220886
1782987699953952300,10.2229521484375,1.7392291006714105,0.017672434812784195,-0.4644619703277945
1782987699964026000,10.233026123046875,1.662494236037135,-0.024590835899114608,-0.34684345277175305
1782987699974101200,10.243101318359376,1.5381407111376524,-0.08712298765778541,-0.16152349106036126
1782987699984175000,10.253175048828124,1.3675199405819176,-0.16436287920475004,-0.08631320564486086
1782987699994250200,10.263250244140625,1.0840519585251807,-0.23752923770248888,-0.05573781544342637
1782987700004325000,10.2733251953125,0.7071604273617267,-0.3314402780652046,-0.09608933424986899
1782987700014400300,10.283400146484375,0.2515104167819023,-0.4222048370957374,-0.16224939418211579
1782987700024474000,10.29347412109375,-0.2050210528075695,-0.4732932192981243,-0.25206710081659256
1782987700034549200,10.30354931640625,-0.5047276374816895,-0.4755798689305782,-0.3252250568121671
1782987700044623000,10.313623046875,-0.5328174214124679,-0.5263198760867118,-0.40161081574782725
1782987700054698200,10.3236982421875,-0.49784196962118143,-0.569668019425869,-0.4247800213459879
1782987700064772000,10.333772216796875,-0.4201414748251438,-0.5594932468920946,-0.27170827841907735
1782987700074847200,10.34384716796875,-0.38697453376054763,-0.6366805314689874,-0.04952602825649082
1782987700084922400,10.35392236328125,-0.4088870903611183,-0.6614046383589506,0.18712869163379073
1782987700094996200,10.363996337890624,-0.6937526642560958,-0.5325479568213224,0.35186902584880586
1782987700105071400,10.3740712890625,-0.9212304635435342,-0.40761283264160153,0.42562531306371093
1782987700115145200,10.384145263671876,-0.9631167176365851,-0.42578094201683997,0.3685417090345174
1782987700125220400,10.394220458984375,-0.9761901342213153,-0.48377311225831504,0.23719964042194186
1782987700135294200,10.404294189453125,-1.0705986027121543,-0.5792436570227146,0.0040532209135591985
1782987700145369300,10.414369384765624,-1.3481582375079393,-0.6554243949055671,-0.20600524153932928
1782987700155443200,10.424443115234375,-1.5636428166627883,-0.7395821030169725,-0.2288057599555701
1782987700165518300,10.434518310546874,-1.4969418547868727,-0.8071370513737202,-0.2028298994388431
1782987700175592200,10.44459228515625,-1.2187205412119626,-0.9003975188732146,-0.19163382103331386
1782987700185667300,10.454667236328126,-0.8200362804353236,-1.063840360623598,-0.3513373301248997
1782987700195741200,10.4647412109375,-0.5867927572280168,-1.0981932966023682,-0.6175762372221797
1782987700205816300,10.47481640625,-0.710320937219262,-0.9060627050280571,-0.9176204563528298
1782987700215891200,10.48489111328125,-1.108050089228153,-0.6530734478652477,-1.1616638251896947
1782987700225965300,10.49496533203125,-1.7410066317379473,-0.3062684274077415,-1.3452172156199813
1782987700236040200,10.505040283203124,-2.360852932783961,0.1859060179710388,-1.427947521276772
1782987700246114300,10.5151142578125,-2.701366159620881,0.6637976709753275,-1.4686653161123393
1782987700256189200,10.525189208984376,-2.7001643826156854,1.0241524933576582,-1.308310795766115
1782987700266263300,10.53526318359375,-2.337052370479703,1.246355567112565,-1.029256611563638
1782987700276338200,10.545338134765625,-1.58393098693192,1.2575029840707779,-0.8233481814622878
1782987700286412300,10.555412353515624,-0.65463587487638,1.1943149987518786,-0.6828739812366664
1782987700296487400,10.5654873046875,0.2511737321734428,1.0477654241353274,-0.6237007845170796
1782987700306561300,10.575561279296876,1.0365303288936614,0.8093634952515363,-0.5569138979233801
1782987700316636400,10.585636474609375,1.7385189065754412,0.5868032786220312,-0.5725418212965131
1782987700326710300,10.595710205078126,2.1936539533704518,0.49911564281880855,-0.5910995145112276
1782987700336785400,10.605785400390625,2.3126930052489043,0.46215807729959485,-0.6117530109614133
1782987700346859300,10.615859375,2.0760306135088205,0.5021440507292747,-0.7522922392472624
1782987700356934400,10.625934326171874,1.626926663571596,0.6220277367383241,-1.1048631297551095
1782987700367009300,10.63600927734375,1.012028924843669,0.7307488082200289,-1.5204742676742373
1782987700377083400,10.64608349609375,0.4003215065896511,0.826132259222865,-1.8042670977711677
1782987700387158300,10.656158203125,0.012191373053193092,0.8520207337170839,-1.9311580321937798
1782987700397232400,10.666232421875,-0.11185469333231449,0.9115256466090679,-1.8489060115732252
1782987700407307300,10.676307373046875,-0.03687690149843693,0.8747802625358104,-1.6463729761891066
1782987700417381400,10.68638134765625,0.20043021788597107,0.5989344459205865,-1.3470735110111534
1782987700427456300,10.696456298828124,0.29654782838225363,0.6838169611752033,-1.1686905820213258
1782987700437530400,10.7065302734375,0.29188918892145155,0.7326590257555246,-1.1616798264764248
1782987700447605200,10.716605224609374,0.45755730550587176,0.7628753003209829,-1.2575836480915545
1782987700457679400,10.726679443359375,0.5645370862782001,0.8796849857121706,-1.0884854109279811
