time,seconds_elapsed,z,y,x
1782987689798807800,0.067807861328125,0.5333819389343262,-0.10742910206317902,0.09285932034254074
1782987689808883000,0.077883056640625,0.5638807415962219,-0.10218453407287598,0.12422363460063934
1782987689818956800,0.087956787109375,0.5285760164260864,-0.04766792058944702,0.1610802561044693
1782987689829032000,0.098031982421875,0.4671664535999298,0.07419060915708542,0.17978577315807343
1782987689839106000,0.10810595703125,0.376220703125,0.1211739182472229,0.162128746509552
1782987689849181000,0.118180908203125,0.2794976234436035,0.07735826075077057,0.12308147549629211
1782987689859256000,0.128256103515625,0.2055087834596634,0.0024576368741691113,0.08208579570055008
1782987689869330000,0.138329833984375,0.15764352679252625,-0.07082083821296692,0.046935539692640305
1782987689879405000,0.148405029296875,0.13920149207115173,-0.11751215904951096,0.02142435684800148
1782987689889479000,0.15847900390625,0.1541183888912201,-0.05697718262672424,-0.0028839111328125
1782987689899554000,0.168553955078125,0.1826404184103012,0.05889187008142471,-0.027278544381260872
1782987689909628000,0.1786279296875,0.20766215026378632,0.12155231833457947,-0.07464632391929626
1782987689919705600,0.18870556640625,0.18935111165046692,0.04000931605696678,-0.15418998897075653
1782987689929780700,0.19878076171875,0.11425795406103134,-0.13645119965076447,-0.2467886358499527
1782987689939854600,0.2088544921875,0.01317534502595663,-0.27222004532814026,-0.31414082646369934
1782987689949929700,0.2189296875,-0.10000234842300415,-0.3079271912574768,-0.36185187101364136
1782987689960003600,0.229003662109375,-0.19303181767463684,-0.2711935043334961,-0.37574854493141174
1782987689970078700,0.23907861328125,-0.24138683080673218,-0.1573449671268463,-0.36150914430618286
1782987689980152600,0.249152587890625,-0.25743746757507324,-0.0041982331313192844,-0.3253270089626312
1782987689990227700,0.259227783203125,-0.24618376791477203,0.12529876828193665,-0.2748414874076843
1782987690000301600,0.269301513671875,-0.21953122317790985,0.21813154220581055,-0.20668897032737732
1782987690010376700,0.279376708984375,-0.19114165008068085,0.3029913008213043,-0.11289296299219131
1782987690020451800,0.289451904296875,-0.17529083788394928,0.40500763058662415,-0.0020955014042556286
1782987690030525700,0.299525634765625,-0.15691769123077393,0.4903571307659149,0.1179099977016449
1782987690040600800,0.309600830078125,-0.13076983392238617,0.5145448446273804,0.22768862545490265
1782987690050674700,0.3196748046875,-0.09566831588745117,0.4389707148075104,0.3046313524246216
1782987690060749800,0.329749755859375,-0.0639270767569542,0.23957861959934235,0.3385419547557831
1782987690070823700,0.33982373046875,-0.04243216663599014,-0.03029494546353817,0.33662235736846924
1782987690080898800,0.34989892578125,-0.028235189616680145,-0.27959465980529785,0.3217731714248657
1782987690090973700,0.3599736328125,-0.019865140318870544,-0.4169144332408905,0.3178548812866211
1782987690101047800,0.3700478515625,-0.024571964517235756,-0.433266282081604,0.31802836060523987
1782987690111122700,0.380122802734375,-0.03815515339374542,-0.35574060678482056,0.32341405749320984
1782987690121196800,0.39019677734375,-0.056919146329164505,-0.24875347316265106,0.3266632854938507
1782987690131271700,0.400271728515625,-0.0818260982632637,-0.13066545128822327,0.3291275203227997
1782987690141345800,0.410345703125,-0.11278975754976273,-0.014021036215126514,0.3496657907962799
1782987690151421000,0.4204208984375,-0.14818236231803894,0.09581651538610458,0.36453741788864136
1782987690161494800,0.430494873046875,-0.18409140408039093,0.1438462883234024,0.3719596862792969
1782987690171570000,0.44056982421875,-0.23155425488948822,0.1416987180709839,0.34942910075187683
1782987690181644800,0.450644775390625,-0.2738334834575653,0.1307447850704193,0.299981951713562
1782987690191719000,0.460718994140625,-0.3171260952949524,0.12727947533130646,0.23259839415550232
1782987690201793800,0.470793701171875,-0.3467867970466614,0.13399851322174072,0.1413498818874359
1782987690211868000,0.480867919921875,-0.36556074023246765,0.14828157424926758,0.044614292681217194
1782987690221942800,0.49094287109375,-0.35410839319229126,0.18208551406860352,-0.04458437114953995
1782987690232017000,0.501016845703125,-0.3207421600818634,0.22523590922355652,-0.11920614540576935
1782987690242091800,0.511091796875,-0.2742960751056671,0.26830384135246277,-0.17971587181091309
1782987690252166700,0.521166748046875,-0.21932709217071533,0.29327869415283203,-0.22924932837486267
1782987690262240800,0.53124072265625,-0.163801908493042,0.2820282280445099,-0.27078884840011597
1782987690272315600,0.541315673828125,-0.11768395453691483,0.2081710547208786,-0.31275174021720886
1782987690282389800,0.5513896484375,-0.08968618512153625,0.08394662290811539,-0.35947832465171814
1782987690292464600,0.561464599609375,-0.08436652272939682,-0.023185156285762787,-0.40239784121513367
1782987690302538800,0.571538818359375,-0.09646434336900711,-0.07077360153198242,-0.43586626648902893
1782987690312613600,0.581613525390625,-0.11175248771905899,-0.07448392361402512,-0.45394086837768555
1782987690322687700,0.591687744140625,-0.12096288055181503,-0.02248128317296505,-0.4547603726387024
1782987690332762600,0.6017626953125,-0.12178632616996765,0.04676783084869385,-0.4483506977558136
1782987690342837800,0.611837646484375,-0.10013536363840103,0.12386288493871689,-0.4126289188861847
1782987690352911600,0.62191162109375,-0.07356952875852585,0.21815715730190277,-0.3611862361431122
1782987690362986800,0.63198681640625,-0.05145668983459473,0.27478474378585815,-0.3148399591445923
1782987690373060600,0.642060546875,-0.03505801409482956,0.2768702805042267,-0.26361724734306335
1782987690383135700,0.6521357421875,-0.022519130259752274,0.2384459227323532,-0.22164268791675568
1782987690393209600,0.662209716796875,-0.005946013145148754,0.19138041138648987,-0.18942484259605408
1782987690403284700,0.67228466796875,0.017602525651454926,0.16423150897026062,-0.1840655356645584
1782987690413359600,0.682359619140625,0.04363572597503662,0.1570391058921814,-0.1888837218284607
1782987690423433700,0.692433837890625,0.07165095955133438,0.17425493896007538,-0.2051423192024231
1782987690433508600,0.702508544921875,0.1002647653222084,0.21777072548866272,-0.23217234015464783
1782987690443582700,0.712582763671875,0.12641574442386627,0.26107415556907654,-0.2576542794704437
1782987690453657600,0.72265771484375,0.15631452202796936,0.28553953766822815,-0.2751381993293762
1782987690463731700,0.732731689453125,0.17513874173164368,0.2828591763973236,-0.26980921626091003
1782987690473806600,0.742806640625,0.1902010440826416,0.2801520526409149,-0.245194673538208
1782987690483880700,0.752880615234375,0.20714561641216278,0.28383320569992065,-0.20193617045879364
1782987690493955600,0.76295556640625,0.2320677489042282,0.28737759590148926,-0.15508797764778137
1782987690504030700,0.77303076171875,0.25096291303634644,0.3559781312942505,-0.10518296808004379
1782987690514104600,0.7831044921875,0.25279438495635986,0.44172924757003784,-0.050915203988552094
1782987690524179700,0.7931796875,0.2612987160682678,0.5141014456748962,0.005087385885417461
1782987690534253600,0.803253662109375,0.27632027864456177,0.567245364189148,0.040527135133743286
1782987690544328700,0.81332861328125,0.3028527498245239,0.5677262544631958,0.05025460198521614
1782987690554402800,0.82340283203125,0.3261151909828186,0.5331667065620422,0.04103873297572136
1782987690564477700,0.833477783203125,0.340107798576355,0.47314247488975525,-0.006767218466848135
1782987690574552800,0.843552734375,0.34316563606262207,0.39306068420410156,-0.08975797146558762
1782987690584626700,0.853626708984375,0.35098955035209656,0.2967335879802704,-0.17929086089134216
1782987690594701800,0.863701904296875,0.38204681873321533,0.20073434710502625,-0.24674446880817413
1782987690604775700,0.873775634765625,0.426880806684494,0.1529683768749237,-0.26248791813850403
1782987690614850800,0.883850830078125,0.4631325602531433,0.15571622550487518,-0.2435123473405838
1782987690624924700,0.893924560546875,0.4703866243362427,0.16374211013317108,-0.20745527744293213
1782987690634999800,0.903999755859375,0.4629074037075043,0.17963585257530212,-0.16037671267986298
1782987690645074700,0.91407470703125,0.45645397901535034,0.2560456395149231,-0.13067857921123505
1782987690655148800,0.924148681640625,0.4666970372200012,0.40604498982429504,-0.10780069231987
1782987690665223700,0.9342236328125,0.49408742785453796,0.4149361550807953,-0.09896908700466156
1782987690675297800,0.9442978515625,0.5119242072105408,0.20989537239074707,-0.11168648302555084
1782987690685373000,0.954373046875,0.5073899030685425,-0.0726073756814003,-0.13371355831623077
1782987690695446800,0.96444677734375,0.47203877568244934,-0.24024297297000885,-0.1516677886247635
1782987690705522000,0.97452197265625,0.43663114309310913,-0.21297411620616913,-0.1572326272726059
1782987690715596800,0.9845966796875,0.42887282371520996,-0.05055936798453331,-0.12887927889823914
1782987690725671000,0.9946708984375,0.4464619755744934,0.14446237683296204,-0.08356510102748871
1782987690735745800,1.004745849609375,0.46642979979515076,0.32722288370132446,-0.033242274075746536
1782987690745820000,1.01481982421875,0.4782073497772217,0.4533599615097046,0.02483891136944294
1782987690755894800,1.024894775390625,0.48499706387519836,0.5177887678146362,0.09535542130470276
1782987690765969000,1.034968994140625,0.48976731300354004,0.5385386347770691,0.1746617704629898
1782987690776043800,1.045043701171875,0.4858490228652954,0.5323707461357117,0.25018689036369324
1782987690786118000,1.055117919921875,0.46553754806518555,0.49362850189208984,0.30474337935447693
1782987690796192800,1.06519287109375,0.43496179580688477,0.4287792146205902,0.32761621475219727
1782987690806267600,1.075267578125,0.4119817614555359,0.352300226688385,0.3145081102848053
1782987690816341800,1.085341796875,0.4234999120235443,0.26293277740478516,0.27082589268684387
1782987690826416600,1.095416748046875,0.4559028744697571,0.2089805006980896,0.19837018847465515
1782987690836490800,1.10549072265625,0.5040973424911499,0.17813949286937714,0.12064076215028763
1782987690846565600,1.115565673828125,0.5398484468460083,0.13111421465873718,0.05034327879548073
1782987690856639700,1.1256396484375,0.5723816156387329,0.08738618344068527,0.014165569096803665
1782987690866714600,1.135714599609375,0.5920488238334656,0.04069621115922928,0.012245011515915394
1782987690876788700,1.145788818359375,0.6038998961448669,-0.03621135279536247,0.03294842317700386
1782987690886863600,1.155863525390625,0.6046158075332642,-0.122532419860363,0.0598638541996479
1782987690896938800,1.165938720703125,0.5931181311607361,-0.17976215481758118,0.08735433220863342
1782987690907012600,1.1760126953125,0.5708432197570801,-0.1825939267873764,0.10672339051961899
1782987690917087700,1.186087646484375,0.5396496057510376,-0.13536836206912994,0.103462353348732
1782987690927159000,1.196158935546875,0.5094873309135437,-0.04796368256211281,0.08539063483476639
1782987690937234000,1.20623388671875,0.49774888157844543,0.05577336624264717,0.06796876341104507
1782987690947308000,1.21630810546875,0.49431270360946655,0.14644545316696167,0.060034144669771194
1782987690957383000,1.2263828125,0.4800291061401367,0.19512909650802612,0.06853468716144562
1782987690967458000,1.2364580078125,0.44831496477127075,0.1972673237323761,0.08499900251626968
1782987690977532000,1.246531982421875,0.4007437229156494,0.16289417445659637,0.10995601117610931
1782987690987607000,1.25660693359375,0.35882288217544556,0.11104193329811096,0.14024798572063446
1782987690997681000,1.266680908203125,0.31528791785240173,0.06855812668800354,0.16766682267189026
1782987691007756000,1.276756103515625,0.274856835603714,0.04144453629851341,0.181194007396698
1782987691017830000,1.286829833984375,0.24616099894046783,0.029045121744275093,0.19891682267189026
1782987691027905000,1.296905029296875,0.21393857896327972,0.031477052718400955,0.21199829876422882
1782987691037979000,1.306978759765625,0.1796165555715561,0.06869126856327057,0.20515504479408264
1782987691048054000,1.317053955078125,0.14310389757156372,0.10074497759342194,0.1723637729883194
1782987691058129200,1.327129150390625,0.1282210797071457,0.1169670894742012,0.13120488822460175
1782987691068203000,1.337203125,0.11079368740320206,0.06154444441199303,0.08516673743724823
1782987691078278100,1.347278076171875,0.09184050559997559,-0.03793846815824509,0.04820392280817032
1782987691088352000,1.35735205078125,0.06639023125171661,-0.0889095738530159,0.028926672413945198
1782987691098427100,1.36742724609375,0.025953063741326332,-0.0385981984436512,0.03525727242231369
1782987691108501000,1.3775009765625,-0.03258335590362549,0.05551011487841606,0.056227874010801315
1782987691118576000,1.387576171875,-0.09348718822002411,0.16455671191215515,0.08142483979463577
1782987691128650000,1.39764990234375,-0.13869912922382355,0.2640742361545563,0.10522498190402985
1782987691138725000,1.40772509765625,-0.16462260484695435,0.2874296307563782,0.1116085797548294
1782987691148800000,1.417800048828125,-0.16153375804424286,0.24807259440422058,0.12027595192193985
1782987691158874000,1.4278740234375,-0.13396070897579193,0.15834537148475647,0.12423207610845566
1782987691168949000,1.437948974609375,-0.10093523561954498,0.04960176721215248,0.12005331367254257
1782987691179023000,1.448023193359375,-0.07514145225286484,-0.039666857570409775,0.10607464611530304
1782987691189098200,1.45809814453125,-0.06364257633686066,-0.10944658517837524,0.08226647973060608
1782987691199172000,1.468172119140625,-0.06631292402744293,-0.14156751334667206,0.04888641834259033
1782987691209247200,1.478247314453125,-0.06398714333772659,-0.1412929892539978,0.005074831657111645
1782987691219321000,1.488321044921875,-0.05718303099274635,-0.11944041401147842,-0.037075817584991455
1782987691229396200,1.498396240234375,-0.039382658898830414,-0.09635303914546967,-0.06450188905000687
1782987691239470800,1.508470947265625,-0.02227877452969551,-0.052720874547958374,-0.05021030083298683
1782987691249545200,1.518545166015625,-0.017865223810076714,0.025963015854358673,0.0038851958233863115
1782987691259619800,1.528619873046875,-0.03439866006374359,0.08502047508955002,0.05818811431527138
1782987691269694200,1.538694091796875,-0.059281885623931885,0.10068541020154953,0.10505270957946777
1782987691279768800,1.548768798828125,-0.08882991969585419,0.08136949688196182,0.12143488228321075
1782987691289843200,1.55884326171875,-0.1044040396809578,0.04943735525012016,0.11059429496526718
1782987691299917800,1.568917724609375,-0.10960785299539566,0.009961050003767014,0.07929842174053192
1782987691309993000,1.578992919921875,-0.09790212661027908,-0.018603047356009483,0.05822106450796127
1782987691320066800,1.58906689453125,-0.06620678305625916,0.07942923903465271,0.07826321572065353
1782987691330142000,1.599141845703125,-0.032832466065883636,0.20303034782409668,0.12877938151359558
1782987691340215800,1.6092158203125,-0.01372029073536396,0.17059864103794098,0.16299833357334137
1782987691350291000,1.619291015625,-0.02308175340294838,-0.029807135462760925,0.13633188605308533
1782987691360364800,1.62936474609375,-0.054038871079683304,-0.3018788695335388,0.057892464101314545
1782987691370440000,1.63943994140625,-0.11330842226743698,-0.46953973174095154,-0.04738674312829971
1782987691380513800,1.649513671875,-0.19110547006130219,-0.44040635228157043,-0.15141460299491882
1782987691390589000,1.6595888671875,-0.2667843699455261,-0.29753923416137695,-0.2097218930721283
1782987691400664000,1.6696640625,-0.32501518726348877,-0.12559303641319275,-0.21098236739635468
1782987691410738000,1.679738037109375,-0.3506438136100769,0.03702752664685249,-0.13982121646404266
1782987691420813000,1.68981298828125,-0.3461049795150757,0.1788480430841446,0.008856138214468956
1782987691430887000,1.699886962890625,-0.3112030029296875,0.29303058981895447,0.20562227070331573
1782987691440962000,1.709962158203125,-0.255426287651062,0.41851791739463806,0.4257996380329132
1782987691451036000,1.720035888671875,-0.19607971608638763,0.5046402812004089,0.6277337670326233
1782987691461111000,1.730111083984375,-0.13722757995128632,0.46749556064605713,0.7756388187408447
1782987691471186000,1.74018603515625,-0.07440751045942307,0.32095497846603394,0.8588731288909912
1782987691481260000,1.750260009765625,-0.01975385472178459,0.10261759907007217,0.8528565168380737
1782987691491335000,1.7603349609375,0.03189777210354805,-0.12410591542720795,0.7656627893447876
1782987691501409000,1.770408935546875,0.09572947770357132,-0.2862900197505951,0.622921884059906
1782987691511484000,1.78048388671875,0.15149110555648804,-0.3834947347640991,0.4393417239189148
1782987691521558000,1.79055810546875,0.17364434897899628,-0.3987125754356384,0.2507758140563965
1782987691531633000,1.8006328125,0.14476655423641205,-0.3114011585712433,0.08884589374065399
1782987691541707000,1.81070703125,0.07532517611980438,-0.17081262171268463,0.01193353533744812
1782987691551782000,1.820781982421875,-0.009064910933375359,0.06242438405752182,0.030507827177643776
1782987691561857000,1.83085693359375,-0.08843350410461426,0.33212029933929443,0.11240935325622559
1782987691571931100,1.84093115234375,-0.15097488462924957,0.5295166969299316,0.20402410626411438
1782987691582006000,1.851006103515625,-0.20748849213123322,0.6253353953361511,0.2682502269744873
1782987691592080100,1.861080078125,-0.24645169079303741,0.45533913373947144,0.2709178924560547
1782987691602155000,1.871155029296875,-0.25137239694595337,0.25035402178764343,0.22663989663124084
1782987691612229000,1.88122900390625,-0.2266235500574112,0.1459072083234787,0.16811659932136536
1782987691622304000,1.891303955078125,-0.2053488940000534,0.08919411897659302,0.10005524754524231
1782987691632378000,1.901378173828125,-0.2032441645860672,0.02732979506254196,0.02053166553378105
1782987691642453000,1.911452880859375,-0.20469878613948822,-0.06794985383749008,-0.10945669561624527
1782987691652528000,1.921528076171875,-0.20061177015304565,-0.24566757678985596,-0.25884485244750977
1782987691662602000,1.93160205078125,-0.17569337785243988,-0.39640143513679504,-0.3848075866699219
1782987691672677000,1.941677001953125,-0.14323601126670837,-0.42088082432746887,-0.44620344042778015
1782987691682751000,1.9517509765625,-0.11870856583118439,-0.3226924538612366,-0.433655709028244
1782987691692826000,1.961826171875,-0.11039899289608002,-0.17948225140571594,-0.3668813407421112
1782987691702900000,1.97189990234375,-0.11091910302639008,-0.06271622329950333,-0.26855984330177307
1782987691712975000,1.98197509765625,-0.09923860430717468,-0.02369791269302368,-0.16826020181179047
1782987691723049000,1.992049072265625,-0.07715141028165817,-0.015275932848453522,-0.0873323306441307
1782987691733124000,2.0021240234375,-0.06340321898460388,-0.007394312880933285,-0.03208635002374649
1782987691743199200,2.01219921875,-0.0588979497551918,-0.022708555683493614,-0.009991166181862354
1782987691753273000,2.022273193359375,-0.062408365309238434,-0.0248960442841053,-0.013950943946838379
1782987691763348200,2.03234814453125,-0.05115064978599548,-0.02218121662735939,-0.043592993170022964
1782987691773422000,2.042422119140625,-0.02906533144414425,-0.013062399812042713,-0.08744707703590393
1782987691783497200,2.052497314453125,0.0002872298937290907,0.012667465023696423,-0.12793618440628052
1782987691793571000,2.062571044921875,0.03524916246533394,0.047112610191106796,-0.16933771967887878
1782987691803646200,2.072646240234375,0.06491784751415253,0.06827808916568756,-0.19805298745632172
1782987691813720000,2.082719970703125,0.099410779774189,0.07952695339918137,-0.21137826144695282
1782987691823795200,2.092795166015625,0.12980917096138,0.07207755744457245,-0.19741664826869965
1782987691833869800,2.102869873046875,0.14721602201461792,0.06698094308376312,-0.16798004508018494
1782987691843944200,2.112944091796875,0.14817476272583008,0.08454741537570953,-0.13584554195404053
1782987691854018800,2.123018798828125,0.13429297506809235,0.13107506930828094,-0.11224430799484253
1782987691864093200,2.13309326171875,0.12150713056325912,0.1800077259540558,-0.10884877294301987
1782987691874167800,2.143167724609375,0.11978472769260406,0.20145301520824432,-0.10852858424186707
1782987691884242200,2.1532421875,0.13688167929649353,0.21842241287231445,-0.06519309431314468
1782987691894316800,2.16331689453125,0.15342622995376587,0.2560698091983795,0.008428207598626614
1782987691904392000,2.173391845703125,0.15423716604709625,0.2325703203678131,0.07968427985906601
1782987691914465800,2.1834658203125,0.13399487733840942,0.17099212110042572,0.10972215235233307
1782987691924540200,2.1935400390625,0.12435183674097061,0.09841644018888474,0.09768199920654297
1782987691934614500,2.203614501953125,0.12161022424697876,0.05166499689221382,0.04897810518741608
1782987691944689200,2.213689208984375,0.11455550789833069,0.10677085816860199,-0.011989906430244446
1782987691954763500,2.223763427734375,0.11044906079769135,0.29117804765701294,-0.0772842988371849
1782987691964838100,2.233838134765625,0.12121009826660156,0.3719205856323242,-0.1481800526380539
1782987691974912500,2.24391259765625,0.1434076428413391,0.24535903334617615,-0.23256832361221313
1782987691984987100,2.253987060546875,0.1579093486070633,0.10427062213420868,-0.30373355746269226
1782987691995062300,2.264062255859375,0.14217248558998108,0.0703408420085907,-0.34673574566841125
1782987692005136100,2.27413623046875,0.09771979600191116,0.16881440579891205,-0.36279726028442383
1782987692015211300,2.284211181640625,0.05456230044364929,0.35816848278045654,-0.3598509132862091
1782987692025285000,2.29428515625,0.0439530648291111,0.4816129207611084,-0.33417484164237976
1782987692035360300,2.3043603515625,0.0695715919137001,0.47995978593826294,-0.2957380414009094
1782987692045434000,2.31443408203125,0.12707191705703735,0.42195719480514526,-0.24766212701797485
1782987692055509200,2.32450927734375,0.20743179321289062,0.41657423973083496,-0.17946560680866241
1782987692065583000,2.3345830078125,0.2913605272769928,0.5026542544364929,-0.09279755502939224
1782987692075658200,2.344658203125,0.3537123203277588,0.6257904767990112,-0.018975378945469856
1782987692085733400,2.3547333984375,0.3988443911075592,0.6737108826637268,0.016882220283150673
1782987692095807200,2.36480712890625,0.433515727519989,0.5519146919250488,0.004552545957267284
1782987692105882400,2.37488232421875,0.47659021615982056,0.26036006212234497,-0.05489186942577362
1782987692115956200,2.384956298828125,0.5255798101425171,-0.08854852616786957,-0.12666043639183044
1782987692126031400,2.39503125,0.5723281502723694,-0.3588002622127533,-0.19393348693847656
1782987692136105200,2.405105224609375,0.5972447395324707,-0.5033149123191833,-0.24821074306964874
1782987692146180400,2.415180419921875,0.5921658277511597,-0.5367820858955383,-0.2909800410270691
1782987692156254200,2.425254150390625,0.5693019032478333,-0.4540920853614807,-0.31603798270225525
1782987692166329300,2.435329345703125,0.5310871601104736,-0.2919042408466339,-0.32600221037864685
1782987692176404200,2.445404296875,0.48915377259254456,-0.1166987493634224,-0.3084544837474823
1782987692186478300,2.455478271484375,0.4473820924758911,0.04869953170418739,-0.26242440938949585
1782987692196553200,2.46555322265625,0.38624194264411926,0.19541701674461365,-0.18575668334960938
1782987692206627300,2.47562744140625,0.31244441866874695,0.2827974557876587,-0.10512414574623108
1782987692216702200,2.4857021484375,0.2495443969964981,0.30549755692481995,-0.04333816468715668
1782987692226776300,2.4957763671875,0.20996448397636414,0.246423602104187,-0.02031274326145649
1782987692236851500,2.5058515625,0.20269876718521118,0.15844126045703888,-0.042156025767326355
1782987692246925300,2.51592529296875,0.2223726063966751,0.08759398758411407,-0.09145300090312958
1782987692257000400,2.52600048828125,0.2545747756958008,0.04542309418320656,-0.152447909116745
1782987692267074300,2.53607421875,0.2781469225883484,0.020978737622499466,-0.21658827364444733
1782987692277149400,2.5461494140625,0.2858668863773346,-0.006080152932554483,-0.26586005091667175
1782987692287224300,2.556224365234375,0.28245750069618225,-0.037903062999248505,-0.29911547899246216
1782987692297298400,2.56629833984375,0.27351346611976624,-0.06120844557881355,-0.30117982625961304
1782987692307373300,2.576373291015625,0.2604203224182129,-0.09153865277767181,-0.2850551903247833
1782987692317447400,2.586447509765625,0.23866848647594452,-0.11466308683156967,-0.26885876059532166
1782987692327522300,2.596522216796875,0.21091169118881226,-0.12758047878742218,-0.25688493251800537
1782987692337596400,2.606596435546875,0.17900307476520538,-0.11880941689014435,-0.2549029290676117
1782987692347671300,2.61667138671875,0.14677803218364716,-0.10571812093257904,-0.25941404700279236
1782987692357745400,2.626745361328125,0.1113830953836441,-0.1022351086139679,-0.2659493386745453
1782987692367820300,2.6368203125,0.07560619711875916,-0.11490323394536972,-0.27152466773986816
1782987692377895400,2.6468955078125,0.04004247859120369,-0.1061006486415863,-0.25287625193595886
1782987692387969300,2.65696923828125,0.0019347742199897766,-0.057260673493146896,-0.21516934037208557
1782987692398044400,2.66704443359375,-0.04240953177213669,-0.011112196370959282,-0.17447473108768463
1782987692408118300,2.6771181640625,-0.08151885122060776,0.012761712074279785,-0.13793669641017914
1782987692418193400,2.687193359375,-0.11940018832683563,0.022273456677794456,-0.11536480486392975
1782987692428267300,2.697267333984375,-0.1517309546470642,0.018354082480072975,-0.09852350503206253
1782987692438342400,2.70734228515625,-0.17295342683792114,0.009830746799707413,-0.09398353099822998
1782987692448416300,2.717416259765625,-0.18625351786613464,-0.007895253598690033,-0.09371215850114822
1782987692458491400,2.727491455078125,-0.18145330250263214,-0.0548168383538723,-0.10431709885597229
1782987692468566500,2.73756640625,-0.1676837056875229,-0.12941037118434906,-0.12965121865272522
1782987692478640400,2.747640380859375,-0.166933074593544,-0.2346695363521576,-0.16103899478912354
1782987692488715500,2.757715576171875,-0.17825524508953094,-0.3403637409210205,-0.18931297957897186
1782987692498789400,2.767789306640625,-0.19806653261184692,-0.41470128297805786,-0.20239926874637604
1782987692508864500,2.777864501953125,-0.22611626982688904,-0.46845585107803345,-0.20089112222194672
1782987692518938400,2.7879384765625,-0.264536589384079,-0.5114132165908813,-0.20133213698863983
1782987692529013500,2.798013427734375,-0.3016141653060913,-0.5244866609573364,-0.19276341795921326
1782987692539088100,2.808088134765625,-0.343464732170105,-0.5113241076469421,-0.18310657143592834
1782987692549162500,2.81816259765625,-0.38800954818725586,-0.4547429084777832,-0.17063045501708984
1782987692559237000,2.828237060546875,-0.42578545212745667,-0.3513159155845642,-0.15915939211845398
1782987692569311500,2.8383115234375,-0.44894084334373474,-0.28001564741134644,-0.13436615467071533
1782987692579386000,2.84838623046875,-0.45878127217292786,-0.2653244733810425,-0.0964198037981987
1782987692589460500,2.85846044921875,-0.45988729596138,-0.2773326635360718,-0.0326237753033638
1782987692599535000,2.86853515625,-0.4692924916744232,-0.270116925239563,0.05995386838912964
1782987692609609500,2.878609375,-0.4833853840827942,-0.16912239789962769,0.17481094598770142
1782987692619684400,2.888684326171875,-0.5047913193702698,0.07463759183883667,0.2864971458911896
1782987692629758500,2.898758544921875,-0.5223396420478821,0.0906546413898468,0.3460637927055359
1782987692639833300,2.908833251953125,-0.5322810411453247,-0.15258879959583282,0.3091180920600891
1782987692649908200,2.918908203125,-0.5581813454627991,-0.41995152831077576,0.20184114575386047
1782987692659982300,2.928982421875,-0.6005070805549622,-0.5607303380966187,0.07726061344146729
1782987692670057200,2.93905712890625,-0.6612998843193054,-0.5380556583404541,-0.03234072029590607
1782987692680131300,2.94913134765625,-0.7187540531158447,-0.3446875810623169,-0.10239087045192719
1782987692690206200,2.959206298828125,-0.7688494324684143,-0.08347994834184647,-0.11456817388534546
1782987692700280300,2.9692802734375,-0.7992767095565796,0.07787615060806274,-0.07427523285150528
1782987692710355200,2.979355224609375,-0.8186101913452148,0.09075094014406204,0.006063281558454037
1782987692720429300,2.98942919921875,-0.8122361302375793,0.02919764444231987,0.11821299046278
1782987692730504200,2.999504150390625,-0.7798416614532471,-0.0034753456711769104,0.24597547948360443
1782987692740579300,3.009579345703125,-0.7311119437217712,0.030706949532032013,0.385159969329834
1782987692750653200,3.019653076171875,-0.6767973303794861,0.07312923669815063,0.5075290203094482
1782987692760728300,3.029728271484375,-0.6328855752944946,0.055031780153512955,0.581024706363678
1782987692770802200,3.03980224609375,-0.5955946445465088,-0.013781105168163776,0.5951075553894043
1782987692780877300,3.049877197265625,-0.5625982880592346,-0.07311827689409256,0.556501567363739
1782987692790951200,3.059951171875,-0.5483096241950989,-0.11045419424772263,0.4802928864955902
1782987692801026300,3.0700263671875,-0.5454424023628235,-0.11295608431100845,0.37561750411987305
1782987692811100200,3.08010009765625,-0.5553941130638123,-0.10533225536346436,0.2569766044616699
1782987692821175300,3.09017529296875,-0.572629451751709,-0.11731398850679398,0.14371560513973236
1782987692831250400,3.10025048828125,-0.5957672595977783,-0.11351125687360764,0.05381608381867409
1782987692841324300,3.11032421875,-0.616198718547821,-0.11334098130464554,-0.01345460768789053
1782987692851399400,3.1203994140625,-0.6177266240119934,-0.11019206047058105,-0.03123147413134575
1782987692861473300,3.130473388671875,-0.604036808013916,-0.10322506725788116,-0.012067139148712158
1782987692871548400,3.14054833984375,-0.5796838402748108,-0.0881318673491478,0.03846341371536255
1782987692881622300,3.150622314453125,-0.5569412708282471,-0.10179249942302704,0.08513657003641129
1782987692891697400,3.160697509765625,-0.541628360748291,-0.148453488945961,0.11871210485696793
1782987692901771300,3.170771240234375,-0.5226472616195679,-0.20749160647392273,0.13005869090557098
1782987692911846400,3.180846435546875,-0.49404728412628174,-0.28305426239967346,0.09370627254247665
1782987692921921000,3.190921142578125,-0.45092079043388367,-0.34205466508865356,0.029711732640862465
1782987692931995100,3.2009951171875,-0.38878124952316284,-0.3601228892803192,-0.04771248623728752
1782987692942070000,3.211070068359375,-0.3220982253551483,-0.3575412631034851,-0.13001702725887299
1782987692952144100,3.22114404296875,-0.2628066837787628,-0.33971911668777466,-0.20273490250110626
1782987692962219000,3.231218994140625,-0.20739248394966125,-0.32006797194480896,-0.2494581639766693
1782987692972293000,3.241293212890625,-0.15263335406780243,-0.27792584896087646,-0.2557690441608429
1782987692982368000,3.251367919921875,-0.1094164177775383,-0.21231873333454132,-0.21395395696163177
1782987692992442000,3.261442138671875,-0.0823720172047615,-0.13235147297382355,-0.13303594291210175
1782987693002517000,3.27151708984375,-0.07260338962078094,-0.07396546006202698,-0.036801550537347794
1782987693012591000,3.281591064453125,-0.06871224194765091,-0.04024771228432655,0.06397273391485214
1782987693022666000,3.291666015625,-0.06112753972411156,-0.034532614052295685,0.14762915670871735
1782987693032741000,3.3017412109375,-0.05307706817984581,-0.052041567862033844,0.19648484885692596
1782987693042815200,3.311815185546875,-0.05254557356238365,-0.09823213517665863,0.20337314903736115
1782987693052890000,3.32189013671875,-0.06816661357879639,-0.12834715843200684,0.1734011471271515
1782987693062964200,3.331964111328125,-0.09635912626981735,-0.13834647834300995,0.09787774085998535
1782987693073039000,3.3420390625,-0.1371195912361145,-0.1413252204656601,-0.01695030927658081
1782987693083113200,3.35211328125,-0.18335652351379395,-0.14015448093414307,-0.150970920920372
1782987693093188000,3.36218798828125,-0.22192655503749847,-0.14559665322303772,-0.2622425854206085
1782987693103262200,3.37226220703125,-0.25002408027648926,-0.11799056828022003,-0.3246379792690277
1782987693113337000,3.382337158203125,-0.2817535102367401,-0.08441130071878433,-0.3215197026729584
1782987693123412200,3.392412109375,-0.30737948417663574,-0.040551748126745224,-0.2671028971672058
1782987693133486000,3.402486083984375,-0.3169149160385132,0.011422237381339073,-0.17482037842273712
1782987693143561200,3.412561279296875,-0.3110542893409729,0.056886203587055206,-0.0710311233997345
1782987693153635000,3.422635009765625,-0.29670649766921997,0.08120778948068619,0.027791863307356834
1782987693163710200,3.432710205078125,-0.2738364338874817,0.08040732145309448,0.10345405340194702
1782987693173784000,3.4427841796875,-0.23661957681179047,0.04867815226316452,0.14476367831230164
1782987693183859200,3.452859130859375,-0.203474223613739,0.016800787299871445,0.15245024859905243
1782987693193933000,3.46293310546875,-0.17474457621574402,-0.01783069223165512,0.12597069144248962
1782987693204008200,3.47300830078125,-0.1558028608560562,-0.03703603520989418,0.08614697307348251
1782987693214083000,3.4830830078125,-0.13324828445911407,-0.03311852365732193,0.04664377123117447
1782987693224157200,3.4931572265625,-0.10064109414815903,-0.023362789303064346,0.020501229912042618
1782987693234232000,3.503232177734375,-0.06327161937952042,0.014354495331645012,0.01834033988416195
1782987693244306200,3.51330615234375,-0.027582647278904915,0.07111450284719467,0.02231236733496189
1782987693254381000,3.523381103515625,0.008664306253194809,0.14875923097133636,0.022862577810883522
1782987693264455200,3.533455078125,0.05057280510663986,0.1436774879693985,0.019684933125972748
1782987693274530000,3.543530029296875,0.09127043187618256,0.05329671874642372,-0.009732344187796116
1782987693284604200,3.553604248046875,0.12097290903329849,-0.07298734784126282,-0.06151255592703819
1782987693294679000,3.563678955078125,0.12607471644878387,-0.28314298391342163,-0.1234624832868576
1782987693304753200,3.573753173828125,0.10980042070150375,-0.49486806988716125,-0.1891440600156784
1782987693314828000,3.583828125,0.08273524791002274,-0.5985736846923828,-0.24062801897525787
1782987693324903000,3.59390283203125,0.06620316952466965,-0.5891428589820862,-0.2535547912120819
1782987693334977000,3.60397705078125,0.052472177892923355,-0.41668692231178284,-0.22610531747341156
1782987693345052000,3.614052001953125,0.044049642980098724,-0.09557223320007324,-0.16304394602775574
1782987693355126000,3.6241259765625,0.06243716925382614,0.26464322209358215,-0.06491471827030182
1782987693365201000,3.634200927734375,0.10927855223417282,0.582403838634491,0.049078889191150665
1782987693375275000,3.64427490234375,0.1805380880832672,0.7680991291999817,0.17164954543113708
1782987693385350000,3.654349853515625,0.2556590735912323,0.7656018137931824,0.2881966531276703
1782987693395424000,3.664424072265625,0.3261071443557739,0.5986520051956177,0.37651267647743225
1782987693405499000,3.674498779296875,0.400485634803772,0.2976256310939789,0.4212186336517334
1782987693415574000,3.684573974609375,0.4783734977245331,-0.1258113831281662,0.4088487923145294
1782987693425647900,3.69464794921875,0.5630288124084473,-0.5848495364189148,0.34436145424842834
1782987693435723000,3.704722900390625,0.6299652457237244,-0.8994088172912598,0.25056731700897217
1782987693445797000,3.714797119140625,0.6398847103118896,-1.0362063646316528,0.15427006781101227
1782987693455872000,3.7248720703125,0.5826179385185242,-0.9805659651756287,0.07021404057741165
1782987693465946000,3.734946044921875,0.4837956130504608,-0.7943581938743591,-0.004174327477812767
1782987693476021000,3.74502099609375,0.3648447096347809,-0.5335284471511841,-0.04283171147108078
1782987693486095000,3.75509521484375,0.23538517951965332,-0.24604101479053497,-0.037942979484796524
1782987693496170000,3.765169921875,0.1098962277173996,0.0009434812236577272,0.0015975036658346653
1782987693506245000,3.7752451171875,0.015231957659125328,0.13282746076583862,0.05217329040169716
1782987693516319000,3.785319091796875,-0.031222892925143242,0.16438086330890656,0.10600563138723373
1782987693526394000,3.79539404296875,-0.037487998604774475,0.13381901383399963,0.1583682894706726
1782987693536468000,3.805468017578125,-0.01995188184082508,0.07857998460531235,0.20744022727012634
1782987693546543000,3.815543212890625,-0.0003117375308647752,0.013758407905697823,0.23255318403244019
1782987693556617000,3.825616943359375,0.014993448741734028,-0.04061029478907585,0.2338208556175232
1782987693566692000,3.835692138671875,0.029667455703020096,-0.06114283949136734,0.20967869460582733
1782987693576766000,3.845765869140625,0.04811863601207733,-0.08212774991989136,0.16431014239788055
1782987693586841000,3.855841064453125,0.06277605146169662,-0.11470738798379898,0.10777804255485535
1782987693596915000,3.8659150390625,0.05956294387578964,-0.1587217152118683,0.03364202752709389
1782987693606990000,3.875989990234375,0.03519143536686897,-0.206093430519104,-0.0366457924246788
1782987693617065200,3.886065185546875,-0.0021894890815019608,-0.20930412411689758,-0.09789024293422699
1782987693627139000,3.89613916015625,-0.04861878231167793,-0.14491406083106995,-0.14857719838619232
1782987693637214200,3.906214111328125,-0.09554341435432434,-0.020589979365468025,-0.18211545050144196
1782987693647288000,3.9162880859375,-0.1353653520345688,0.1208336353302002,-0.19959613680839539
1782987693657363200,3.92636328125,-0.14448055624961853,0.24790795147418976,-0.21102535724639893
1782987693667437000,3.93643701171875,-0.12081055343151093,0.3507218360900879,-0.20134837925434113
1782987693677512200,3.94651220703125,-0.07796135544776917,0.41608938574790955,-0.16501247882843018
1782987693687586000,3.9565859375,-0.024247530847787857,0.43521618843078613,-0.11722125113010406
1782987693697661200,3.9666611328125,0.024576200172305107,0.36329007148742676,-0.07599338889122009
1782987693707735000,3.976735107421875,0.06105847656726837,0.20382268726825714,-0.06475743651390076
1782987693717810200,3.98681005859375,0.0792209655046463,0.042745914310216904,-0.0803542360663414
1782987693727885000,3.996885009765625,0.08887983858585358,-0.041256457567214966,-0.11859746277332306
1782987693737959200,4.006959228515625,0.08513623476028442,-0.06651706993579865,-0.17577525973320007
1782987693748034000,4.017033935546875,0.06844750791788101,-0.05938512459397316,-0.23996108770370483
1782987693758108200,4.027108154296875,0.0633813813328743,-0.001413432415574789,-0.29741108417510986
1782987693768183000,4.03718310546875,0.07931117713451385,0.08039671182632446,-0.3266073763370514
1782987693778257200,4.047257080078125,0.10768049955368042,0.14331576228141785,-0.3138790726661682
1782987693788332000,4.05733203125,0.12523220479488373,0.1568528413772583,-0.2809865176677704
1782987693798406100,4.06740625,0.13858528435230255,0.10984671860933304,-0.25301748514175415
1782987693808481000,4.07748095703125,0.16535592079162598,0.033252716064453125,-0.22369039058685303
1782987693818556200,4.08755615234375,0.20517870783805847,-0.022031046450138092,-0.19244486093521118
1782987693828630000,4.097630126953125,0.2420402616262436,-0.025867391377687454,-0.15818265080451965
1782987693838705200,4.107705078125,0.27036482095718384,0.02282797545194626,-0.12941305339336395
1782987693848779300,4.117779296875,0.2985896170139313,0.1073349341750145,-0.09769624471664429
1782987693858854100,4.127854248046875,0.33768031001091003,0.1987958699464798,-0.07847274839878082
1782987693868928300,4.13792822265625,0.3880619704723358,0.2541554868221283,-0.05699234455823898
1782987693879003100,4.148003173828125,0.43571019172668457,0.26561135053634644,-0.035880934447050095
1782987693889077200,4.1580771484375,0.47653788328170776,0.2504485249519348,-0.015741081908345222
1782987693899152100,4.168152099609375,0.49851587414741516,0.22480176389217377,0.012627175077795982
1782987693909226200,4.178226318359375,0.5201185345649719,0.1963152438402176,0.0463593490421772
1782987693919301000,4.188301025390625,0.5442254543304443,0.22347389161586761,0.0667399913072586
1782987693929376300,4.198376220703125,0.5670603513717651,0.26994121074676514,0.07839371263980865
1782987693939450400,4.208450439453125,0.5827447772026062,0.22392389178276062,0.06375378370285034
1782987693949525200,4.218525146484375,0.5762488842010498,0.07319784164428711,0.014611990191042423
1782987693959599400,4.228599365234375,0.5567005276679993,-0.15819835662841797,-0.07525558024644852
1782987693969674200,4.23867431640625,0.5514466762542725,-0.4158516228199005,-0.17268484830856323
1782987693979748400,4.248748291015625,0.5562824010848999,-0.5579155087471008,-0.24409058690071106
1782987693989823200,4.2588232421875,0.5438609719276428,-0.49617475271224976,-0.2795497179031372
1782987693999897300,4.2688974609375,0.5273045897483826,-0.240403950214386,-0.2551221549510956
1782987694009972200,4.27897216796875,0.5183029770851135,0.12863782048225403,-0.16628921031951904
1782987694020047000,4.289047119140625,0.5017018914222717,0.5045427083969116,-0.03265896812081337
1782987694030121200,4.299121337890625,0.4840828776359558,0.7700968384742737,0.11321138590574265
1782987694040196000,4.309196044921875,0.4710557460784912,0.8633725047111511,0.24375981092453003
1782987694050270200,4.319270263671875,0.4518616497516632,0.7535404562950134,0.3191346824169159
1782987694060345000,4.329344970703125,0.4375554025173187,0.5042864084243774,0.3222694993019104
1782987694070419200,4.339419189453125,0.4373578429222107,0.19819894433021545,0.2697765827178955
1782987694080494000,4.349494140625,0.45695099234580994,-0.10286422073841095,0.17384977638721466
1782987694090568200,4.359568115234375,0.5031403303146362,-0.3426680564880371,0.06711141765117645
1782987694100643000,4.36964306640625,0.5592187643051147,-0.5010193586349487,-0.02153829112648964
1782987694110717200,4.37971728515625,0.5871104598045349,-0.5664629936218262,-0.07839304208755493
1782987694120792000,4.3897919921875,0.5883565545082092,-0.5174645781517029,-0.07552748173475266
1782987694130867200,4.3998671875,0.5492872595787048,-0.30381694436073303,-0.013949460349977016
1782987694140941000,4.409941162109375,0.47810524702072144,0.030627621337771416,0.10324587672948837
1782987694151016200,4.42001611328125,0.37894487380981445,0.38731175661087036,0.22647243738174438
1782987694161090300,4.43009033203125,0.2707539498806,0.6304964423179626,0.32171347737312317
1782987694171165200,4.440165283203125,0.18049219250679016,0.7277310490608215,0.36797288060188293
1782987694181239300,4.4502392578125,0.12053883820772171,0.7277414202690125,0.3613799512386322
1782987694191314200,4.460314208984375,0.07394576817750931,0.6862128973007202,0.3153780996799469
1782987694201388300,4.47038818359375,0.029865127056837082,0.6541521549224854,0.23826360702514648
1782987694211463200,4.480463134765625,-0.0023922082036733627,0.6191930770874023,0.1265241503715515
1782987694221537300,4.490537353515625,-0.011674389243125916,0.5710085034370422,0.002583559602499008
1782987694231612200,4.500612060546875,0.002153008710592985,0.5474821329116821,-0.11847122013568878
1782987694241687300,4.510687255859375,0.03788277506828308,0.5475519299507141,-0.23188193142414093
1782987694251761200,4.52076123046875,0.09826066344976425,0.5309431552886963,-0.3269440531730652
1782987694261836300,4.530836181640625,0.17743244767189026,0.47810980677604675,-0.3958943486213684
1782987694271910100,4.54091015625,0.2666124403476715,0.38232851028442383,-0.4261968731880188
1782987694281985300,4.5509853515625,0.34853872656822205,0.2871122360229492,-0.4076562225818634
1782987694292059100,4.56105908203125,0.41293901205062866,0.21530917286872864,-0.3731509745121002
1782987694302134300,4.57113427734375,0.45785534381866455,0.16159480810165405,-0.33847367763519287
1782987694312208100,4.5812080078125,0.478263258934021,0.11884362250566483,-0.32072150707244873
1782987694322283300,4.591283203125,0.47968724370002747,0.12365835905075073,-0.31836435198783875
1782987694332358400,4.6013583984375,0.48318764567375183,0.20754265785217285,-0.3168240487575531
1782987694342432300,4.611432373046875,0.497262179851532,0.3212369978427887,-0.3110359311103821
1782987694352507400,4.62150732421875,0.5370330810546875,0.40128788352012634,-0.3139909505844116
1782987694362581200,4.631581298828125,0.6004312634468079,0.428394079208374,-0.31084921956062317
1782987694372656400,4.641656494140625,0.6711422801017761,0.4410479664802551,-0.2980334460735321
1782987694382730200,4.651730224609375,0.7346379160881042,0.4535301923751831,-0.26578575372695923
1782987694392805400,4.661805419921875,0.7803160548210144,0.4699889123439789,-0.2352471500635147
1782987694402879200,4.671879150390625,0.8137997388839722,0.4707913398742676,-0.21056817471981049
1782987694412954400,4.681954345703125,0.8353279232978821,0.4541173279285431,-0.18730001151561737
1782987694423028200,4.6920283203125,0.8461552262306213,0.448074609041214,-0.16559924185276031
1782987694433103400,4.702103271484375,0.8598015308380127,0.4538269639015198,-0.1462080478668213
1782987694443178200,4.71217822265625,0.8710139393806458,0.4514831006526947,-0.13413940370082855
1782987694453252400,4.72225244140625,0.8866233825683594,0.4456908106803894,-0.1286540925502777
1782987694463327200,4.7323271484375,0.8989444971084595,0.45070287585258484,-0.12369341403245926
1782987694473401300,4.7424013671875,0.8982518911361694,0.451943576335907,-0.11883912235498428
1782987694483476200,4.752476318359375,0.8819477558135986,0.4729900062084198,-0.11849503964185715
1782987694493550300,4.76255029296875,0.8668549060821533,0.5145115256309509,-0.12395570427179337
1782987694503625200,4.772625244140625,0.8525106310844421,0.5466684103012085,-0.1260494887828827
1782987694513699300,4.78269921875,0.8420642614364624,0.5615630745887756,-0.11725027859210968
1782987694523774200,4.792774169921875,0.8334034085273743,0.5564125180244446,-0.09738229960203171
1782987694533848300,4.802848388671875,0.8305436372756958,0.5339530110359192,-0.0563197061419487
1782987694543923200,4.812923095703125,0.8248247504234314,0.511539876461029,-0.0022045376244932413
1782987694553998300,4.822998291015625,0.8280991315841675,0.499345064163208,0.05402514711022377
1782987694564072400,4.833072509765625,0.8380724191665649,0.48930439352989197,0.10774030536413193
1782987694574147300,4.843147216796875,0.8472071886062622,0.47062090039253235,0.15462391078472137
1782987694584221400,4.853221435546875,0.8494426608085632,0.430376261472702,0.18861250579357147
1782987694594296300,4.86329638671875,0.8494172692298889,0.396838515996933,0.21289435029029846
1782987694604370400,4.873370361328125,0.8433947563171387,0.37426796555519104,0.23828226327896118
1782987694614445300,4.8834453125,0.8283323049545288,0.5092079639434814,0.23830735683441162
1782987694624519400,4.89351953125,0.8153011798858643,0.7570022940635681,0.2164561152458191
1782987694634594300,4.90359423828125,0.799241304397583,0.7935331463813782,0.14919638633728027
1782987694644668400,4.91366845703125,0.776914656162262,0.5922018885612488,0.037681590765714645
1782987694654743300,4.923743408203125,0.7536718249320984,0.3216652274131775,-0.06895994395017624
1782987694664818200,4.933818115234375,0.7419741749763489,0.21116402745246887,-0.1345573216676712
1782987694674892300,4.943892333984375,0.7399256825447083,0.330436646938324,-0.14792323112487793
1782987694684967200,4.95396728515625,0.7495261430740356,0.5314866900444031,-0.12695403397083282
1782987694695041300,4.964041259765625,0.7591603994369507,0.7015184760093689,-0.08883708715438843
1782987694705116200,4.9741162109375,0.7603217959403992,0.8125089406967163,-0.03928018733859062
1782987694715190300,4.984190185546875,0.7516157627105713,0.8519853353500366,0.004612089600414038
1782987694725265200,4.99426513671875,0.7368131279945374,0.8865358233451843,0.03318061679601669
1782987694735339300,5.00433935546875,0.7287875413894653,0.9763951897621155,0.0495162196457386
1782987694745414100,5.0144140625,0.7109078764915466,1.0703306198120117,0.05420657992362976
1782987694755488300,5.02448828125,0.6881649494171143,1.069962739944458,0.03891485929489136
1782987694765563100,5.034563232421875,0.6721622943878174,0.9483972191810608,0.00604612473398447
1782987694775638300,5.04463818359375,0.6746010780334473,0.7423255443572998,-0.04619527980685234
1782987694785712000,5.054712158203125,0.6791495084762573,0.5233553647994995,-0.10703572630882263
1782987694795787300,5.064787353515625,0.6908236742019653,0.39836931228637695,-0.16978277266025543
1782987694805861000,5.074861083984375,0.7110661268234253,0.3919263184070587,-0.23672133684158325
1782987694815936300,5.084936279296875,0.7522373795509338,0.41800278425216675,-0.30006635189056396
1782987694826010000,5.095010009765625,0.8249494433403015,0.45618826150894165,-0.33953359723091125
1782987694836085200,5.105085205078125,0.9028257727622986,0.5300425887107849,-0.3502185642719269
1782987694846159000,5.1151591796875,0.9628768563270569,0.5832184553146362,-0.34474122524261475
1782987694856234200,5.125234130859375,0.9882789254188538,0.6219184398651123,-0.3210989832878113
1782987694866308000,5.13530810546875,0.9826024174690247,0.6461742520332336,-0.2966783344745636
1782987694876383200,5.14538330078125,0.9630208015441895,0.619929850101471,-0.28198206424713135
1782987694886458000,5.1554580078125,0.9426544904708862,0.5368624329566956,-0.27805230021476746
1782987694896532200,5.1655322265625,0.9453670978546143,0.44048500061035156,-0.26821184158325195
1782987694906607000,5.175607177734375,0.9808403849601746,0.38271331787109375,-0.24213096499443054
1782987694916681200,5.18568115234375,1.0264841318130493,0.38414859771728516,-0.20017679035663605
1782987694926756000,5.195756103515625,1.0649627447128296,0.46451079845428467,-0.15768419206142426
1782987694936830000,5.205829833984375,1.0995935201644897,0.5388259887695312,-0.129581481218338
1782987694946905000,5.215905029296875,1.1394411325454712,0.5409224629402161,-0.13452190160751343
1782987694956979000,5.22597900390625,1.1960722208023071,0.47961607575416565,-0.138926163315773
1782987694967054000,5.23605419921875,1.2345492839813232,0.3949262201786041,-0.12635603547096252
1782987694977128000,5.2461279296875,1.2369678020477295,0.3119739890098572,-0.10002914071083069
1782987694987203000,5.256203125,1.2007181644439697,0.2547690272331238,-0.07584017515182495
1782987694997278200,5.2662783203125,1.1512564420700073,0.22819998860359192,-0.06624005734920502
1782987695007352000,5.27635205078125,1.097774863243103,0.22565239667892456,-0.0794658437371254
1782987695017427200,5.28642724609375,1.0506151914596558,0.22068466246128082,-0.1162104681134224
1782987695027501000,5.2965009765625,1.0081055164337158,0.19520993530750275,-0.17530439794063568
1782987695037576200,5.306576171875,0.9724259376525879,0.15973319113254547,-0.23504863679409027
1782987695047650000,5.316650146484375,0.9508910775184631,0.11878255754709244,-0.2808179557323456
1782987695057725200,5.32672509765625,0.9266018867492676,0.07958143949508667,-0.30530261993408203
1782987695067799000,5.336799072265625,0.8941799998283386,0.0518890917301178,-0.31221431493759155
1782987695077874200,5.346874267578125,0.849410891532898,0.058668799698352814,-0.3112547695636749
1782987695087948000,5.356947998046875,0.7914048433303833,0.0859621986746788,-0.3075103461742401
1782987695098023200,5.367023193359375,0.7363483905792236,0.12279263138771057,-0.2990822196006775
1782987695108098000,5.37709814453125,0.677220344543457,0.16817128658294678,-0.2954736351966858
1782987695118172200,5.387172119140625,0.6338986754417419,0.23499399423599243,-0.284485787153244
1782987695128247000,5.3972470703125,0.6059160232543945,0.32287004590034485,-0.2607453167438507
1782987695138321200,5.407321044921875,0.5911257266998291,0.37745749950408936,-0.22909657657146454
1782987695148396000,5.41739599609375,0.5874450206756592,0.35623687505722046,-0.19819459319114685
1782987695158470100,5.42747021484375,0.6031304597854614,0.29963812232017517,-0.16342173516750336
1782987695168545300,5.437545166015625,0.6403343081474304,0.21970389783382416,-0.1243976354598999
1782987695178619100,5.447619140625,0.6837882995605469,0.13576479256153107,-0.06798096001148224
1782987695188694300,5.4576943359375,0.7130364775657654,0.07673156261444092,-0.0013369567459449172
1782987695198768000,5.46776806640625,0.7134888768196106,0.0515507273375988,0.06877076625823975
1782987695208843300,5.47784326171875,0.6981645226478577,0.06489023566246033,0.12511873245239258
1782987695218918100,5.487918212890625,0.6693141460418701,0.08671184629201889,0.16083839535713196
1782987695228992300,5.4979921875,0.637640118598938,0.11269524693489075,0.17486153542995453
1782987695239067100,5.508067138671875,0.6124817132949829,0.15087862312793732,0.17711518704891205
1782987695249141200,5.518141357421875,0.589165449142456,0.213422954082489,0.17933999001979828
1782987695259216100,5.528216064453125,0.558716356754303,0.3597814738750458,0.16128133237361908
1782987695269290200,5.538290283203125,0.5300202965736389,0.3932616710662842,0.11476282775402069
1782987695279365000,5.548365234375,0.49749213457107544,0.162484809756279,0.010245481505990028
1782987695289439200,5.558439208984375,0.45606401562690735,-0.22855564951896667,-0.128654345870018
1782987695299514000,5.56851416015625,0.4055399000644684,-0.550855815410614,-0.2600216865539551
1782987695309588200,5.578588134765625,0.33350324630737305,-0.6450278759002686,-0.3631824254989624
1782987695319663000,5.5886630859375,0.2634296417236328,-0.4975323975086212,-0.4187335669994354
1782987695329738200,5.59873828125,0.21876972913742065,-0.17953366041183472,-0.4026925563812256
1782987695339812000,5.60881201171875,0.19320249557495117,0.24761098623275757,-0.32474878430366516
1782987695349887200,5.61888720703125,0.1819210797548294,0.6841310262680054,-0.178328737616539
1782987695359961000,5.628961181640625,0.1842147260904312,1.0359481573104858,-0.01341933012008667
1782987695370036200,5.6390361328125,0.20952780544757843,1.2021245956420898,0.13171496987342834
1782987695380110000,5.649110107421875,0.25750330090522766,1.1383274793624878,0.2331228107213974
1782987695390185200,5.659185302734375,0.3227265179157257,0.8768519163131714,0.2908814549446106
1782987695400259000,5.669259033203125,0.4116664528846741,0.49011939764022827,0.2949608564376831
1782987695410334200,5.679334228515625,0.5160975456237793,0.09265726059675217,0.24837255477905273
1782987695420408300,5.689408203125,0.6314920783042908,-0.18432314693927765,0.1684722900390625
1782987695430483200,5.699483154296875,0.7249109745025635,-0.3485959768295288,0.07514659315347672
1782987695440558000,5.70955810546875,0.7944318652153015,-0.39310717582702637,-0.027338845655322075
1782987695450632200,5.719632080078125,0.8437386751174927,-0.30717602372169495,-0.10733567923307419
1782987695460707000,5.72970703125,0.8560395836830139,-0.11912770569324493,-0.16119030117988586
1782987695470781200,5.73978125,0.82374507188797,0.15210114419460297,-0.1790635734796524
1782987695480856000,5.74985595703125,0.7466589212417603,0.4544863998889923,-0.17269672453403473
1782987695490930200,5.75993017578125,0.6596625447273254,0.709048330783844,-0.13752461969852448
1782987695501005000,5.770005126953125,0.5919185280799866,0.883862316608429,-0.06429613381624222
1782987695511079200,5.7800791015625,0.5586463212966919,0.9637853503227234,0.023337306454777718
1782987695521154000,5.790154052734375,0.5568657517433167,0.9584201574325562,0.10130427777767181
1782987695531228200,5.800228271484375,0.5763174891471863,0.8914514780044556,0.14930376410484314
1782987695541303000,5.810302978515625,0.6111043095588684,0.7949320673942566,0.1624923199415207
1782987695551378200,5.820378173828125,0.6474284529685974,0.6927686333656311,0.1391262710094452
1782987695561452000,5.8304521484375,0.6776453852653503,0.5704869031906128,0.07538134604692459
1782987695571527200,5.840527099609375,0.6942949295043945,0.424311101436615,-0.02018592692911625
1782987695581601000,5.85060107421875,0.7020007967948914,0.284452885389328,-0.1311885267496109
1782987695591676200,5.86067626953125,0.7049566507339478,0.17529365420341492,-0.2421584576368332
1782987695601750000,5.87075,0.7066549062728882,0.12446434050798416,-0.34610670804977417
1782987695611825200,5.8808251953125,0.7113367319107056,0.1184794157743454,-0.42494267225265503
1782987695621899000,5.89089892578125,0.7175686955451965,0.17058221995830536,-0.4701835811138153
1782987695631974100,5.90097412109375,0.7192994356155396,0.25977787375450134,-0.47814881801605225
1782987695642048000,5.911048095703125,0.696922242641449,0.35769495368003845,-0.4589816927909851
1782987695652122000,5.9211220703125,0.6631477475166321,0.4447004497051239,-0.40385186672210693
1782987695662197000,5.931197021484375,0.6379828453063965,0.5118280053138733,-0.326124906539917
1782987695672271000,5.94127099609375,0.6272774338722229,0.5598445534706116,-0.2300460785627365
1782987695682346000,5.951345947265625,0.6479547023773193,0.5849959850311279,-0.14471185207366943
1782987695692420400,5.96142041015625,0.6917480230331421,0.5971370935440063,-0.07521772384643555
1782987695702495000,5.971494873046875,0.748426616191864,0.61021888256073,-0.034550074487924576
1782987695712569300,5.9815693359375,0.8054621815681458,0.6053855419158936,-0.016835791990160942
1782987695722644000,5.99164404296875,0.844801127910614,0.5711771845817566,-0.017101917415857315
1782987695732718300,6.00171826171875,0.8578487634658813,0.5314928889274597,-0.03921307623386383
1782987695742793000,6.01179296875,0.8588265776634216,0.5120761394500732,-0.07459050416946411
1782987695752867300,6.021867431640625,0.8566731214523315,0.5100710391998291,-0.10104954242706299
1782987695762942000,6.03194189453125,0.8527098894119263,0.49922803044319153,-0.12030552327632904
1782987695773017000,6.04201708984375,0.8480304479598999,0.5083238482475281,-0.11703755706548691
1782987695783091000,6.052091064453125,0.8388042449951172,0.519220769405365,-0.0940459668636322
1782987695793166000,6.062166015625,0.8228647112846375,0.5371448993682861,-0.04892056807875633
1782987695803240000,6.072239990234375,0.8022174835205078,0.5607425570487976,0.00016263467841781676
1782987695813315000,6.082315185546875,0.7843104004859924,0.5956640243530273,0.04120274633169174
1782987695823389000,6.092388916015625,0.7665625810623169,0.641191303730011,0.06862185150384903
1782987695833464000,6.102464111328125,0.7534041404724121,0.6916121244430542,0.0837579295039177
1782987695843538000,6.112537841796875,0.7439742088317871,0.7043659090995789,0.08406947553157806
1782987695853613000,6.122613037109375,0.7397275567054749,0.6795569658279419,0.06493546068668365
1782987695863687000,6.13268701171875,0.7381197810173035,0.6308700442314148,0.0459134578704834
1782987695873762000,6.142761962890625,0.7443912625312805,0.5747402310371399,0.01674172654747963
1782987695883836000,6.1528359375,0.7480939626693726,0.5221840143203735,-0.01368134468793869
1782987695893911000,6.1629111328125,0.7460300326347351,0.4578537046909332,-0.062330108135938644
1782987695903986200,6.172986083984375,0.7385786175727844,0.437070369720459,-0.11323023587465286
1782987695914060000,6.18306005859375,0.7353364825248718,0.5350768566131592,-0.1761559396982193
1782987695924135200,6.19313525390625,0.7307937741279602,0.6823800206184387,-0.2566051483154297
1782987695934209300,6.203209228515625,0.7426219582557678,0.640895664691925,-0.37057727575302124
1782987695944284400,6.213284423828125,0.7757870554924011,0.4101144075393677,-0.5085396766662598
1782987695954358500,6.223358642578125,0.8179246783256531,0.23716022074222565,-0.6174566149711609
1782987695964433400,6.233433349609375,0.8416565656661987,0.2507839500904083,-0.670073926448822
1782987695974507500,6.243507568359375,0.8452649116516113,0.4236209988594055,-0.6553969383239746
1782987695984582400,6.25358251953125,0.8366663455963135,0.6446927785873413,-0.5803934335708618
1782987695994656500,6.263656494140625,0.8227973580360413,0.8488139510154724,-0.4561119079589844
1782987696004731400,6.2737314453125,0.8053563833236694,1.0102338790893555,-0.30057764053344727
1782987696014806500,6.283806640625,0.7806973457336426,1.119966745376587,-0.1468527913093567
1782987696024880400,6.29388037109375,0.7742136120796204,1.2109229564666748,-0.005659797228872776
1782987696034956500,6.30395654296875,0.7884087562561035,1.3030526638031006,0.10305043309926987
1782987696045030400,6.314030517578125,0.8155349493026733,1.346998929977417,0.18316027522087097
1782987696055105500,6.32410546875,0.8598046898841858,1.2965980768203735,0.19758687913417816
1782987696065179400,6.334179443359375,0.9101176857948303,1.048603892326355,0.14142760634422302
1782987696075254500,6.344254638671875,0.9778772592544556,0.6324244737625122,0.0230325348675251
1782987696085328600,6.35432861328125,1.0424768924713135,0.1610335409641266,-0.1250666081905365
1782987696095403500,6.364403564453125,1.062746286392212,-0.2469976246356964,-0.2885599434375763
1782987696105477600,6.3744775390625,1.0313286781311035,-0.5369128584861755,-0.4295388460159302
1782987696115552500,6.384552490234375,0.9568175673484802,-0.6106858849525452,-0.5292249917984009
1782987696125626600,6.394626708984375,0.8588924407958984,-0.4782428741455078,-0.5664091110229492
1782987696135701500,6.404701416015625,0.751112163066864,-0.221202552318573,-0.5507107973098755
1782987696145776400,6.4147763671875,0.6386258006095886,0.07305857539176941,-0.48354601860046387
1782987696155850500,6.4248505859375,0.5322852730751038,0.32693347334861755,-0.3914238214492798
1782987696165925400,6.43492529296875,0.4415656328201294,0.4651392996311188,-0.30083176493644714
1782987696175999500,6.44499951171875,0.38860762119293213,0.5183036923408508,-0.2102893739938736
1782987696186074400,6.455074462890625,0.36933156847953796,0.5284530520439148,-0.1420443058013916
1782987696196148500,6.4651484375,0.37138432264328003,0.5160586833953857,-0.0877901241183281
1782987696206223400,6.475223388671875,0.37137892842292786,0.5168638229370117,-0.04376232624053955
1782987696216297500,6.48529736328125,0.3668787181377411,0.5454861521720886,-0.007275955285876989
1782987696226372600,6.49537255859375,0.3530975878238678,0.5595911145210266,0.0095972316339612
1782987696236446500,6.505446533203125,0.3330802023410797,0.528488039970398,-0.004722053185105324
1782987696246521600,6.515521484375,0.31804752349853516,0.4616925120353699,-0.04464303329586983
1782987696256596500,6.525596435546875,0.31266605854034424,0.39169609546661377,-0.09640130400657654
1782987696266670600,6.535670654296875,0.31402769684791565,0.3262485861778259,-0.1517428159713745
1782987696276745500,6.545745361328125,0.3225458264350891,0.2691192626953125,-0.20032899081707
1782987696286819600,6.555819580078125,0.3299357295036316,0.20716026425361633,-0.234502375125885
1782987696296894500,6.56589453125,0.34023311734199524,0.15527096390724182,-0.24931327998638153
1782987696306968600,6.575968505859375,0.3491249084472656,0.09877271205186844,-0.2429496943950653
1782987696317043500,6.58604345703125,0.353130042552948,0.05015191063284874,-0.22626684606075287
1782987696327117600,6.59611767578125,0.35321348905563354,0.03384246304631233,-0.19606710970401764
1782987696337192400,6.6061923828125,0.3567690849304199,0.028931593522429466,-0.15813809633255005
1782987696347266600,6.6162666015625,0.346621572971344,0.023714127019047737,-0.13063444197177887
1782987696357341400,6.626341552734375,0.3262880742549896,0.025038518011569977,-0.10300521552562714
1782987696367416300,6.636416259765625,0.3071460425853729,0.02451743744313717,-0.0838581994175911
1782987696377490400,6.646490478515625,0.2880746126174927,0.005239080172032118,-0.07538668066263199
1782987696387565300,6.6565654296875,0.2627733647823334,-0.02033587172627449,-0.07226777076721191
1782987696397639400,6.666639404296875,0.24267661571502686,-0.03435581550002098,-0.06896677613258362
1782987696407714300,6.67671435546875,0.22006870806217194,-0.026732001453638077,-0.0639992281794548
1782987696417788400,6.686788330078125,0.2019142061471939,-0.005490896292030811,-0.0483933687210083
1782987696427863300,6.69686328125,0.18673132359981537,0.015758374705910683,-0.030515607446432114
1782987696437937400,6.7069375,0.18102896213531494,0.017770925536751747,-0.008781018666923046
1782987696448012300,6.71701220703125,0.17390897870063782,-0.014025194570422173,0.014871768653392792
1782987696458086400,6.72708642578125,0.1714753955602646,-0.06398236751556396,0.031068582087755203
1782987696468161500,6.73716162109375,0.15401557087898254,-0.12067150324583054,0.03835243731737137
1782987696478235400,6.7472353515625,0.12574824690818787,-0.186431884765625,0.019080737605690956
1782987696488310500,6.757310546875,0.09108777344226837,-0.25467583537101746,-0.01943499594926834
1782987696498385400,6.767385498046875,0.06465057283639908,-0.28128135204315186,-0.06862758100032806
1782987696508459500,6.77745947265625,0.04186951741576195,-0.2726418972015381,-0.11546565592288971
1782987696518534400,6.787534423828125,0.03262142464518547,-0.23699599504470825,-0.15032485127449036
1782987696528608500,6.7976083984375,0.04443986713886261,-0.11930263042449951,-0.15336015820503235
1782987696538683400,6.807683349609375,0.06778512895107269,-0.04375860467553139,-0.1343233436346054
1782987696548757500,6.817757568359375,0.10238438844680786,-0.1339138001203537,-0.10740970820188522
1782987696558832400,6.827832275390625,0.1618165671825409,-0.33007264137268066,-0.05413449928164482
1782987696568906500,6.837906494140625,0.23120272159576416,-0.5120183229446411,0.029340948909521103
1782987696578981400,6.8479814453125,0.2713887691497803,-0.5966245532035828,0.12522059679031372
1782987696589055500,6.858055419921875,0.28510376811027527,-0.4754975140094757,0.22024749219417572
1782987696599130400,6.86813037109375,0.3039797246456146,-0.2022435963153839,0.31347784399986267
1782987696609204500,6.87820458984375,0.31364330649375916,0.05481450632214546,0.3722805678844452
1782987696619279400,6.888279296875,0.3107188940048218,0.1612008661031723,0.3780423104763031
1782987696629354500,6.8983544921875,0.3094083070755005,0.14934906363487244,0.34831172227859497
1782987696639428400,6.908428466796875,0.3058156967163086,0.1328132301568985,0.32834625244140625
1782987696649503500,6.91850341796875,0.2868819236755371,0.18123675882816315,0.34949710965156555
1782987696659577300,6.928577392578125,0.2503145933151245,0.2739430069923401,0.40389350056648254
1782987696669652500,6.938652587890625,0.21992440521717072,0.36112406849861145,0.47399985790252686
1782987696679726300,6.948726318359375,0.2068416327238083,0.40206965804100037,0.5248191356658936
1782987696689801500,6.958801513671875,0.2074050009250641,0.33894285559654236,0.5410973429679871
1782987696699875300,6.968875244140625,0.2208840548992157,0.15461426973342896,0.5244278311729431
1782987696709950500,6.978950439453125,0.22483111917972565,-0.10679122060537338,0.4691096842288971
1782987696720024300,6.9890244140625,0.20486567914485931,-0.35624685883522034,0.3929150402545929
1782987696730099500,6.999099365234375,0.15588362514972687,-0.5210109353065491,0.3054344058036804
1782987696740174600,7.009174560546875,0.07691184431314468,-0.5962750911712646,0.21173585951328278
1782987696750248400,7.01924853515625,-0.011630561202764511,-0.566350519657135,0.11384869366884232
1782987696760323600,7.029323486328125,-0.09543704241514206,-0.4453282356262207,0.021611707285046577
1782987696770397400,7.0393974609375,-0.15592361986637115,-0.24849849939346313,-0.053482525050640106
1782987696780472600,7.04947265625,-0.1907700151205063,-0.028421521186828613,-0.10132195055484772
1782987696790546400,7.05954638671875,-0.19246414303779602,0.16346576809883118,-0.10379480570554733
1782987696800621600,7.06962158203125,-0.16537366807460785,0.29957327246665955,-0.05456707999110222
1782987696810695400,7.0796953125,-0.12329717725515366,0.36846923828125,0.04717451333999634
1782987696820770600,7.0897705078125,-0.07555096596479416,0.3691565990447998,0.18334592878818512
1782987696830844400,7.099844482421875,-0.042637329548597336,0.3214515745639801,0.3002925217151642
1782987696840919600,7.10991943359375,-0.02327961102128029,0.2540871798992157,0.37094351649284363
1782987696850994400,7.119994384765625,-0.021713873371481895,0.20220407843589783,0.37643271684646606
1782987696861068500,7.130068603515625,-0.017912743613123894,0.16610199213027954,0.33035391569137573
1782987696871143700,7.140143798828125,-0.01575174368917942,0.14194826781749725,0.23336157202720642
1782987696881217500,7.150217529296875,0.0002304174704477191,0.11822349578142166,0.1199876144528389
1782987696891292700,7.160292724609375,0.03477223217487335,0.10187383741140366,0.014927010983228683
1782987696901366500,7.170366455078125,0.07392043620347977,0.07699645310640335,-0.06907255202531815
1782987696911441700,7.180441650390625,0.10507763922214508,0.06079630181193352,-0.11420529335737228
1782987696921515500,7.190515625,0.12596748769283295,0.0505569763481617,-0.12519802153110504
1782987696931591000,7.2005908203125,0.1358345001935959,0.03172416612505913,-0.11948181688785553
1782987696941664800,7.210664794921875,0.1428987979888916,0.025683585554361343,-0.09600498527288437
1782987696951740000,7.220739990234375,0.15205897390842438,0.04632808268070221,-0.08593926578760147
1782987696961813800,7.230813720703125,0.1689085215330124,0.056881923228502274,-0.08821839839220047
1782987696971889000,7.240888916015625,0.20175981521606445,0.04093174636363983,-0.09900537133216858
1782987696981963500,7.250963623046875,0.23668770492076874,0.034328971058130264,-0.11076828837394714
1782987696992038000,7.261037841796875,0.2662549316883087,0.035496242344379425,-0.10917580127716064
1782987697002112500,7.271112548828125,0.28905507922172546,0.040191661566495895,-0.1084522232413292
1782987697012187000,7.281186767578125,0.3157738745212555,0.05284186452627182,-0.11172597110271454
1782987697022261500,7.291261474609375,0.3507063090801239,0.07206188887357712,-0.11849146336317062
1782987697032336000,7.3013359375,0.3879506587982178,0.08368494361639023,-0.12321814894676208
1782987697042410500,7.311410400390625,0.4132693111896515,0.11502795666456223,-0.1084277555346489
1782987697052484900,7.32148486328125,0.43535318970680237,0.16264808177947998,-0.06640984863042831
1782987697062559500,7.3315595703125,0.463774174451828,0.1950337290763855,0.003841414814814925
1782987697072633900,7.3416337890625,0.4928087592124939,0.2318028062582016,0.10422812402248383
1782987697082708500,7.35170849609375,0.5175125002861023,0.2889995276927948,0.22485174238681793
1782987697092783600,7.36178369140625,0.5208051800727844,0.3673633933067322,0.34270814061164856
1782987697102857700,7.371857666015625,0.5155220031738281,0.458979070186615,0.4395206868648529
1782987697112932600,7.3819326171875,0.5125337839126587,0.5204033851623535,0.4845719039440155
1782987697123006700,7.3920068359375,0.5257244110107422,0.5381978154182434,0.4948977828025818
1782987697133081600,7.40208154296875,0.5452828407287598,0.5240946412086487,0.44810351729393005
1782987697143155700,7.41215576171875,0.5599296689033508,0.468845009803772,0.3571973145008087
1782987697153230600,7.422230712890625,0.5563389658927917,0.39077892899513245,0.24278752505779266
1782987697163304700,7.4323046875,0.5444119572639465,0.30597642064094543,0.13199816644191742
1782987697173379600,7.442379638671875,0.5267108678817749,0.23391512036323547,0.055762551724910736
1782987697183453700,7.45245361328125,0.522293746471405,0.24158743023872375,0.02035369537770748
1782987697193528600,7.462528564453125,0.5310326814651489,0.3333531320095062,0.030685771256685257
1782987697203603700,7.472603759765625,0.5437151789665222,0.3633858859539032,0.04867968335747719
1782987697213677600,7.482677490234375,0.53687983751297,0.22429706156253815,0.01906191185116768
1782987697223752700,7.492752685546875,0.4924500286579132,-0.03955162689089775,-0.07741456478834152
1782987697233826600,7.50282666015625,0.41995763778686523,-0.342963308095932,-0.2207566499710083
1782987697243901700,7.512901611328125,0.3360728621482849,-0.5862531661987305,-0.36777886748313904
1782987697253975600,7.5229755859375,0.23005756735801697,-0.7045361995697021,-0.47566357254981995
1782987697264050700,7.53305078125,0.11242014914751053,-0.692593514919281,-0.522626519203186
1782987697274124500,7.54312451171875,-0.0033080331049859524,-0.4939526915550232,-0.5111199021339417
1782987697284199700,7.55319970703125,-0.11046963930130005,-0.13637909293174744,-0.4772469103336334
1782987697294273500,7.5632734375,-0.21640293300151825,0.21931248903274536,-0.44537830352783203
1782987697304348700,7.5733486328125,-0.28889763355255127,0.501025378704071,-0.3918556869029999
1782987697314422500,7.583422607421875,-0.306927353143692,0.7350194454193115,-0.32114291191101074
1782987697324497700,7.59349755859375,-0.28523004055023193,0.8692007064819336,-0.2433738261461258
1782987697334572800,7.60357275390625,-0.24709053337574005,0.863287091255188,-0.1745517998933792
1782987697344646700,7.613646728515625,-0.20295450091362,0.7534313797950745,-0.12692755460739136
1782987697354721800,7.6237216796875,-0.16205419600009918,0.5465485453605652,-0.13105997443199158
1782987697364795600,7.633795654296875,-0.13477571308612823,0.24605979025363922,-0.18538953363895416
1782987697374870800,7.643870849609375,-0.11086496710777283,-0.060063209384679794,-0.2739836275577545
1782987697384944600,7.653944580078125,-0.0685713067650795,-0.25362762808799744,-0.35801807045936584
1782987697395019800,7.664019775390625,-0.018046783283352852,-0.2800312936306,-0.4380224347114563
1782987697405093600,7.67409375,0.022299841046333313,-0.20596691966056824,-0.5258891582489014
1782987697415168800,7.684168701171875,0.06730889528989792,-0.10492418706417084,-0.6160284876823425
1782987697425242600,7.69424267578125,0.1268577128648758,-0.026817670091986656,-0.6907528042793274
1782987697435317800,7.70431787109375,0.19954155385494232,0.006389674264937639,-0.7235371470451355
1782987697445391600,7.7143916015625,0.27732396125793457,0.04000329598784447,-0.7054859399795532
1782987697455466800,7.724466796875,0.3583637773990631,0.08330045640468597,-0.6317680478096008
1782987697465541600,7.734541748046875,0.43582528829574585,0.1425936073064804,-0.5234535336494446
1782987697475615700,7.74461572265625,0.4995462894439697,0.2243904173374176,-0.4045698642730713
1782987697485691000,7.75469091796875,0.5494936108589172,0.32411623001098633,-0.2897213101387024
1782987697495764700,7.7647646484375,0.5847537517547607,0.4087112247943878,-0.1920604109764099
1782987697505839900,7.77483984375,0.6151800751686096,0.45999279618263245,-0.10470979660749435
1782987697515913700,7.784913818359375,0.6533563137054443,0.5095107555389404,-0.03460017591714859
1782987697525988900,7.79498876953125,0.7006607055664062,0.5760977864265442,0.02455954998731613
1782987697536062700,7.805062744140625,0.7480673789978027,0.6375464797019958,0.0682821199297905
1782987697546137900,7.815137939453125,0.7810839414596558,0.6657232046127319,0.08480517566204071
1782987697556211700,7.825211669921875,0.8068472146987915,0.6545655727386475,0.06838574260473251
1782987697566286800,7.835286865234375,0.8159890174865723,0.6189220547676086,0.020062154158949852
1782987697576361700,7.84536181640625,0.8231320381164551,0.5599520206451416,-0.03323807939887047
1782987697586435800,7.855435791015625,0.8274838924407959,0.44946226477622986,-0.08069640398025513
1782987697596510700,7.8655107421875,0.8233311176300049,0.3399581015110016,-0.09881938248872757
1782987697606584800,7.875584716796875,0.8185544610023499,0.26758137345314026,-0.09124268591403961
1782987697616659700,7.88565966796875,0.8203916549682617,0.24490459263324738,-0.06508584320545197
1782987697626733800,7.89573388671875,0.8349277377128601,0.2570193111896515,-0.03932082653045654
1782987697636808700,7.90580859375,0.8582143783569336,0.2915004789829254,-0.020388487726449966
1782987697646882800,7.9158828125,0.8753427863121033,0.32137903571128845,-0.016398806124925613
1782987697656957700,7.925957763671875,0.8887774348258972,0.3401945233345032,-0.021339118480682373
1782987697667031800,7.93603173828125,0.8967003226280212,0.3275706171989441,-0.018649058416485786
1782987697677106700,7.946106689453125,0.9050624370574951,0.3028216063976288,0.010876113548874855
1782987697687180800,7.956180908203125,0.9065136313438416,0.28767192363739014,0.07431340962648392
1782987697697255700,7.966255615234375,0.8959493637084961,0.2743432819843292,0.14807327091693878
1782987697707330800,7.976330810546875,0.8790960907936096,0.2610812783241272,0.22527989745140076
1782987697717404700,7.98640478515625,0.8633339405059814,0.24701209366321564,0.2838987708091736
1782987697727479800,7.996479736328125,0.8506564497947693,0.23410826921463013,0.3027499318122864
1782987697737553700,8.0065537109375,0.8454629778862,0.2267620861530304,0.30150774121284485
1782987697747628800,8.01662890625,0.8519310355186462,0.24648305773735046,0.2856872081756592
1782987697757703000,8.026702880859375,0.8547697067260742,0.2761715352535248,0.261863112449646
1782987697767777800,8.03677783203125,0.8549444675445557,0.30195146799087524,0.22999651730060577
1782987697777852000,8.046851806640625,0.8519774079322815,0.36401689052581787,0.1966300755739212
1782987697787926800,8.0569267578125,0.8488924503326416,0.42520594596862793,0.15976233780384064
1782987697798001000,8.0670009765625,0.8421440124511719,0.44155099987983704,0.11082645505666733
1782987697808075800,8.07707568359375,0.8295235633850098,0.36510124802589417,0.04758436605334282
1782987697818150700,8.087150634765624,0.8186970949172974,0.22719046473503113,-0.006167354993522167
1782987697828224800,8.097224853515625,0.8237824440002441,0.12767720222473145,-0.01884773001074791
1782987697838299600,8.107299560546876,0.841295063495636,0.09508664160966873,0.009739324450492859
1782987697848373800,8.117373779296875,0.8748309016227722,0.11378683149814606,0.07491087168455124
1782987697858448600,8.12744873046875,0.9189660549163818,0.207846999168396,0.17113350331783295
1782987697868522800,8.137522705078124,0.9848436117172241,0.3823903203010559,0.2763177156448364
1782987697878597600,8.14759765625,1.0648049116134644,0.5904867649078369,0.3727923035621643
1782987697888671700,8.157671630859374,1.1359021663665771,0.8163960576057434,0.44869211316108704
1782987697898746600,8.16774658203125,1.2079837322235107,1.0158274173736572,0.5044797658920288
1782987697908820700,8.17782080078125,1.2886778116226196,1.115291953086853,0.5373793840408325
1782987697918895600,8.1878955078125,1.3774082660675049,1.0754740238189697,0.5487678647041321
1782987697928969500,8.197969482421875,1.4555115699768066,0.9468609690666199,0.5366405844688416
1782987697939044400,8.20804443359375,1.5098085403442383,0.746859073638916,0.4885527491569519
1782987697949119200,8.218119140625,1.5341533422470093,0.5568084716796875,0.4089319407939911
1782987697959193300,8.228193359375,1.5364888906478882,0.4952766001224518,0.3155544698238373
1782987697969268200,8.238268310546875,1.537542462348938,0.5865747928619385,0.2196870893239975
1782987697979342300,8.24834228515625,1.5456132888793945,0.7774581909179688,0.13432230055332184
1782987697989417200,8.258417236328125,1.5684752464294434,1.0358052253723145,0.06360233575105667
1782987697999491300,8.2684912109375,1.611149549484253,1.2600336074829102,0.0044592274352908134
1782987698009566200,8.278566162109374,1.6571298837661743,1.3590645790100098,-0.03844962269067764
1782987698019640300,8.288640380859375,1.701282262802124,1.3591763973236084,-0.05071382224559784
1782987698029715200,8.298715087890624,1.7292596101760864,1.3259217739105225,-0.037512533366680145
1782987698039789300,8.308789306640625,1.740806221961975,1.3087410926818848,-0.00445752777159214
1782987698049864200,8.3188642578125,1.7347033023834229,1.3199971914291382,0.01437634788453579
1782987698059939300,8.328939208984375,1.7265702486038208,1.3491958379745483,0.006835829000920057
1782987698070013200,8.33901318359375,1.726101279258728,1.3633912801742554,-0.04145553708076477
1782987698080088300,8.34908837890625,1.731019377708435,1.3396587371826172,-0.13352802395820618
1782987698090162200,8.359162109375,1.7497081756591797,1.277955412864685,-0.25032228231430054
1782987698100237300,8.3692373046875,1.7891544103622437,1.2112219333648682,-0.3643656075000763
1782987698110311200,8.379311279296875,1.830268383026123,1.1373647451400757,-0.4560491740703583
1782987698120386300,8.38938623046875,1.8643995523452759,1.0587434768676758,-0.5058396458625793
1782987698130460200,8.399460205078125,1.8889405727386475,1.0032767057418823,-0.5058031678199768
1782987698140535300,8.409535400390626,1.9127885103225708,0.9666547179222107,-0.462274968624115
1782987698150609400,8.419609375,1.945976734161377,0.9473108649253845,-0.40782079100608826
1782987698160684300,8.429684326171875,1.9778789281845093,0.9461625814437866,-0.36239543557167053
1782987698170758400,8.43975830078125,2.0138471126556396,0.9439151287078857,-0.3336324989795685
1782987698180833300,8.449833251953125,2.0438108444213867,0.9451475739479065,-0.32903391122817993
1782987698190908400,8.459908447265626,2.070162296295166,0.968120276927948,-0.33409443497657776
1782987698200982300,8.469982177734375,2.085998058319092,1.0217111110687256,-0.34797924757003784
1782987698211057400,8.480057373046876,2.091165781021118,1.1071964502334595,-0.3614838719367981
1782987698221131300,8.49013134765625,2.1012158393859863,1.2224645614624023,-0.35736432671546936
1782987698231206400,8.500206298828125,2.124826431274414,1.3455848693847656,-0.33628249168395996
1782987698241280300,8.5102802734375,2.1592319011688232,1.4081274271011353,-0.310732901096344
1782987698251355400,8.52035546875,2.2039599418640137,1.361547589302063,-0.28072628378868103
1782987698261429200,8.53042919921875,2.24605131149292,1.2862836122512817,-0.2455790638923645
1782987698271504400,8.54050439453125,2.2933225631713867,1.2107173204421997,-0.19686798751354218
1782987698281578200,8.550578125,2.326655149459839,1.1495730876922607,-0.14489787817001343
1782987698291653400,8.5606533203125,2.339064836502075,1.112646222114563,-0.09472553431987762
1782987698301727200,8.570727294921875,2.3338623046875,1.105613350868225,-0.0648421198129654
1782987698311802400,8.58080224609375,2.3230583667755127,1.1510179042816162,-0.038983091711997986
1782987698321877500,8.59087744140625,2.3193562030792236,1.2354354858398438,0.007934505119919777
1782987698331951400,8.600951416015626,2.322979688644409,1.3281611204147339,0.08344337344169617
1782987698342026500,8.611026611328125,2.3346476554870605,1.4856321811676025,0.18127767741680145
1782987698352100400,8.621100341796875,2.3378710746765137,1.73358154296875,0.271099716424942
1782987698362175500,8.631175537109375,2.335880756378174,1.965584397315979,0.3180314004421234
1782987698372249300,8.641249267578125,2.364036798477173,2.077019214630127,0.31225475668907166
1782987698382324500,8.651324462890624,2.4319257736206055,2.052018880844116,0.2582760155200958
1782987698392398300,8.6613984375,2.4940106868743896,1.8306297063827515,0.1482754647731781
1782987698402473500,8.671473388671876,2.5245375633239746,1.4139281511306763,-0.0005523894797079265
1782987698412547300,8.68154736328125,2.5231990814208984,1.031546711921692,-0.13302361965179443
1782987698422622500,8.69162255859375,2.4821624755859375,0.8713108897209167,-0.2128884196281433
1782987698432696300,8.7016962890625,2.3870041370391846,0.9440551400184631,-0.23162615299224854
1782987698442771500,8.711771484375,2.285844564437866,1.1804453134536743,-0.2002369910478592
1782987698452846300,8.721846435546874,2.2077338695526123,1.4923442602157593,-0.1390831023454666
1782987698462920400,8.73192041015625,2.153352975845337,1.7396271228790283,-0.08047594130039215
1782987698472995300,8.741995361328126,2.1214680671691895,1.8327772617340088,-0.05366935953497887
1782987698483069400,8.7520693359375,2.106597661972046,1.7889950275421143,-0.05827625095844269
1782987698493144300,8.762144287109376,2.111067533493042,1.6637399196624756,-0.0780683383345604
1782987698503218400,8.772218505859374,2.1131293773651123,1.5040916204452515,-0.10721693187952042
1782987698513293300,8.782293212890625,2.11042857170105,1.3782018423080444,-0.13659211993217468
1782987698523367400,8.792367431640624,2.100959539413452,1.320732831954956,-0.157834991812706
1782987698533442600,8.802442626953125,2.08785343170166,1.3328747749328613,-0.1810218095779419
1782987698543516400,8.812516357421876,2.0674924850463867,1.410223126411438,-0.20800133049488068
1782987698553591600,8.822591552734375,2.056830406188965,1.5624563694000244,-0.2261401265859604
1782987698563666400,8.83266650390625,2.0536229610443115,1.747456431388855,-0.24851775169372559
1782987698573740500,8.842740478515625,2.0543746948242188,1.8726845979690552,-0.257112592458725
1782987698583815400,8.8528154296875,2.067065715789795,1.8951417207717896,-0.26695749163627625
1782987698593889500,8.8628896484375,2.0966153144836426,1.8356374502182007,-0.24896995723247528
1782987698603964400,8.87296435546875,2.139984369277954,1.724715232849121,-0.2147381454706192
1782987698614038500,8.88303857421875,2.161123275756836,1.5747731924057007,-0.1892136037349701
1782987698624113400,8.893113525390625,2.146895170211792,1.4230270385742188,-0.18161574006080627
1782987698634187500,8.9031875,2.1088061332702637,1.3253183364868164,-0.19819578528404236
1782987698644262400,8.913262451171875,2.064739942550659,1.2744874954223633,-0.23818419873714447
1782987698654336500,8.92333642578125,2.023578405380249,1.2587860822677612,-0.2948695719242096
1782987698664411400,8.933411376953124,1.991955041885376,1.2640695571899414,-0.34527671337127686
1782987698674485500,8.943485595703125,1.9708210229873657,1.2961934804916382,-0.3841434121131897
1782987698684560400,8.953560302734376,1.9658985137939453,1.3198291063308716,-0.4113611578941345
1782987698694635300,8.96363525390625,1.980127215385437,1.286839246749878,-0.4105568826198578
1782987698704709400,8.97370947265625,2.01473069190979,1.2606921195983887,-0.3766510486602783
1782987698714784300,8.9837841796875,2.0512871742248535,1.2486306428909302,-0.30824294686317444
1782987698724858400,8.9938583984375,2.0690207481384277,1.2486222982406616,-0.23575687408447266
1782987698734933500,9.00393359375,2.048213243484497,1.2804944515228271,-0.17090463638305664
1782987698745007400,9.01400732421875,1.9935815334320068,1.3191874027252197,-0.13592033088207245
1782987698755082500,9.02408251953125,1.9186948537826538,1.3412082195281982,-0.13991081714630127
1782987698765156400,9.03415625,1.8385798931121826,1.3404306173324585,-0.16935917735099792
1782987698775231500,9.0442314453125,1.7707252502441406,1.3275030851364136,-0.21218998730182648
1782987698785305600,9.0543056640625,1.7111626863479614,1.3163752555847168,-0.26364365220069885
1782987698795380500,9.06438037109375,1.6579079627990723,1.3089399337768555,-0.30688220262527466
1782987698805454600,9.07445458984375,1.6124509572982788,1.2977497577667236,-0.3415595591068268
1782987698815529500,9.084529541015625,1.5643558502197266,1.2426739931106567,-0.36098676919937134
1782987698825604400,9.094604248046876,1.531084656715393,1.1749707460403442,-0.336221843957901
1782987698835678500,9.104678466796875,1.5134385824203491,1.1152455806732178,-0.2803894579410553
1782987698845753300,9.11475341796875,1.5005199909210205,1.0465381145477295,-0.19791170954704285
1782987698855827500,9.124827392578124,1.4924567937850952,1.003173589706421,-0.10711657255887985
1782987698865902300,9.13490234375,1.4907047748565674,1.0074857473373413,-0.014382411725819111
1782987698875976400,9.1449765625,1.4852218627929688,1.028886318206787,0.06363941729068756
1782987698886051300,9.15505126953125,1.4664140939712524,1.0573549270629883,0.10988152772188187
1782987698896125400,9.16512548828125,1.439471960067749,1.0900439023971558,0.1314302384853363
1782987698906200300,9.175200439453125,1.4051252603530884,1.1291017532348633,0.13360625505447388
1782987698916274400,9.1852744140625,1.3612595796585083,1.0993595123291016,0.12306680530309677
1782987698926349300,9.195349365234375,1.3037796020507812,0.9136831164360046,0.09328599274158478
1782987698936423700,9.205423583984375,1.2285668849945068,0.5804479122161865,0.04067764803767204
1782987698946498600,9.21549853515625,1.124335765838623,0.21628981828689575,-0.02976083569228649
1782987698956573700,9.22557373046875,0.9907553195953369,-0.02387085184454918,-0.10982131212949753
1782987698966647600,9.2356474609375,0.8657798767089844,-0.04446309432387352,-0.17055317759513855
1782987698976722700,9.24572265625,0.7779421806335449,0.14725333452224731,-0.1731199324131012
1782987698986796500,9.255796630859376,0.7231714129447937,0.47529125213623047,-0.12467144429683685
1782987698996871700,9.26587158203125,0.6936883926391602,0.8292949199676514,-0.045000847429037094
1782987699006945500,9.275945556640625,0.663135826587677,1.09784734249115,0.03561650216579437
1782987699017020700,9.286020751953124,0.6409216523170471,1.183411955833435,0.08893565088510513
1782987699027094500,9.296094482421875,0.6330332159996033,1.1212471723556519,0.12535007297992706
1782987699037169700,9.306169677734376,0.629020631313324,1.0016851425170898,0.1588965803384781
1782987699047243500,9.316243408203125,0.6227403879165649,0.896399199962616,0.18788717687129974
1782987699057318700,9.326318603515626,0.6213645935058594,0.8024184107780457,0.19659331440925598
1782987699067392800,9.336392822265625,0.6310471296310425,0.7047433853149414,0.16849811375141144
1782987699077467600,9.346467529296875,0.6522049307823181,0.583949089050293,0.0881822407245636
1782987699087542800,9.356542724609374,0.6821556091308594,0.4631287753582001,-0.018620947375893593
1782987699097616600,9.36661669921875,0.714085578918457,0.35373303294181824,-0.14485451579093933
1782987699107691800,9.37669189453125,0.7457008361816406,0.27806636691093445,-0.2645772695541382
1782987699117765600,9.386765625,0.774376630783081,0.24851645529270172,-0.3587668836116791
1782987699127840800,9.3968408203125,0.7886277437210083,0.24422284960746765,-0.430931031703949
1782987699137914600,9.40691455078125,0.7868820428848267,0.24641570448875427,-0.47680559754371643
1782987699147989800,9.41698974609375,0.7613456845283508,0.25434789061546326,-0.5019347071647644
1782987699158063600,9.427063720703124,0.7355610132217407,0.26294219493865967,-0.5180545449256897
1782987699168138800,9.437138671875,0.7100098729133606,0.26179149746894836,-0.5224330425262451
1782987699178212600,9.447212646484376,0.6981760859489441,0.27639174461364746,-0.5110499262809753
1782987699188287700,9.457287841796875,0.6897999048233032,0.3108508586883545,-0.48970144987106323
1782987699198361600,9.467361572265625,0.6960210204124451,0.3574031889438629,-0.45091596245765686
1782987699208436700,9.477436767578125,0.7055328488349915,0.3990621864795685,-0.407279372215271
1782987699218512000,9.487511962890625,0.7278727889060974,0.42724189162254333,-0.36249271035194397
1782987699228585700,9.497585693359374,0.7496076822280884,0.45970413088798523,-0.32038363814353943
1782987699238660900,9.507660888671875,0.770775556564331,0.4827631115913391,-0.28856152296066284
1782987699248734700,9.517734619140626,0.7868967652320862,0.47663581371307373,-0.2687973380088806
1782987699258809900,9.527809814453125,0.7910726070404053,0.4363773465156555,-0.2563183009624481
1782987699268883700,9.5378837890625,0.7909822463989258,0.3939032554626465,-0.23394760489463806
1782987699278958800,9.547958740234375,0.7801929712295532,0.36312028765678406,-0.20099951326847076
1782987699289032700,9.55803271484375,0.7634831070899963,0.3303379416465759,-0.15803152322769165
1782987699299107800,9.56810791015625,0.7399939894676208,0.29071518778800964,-0.12228070944547653
1782987699309181700,9.578181640625,0.7157150506973267,0.2502250671386719,-0.10051938146352768
1782987699319256800,9.5882568359375,0.6909084916114807,0.19194017350673676,-0.10550827533006668
1782987699329330700,9.59833056640625,0.6670397520065308,0.12785746157169342,-0.13469958305358887
1782987699339405800,9.60840576171875,0.6393061280250549,0.06763487309217453,-0.18395261466503143
1782987699349480700,9.618480712890625,0.594954252243042,0.009870350360870361,-0.23656857013702393
1782987699359554800,9.628554931640625,0.5370321273803711,-0.058877553790807724,-0.28297334909439087
1782987699369629700,9.638629638671874,0.4856858253479004,-0.12656596302986145,-0.3077680170536041
1782987699379703800,9.648703857421875,0.46075570583343506,-0.1715475469827652,-0.3102295696735382
1782987699389778700,9.65877880859375,0.4667882025241852,-0.17794863879680634,-0.28189322352409363
1782987699399852800,9.668852783203125,0.4742077887058258,-0.15648435056209564,-0.2290681004524231
1782987699409927700,9.678927734375,0.491641640663147,-0.05325836315751076,-0.135194331407547
1782987699420001800,9.689001708984375,0.5160210132598877,0.10927248746156693,-0.02126137912273407
1782987699430076700,9.69907666015625,0.5327049493789673,0.24146202206611633,0.09351328760385513
1782987699440150800,9.70915087890625,0.5382198095321655,0.2797737121582031,0.19307902455329895
1782987699450226000,9.719225830078125,0.5187103748321533,0.2571672797203064,0.28443729877471924
1782987699460300800,9.72930078125,0.4778982698917389,0.22478696703910828,0.36291053891181946
1782987699470375000,9.739375,0.42826518416404724,0.24389077723026276,0.4097575843334198
1782987699480449800,9.74944970703125,0.378328800201416,0.30963942408561707,0.42686280608177185
1782987699490524000,9.75952392578125,0.3339725136756897,0.34462982416152954,0.4054408073425293
1782987699500598800,9.769598876953125,0.2867208421230316,0.32937362790107727,0.3491477370262146
1782987699510673000,9.7796728515625,0.2372758835554123,0.3219929039478302,0.2808164954185486
1782987699520747800,9.789747802734375,0.20073464512825012,0.3778519034385681,0.21614378690719604
1782987699530822000,9.79982177734375,0.1790919303894043,0.5083469152450562,0.14916999638080597
1782987699540896800,9.809896728515625,0.1845913678407669,0.671395480632782,0.08706054836511612
1782987699550971000,9.819970947265626,0.21236133575439453,0.6852075457572937,0.016325024887919426
1782987699561045800,9.830045654296875,0.25371038913726807,0.5125390887260437,-0.06216792017221451
1782987699571119900,9.840119873046875,0.2791902422904968,0.2807671129703522,-0.12325094640254974
1782987699581194800,9.85019482421875,0.28199028968811035,0.09457645565271378,-0.15583498775959015
1782987699591268900,9.860268798828125,0.28014540672302246,0.024627765640616417,-0.14832532405853271
1782987699601343700,9.87034375,0.2702331244945526,0.06619971245527267,-0.12622109055519104
1782987699611418600,9.880418701171875,0.25448721647262573,0.14907771348953247,-0.10702231526374817
1782987699621492700,9.89049267578125,0.23745712637901306,0.23496519029140472,-0.09876199066638947
1782987699631567600,9.900567626953125,0.21290169656276703,0.3088686168193817,-0.09724140167236328
1782987699641641700,9.910641845703125,0.19421616196632385,0.3614082634449005,-0.07733294367790222
1782987699651715800,9.9207158203125,0.19439758360385895,0.4367929697036743,-0.03708292543888092
1782987699661789700,9.930789794921875,0.2116127908229828,0.5209488868713379,0.0441402904689312
1782987699671864800,9.94086474609375,0.24113591015338898,0.5923041701316833,0.13671371340751648
1782987699681938700,9.950938720703125,0.2746802866458893,0.6111156940460205,0.23139627277851105
1782987699692013800,9.961013916015625,0.3096853196620941,0.5236098170280457,0.28609955310821533
1782987699702087700,9.971087646484374,0.3484926223754883,0.3715638518333435,0.2984054982662201
1782987699712162800,9.981162841796875,0.3830870985984802,0.23695522546768188,0.27037063241004944
1782987699722236700,9.991236572265626,0.4024679958820343,0.13209353387355804,0.20502197742462158
1782987699732311800,10.001311767578125,0.40928521752357483,0.028578391298651695,0.10738930851221085
1782987699742387000,10.011386962890626,0.41098326444625854,-0.07167097926139832,0.0020844540558755398
1782987699752460800,10.021460693359375,0.41499820351600647,-0.15209689736366272,-0.08501499891281128
1782987699762536000,10.031535888671876,0.4196251928806305,-0.20440484583377838,-0.1299840658903122
1782987699772609800,10.04160986328125,0.4040256440639496,-0.24207885563373566,-0.13828045129776
1782987699782685000,10.051684814453125,0.37491488456726074,-0.28757336735725403,-0.12193185091018677
1782987699792758800,10.0617587890625,0.32576078176498413,-0.3307965397834778,-0.10634490102529526
1782987699802834000,10.071833984375,0.2717529535293579,-0.3386153280735016,-0.10177092254161835
1782987699812907800,10.08190771484375,0.21791748702526093,-0.3032059669494629,-0.0994504988193512
1782987699822983000,10.09198291015625,0.16590408980846405,-0.223562553524971,-0.10116610676050186
1782987699833056800,10.102056884765625,0.10660214722156525,-0.1077585518360138,-0.09884870052337646
1782987699843132000,10.1121318359375,0.04496221989393234,0.031819313764572144,-0.09119770675897598
1782987699853206500,10.12220654296875,-0.014670658856630325,0.16295136511325836,-0.07745808362960815
1782987699863281000,10.132281005859374,-0.06728939712047577,0.24715039134025574,-0.054705627262592316
1782987699873355500,10.14235546875,-0.11018335074186325,0.2695249915122986,-0.017796503379940987
1782987699883430000,10.152429931640626,-0.15394628047943115,0.2442159205675125,0.035424377769231796
1782987699893504500,10.16250439453125,-0.20218588411808014,0.2176618129014969,0.09545952081680298
1782987699903579000,10.172578857421875,-0.27201157808303833,0.18366177380084991,0.14925776422023773
1782987699913653500,10.182653564453124,-0.346101313829422,0.12887637317180634,0.1613863706588745
1782987699923728000,10.192727783203125,-0.4008750915527344,0.031703222543001175,0.14525747299194336
1782987699933803300,10.20280322265625,-0.42272382974624634,-0.009911851026117802,0.12033804506063461
1782987699943877000,10.212877197265625,-0.43297886848449707,0.036673761904239655,0.0756392851471901
1782987699953952300,10.2229521484375,-0.44921714067459106,0.04982084408402443,0.009619638323783875
1782987699964026000,10.233026123046875,-0.44711244106292725,0.006989492103457451,-0.05401792749762535
1782987699974101200,10.243101318359376,-0.42990052700042725,-0.03775189816951752,-0.10523321479558945
1782987699984175000,10.253175048828124,-0.41332581639289856,-0.08559931069612503,-0.14911624789237976
1782987699994250200,10.263250244140625,-0.40974655747413635,-0.17936153709888458,-0.17862696945667267
1782987700004325000,10.2733251953125,-0.42804139852523804,-0.28775328397750854,-0.16967926919460297
1782987700014400300,10.283400146484375,-0.46169155836105347,-0.36202436685562134,-0.11029147356748581
1782987700024474000,10.29347412109375,-0.5133691430091858,-0.4003826677799225,-0.0028925761580467224
1782987700034549200,10.30354931640625,-0.5913141369819641,-0.37760740518569946,0.10799194872379303
1782987700044623000,10.313623046875,-0.6737834811210632,-0.30336645245552063,0.18037401139736176
1782987700054698200,10.3236982421875,-0.7435281276702881,-0.24122357368469238,0.2072918564081192
1782987700064772000,10.333772216796875,-0.801216185092926,-0.22600041329860687,0.20549741387367249
1782987700074847200,10.34384716796875,-0.8334197402000427,-0.2612883150577545,0.19764968752861023
1782987700084922400,10.35392236328125,-0.8288665413856506,-0.32630035281181335,0.21657012403011322
1782987700094996200,10.363996337890624,-0.7708914875984192,-0.3703128397464752,0.2642853856086731
1782987700105071400,10.3740712890625,-0.6976361870765686,-0.37919339537620544,0.3012958765029907
1782987700115145200,10.384145263671876,-0.6297001242637634,-0.3999081254005432,0.30624791979789734
1782987700125220400,10.394220458984375,-0.5891345739364624,-0.4516560137271881,0.28122031688690186
1782987700135294200,10.404294189453125,-0.5756134390830994,-0.49083977937698364,0.25648176670074463
1782987700145369300,10.414369384765624,-0.5761258006095886,-0.40558159351348877,0.24370472133159637
1782987700155443200,10.424443115234375,-0.5653857588768005,-0.25046268105506897,0.26307305693626404
1782987700165518300,10.434518310546874,-0.5489814877510071,-0.19892385601997375,0.26374924182891846
1782987700175592200,10.44459228515625,-0.5626196265220642,-0.24079491198062897,0.2092294991016388
1782987700185667300,10.454667236328126,-0.6262329816818237,-0.3701547682285309,0.09985347837209702
1782987700195741200,10.4647412109375,-0.7218929529190063,-0.537365734577179,-0.04864583536982536
1782987700205816300,10.47481640625,-0.8110572099685669,-0.638005793094635,-0.20545434951782227
1782987700215891200,10.48489111328125,-0.899347186088562,-0.6329512596130371,-0.3310055732727051
1782987700225965300,10.49496533203125,-0.9708359837532043,-0.5137303471565247,-0.38367199897766113
1782987700236040200,10.505040283203124,-1.0046911239624023,-0.28002673387527466,-0.34281373023986816
1782987700246114300,10.5151142578125,-0.9877725839614868,0.002933855401352048,-0.22870928049087524
1782987700256189200,10.525189208984376,-0.9166127443313599,0.2704993784427643,-0.042602892965078354
1782987700266263300,10.53526318359375,-0.8253161311149597,0.48882025480270386,0.17682507634162903
1782987700276338200,10.545338134765625,-0.7364466786384583,0.5963563919067383,0.38927245140075684
1782987700286412300,10.555412353515624,-0.6655043363571167,0.5635715126991272,0.573284387588501
1782987700296487400,10.5654873046875,-0.6107764840126038,0.4302078187465668,0.711541473865509
1782987700306561300,10.575561279296876,-0.5788227915763855,0.2602345049381256,0.7733047008514404
1782987700316636400,10.585636474609375,-0.561446487903595,0.013738209381699562,0.7530871629714966
1782987700326710300,10.595710205078126,-0.5496574640274048,-0.327941358089447,0.6444176435470581
1782987700336785400,10.605785400390625,-0.5318490862846375,-0.6363292932510376,0.48555025458335876
1782987700346859300,10.615859375,-0.5106875896453857,-0.7723768353462219,0.28642144799232483
1782987700356934400,10.625934326171874,-0.5068236589431763,-0.766986072063446,0.08505992591381073
1782987700367009300,10.63600927734375,-0.5148717761039734,-0.6928514242172241,-0.07740195095539093
1782987700377083400,10.64608349609375,-0.5368300676345825,-0.5583447813987732,-0.18347030878067017
1782987700387158300,10.656158203125,-0.5905561447143555,-0.3713943362236023,-0.23024846613407135
1782987700397232400,10.666232421875,-0.6870300769805908,-0.20973755419254303,-0.11976604908704758
1782987700407307300,10.676307373046875,-0.8509732484817505,-0.21750546991825104,-0.035279665142297745
1782987700417381400,10.68638134765625,-0.9307613372802734,-0.3652917742729187,0.019881416112184525
1782987700427456300,10.696456298828124,-0.9409348368644714,-0.44217801094055176,0.046669088304042816
1782987700437530400,10.7065302734375,-0.974875807762146,-0.37266114354133606,0.0716598778963089
1782987700447605200,10.716605224609374,-1.0063751935958862,-0.2617114782333374,0.09395719319581985
1782987700457679400,10.726679443359375,-1.0032458305358887,-0.2175721526145935,0.16609303653240204
