time,seconds_elapsed,z,y,x
1782987722822698800,0.07369873046875,0.4166952073574066,-0.008923900313675404,0.006042218767106533
1782987722832772600,0.083772705078125,0.37958166003227234,-0.04216254875063896,0.010754150338470936
1782987722842847700,0.09384765625,0.3495733439922333,-0.06616639345884323,0.014708620496094227
1782987722852921600,0.103921630859375,0.3097819983959198,-0.06590194255113602,0.035743597894907
1782987722862996700,0.113996826171875,0.2637304365634918,-0.02157418057322502,0.051693327724933624
1782987722873070600,0.124070556640625,0.2099769115447998,0.02049470879137516,0.07645140588283539
1782987722883145700,0.134145751953125,0.14782798290252686,0.06992576271295547,0.1036422997713089
1782987722893219600,0.144219482421875,0.08464129269123077,0.14725597202777863,0.1229957640171051
1782987722903294700,0.154294677734375,0.028892643749713898,0.20407617092132568,0.11873818188905716
1782987722913368600,0.16436865234375,-0.03152276575565338,0.22121493518352509,0.10059832781553268
1782987722923443700,0.174443603515625,-0.08643414080142975,0.2192421555519104,0.08223037421703339
1782987722933517600,0.184517578125,-0.14997076988220215,0.17908115684986115,0.051946766674518585
1782987722943592700,0.1945927734375,-0.20531393587589264,0.08303138613700867,0.02004939317703247
1782987722953662000,0.204661865234375,-0.24524857103824615,-0.03662017732858658,-0.007683169096708298
1782987722963737000,0.214737060546875,-0.26651516556739807,-0.12795309722423553,-0.03695908188819885
1782987722973811200,0.224811279296875,-0.27223801612854004,-0.1584652066230774,-0.049431197345256805
1782987722983886000,0.234885986328125,-0.26124101877212524,-0.1321709156036377,-0.05423838645219803
1782987722993960200,0.244960205078125,-0.24648551642894745,-0.11122115701436996,-0.06947831809520721
1782987723004035000,0.25503515625,-0.22006118297576904,-0.14471399784088135,-0.10877151787281036
1782987723014109200,0.265109130859375,-0.193446084856987,-0.23484735190868378,-0.15486949682235718
1782987723024184000,0.27518408203125,-0.17318236827850342,-0.2925139367580414,-0.19616802036762238
1782987723034258200,0.285258056640625,-0.17275652289390564,-0.2536197900772095,-0.2173856943845749
1782987723044333000,0.2953330078125,-0.18617743253707886,-0.16424033045768738,-0.2096601128578186
1782987723054407200,0.3054072265625,-0.2080039083957672,-0.04462685063481331,-0.17175427079200745
1782987723064482000,0.31548193359375,-0.23261328041553497,0.07219469547271729,-0.1171569675207138
1782987723074556200,0.32555615234375,-0.24680793285369873,0.1761794090270996,-0.0665569081902504
1782987723084631000,0.335631103515625,-0.24928343296051025,0.21004384756088257,-0.030208498239517212
1782987723094705200,0.345705078125,-0.23968540132045746,0.15564212203025818,-0.004726307932287455
1782987723104780000,0.355780029296875,-0.2151033580303192,0.07892847806215286,0.015369084663689137
1782987723114854100,0.365854248046875,-0.18038025498390198,0.0303521566092968,0.042280592024326324
1782987723124929000,0.375928955078125,-0.13334432244300842,0.054687440395355225,0.07895439118146896
1782987723135004200,0.386004150390625,-0.0761907622218132,0.1433374136686325,0.1403711438179016
1782987723145078000,0.396078125,-0.0184133630245924,0.24083025753498077,0.22916971147060394
1782987723155153200,0.406153076171875,0.03187431022524834,0.37231770157814026,0.320902556180954
1782987723165227000,0.41622705078125,0.0576375387609005,0.4461248815059662,0.4205659329891205
1782987723175302100,0.42630224609375,0.05300523713231087,0.4273732900619507,0.5023837685585022
1782987723185376000,0.4363759765625,0.023792138323187828,0.329580157995224,0.5706110000610352
1782987723195451100,0.446451171875,-0.03064420446753502,0.21243461966514587,0.639426052570343
1782987723205525000,0.45652490234375,-0.09370601177215576,0.10971832275390625,0.7107838988304138
1782987723215600000,0.46660009765625,-0.15523488819599152,0.014323098585009575,0.7792087197303772
1782987723225674000,0.476674072265625,-0.19772383570671082,-0.08904864639043808,0.8235166668891907
1782987723235749000,0.4867490234375,-0.18310494720935822,-0.15905995666980743,0.8155725002288818
1782987723245823200,0.4968232421875,-0.12596142292022705,-0.1414187252521515,0.7686083316802979
1782987723255898000,0.506898193359375,-0.04747805744409561,-0.005144238471984863,0.697902500629425
1782987723265972200,0.51697216796875,0.028584666550159454,0.17336182296276093,0.5992589592933655
1782987723276047000,0.527047119140625,0.09095083922147751,0.3036889433860779,0.48616039752960205
1782987723286121200,0.537121337890625,0.13132773339748383,0.3835974633693695,0.37325334548950195
1782987723296196000,0.547196044921875,0.16552245616912842,0.44178032875061035,0.25212720036506653
1782987723306270200,0.557270263671875,0.19365768134593964,0.43825623393058777,0.1458490490913391
1782987723316345000,0.567344970703125,0.21464978158473969,0.3774871528148651,0.05391646549105644
1782987723326419200,0.577419189453125,0.229792520403862,0.29269060492515564,-0.007858937606215477
1782987723336494000,0.587494140625,0.2290486991405487,0.21544162929058075,-0.03929143026471138
1782987723346568200,0.597568115234375,0.210850790143013,0.16179117560386658,-0.05554842948913574
1782987723356643000,0.60764306640625,0.15333423018455505,0.051252152770757675,-0.07341158390045166
1782987723366717200,0.61771728515625,0.09635752439498901,0.058872561901807785,-0.07543107867240906
1782987723376792000,0.6277919921875,0.05275358259677887,0.0903782844543457,-0.0905034989118576
1782987723386866200,0.6378662109375,0.03791967034339905,0.13225260376930237,-0.12565146386623383
1782987723396941000,0.647941162109375,0.040111981332302094,0.17822329699993134,-0.14551357924938202
1782987723407015200,0.65801513671875,0.04776165261864662,0.1891588568687439,-0.15509264171123505
1782987723417090000,0.668090087890625,0.05232524499297142,0.17387445271015167,-0.15935689210891724
1782987723427164200,0.6781640625,0.06889588385820389,0.15923982858657837,-0.14742888510227203
1782987723437239000,0.688239013671875,0.09174447506666183,0.1506279706954956,-0.13430961966514587
1782987723447313200,0.698313232421875,0.12839870154857635,0.10391460359096527,-0.12294737249612808
1782987723457388000,0.708387939453125,0.17771218717098236,0.058750856667757034,-0.11450861394405365
1782987723467462100,0.718462158203125,0.24455976486206055,0.052429474890232086,-0.09762807935476303
1782987723477537000,0.728537109375,0.31167086958885193,0.09521502256393433,-0.08163632452487946
1782987723487612000,0.73861181640625,0.3613447844982147,0.13198222219944,-0.06083399057388306
1782987723497686300,0.748686279296875,0.40045517683029175,0.17458081245422363,-0.028944235295057297
1782987723507761000,0.758760986328125,0.422204852104187,0.2451382279396057,0.02949058823287487
1782987723517835300,0.768835205078125,0.4069254994392395,0.33306166529655457,0.11074762791395187
1782987723527910000,0.778909912109375,0.38436397910118103,0.40673816204071045,0.19885119795799255
1782987723537984300,0.788984375,0.3850470781326294,0.4537586569786072,0.2803383469581604
1782987723548059000,0.799058837890625,0.43085649609565735,0.5042607188224792,0.3451462686061859
1782987723558133200,0.80913330078125,0.4972682595252991,0.5304208993911743,0.3679431676864624
1782987723568208000,0.819207763671875,0.5684320330619812,0.5306134223937988,0.3568660020828247
1782987723578282200,0.8292822265625,0.6182038187980652,0.523512065410614,0.32628706097602844
1782987723588356900,0.83935693359375,0.6456325650215149,0.4997805655002594,0.2900264263153076
1782987723598431200,0.84943115234375,0.6371373534202576,0.43571820855140686,0.2489090859889984
1782987723608505900,0.859505859375,0.6010966897010803,0.37740063667297363,0.21091386675834656
1782987723618580200,0.869580322265625,0.5466864705085754,0.3157615065574646,0.17384453117847443
1782987723628654800,0.87965478515625,0.4999251067638397,0.27657896280288696,0.15100526809692383
1782987723638729200,0.889729248046875,0.46022430062294006,0.36441853642463684,0.14911575615406036
1782987723648803800,0.899803955078125,0.41090548038482666,0.6376200318336487,0.1472625434398651
1782987723658878200,0.909878173828125,0.3729221522808075,0.7836890816688538,0.11370271444320679
1782987723668952800,0.919952880859375,0.356122761964798,0.6951503753662109,0.025817185640335083
1782987723679027200,0.930027099609375,0.3301819860935211,0.5169175267219543,-0.08522863686084747
1782987723689101800,0.940101806640625,0.2916482090950012,0.2747817933559418,-0.20442067086696625
1782987723699176200,0.95017626953125,0.2575615644454956,0.0778636634349823,-0.3272251486778259
1782987723709250800,0.960250732421875,0.2378547340631485,0.09246737509965897,-0.4030078053474426
1782987723719325200,0.9703251953125,0.23256996273994446,0.23860087990760803,-0.42485636472702026
1782987723729399800,0.98039990234375,0.2417263239622116,0.4119236469268799,-0.3882697820663452
1782987723739474200,0.99047412109375,0.27047914266586304,0.5712443590164185,-0.29975348711013794
1782987723749548800,1.000548828125,0.31858107447624207,0.697563648223877,-0.18529380857944489
1782987723759623200,1.010623046875,0.3707673251628876,0.7627189755439758,-0.05746740847826004
1782987723769698000,1.020697998046875,0.4152657091617584,0.7641318440437317,0.07259425520896912
1782987723779772200,1.030772216796875,0.4438092112541199,0.7106366753578186,0.2104131132364273
1782987723789847000,1.040846923828125,0.4542609453201294,0.6182488799095154,0.33629193902015686
1782987723799921200,1.050921142578125,0.4706993103027344,0.4790387749671936,0.43841031193733215
1782987723809996000,1.06099609375,0.5002312660217285,0.3426506817340851,0.49646806716918945
1782987723820070100,1.071070068359375,0.5388321876525879,0.21338136494159698,0.5092291235923767
1782987723830145000,1.08114501953125,0.5697146058082581,0.11112824827432632,0.4863851070404053
1782987723840220000,1.091219970703125,0.595948338508606,0.01729309931397438,0.41675305366516113
1782987723850294000,1.1012939453125,0.625561535358429,-0.03639554977416992,0.3196468949317932
1782987723860369000,1.111368896484375,0.6516538858413696,-0.04323561489582062,0.20079585909843445
1782987723870443000,1.121443115234375,0.6669213771820068,-0.06488323956727982,0.05752059817314148
1782987723880518000,1.131517822265625,0.6715790033340454,-0.09500385820865631,-0.09077086299657822
1782987723890592000,1.141592041015625,0.6545644998550415,-0.12468171864748001,-0.21861203014850616
1782987723900667000,1.1516669921875,0.6131539940834045,-0.11081624031066895,-0.29352620244026184
1782987723910741000,1.161740966796875,0.5386547446250916,-0.015061357989907265,-0.3038346767425537
1782987723920815900,1.17181591796875,0.4425961375236511,0.10497796535491943,-0.2711978852748871
1782987723930890000,1.181889892578125,0.34075018763542175,0.19897913932800293,-0.2141404002904892
1782987723940964900,1.19196484375,0.2438659965991974,0.2737923860549927,-0.1637299507856369
1782987723951039000,1.2020390625,0.1551072895526886,0.3106395900249481,-0.1256374567747116
1782987723961114600,1.212114501953125,0.06741871684789658,0.2810167074203491,-0.09278789907693863
1782987723971188700,1.222188720703125,-0.01314493641257286,0.19493423402309418,-0.06453443318605423
1782987723981263600,1.232263671875,-0.07393372058868408,0.16634812951087952,0.005822021514177322
1782987723991337700,1.242337646484375,-0.11575039476156235,0.19961878657341003,0.09283945709466934
1782987724001412600,1.25241259765625,-0.12757694721221924,0.21852323412895203,0.19145524501800537
1782987724011486700,1.26248681640625,-0.1160103976726532,0.2381177842617035,0.3029000461101532
1782987724021561600,1.2725615234375,-0.13213637471199036,0.13025470077991486,0.39346829056739807
1782987724031635700,1.2826357421875,-0.15955869853496552,-0.04475533589720726,0.38783034682273865
1782987724041710800,1.2927109375,-0.14898088574409485,-0.20320144295692444,0.30752643942832947
1782987724051784700,1.30278466796875,-0.10720405727624893,-0.33054083585739136,0.19169805943965912
1782987724061859800,1.31285986328125,-0.08321403712034225,-0.36779338121414185,0.08874797821044922
1782987724071933700,1.32293359375,-0.10955321043729782,-0.3432486355304718,0.017672883346676826
1782987724082008800,1.3330087890625,-0.16303054988384247,-0.29336017370224,-0.04170522466301918
1782987724092082700,1.343082763671875,-0.2042924165725708,-0.23202186822891235,-0.1271190643310547
1782987724102157800,1.35315771484375,-0.2030567079782486,-0.25236523151397705,-0.24294313788414001
1782987724112231700,1.363231689453125,-0.15872006118297577,-0.2773100435733795,-0.3401774764060974
1782987724122306800,1.373306884765625,-0.10644141584634781,-0.14608381688594818,-0.3707852065563202
1782987724132380700,1.383380615234375,-0.07736971974372864,-0.019001178443431854,-0.330822616815567
1782987724142455800,1.393455810546875,-0.08941598981618881,0.0037438159342855215,-0.23964820802211761
1782987724152529700,1.40352978515625,-0.12178173661231995,-0.05999310314655304,-0.12175782769918442
1782987724162604800,1.413604736328125,-0.1501084417104721,-0.18604744970798492,0.00585046224296093
1782987724172678700,1.4236787109375,-0.1778864562511444,-0.3166203498840332,0.10520397871732712
1782987724182753800,1.43375390625,-0.21943630278110504,-0.4146481156349182,0.1545286476612091
1782987724192827600,1.44382763671875,-0.27113407850265503,-0.45997354388237,0.14657527208328247
1782987724202902800,1.45390283203125,-0.32763224840164185,-0.4722030460834503,0.08071795850992203
1782987724212977700,1.463977783203125,-0.3702473044395447,-0.465605765581131,-0.015269831754267216
1782987724223051800,1.4740517578125,-0.38915950059890747,-0.425446093082428,-0.11408349871635437
1782987724233126700,1.484126708984375,-0.3968893885612488,-0.36333683133125305,-0.19337481260299683
1782987724243200800,1.49420068359375,-0.4074011743068695,-0.2957545816898346,-0.21453441679477692
1782987724253275600,1.504275634765625,-0.44133099913597107,-0.23365116119384766,-0.1672074794769287
1782987724263349800,1.514349853515625,-0.4920373260974884,-0.12792153656482697,-0.07158135622739792
1782987724273424600,1.524424560546875,-0.5569405555725098,0.03558782860636711,0.048698730766773224
1782987724283498800,1.534498779296875,-0.6102157831192017,0.057087525725364685,0.13833753764629364
1782987724293574000,1.544573974609375,-0.6566146016120911,-0.1280301958322525,0.15812063217163086
1782987724303647700,1.554647705078125,-0.6991823315620422,-0.47574713826179504,0.07263129949569702
1782987724313723000,1.564722900390625,-0.7283403277397156,-0.8031498789787292,-0.09156429022550583
1782987724323796700,1.574796630859375,-0.7487603425979614,-0.939527690410614,-0.2900393009185791
1782987724333871900,1.584871826171875,-0.7777730822563171,-0.8500070571899414,-0.46522781252861023
1782987724343945700,1.59494580078125,-0.7946234345436096,-0.581141471862793,-0.5566770434379578
1782987724354020900,1.605020751953125,-0.8032897114753723,-0.25728639960289,-0.535397469997406
1782987724364094700,1.6150947265625,-0.8153897523880005,-0.0044365739449858665,-0.4054621458053589
1782987724374169900,1.625169921875,-0.8200637102127075,0.08244597911834717,-0.20920473337173462
1782987724384243700,1.63524365234375,-0.787977397441864,0.007807427551597357,-0.0022789721842855215
1782987724394318800,1.64531884765625,-0.7262870669364929,-0.15711426734924316,0.17939677834510803
1782987724404392700,1.655392822265625,-0.6421900391578674,-0.3337356448173523,0.2955479025840759
1782987724414467800,1.6654677734375,-0.5500428080558777,-0.5047515630722046,0.32705390453338623
1782987724424541700,1.675541748046875,-0.4603712558746338,-0.6296954154968262,0.28769877552986145
1782987724434616800,1.685616943359375,-0.39370062947273254,-0.6618849635124207,0.22441843152046204
1782987724444690700,1.695690673828125,-0.34192052483558655,-0.5937215685844421,0.15727055072784424
1782987724454765800,1.705765869140625,-0.3062157928943634,-0.4968447983264923,0.11100353300571442
1782987724464839700,1.715839599609375,-0.29260197281837463,-0.38059115409851074,0.0824805423617363
1782987724474914800,1.725914794921875,-0.3117881715297699,-0.3047667443752289,0.08818946033716202
1782987724484988700,1.73598876953125,-0.36418747901916504,-0.20393013954162598,0.14577312767505646
1782987724495063800,1.746063720703125,-0.45912307500839233,-0.07135459780693054,0.24182547628879547
1782987724505137700,1.7561376953125,-0.5569130778312683,0.04189232736825943,0.350820928812027
1782987724515212800,1.766212890625,-0.6249133348464966,0.13544440269470215,0.4538711905479431
1782987724525286700,1.77628662109375,-0.6452257633209229,0.19367389380931854,0.5315489172935486
1782987724535361800,1.78636181640625,-0.6233663558959961,0.16454412043094635,0.5682094097137451
1782987724545435600,1.796435546875,-0.5693257451057434,0.04740177094936371,0.5551740527153015
1782987724555510800,1.8065107421875,-0.4973830580711365,-0.11811802536249161,0.5002579689025879
1782987724565584600,1.816584716796875,-0.4165542721748352,-0.2845384478569031,0.4049533009529114
1782987724575659800,1.82665966796875,-0.33718353509902954,-0.42403677105903625,0.2635212540626526
1782987724585733600,1.836733642578125,-0.2669208347797394,-0.5566049218177795,0.0900338888168335
1782987724595808800,1.846808837890625,-0.20942212641239166,-0.6306259632110596,-0.08977697789669037
1782987724605882600,1.856882568359375,-0.183808371424675,-0.6122035980224609,-0.23038627207279205
1782987724615957800,1.866957763671875,-0.19723352789878845,-0.5319734215736389,-0.32551494240760803
1782987724626031600,1.877031494140625,-0.2548590302467346,-0.3996422588825226,-0.3519478738307953
1782987724636106800,1.887106689453125,-0.3323023319244385,-0.2695437967777252,-0.3060295283794403
1782987724646182000,1.897181884765625,-0.3990057110786438,-0.18301449716091156,-0.2076084017753601
1782987724656255700,1.907255859375,-0.44149771332740784,-0.19033114612102509,-0.08530927449464798
1782987724666331000,1.917330810546875,-0.46299871802330017,-0.2661569118499756,0.029336348176002502
1782987724676404700,1.92740478515625,-0.4715796709060669,-0.3714161217212677,0.10723468661308289
1782987724686480000,1.93747998046875,-0.467459499835968,-0.462956964969635,0.1413886696100235
1782987724696553700,1.9475537109375,-0.44146454334259033,-0.48638591170310974,0.12542560696601868
1782987724706628900,1.95762890625,-0.382463276386261,-0.4538727104663849,0.0856451764702797
1782987724716702700,1.96770263671875,-0.3062989115715027,-0.3722909986972809,0.03347388282418251
1782987724726777900,1.97777783203125,-0.24438470602035522,-0.25995033979415894,-0.01892966963350773
1782987724736851700,1.987851806640625,-0.2047666311264038,-0.15772217512130737,-0.05898774042725563
1782987724746926800,1.9979267578125,-0.19720618426799774,-0.05809197574853897,-0.08763136714696884
1782987724757000700,2.008000732421875,-0.20042337477207184,0.029551072046160698,-0.09897621721029282
1782987724767075800,2.018075927734375,-0.20194855332374573,0.07662803679704666,-0.09743158519268036
1782987724777149700,2.028149658203125,-0.19101868569850922,0.06429686397314072,-0.08609867095947266
1782987724787224800,2.038224853515625,-0.17820727825164795,0.009230418130755424,-0.06593428552150726
1782987724797298700,2.048298583984375,-0.15673334896564484,-0.05209251120686531,-0.047426238656044006
1782987724807373800,2.058373779296875,-0.12686653435230255,-0.1465764045715332,-0.04768137261271477
1782987724817447700,2.06844775390625,-0.0898406058549881,-0.2285766750574112,-0.06167857348918915
1782987724827522800,2.078522705078125,-0.04819941520690918,-0.2513805031776428,-0.07333256304264069
1782987724837596700,2.0885966796875,-0.012047527357935905,-0.1921233832836151,-0.0853872001171112
1782987724847671800,2.098671875,0.010112635791301727,-0.08042562007904053,-0.09798555076122284
1782987724857745700,2.10874560546875,0.003063795156776905,0.14433136582374573,-0.10828721523284912
1782987724867820800,2.11882080078125,-0.015243839472532272,0.36966755986213684,-0.09484837204217911
1782987724877894700,2.128894775390625,-0.02146151475608349,0.37974995374679565,-0.09277386963367462
1782987724887969800,2.1389697265625,-0.006465519778430462,0.1777731478214264,-0.13027118146419525
1782987724898043600,2.149043701171875,0.019113240763545036,-0.15728941559791565,-0.20769256353378296
1782987724908118800,2.159118896484375,0.0515500083565712,-0.4223434627056122,-0.2937281131744385
1782987724918192600,2.169192626953125,0.09645117819309235,-0.37772127985954285,-0.3092193901538849
1782987724928267800,2.179267822265625,0.14882463216781616,-0.15634655952453613,-0.2572541832923889
1782987724938342000,2.189341796875,0.19442878663539886,0.057563409209251404,-0.154748797416687
1782987724948416800,2.199416748046875,0.20779332518577576,0.18892383575439453,-0.0298627782613039
1782987724958491000,2.209490966796875,0.20031917095184326,0.1808990240097046,0.08382152020931244
1782987724968566000,2.21956591796875,0.18548589944839478,0.08392960578203201,0.1744920313358307
1782987724978640000,2.229639892578125,0.16124126315116882,0.005254196468740702,0.25258100032806396
1782987724988715000,2.239715087890625,0.12655572593212128,-0.006875703111290932,0.3194577693939209
1782987724998788900,2.249788818359375,0.08373921364545822,0.016736796125769615,0.3604728877544403
1782987725008864000,2.259864013671875,0.042312946170568466,0.050488632172346115,0.3753588795661926
1782987725018937900,2.269937744140625,0.02959057316184044,0.09119141101837158,0.3657849431037903
1782987725029013000,2.280012939453125,0.05192943289875984,0.11086897552013397,0.3301691710948944
1782987725039086800,2.2900869140625,0.08577198535203934,0.08266817033290863,0.2741652727127075
1782987725049162000,2.300161865234375,0.11992436647415161,0.017332307994365692,0.20918653905391693
1782987725059235800,2.31023583984375,0.13632331788539886,-0.056255992501974106,0.15353117883205414
1782987725069311000,2.32031103515625,0.1382082998752594,-0.11144361644983292,0.10795943439006805
1782987725079384800,2.330384765625,0.1183723658323288,-0.134052574634552,0.08706927299499512
1782987725089460000,2.3404599609375,0.0870104506611824,-0.13727791607379913,0.07727629691362381
1782987725099533800,2.350533935546875,0.046557389199733734,-0.13057105243206024,0.08291599899530411
1782987725109609000,2.36060888671875,0.009596709161996841,-0.1320997178554535,0.09630850702524185
1782987725119684000,2.37068408203125,-0.02775503695011139,-0.13560080528259277,0.11358896642923355
1782987725129758000,2.380758056640625,-0.0684441477060318,-0.14461401104927063,0.12356516718864441
1782987725139833000,2.3908330078125,-0.11379110813140869,-0.1315632462501526,0.12059216946363449
1782987725149907000,2.400906982421875,-0.15436357259750366,-0.08533050119876862,0.12123079597949982
1782987725159982000,2.410982177734375,-0.19051064550876617,-0.012092569842934608,0.1281575858592987
1782987725170056000,2.421055908203125,-0.20889976620674133,0.04959982633590698,0.14317142963409424
1782987725180131000,2.431131103515625,-0.19969019293785095,0.07909705489873886,0.16493211686611176
1782987725190205000,2.441204833984375,-0.1776892989873886,0.05075196549296379,0.18723848462104797
1782987725200280000,2.451280029296875,-0.14209704101085663,-0.030670247972011566,0.20093245804309845
1782987725210354000,2.46135400390625,-0.10721468925476074,-0.1249525398015976,0.21363359689712524
1782987725220429000,2.471428955078125,-0.08543465286493301,-0.1934436857700348,0.21639536321163177
1782987725230503000,2.4815029296875,-0.08584585040807724,-0.23437246680259705,0.1980576366186142
1782987725240578000,2.491578125,-0.10333118587732315,-0.24549874663352966,0.16837845742702484
1782987725250652000,2.50165185546875,-0.12945865094661713,-0.22815091907978058,0.1235119104385376
1782987725260727000,2.51172705078125,-0.15414075553417206,-0.20850661396980286,0.06586623191833496
1782987725270801000,2.52180078125,-0.16707013547420502,-0.20587433874607086,0.009523862041532993
1782987725280876000,2.5318759765625,-0.1762963980436325,-0.20227454602718353,-0.022907312959432602
1782987725290950000,2.541949951171875,-0.18525394797325134,-0.19864007830619812,-0.03492685407400131
1782987725301025000,2.55202490234375,-0.2008054405450821,-0.200760617852211,-0.03514064848423004
1782987725311099000,2.562098876953125,-0.2190515697002411,-0.20190070569515228,-0.0324801504611969
1782987725321174000,2.572174072265625,-0.23805420100688934,-0.19082006812095642,-0.024127110838890076
1782987725331247900,2.582247802734375,-0.26093342900276184,-0.1651085764169693,-0.014324280433356762
1782987725341323000,2.592322998046875,-0.29591235518455505,-0.14986638724803925,-0.004621203523129225
1782987725351396900,2.60239697265625,-0.3322330713272095,-0.14312858879566193,0.016234276816248894
1782987725361472000,2.612471923828125,-0.3598262667655945,-0.15469329059123993,0.032590750604867935
1782987725371545900,2.6225458984375,-0.36634382605552673,-0.21832792460918427,0.03835276514291763
1782987725381621000,2.63262109375,-0.35515296459198,-0.27913549542427063,0.04414469003677368
1782987725391694800,2.64269482421875,-0.34189069271087646,-0.2849113643169403,0.053665757179260254
1782987725401770000,2.65277001953125,-0.3316243290901184,-0.2933744788169861,0.06352141499519348
1782987725411843800,2.66284375,-0.3350856602191925,-0.3043786585330963,0.06831430643796921
1782987725421919000,2.6729189453125,-0.34024515748023987,-0.23048876225948334,0.06385557353496552
1782987725431992800,2.682992919921875,-0.35450613498687744,-0.129310742020607,0.06304597854614258
1782987725442068000,2.69306787109375,-0.35414183139801025,-0.16409023106098175,0.042256638407707214
1782987725452141800,2.703141845703125,-0.342317134141922,-0.352376788854599,-0.02847851626574993
1782987725462217000,2.713217041015625,-0.33302873373031616,-0.6682447195053101,-0.16710640490055084
1782987725472290800,2.723290771484375,-0.33901500701904297,-0.9400725364685059,-0.3433874249458313
1782987725482366000,2.733365966796875,-0.3703690767288208,-0.9685158729553223,-0.5006734728813171
1782987725492439800,2.743439697265625,-0.41203129291534424,-0.8059874176979065,-0.6062963008880615
1782987725502515000,2.753514892578125,-0.4461154341697693,-0.5306698679924011,-0.6265552043914795
1782987725512589000,2.763589111328125,-0.4611481726169586,-0.16445454955101013,-0.5240427255630493
1782987725522664000,2.773663818359375,-0.46221724152565,0.20157161355018616,-0.31548768281936646
1782987725532738000,2.783738037109375,-0.44428136944770813,0.3993206322193146,-0.0752071738243103
1782987725542813000,2.79381298828125,-0.3880484700202942,0.3500828146934509,0.14521759748458862
1782987725552887000,2.803886962890625,-0.29712975025177,0.136420339345932,0.3210677206516266
1782987725562962000,2.8139619140625,-0.19902999699115753,-0.09563650190830231,0.44674453139305115
1782987725573036000,2.8240361328125,-0.11876153200864792,-0.26819416880607605,0.5010916590690613
1782987725583111000,2.83411083984375,-0.060550250113010406,-0.33263301849365234,0.48723238706588745
1782987725593185000,2.84418505859375,-0.03408082574605942,-0.3113032281398773,0.41777101159095764
1782987725603260000,2.854260009765625,-0.03854064643383026,-0.2499377429485321,0.31286951899528503
1782987725613334000,2.864333984375,-0.07002479583024979,-0.18548551201820374,0.1973908692598343
1782987725623409000,2.874408935546875,-0.11405189335346222,-0.14178982377052307,0.10017756372690201
1782987725633483000,2.88448291015625,-0.15796050429344177,-0.08516889810562134,0.04174913838505745
1782987725643558000,2.894557861328125,-0.19363223016262054,-0.01927374303340912,0.0206367839127779
1782987725653632800,2.9046328125,-0.21600490808486938,0.01717960648238659,0.023418720811605453
1782987725663707000,2.914706787109375,-0.23179806768894196,0.015930233523249626,0.035068850964307785
1782987725673781000,2.924781005859375,-0.23623622953891754,-0.021944710984826088,0.048660025000572205
1782987725683856000,2.93485595703125,-0.23533785343170166,-0.07552322745323181,0.054700639098882675
1782987725693930800,2.9449306640625,-0.22625407576560974,-0.15326036512851715,0.0477503202855587
1782987725704004900,2.9550048828125,-0.22048576176166534,-0.19642724096775055,0.025404339656233788
1782987725714079700,2.965079833984375,-0.20601122081279755,-0.1986752152442932,-0.0033575333654880524
1782987725724153900,2.97515380859375,-0.19176676869392395,-0.19014304876327515,-0.03452540934085846
1782987725734228700,2.985228759765625,-0.17324794828891754,-0.1703277975320816,-0.06863836944103241
1782987725744302800,2.995302734375,-0.1513328105211258,-0.13278828561306,-0.09614302963018417
1782987725754377700,3.005377685546875,-0.12276161462068558,-0.09117984771728516,-0.11282506585121155
1782987725764452000,3.0154521484375,-0.09302100539207458,-0.05664816126227379,-0.11314575374126434
1782987725774526700,3.025526611328125,-0.056139685213565826,-0.029831726104021072,-0.0926295593380928
1782987725784601000,3.03560107421875,-0.025702057406306267,-0.011771011166274548,-0.04737506061792374
1782987725794675700,3.04567578125,-0.001970895566046238,0.006226365454494953,0.027172941714525223
1782987725804750000,3.05575,0.013419234193861485,0.03693843632936478,0.12080517411231995
1782987725814824700,3.06582470703125,0.015397431328892708,0.061183057725429535,0.2101835161447525
1782987725824899000,3.075899169921875,0.009610475972294807,0.0796179473400116,0.2859961986541748
1782987725834973700,3.0859736328125,-0.00647128839045763,0.06929659843444824,0.33876165747642517
1782987725845048000,3.096048095703125,-0.02402658946812153,0.03346356377005577,0.36762723326683044
1782987725855122700,3.106122802734375,-0.042653802782297134,0.010716707445681095,0.3894728720188141
1782987725865197000,3.116197021484375,-0.05903181433677673,0.0021219924092292786,0.38659659028053284
1782987725875271700,3.126271728515625,-0.07879326492547989,-0.014816245064139366,0.36457252502441406
1782987725885346000,3.136345947265625,-0.10248837620019913,-0.014718877151608467,0.3326282501220703
1782987725895420700,3.146420654296875,-0.1109018325805664,0.01690589264035225,0.2836548388004303
1782987725905495000,3.1564951171875,-0.12434031814336777,0.05128326639533043,0.2200062870979309
1782987725915569700,3.166569580078125,-0.12364815920591354,0.0782104879617691,0.14249391853809357
1782987725925644000,3.17664404296875,-0.11758939921855927,0.09607522189617157,0.060300037264823914
1782987725935718700,3.18671875,-0.09766282886266708,0.10554009675979614,-0.012628495693206787
1782987725945793000,3.19679296875,-0.07079090178012848,0.12140051275491714,-0.060334302484989166
1782987725955867600,3.20686767578125,-0.056817032396793365,0.16430829465389252,-0.07548874616622925
1782987725965941800,3.216941650390625,-0.04783853515982628,0.22131164371967316,-0.06466010957956314
1782987725976016600,3.2270166015625,-0.05571217089891434,0.3434969484806061,-0.040496181696653366
1782987725986090800,3.2370908203125,-0.05483616515994072,0.35381680727005005,-0.021596144884824753
1782987725996165600,3.24716552734375,-0.028752367943525314,0.161701962351799,-0.06447170674800873
1782987726006239700,3.25723974609375,0.0000145698431879282,-0.22373856604099274,-0.1954597383737564
1782987726016314600,3.267314697265625,0.0045547266490757465,-0.6883847713470459,-0.3992893099784851
1782987726026388700,3.277388671875,-0.022341430187225342,-0.9354633092880249,-0.6120622158050537
1782987726036463600,3.287463623046875,-0.0647440105676651,-0.8464937210083008,-0.7548449635505676
1782987726046537700,3.297537841796875,-0.09683315455913544,-0.5191720128059387,-0.8047802448272705
1782987726056612600,3.307612548828125,-0.11312530934810638,-0.12178071588277817,-0.7706289291381836
1782987726066686700,3.317686767578125,-0.12366636842489243,0.17034408450126648,-0.680869996547699
1782987726076761600,3.32776171875,-0.11555757373571396,0.28853172063827515,-0.5551446080207825
1782987726086835700,3.337835693359375,-0.08914860337972641,0.30822792649269104,-0.40506187081336975
1782987726096910600,3.34791064453125,-0.06410902738571167,0.283944696187973,-0.26256462931632996
1782987726106984700,3.357984619140625,-0.05901120603084564,0.21187591552734375,-0.12609538435935974
1782987726117059600,3.3680595703125,-0.06192523613572121,0.08550998568534851,-0.018006203696131706
1782987726127133700,3.3781337890625,-0.04573259502649307,-0.04447425529360771,0.07720299065113068
1782987726137208600,3.38820849609375,-0.012997282668948174,-0.12784025073051453,0.15680725872516632
1782987726147282700,3.39828271484375,0.01824086531996727,-0.16978809237480164,0.2000918686389923
1782987726157357600,3.408357666015625,0.046555325388908386,-0.18183010816574097,0.1977355033159256
1782987726167431700,3.418431640625,0.06087321788072586,-0.189383402466774,0.15967929363250732
1782987726177506600,3.428506591796875,0.07002010941505432,-0.19926533102989197,0.0913631021976471
1782987726187580700,3.43858056640625,0.07862912863492966,-0.20344124734401703,0.01910749450325966
1782987726197655600,3.448655517578125,0.09870164096355438,-0.19076299667358398,-0.039660483598709106
1782987726207729700,3.458729736328125,0.12151844799518585,-0.15549612045288086,-0.06948738545179367
1782987726217804500,3.468804443359375,0.14288446307182312,-0.10291226208209991,-0.0722152590751648
1782987726227878700,3.478878662109375,0.16133767366409302,-0.08142323791980743,-0.04323824122548103
1782987726237953500,3.48895361328125,0.1782013475894928,-0.08134148269891739,0.01043590810149908
1782987726248027600,3.499027587890625,0.1801396906375885,-0.07745617628097534,0.09261736273765564
1782987726258102500,3.5091025390625,0.17219308018684387,-0.07336102426052094,0.17747391760349274
1782987726268177700,3.519177734375,0.15729455649852753,-0.05783979594707489,0.2574061453342438
1782987726278251500,3.52925146484375,0.1322222203016281,-0.032289694994688034,0.31367605924606323
1782987726288326700,3.53932666015625,0.11838614195585251,0.009765972383320332,0.34503427147865295
1782987726298400800,3.54940087890625,0.1147535890340805,0.05035494267940521,0.357435017824173
1782987726308475600,3.5594755859375,0.11009065806865692,0.05459609255194664,0.34350624680519104
1782987726318549800,3.5695498046875,0.09522702544927597,0.030254004523158073,0.30484113097190857
1782987726328624600,3.579624755859375,0.07817061990499496,-0.001415157807059586,0.25838586688041687
1782987726338698800,3.58969873046875,0.05162076652050018,-0.01943197473883629,0.19946159422397614
1782987726348773600,3.599773681640625,0.022796232253313065,-0.037072472274303436,0.13481676578521729
1782987726358847700,3.60984765625,-0.009039460681378841,-0.060662221163511276,0.052437469363212585
1782987726368922600,3.619922607421875,-0.034077610820531845,-0.06712186336517334,-0.020586291328072548
1782987726378996700,3.629996826171875,-0.05385211482644081,-0.060769956558942795,-0.08552694320678711
1782987726389071600,3.640071533203125,-0.08287560194730759,-0.0525829903781414,-0.12783509492874146
1782987726399145700,3.650145751953125,-0.10866831243038177,-0.04018730670213699,-0.14894331991672516
1782987726409220600,3.660220703125,-0.1301657259464264,-0.028138626366853714,-0.15250574052333832
1782987726419294700,3.670294677734375,-0.14732447266578674,-0.03785490244626999,-0.15416887402534485
1782987726429369600,3.68036962890625,-0.15745575726032257,-0.061441272497177124,-0.16026553511619568
1782987726439443700,3.690443603515625,-0.16670623421669006,-0.0865040197968483,-0.1652216762304306
1782987726449518600,3.7005185546875,-0.17901812493801117,-0.08840793371200562,-0.1635764092206955
1782987726459592700,3.7105927734375,-0.19303886592388153,-0.05148666724562645,-0.17407885193824768
1782987726469667600,3.72066748046875,-0.204816073179245,-0.012679796665906906,-0.17587420344352722
1782987726479741700,3.73074169921875,-0.202012836933136,0.026195431128144264,-0.1723785400390625
1782987726489816600,3.740816650390625,-0.19471009075641632,0.07882849872112274,-0.15553972125053406
1782987726499890700,3.750890625,-0.18999603390693665,0.07971613109111786,-0.1235937625169754
1782987726509965600,3.760965576171875,-0.18745563924312592,0.056609220802783966,-0.08468737453222275
1782987726520039700,3.771039794921875,-0.17042632400989532,0.029995985329151154,-0.03650679811835289
1782987726530114600,3.781114501953125,-0.15323828160762787,0.008714767172932625,-0.0060982112772762775
1782987726540188700,3.791188720703125,-0.14424479007720947,-0.024577943608164787,0.015124252066016197
1782987726550263600,3.801263671875,-0.14178358018398285,-0.07156741619110107,0.022451292723417282
1782987726560337700,3.811337646484375,-0.1466720849275589,-0.11736712604761124,0.022833455353975296
1782987726570412500,3.82141259765625,-0.16387636959552765,-0.1496233195066452,0.01660378836095333
1782987726580486700,3.831486572265625,-0.19079400599002838,-0.11103253066539764,0.013398142531514168
1782987726590561500,3.8415615234375,-0.21097232401371002,-0.026925330981612206,0.019852645695209503
1782987726600635600,3.8516357421875,-0.21888618171215057,-0.05432793125510216,0.027313757687807083
1782987726610710500,3.86171044921875,-0.2261047661304474,-0.21252737939357758,0.0018691865261644125
1782987726620784600,3.87178466796875,-0.24291890859603882,-0.4414372742176056,-0.06066902354359627
1782987726630859500,3.881859619140625,-0.2759683132171631,-0.6341218948364258,-0.16387276351451874
1782987726640933600,3.89193359375,-0.32597821950912476,-0.6658545136451721,-0.2822771668434143
1782987726651008500,3.902008544921875,-0.39238879084587097,-0.5484702587127686,-0.4061911106109619
1782987726661082600,3.91208251953125,-0.4586290717124939,-0.3909839689731598,-0.5193321108818054
1782987726671157500,3.922157470703125,-0.5101089477539062,-0.27058109641075134,-0.6062219142913818
1782987726681231600,3.932231689453125,-0.5389206409454346,-0.18090340495109558,-0.6665347814559937
1782987726691306500,3.942306396484375,-0.5343526005744934,-0.06334558129310608,-0.657490074634552
1782987726701380600,3.952380615234375,-0.4909020662307739,0.09906170517206192,-0.5491308569908142
1782987726711455500,3.96245556640625,-0.4320071339607239,0.2587321996688843,-0.3589740991592407
1782987726721529600,3.972529541015625,-0.3648534119129181,0.3177425265312195,-0.12867671251296997
1782987726731604500,3.9826044921875,-0.2937260568141937,0.2218829244375229,0.11146537214517593
1782987726741678600,3.9926787109375,-0.2252918779850006,-0.0134164122864604,0.3115369379520416
1782987726751753500,4.00275341796875,-0.1651393473148346,-0.33660680055618286,0.47301536798477173
1782987726761827600,4.01282763671875,-0.11546739190816879,-0.620375394821167,0.5689618587493896
1782987726771902500,4.02290234375,-0.0850515067577362,-0.8129208087921143,0.6003224849700928
1782987726781976600,4.0329765625,-0.09061271697282791,-0.9132492542266846,0.5698530077934265
1782987726792051500,4.043051513671875,-0.1429656744003296,-0.9089668393135071,0.49147677421569824
1782987726802125600,4.05312548828125,-0.23878780007362366,-0.7816283106803894,0.3862808346748352
1782987726812200400,4.063200439453125,-0.36215752363204956,-0.5444695949554443,0.2658117115497589
1782987726822274600,4.073274658203125,-0.4925701320171356,-0.23828355967998505,0.16556896269321442
1782987726832349400,4.083349365234375,-0.6152179837226868,0.06291057169437408,0.105683833360672
1782987726842423600,4.093423583984375,-0.7109466195106506,0.24877843260765076,0.07486359775066376
1782987726852498700,4.103498779296875,-0.7600534558296204,0.2861320376396179,0.0838189646601677
1782987726862572500,4.113572509765625,-0.7561721801757812,0.20721325278282166,0.12241668999195099
1782987726872647700,4.123647705078125,-0.7368267178535461,0.05908776447176933,0.16581620275974274
1782987726882721500,4.133721435546875,-0.7168468832969666,-0.1212436631321907,0.19787558913230896
1782987726892796700,4.143796630859375,-0.7061135172843933,-0.28963613510131836,0.20545615255832672
1782987726902870500,4.15387060546875,-0.7000311017036438,-0.40289369225502014,0.18469707667827606
1782987726912945700,4.163945556640625,-0.7039731740951538,-0.4492015242576599,0.12402266263961792
1782987726923019500,4.17401953125,-0.7115448117256165,-0.45613694190979004,0.03747391700744629
1782987726933094700,4.1840947265625,-0.7160882949829102,-0.4213016629219055,-0.06498559564352036
1782987726943168800,4.194168701171875,-0.7111089825630188,-0.3849327266216278,-0.15717384219169617
1782987726953243600,4.20424365234375,-0.7027568817138672,-0.36138206720352173,-0.2223288118839264
1782987726963317200,4.214317138671875,-0.702917218208313,-0.3249364495277405,-0.2438516914844513
1782987726973392100,4.22439208984375,-0.7194522023200989,-0.26859521865844727,-0.2281593680381775
1782987726983466200,4.23446630859375,-0.7473390102386475,-0.2038774937391281,-0.18000303208827972
1782987726993541000,4.244541015625,-0.7760497331619263,-0.14565525949001312,-0.11568605154752731
1782987727003615200,4.254615234375,-0.7836482524871826,-0.12054804712533951,-0.03671533986926079
1782987727013690000,4.264690185546875,-0.780910313129425,-0.11494837701320648,0.032222531735897064
1782987727023765000,4.274764892578125,-0.7644098997116089,-0.1645452231168747,0.08341541141271591
1782987727033839000,4.284839111328125,-0.7524858713150024,-0.24102075397968292,0.11006922274827957
1782987727043914000,4.2949140625,-0.7395761609077454,-0.2621939480304718,0.12499251216650009
1782987727053988000,4.304988037109375,-0.7267675399780273,-0.2301355004310608,0.13348668813705444
1782987727064063000,4.31506298828125,-0.7156006097793579,-0.162647545337677,0.14134462177753448
1782987727074137000,4.32513720703125,-0.7067888379096985,-0.08694691956043243,0.14822044968605042
1782987727084212000,4.3352119140625,-0.6806126236915588,-0.03407092019915581,0.1622593104839325
1782987727094286000,4.3452861328125,-0.6497885584831238,-0.014538108371198177,0.19050198793411255
1782987727104361000,4.35536083984375,-0.6052733063697815,-0.05187669023871422,0.2280198037624359
1782987727114435000,4.36543505859375,-0.560182511806488,-0.12211353331804276,0.2602038085460663
1782987727124510000,4.375510009765625,-0.5215948820114136,-0.23184242844581604,0.27179521322250366
1782987727134584000,4.385583984375,-0.4887009561061859,-0.35173287987709045,0.26701053977012634
1782987727144659000,4.395658935546875,-0.46981728076934814,-0.4347585141658783,0.24837853014469147
1782987727154733000,4.405733154296875,-0.47134897112846375,-0.44540536403656006,0.2226332277059555
1782987727164808200,4.41580810546875,-0.5052547454833984,-0.31713661551475525,0.1787422001361847
1782987727174882000,4.425882080078125,-0.5584380626678467,-0.12763796746730804,0.12636882066726685
1782987727184957200,4.435957275390625,-0.6013365387916565,-0.11534881591796875,0.04508195072412491
1782987727195031000,4.446031005859375,-0.6447589993476868,-0.2701508700847626,-0.09938065707683563
1782987727205106200,4.456106201171875,-0.6837844252586365,-0.46142229437828064,-0.2773573100566864
1782987727215180000,4.466179931640625,-0.7188753485679626,-0.5232527852058411,-0.4316442906856537
1782987727225255200,4.476255126953125,-0.7482955455780029,-0.3764825463294983,-0.5147596597671509
1782987727235329000,4.4863291015625,-0.7543513774871826,-0.11559586226940155,-0.5062554478645325
1782987727245404200,4.496404052734375,-0.7429006099700928,0.08868537098169327,-0.4195255935192108
1782987727255478000,4.50647802734375,-0.7149286866188049,0.207619309425354,-0.2524532079696655
1782987727265553200,4.51655322265625,-0.6740978956222534,0.26236218214035034,-0.02816017158329487
1782987727275627300,4.526627197265625,-0.6213822364807129,0.31149715185165405,0.2329091578722
1782987727285702100,4.5367021484375,-0.5678937435150146,0.3927136957645416,0.5053619742393494
1782987727295776300,4.5467763671875,-0.5300648808479309,0.4572073519229889,0.7395063042640686
1782987727305851100,4.55685107421875,-0.5176385641098022,0.4432271122932434,0.900856077671051
1782987727315925200,4.56692529296875,-0.5125605463981628,0.3141566812992096,0.972399890422821
1782987727326000000,4.577000244140625,-0.5113773345947266,0.10232459008693695,0.9572936296463013
1782987727336074200,4.58707421875,-0.509623110294342,-0.17237542569637299,0.8647962212562561
1782987727346149000,4.597149169921875,-0.5076212286949158,-0.47293657064437866,0.708728551864624
1782987727356223200,4.60722314453125,-0.4992617666721344,-0.7283192873001099,0.5142018795013428
1782987727366298000,4.617298095703125,-0.501567006111145,-0.8879272937774658,0.3058015704154968
1782987727376372200,4.627372314453125,-0.5268535614013672,-0.9658451080322266,0.09229913353919983
1782987727386447000,4.637447021484375,-0.5869414210319519,-0.9668467044830322,-0.1004471480846405
1782987727396521200,4.647521240234375,-0.6586079597473145,-0.88961261510849,-0.25683242082595825
1782987727406596000,4.65759619140625,-0.7309748530387878,-0.743767499923706,-0.35135334730148315
1782987727416670200,4.667670166015625,-0.7990898489952087,-0.539300262928009,-0.37652620673179626
1782987727426745000,4.6777451171875,-0.8562924265861511,-0.3022429645061493,-0.33226338028907776
1782987727436819200,4.687819091796875,-0.8986266851425171,-0.11955525726079941,-0.24295592308044434
1782987727446894000,4.69789404296875,-0.9381381273269653,-0.07879477739334106,-0.147847518324852
1782987727456968200,4.70796826171875,-0.965355396270752,-0.1198124811053276,-0.05137133598327637
1782987727467043000,4.71804296875,-0.9514744877815247,-0.14959114789962769,0.05389250069856644
1782987727477117200,4.7281171875,-0.9199523329734802,-0.14070165157318115,0.16004598140716553
1782987727487192000,4.738192138671875,-0.8829308748245239,-0.13665629923343658,0.24995137751102448
1782987727497266200,4.74826611328125,-0.8455758690834045,-0.13165485858917236,0.30911388993263245
1782987727507341000,4.758341064453125,-0.8065648078918457,-0.1341414451599121,0.3410952687263489
1782987727517415200,4.768415283203125,-0.7596850991249084,-0.16370025277137756,0.3467915654182434
1782987727527490000,4.778489990234375,-0.7098293900489807,-0.241282656788826,0.3228188753128052
1782987727537564200,4.788564208984375,-0.6655954122543335,-0.34743574261665344,0.2762681245803833
1782987727547639000,4.79863916015625,-0.6344702839851379,-0.44032546877861023,0.22276733815670013
1782987727557713200,4.808713134765625,-0.6234554052352905,-0.5103777050971985,0.16245108842849731
1782987727567788000,4.8187880859375,-0.6310818791389465,-0.5553100109100342,0.11135035008192062
1782987727577862100,4.828862060546875,-0.6492415070533752,-0.5461954474449158,0.07806502282619476
1782987727587937000,4.83893701171875,-0.6686705946922302,-0.5096051692962646,0.060612257570028305
1782987727598011100,4.84901123046875,-0.6949433088302612,-0.4865320026874542,0.055426932871341705
1782987727608086000,4.8590859375,-0.7227776050567627,-0.4651143252849579,0.07287730276584625
1782987727618160000,4.86916015625,-0.7391631007194519,-0.4041551351547241,0.13318750262260437
1782987727628235000,4.879235107421875,-0.7570244073867798,-0.3369883596897125,0.20971769094467163
1782987727638309000,4.88930908203125,-0.7743284702301025,-0.30367225408554077,0.28552448749542236
1782987727648384000,4.899384033203125,-0.777661919593811,-0.323377788066864,0.3463774621486664
1782987727658458000,4.9094580078125,-0.7730929255485535,-0.3949057459831238,0.3860868215560913
1782987727668533000,4.919532958984375,-0.7671394348144531,-0.48876434564590454,0.39601001143455505
1782987727678607000,4.929607177734375,-0.7681832313537598,-0.593109130859375,0.37239015102386475
1782987727688682000,4.939681884765625,-0.7806183099746704,-0.7210982441902161,0.30708783864974976
1782987727698756000,4.949756103515625,-0.7967051863670349,-0.8226631283760071,0.21561630070209503
1782987727708831000,4.9598310546875,-0.8125715255737305,-0.860764741897583,0.12871336936950684
1782987727718905000,4.969905029296875,-0.8335943222045898,-0.837546169757843,0.06859124451875687
1782987727728980000,4.97997998046875,-0.8605276942253113,-0.7575448155403137,0.047759994864463806
1782987727739054000,4.99005419921875,-0.8805573582649231,-0.6399730443954468,0.08237727731466293
1782987727749129000,5.00012890625,-0.9055777192115784,-0.5062128305435181,0.17105814814567566
1782987727759203000,5.010203125,-0.9233670234680176,-0.4070701003074646,0.2897075116634369
1782987727769278000,5.02027783203125,-0.9263468384742737,-0.4362649917602539,0.4060167968273163
1782987727779352000,5.03035205078125,-0.9084105491638184,-0.6597538590431213,0.45736244320869446
1782987727789427000,5.040427001953125,-0.9019670486450195,-1.0515450239181519,0.42647483944892883
1782987727799501000,5.0505009765625,-0.9296412467956543,-1.5076502561569214,0.3134095370769501
1782987727809576200,5.060576171875,-1.0040454864501953,-1.8681880235671997,0.16447517275810242
1782987727819650000,5.070650146484375,-1.105994701385498,-2.0588951110839844,0.021324841305613518
1782987727829725200,5.08072509765625,-1.2049505710601807,-1.991285800933838,-0.0570000596344471
1782987727839799000,5.090799072265625,-1.279686450958252,-1.5936188697814941,-0.045940566807985306
1782987727849874200,5.100874267578125,-1.3072389364242554,-0.9066820740699768,0.0627472996711731
1782987727859949000,5.110948974609375,-1.310398817062378,-0.12870639562606812,0.24011409282684326
1782987727870023200,5.121023193359375,-1.3105158805847168,0.476199209690094,0.4305816888809204
1782987727880098000,5.13109814453125,-1.296797513961792,0.7212647199630737,0.5951619148254395
1782987727890172200,5.141172119140625,-1.2558567523956299,0.5717966556549072,0.7178857326507568
1782987727900247000,5.1512470703125,-1.201680064201355,0.19771239161491394,0.7980198860168457
1782987727910321200,5.161321044921875,-1.1522222757339478,-0.24152064323425293,0.8464332222938538
1782987727920396000,5.17139599609375,-1.1014907360076904,-0.6344649195671082,0.853018581867218
1782987727930470100,5.18147021484375,-1.050353765487671,-0.9114168882369995,0.8125893473625183
1782987727940545000,5.191544921875,-1.0079474449157715,-1.045989751815796,0.714874804019928
1782987727950619100,5.201619140625,-0.9877533316612244,-1.0479570627212524,0.5773299932479858
1782987727960695600,5.211695556640625,-0.9955833554267883,-0.9058874249458313,0.43126019835472107
1782987727970769400,5.221769287109375,-1.0380746126174927,-0.6868573427200317,0.30557870864868164
1782987727980844500,5.231844482421875,-1.121751070022583,-0.5089668035507202,0.18550068140029907
1782987727990918400,5.24191845703125,-1.2200257778167725,-0.41722142696380615,0.07392488420009613
1782987728000993500,5.25199365234375,-1.28780198097229,-0.4134786128997803,-0.02417602948844433
1782987728011067400,5.2620673828125,-1.3129981756210327,-0.46443819999694824,-0.09385018050670624
1782987728021142500,5.272142578125,-1.3136740922927856,-0.5391809940338135,-0.1529214084148407
1782987728031216400,5.28221630859375,-1.302200436592102,-0.5741371512413025,-0.18212269246578217
1782987728041291500,5.29229150390625,-1.2732698917388916,-0.5715274214744568,-0.17841310799121857
1782987728051365400,5.302365478515625,-1.2309335470199585,-0.5459325909614563,-0.1537296026945114
1782987728061440500,5.3124404296875,-1.1789507865905762,-0.5108150839805603,-0.10618258267641068
1782987728071514600,5.3225146484375,-1.116137981414795,-0.48745331168174744,-0.04971424862742424
1782987728081589500,5.332589599609375,-1.0502530336380005,-0.49951785802841187,0.008700142614543438
1782987728091663600,5.34266357421875,-0.9961512088775635,-0.5361062288284302,0.07419286668300629
1782987728101738500,5.352738525390625,-0.9538248777389526,-0.5302414298057556,0.15721634030342102
1782987728111812600,5.3628125,-0.9275080561637878,-0.5134648680686951,0.24255973100662231
1782987728121887500,5.372887451171875,-0.9274439215660095,-0.510539174079895,0.29017093777656555
1782987728131961600,5.382961669921875,-0.946609616279602,-0.5299794673919678,0.30250057578086853
1782987728142036500,5.393036376953125,-0.9680857062339783,-0.5218448638916016,0.2858615517616272
1782987728152110600,5.403110595703125,-0.9903217554092407,-0.4493198096752167,0.27351540327072144
1782987728162185500,5.413185546875,-1.0252978801727295,-0.37313392758369446,0.25312256813049316
1782987728172259600,5.423259521484375,-1.06024169921875,-0.3266386091709137,0.22332286834716797
1782987728182334500,5.43333447265625,-1.0852210521697998,-0.3065173327922821,0.18332701921463013
1782987728192408600,5.44340869140625,-1.0866615772247314,-0.2854807376861572,0.14032895863056183
1782987728202483500,5.4534833984375,-1.0678296089172363,-0.2590981721878052,0.11109966784715652
1782987728212557600,5.4635576171875,-1.031543493270874,-0.2354556769132614,0.08597806841135025
1782987728222632400,5.473632568359375,-0.9767271280288696,-0.21594682335853577,0.07573339343070984
1782987728232706600,5.48370654296875,-0.9019330143928528,-0.19432701170444489,0.08407947421073914
1782987728242781400,5.493781494140625,-0.8168913125991821,-0.1825333684682846,0.10081556439399719
1782987728252855600,5.50385546875,-0.7278620600700378,-0.22295589745044708,0.11391672492027283
1782987728262930400,5.513930419921875,-0.6412171125411987,-0.3090716004371643,0.1119777113199234
1782987728273004500,5.524004638671875,-0.5757134556770325,-0.39692047238349915,0.09870238602161407
1782987728283079400,5.534079345703125,-0.5362348556518555,-0.4894610643386841,0.06765388697385788
1782987728293153500,5.544153564453125,-0.519092857837677,-0.5785616636276245,0.0007544847903773189
1782987728303228400,5.554228515625,-0.5065813660621643,-0.633554220199585,-0.0726311132311821
1782987728313302500,5.564302490234375,-0.49577584862709045,-0.5665515065193176,-0.15002630650997162
1782987728323377400,5.57437744140625,-0.5002706050872803,-0.45455095171928406,-0.21199412643909454
1782987728333451500,5.584451416015625,-0.515365719795227,-0.4892663061618805,-0.24716304242610931
1782987728343526700,5.594526611328125,-0.5420479774475098,-0.6293836236000061,-0.2611139714717865
1782987728353600500,5.6046005859375,-0.5672124624252319,-0.6875348091125488,-0.2108321487903595
1782987728363675600,5.614675537109375,-0.5864982008934021,-0.5749370455741882,-0.09082455933094025
1782987728373749500,5.62474951171875,-0.5821199417114258,-0.3428819179534912,0.10101118683815002
1782987728383824600,5.63482470703125,-0.561389684677124,-0.12816451489925385,0.3226773738861084
1782987728393898500,5.6448984375,-0.525608479976654,0.006610873155295849,0.5336636304855347
1782987728403973600,5.6549736328125,-0.48182380199432373,0.06267539411783218,0.6923604607582092
1782987728414047500,5.665047607421875,-0.44316136837005615,-0.03458085656166077,0.7749155163764954
1782987728424122600,5.67512255859375,-0.4092678427696228,-0.30052173137664795,0.7792152166366577
1782987728434196500,5.685196533203125,-0.39030134677886963,-0.6658933162689209,0.7322753667831421
1782987728444271600,5.695271728515625,-0.40054214000701904,-1.0348849296569824,0.6322149038314819
1782987728454345500,5.705345458984375,-0.4444805681705475,-1.3126981258392334,0.49373260140419006
1782987728464420600,5.715420654296875,-0.5065300464630127,-1.447537899017334,0.34116876125335693
1782987728474494500,5.725494384765625,-0.5764808654785156,-1.3978246450424194,0.1968661993741989
1782987728484569600,5.735569580078125,-0.6290823221206665,-1.201583743095398,0.09984871745109558
1782987728494644500,5.74564453125,-0.6706782579421997,-0.9201574325561523,0.05697847530245781
1782987728504718600,5.755718505859375,-0.718612551689148,-0.6280204057693481,0.05978688225150108
1782987728514793500,5.76579345703125,-0.7755264639854431,-0.39046511054039,0.0979238748550415
1782987728524867600,5.77586767578125,-0.8301774263381958,-0.2590292990207672,0.15356023609638214
1782987728534942500,5.7859423828125,-0.8740918636322021,-0.23641079664230347,0.19989630579948425
1782987728545016600,5.7960166015625,-0.9145140051841736,-0.29782894253730774,0.2147090584039688
1782987728555091500,5.806091552734375,-0.9397519826889038,-0.40233057737350464,0.2041669338941574
1782987728565165600,5.81616552734375,-0.9559658765792847,-0.478492796421051,0.1718079149723053
1782987728575240400,5.826240478515625,-0.9582865834236145,-0.5292025208473206,0.12622685730457306
1782987728585314600,5.836314453125,-0.9544010162353516,-0.5680446624755859,0.06416530162096024
1782987728595389700,5.8463896484375,-0.9323175549507141,-0.5925771594047546,-0.000418221578001976
1782987728605463600,5.856463623046875,-0.9041301608085632,-0.5852331519126892,-0.05018649622797966
1782987728615538700,5.86653857421875,-0.8775877356529236,-0.5229748487472534,-0.08677699416875839
1782987728625612500,5.876612548828125,-0.8567565679550171,-0.44965142011642456,-0.11365336924791336
1782987728635687700,5.886687744140625,-0.855791449546814,-0.42676636576652527,-0.13621406257152557
1782987728645761500,5.896761474609375,-0.861016035079956,-0.4856044352054596,-0.14930813014507294
1782987728655836700,5.906836669921875,-0.8653343319892883,-0.5720162987709045,-0.14603671431541443
1782987728665910500,5.91691064453125,-0.8621911406517029,-0.6110892295837402,-0.10678333044052124
1782987728675985700,5.926985595703125,-0.8566339015960693,-0.5870794653892517,-0.06008559837937355
1782987728686059500,5.9370595703125,-0.8552021384239197,-0.535152018070221,-0.020797064527869225
1782987728696134700,5.947134765625,-0.8431017994880676,-0.472004234790802,0.0031578042544424534
1782987728706208500,5.95720849609375,-0.8289512991905212,-0.41761350631713867,0.011047636158764362
1782987728716283600,5.96728369140625,-0.8138759732246399,-0.3503311574459076,0.020738879218697548
1782987728726357500,5.977357421875,-0.8089863657951355,-0.2906431257724762,0.02698737010359764
1782987728736432600,5.9874326171875,-0.7939954400062561,-0.2748764157295227,0.04167789965867996
1782987728746506500,5.997506591796875,-0.7677624821662903,-0.3254794776439667,0.06473731249570847
1782987728756581600,6.00758154296875,-0.7382221817970276,-0.44625356793403625,0.09988011419773102
1782987728766655500,6.017655517578125,-0.7125634551048279,-0.5384605526924133,0.1563161462545395
1782987728776730600,6.027730712890625,-0.7019307613372803,-0.5785730481147766,0.22515273094177246
1782987728786804500,6.037804443359375,-0.7145283818244934,-0.6119178533554077,0.2858167588710785
1782987728796879600,6.047879638671875,-0.743690013885498,-0.6471953988075256,0.31756430864334106
1782987728806953500,6.057953369140625,-0.776841402053833,-0.6762893795967102,0.3148963153362274
1782987728817028600,6.068028564453125,-0.8064458966255188,-0.6812180876731873,0.28724151849746704
1782987728827102500,6.0781025390625,-0.8244205713272095,-0.6716615557670593,0.23016612231731415
1782987728837177600,6.088177490234375,-0.8295814990997314,-0.6470009684562683,0.16792511940002441
1782987728847251500,6.09825146484375,-0.8253698945045471,-0.6238167881965637,0.11078862845897675
1782987728857326600,6.10832666015625,-0.8090066313743591,-0.6167204976081848,0.09142238646745682
1782987728867400400,6.118400390625,-0.7888984084129333,-0.5755576491355896,0.11822257936000824
1782987728877475600,6.1284755859375,-0.7663156390190125,-0.5239841938018799,0.18069234490394592
1782987728887549400,6.138549560546875,-0.7355129718780518,-0.4744594395160675,0.2556142210960388
1782987728897624600,6.14862451171875,-0.710918664932251,-0.4255816638469696,0.31544560194015503
1782987728907698400,6.158698486328125,-0.6947253346443176,-0.47069206833839417,0.3249068260192871
1782987728917773600,6.168773681640625,-0.6811836957931519,-0.6979052424430847,0.2820888161659241
1782987728927847400,6.178847412109375,-0.6855306625366211,-1.0276849269866943,0.20872282981872559
1782987728937922600,6.188922607421875,-0.7114882469177246,-1.277112603187561,0.1355000138282776
1782987728947996400,6.198996337890625,-0.7587818503379822,-1.3464516401290894,0.07678062468767166
1782987728958070500,6.209070556640625,-0.7926551699638367,-1.2457540035247803,0.07267376780509949
1782987728968144600,6.21914453125,-0.8077264428138733,-0.9065027236938477,0.11508667469024658
1782987728978219500,6.229219482421875,-0.7983528971672058,-0.43616825342178345,0.20104019343852997
1782987728988293600,6.239293701171875,-0.7843830585479736,-0.0771837905049324,0.27255886793136597
1782987728998368500,6.249368408203125,-0.7615533471107483,-0.014862891286611557,0.29855504631996155
1782987729008442600,6.259442626953125,-0.7184019088745117,-0.1981559544801712,0.2842537462711334
1782987729018517800,6.269517822265625,-0.658017098903656,-0.47798600792884827,0.2598589062690735
1782987729028591600,6.279591552734375,-0.5975674390792847,-0.7187788486480713,0.23282189667224884
1782987729038666800,6.289666748046875,-0.5660215020179749,-0.8185994625091553,0.19832463562488556
1782987729048740600,6.29974072265625,-0.5675842761993408,-0.7698623538017273,0.1452864706516266
1782987729058815700,6.309815673828125,-0.5762888193130493,-0.6460980772972107,0.08336290717124939
1782987729068889600,6.3198896484375,-0.5638355016708374,-0.49189844727516174,0.023906875401735306
1782987729078964700,6.32996484375,-0.5430689454078674,-0.38405054807662964,-0.0345524400472641
1782987729089038600,6.34003857421875,-0.5257372856140137,-0.37901970744132996,-0.10341621935367584
1782987729099113700,6.35011376953125,-0.5269860625267029,-0.4444066882133484,-0.17756767570972443
1782987729109187600,6.3601875,-0.5427049398422241,-0.5281562209129333,-0.2339436411857605
1782987729119262700,6.3702626953125,-0.5663865208625793,-0.5807307362556458,-0.26289674639701843
1782987729129336600,6.380336669921875,-0.6004363894462585,-0.5776148438453674,-0.2779747545719147
1782987729139411700,6.39041162109375,-0.6389765739440918,-0.5406349897384644,-0.289420485496521
1782987729149485600,6.400485595703125,-0.6620161533355713,-0.4797809422016144,-0.2998310625553131
1782987729159560700,6.410560791015625,-0.6482742428779602,-0.3937685489654541,-0.3038146197795868
1782987729169634600,6.420634521484375,-0.5875639915466309,-0.30426353216171265,-0.28030458092689514
1782987729179709700,6.430709716796875,-0.49142518639564514,-0.21053914725780487,-0.20762106776237488
1782987729189783600,6.440783447265625,-0.39191457629203796,-0.10544271767139435,-0.0908173993229866
1782987729199858700,6.450858642578125,-0.29916492104530334,-0.03433738648891449,0.05051230639219284
1782987729209932500,6.4609326171875,-0.225565567612648,-0.018292471766471863,0.1776840090751648
1782987729220007700,6.471007568359375,-0.16964344680309296,-0.04221591353416443,0.2825832664966583
1782987729230081500,6.48108154296875,-0.13051363825798035,-0.06570816785097122,0.3435705900192261
1782987729240156700,6.49115673828125,-0.10810552537441254,-0.07609902322292328,0.3652689456939697
1782987729250231600,6.5012314453125,-0.0938248559832573,-0.07654409855604172,0.35648253560066223
1782987729260305700,6.5113056640625,-0.08051331341266632,-0.099161796271801,0.3173913359642029
1782987729270380500,6.521380615234375,-0.07087541371583939,-0.14538869261741638,0.24013833701610565
1782987729280454700,6.53145458984375,-0.05491349473595619,-0.1954481452703476,0.14634472131729126
1782987729290529800,6.54152978515625,-0.02933257631957531,-0.20772406458854675,0.05275072529911995
1782987729300603600,6.551603759765625,0.013987733982503414,-0.132205069065094,-0.02174481563270092
1782987729310678800,6.5616787109375,0.06326401978731155,0.022660329937934875,-0.06838507205247879
1782987729320752600,6.571752685546875,0.11519885808229446,0.1931505799293518,-0.09058517962694168
1782987729330827800,6.581827880859375,0.1795782893896103,0.29671311378479004,-0.07044090330600739
1782987729340901600,6.591901611328125,0.2556680142879486,0.31546416878700256,-0.009301644749939442
1782987729350976800,6.601976806640625,0.34529349207878113,0.3048398792743683,0.08335310965776443
1782987729361050600,6.612050537109375,0.4287921190261841,0.25842177867889404,0.17729423940181732
1782987729371125800,6.622125732421875,0.5097746253013611,0.11429651826620102,0.23855191469192505
1782987729381199600,6.63219970703125,0.5547364950180054,-0.07073938101530075,0.26889410614967346
1782987729391274800,6.642274658203125,0.596308171749115,-0.2056962549686432,0.2607730031013489
1782987729401348600,6.6523486328125,0.6568005084991455,-0.20697884261608124,0.2178737372159958
1782987729411423700,6.662423828125,0.7585016489028931,-0.10923615097999573,0.19288991391658783
1782987729421497600,6.67249755859375,0.8949125409126282,-0.024134304374456406,0.17949821054935455
1782987729431572700,6.68257275390625,1.0159895420074463,-0.038825709372758865,0.1423092484474182
1782987729441646600,6.692646484375,1.0719600915908813,-0.24432960152626038,0.06980229914188385
1782987729451721700,6.7027216796875,1.0525115728378296,-0.41752177476882935,-0.013767050579190254
1782987729461795600,6.712795654296875,1.011823296546936,-0.3734866678714752,-0.05768550559878349
1782987729471870700,6.72287060546875,1.0013748407363892,-0.273741751909256,-0.07272545248270035
1782987729481944600,6.732944580078125,1.002729058265686,-0.2728405296802521,-0.10543865710496902
1782987729492019700,6.743019775390625,0.9673447012901306,-0.3407440185546875,-0.17281568050384521
1782987729502093600,6.753093505859375,0.8525395393371582,-0.4228855073451996,-0.2596578896045685
1782987729512168700,6.763168701171875,0.6791971325874329,-0.44964906573295593,-0.3698074519634247
1782987729522242600,6.77324267578125,0.5073268413543701,-0.35767650604248047,-0.4621554911136627
1782987729532317700,6.783317626953125,0.3728279173374176,-0.10414130985736847,-0.5081465244293213
1782987729542391600,6.7933916015625,0.2983699440956116,0.24358069896697998,-0.4731573760509491
1782987729552466700,6.803466796875,0.2872387170791626,0.5714916586875916,-0.36669254302978516
1782987729562540500,6.81354052734375,0.3267832100391388,0.7318565845489502,-0.23449082672595978
1782987729572615700,6.82361572265625,0.40500882267951965,0.706773579120636,-0.12002704292535782
1782987729582689500,6.833689453125,0.4798351228237152,0.5889286994934082,-0.032757919281721115
1782987729592764700,6.8437646484375,0.5269055366516113,0.4643688201904297,0.018587127327919006
1782987729602838500,6.853838623046875,0.5219478011131287,0.3875259757041931,0.04821506142616272
1782987729612913700,6.86391357421875,0.486674964427948,0.3802487850189209,0.05142032727599144
1782987729622987500,6.873987548828125,0.4443032741546631,0.4368686378002167,0.03462563455104828
1782987729633062700,6.884062744140625,0.4134976863861084,0.5387604236602783,0.014656435698270798
1782987729643136500,6.894136474609375,0.39498579502105713,0.6353268623352051,0.002341179409995675
1782987729653211600,6.904211669921875,0.3799707889556885,0.6812925338745117,0.009051097556948662
1782987729663285800,6.91428564453125,0.36598119139671326,0.6447718143463135,0.027605075389146805
1782987729673360600,6.924360595703125,0.35837993025779724,0.556495726108551,0.052603065967559814
1782987729683434800,6.934434814453125,0.34827882051467896,0.4408167898654938,0.07930871844291687
1782987729693509600,6.944509521484375,0.3250342309474945,0.3378160297870636,0.08686533570289612
1782987729703583700,6.954583740234375,0.29049596190452576,0.26399320363998413,0.06472354382276535
1782987729713658600,6.96465869140625,0.26106879115104675,0.20048120617866516,0.024297229945659637
1782987729723732700,6.974732666015625,0.24661235511302948,0.18821682035923004,-0.023611173033714294
1782987729733807600,6.9848076171875,0.2397741675376892,0.23306049406528473,-0.07244478166103363
1782987729743881700,6.9948818359375,0.23301346600055695,0.30396077036857605,-0.12062642723321915
1782987729753956600,7.00495654296875,0.2327517718076706,0.3643634021282196,-0.144676074385643
1782987729764030700,7.01503076171875,0.23274430632591248,0.38793423771858215,-0.14709794521331787
1782987729774105600,7.025105712890625,0.24334199726581573,0.40188509225845337,-0.12456878274679184
1782987729784179700,7.0351796875,0.25133389234542847,0.42352089285850525,-0.0766017884016037
1782987729794254600,7.045254638671875,0.24751253426074982,0.4464934766292572,-0.015627050772309303
1782987729804328700,7.05532861328125,0.22976575791835785,0.44094476103782654,0.045984379947185516
1782987729814403600,7.065403564453125,0.21045711636543274,0.41839170455932617,0.07290302962064743
1782987729824477700,7.075477783203125,0.19469253718852997,0.4057512581348419,0.08225791901350021
1782987729834552600,7.085552490234375,0.18971100449562073,0.39809927344322205,0.09598764032125473
1782987729844626700,7.095626708984375,0.1808229684829712,0.3747108578681946,0.09992805123329163
1782987729854701600,7.10570166015625,0.18123745918273926,0.32184234261512756,0.11645778268575668
1782987729864775700,7.115775634765625,0.18889591097831726,0.25276127457618713,0.1340562254190445
1782987729874850600,7.1258505859375,0.19834426045417786,0.160334050655365,0.15302956104278564
1782987729884924700,7.135924560546875,0.19525046646595,0.013456192798912525,0.14763212203979492
1782987729894999600,7.14599951171875,0.18464016914367676,-0.18404483795166016,0.12216069549322128
1782987729905073700,7.15607373046875,0.15689295530319214,-0.34965139627456665,0.06699491292238235
1782987729915148500,7.1661484375,0.12712067365646362,-0.4479348361492157,-0.0036968200001865625
1782987729925222700,7.17622265625,0.09067877382040024,-0.5008965730667114,-0.08560074120759964
1782987729935297800,7.1862978515625,0.051758017390966415,-0.5196755528450012,-0.15627732872962952
1782987729945371600,7.19637158203125,0.012650294229388237,-0.47254374623298645,-0.17448057234287262
1782987729955446800,7.20644677734375,-0.03354126960039139,-0.3306044936180115,-0.11172664910554886
1782987729965520400,7.216520263671875,-0.08867909014225006,-0.01992039941251278,0.02732497826218605
1782987729975595500,7.226595458984375,-0.159711092710495,0.3861438035964966,0.21883849799633026
1782987729985669400,7.23666943359375,-0.24377962946891785,0.5568274259567261,0.33993348479270935
1782987729995744500,7.24674462890625,-0.32811447978019714,0.3871585726737976,0.3231460750102997
1782987730005818400,7.256818359375,-0.40985485911369324,-0.029610950499773026,0.18440523743629456
1782987730015893500,7.2668935546875,-0.5114223957061768,-0.47220727801322937,-0.02371875010430813
1782987730025967400,7.27696728515625,-0.6416488289833069,-0.7474117279052734,-0.26833781599998474
1782987730036042500,7.28704248046875,-0.7729148268699646,-0.8328529596328735,-0.48972728848457336
1782987730046116400,7.297116455078125,-0.8751650452613831,-0.6234251856803894,-0.6279603242874146
1782987730056191500,7.30719140625,-0.9108884334564209,-0.14609360694885254,-0.6428878903388977
1782987730066265300,7.317265380859375,-0.8673111200332642,0.4388550817966461,-0.5369372367858887
1782987730076340500,7.327340576171875,-0.7792583107948303,0.863883912563324,-0.3730446398258209
1782987730086414300,7.337414306640625,-0.6853720545768738,0.9546881318092346,-0.21232101321220398
1782987730096489500,7.347489501953125,-0.5952631831169128,0.7703730463981628,-0.07549479603767395
1782987730106563300,7.357563232421875,-0.5297552943229675,0.46175047755241394,0.020444516092538834
1782987730116638500,7.367638427734375,-0.4783270061016083,0.18683916330337524,0.07583259791135788
1782987730126712300,7.37771240234375,-0.45459237694740295,0.004678953438997269,0.09444808959960938
1782987730136787500,7.387787353515625,-0.44701698422431946,-0.07407211512327194,0.06722116470336914
1782987730146861300,7.397861328125,-0.45090147852897644,-0.06714896112680435,0.013067111372947693
1782987730156936400,7.4079365234375,-0.4582899808883667,-0.036914851516485214,-0.057832829654216766
1782987730167010300,7.41801025390625,-0.46134328842163086,0.0001443680375814438,-0.12021684646606445
1782987730177085400,7.42808544921875,-0.45252320170402527,0.02597363106906414,-0.15428602695465088
1782987730187159300,7.4381591796875,-0.4479723870754242,0.041822370141744614,-0.14028339087963104
1782987730197234400,7.448234375,-0.44460007548332214,0.04509364813566208,-0.08887796103954315
1782987730207308300,7.458308349609375,-0.4470389783382416,0.010691198520362377,-0.02208774723112583
1782987730217383400,7.468383544921875,-0.447201669216156,-0.06465097516775131,0.04604661464691162
1782987730227457500,7.47845751953125,-0.4474402666091919,-0.15533187985420227,0.10441325604915619
1782987730237532400,7.488532470703125,-0.4449482858181,-0.2091512382030487,0.14192382991313934
1782987730247606500,7.4986064453125,-0.4254603385925293,-0.20091116428375244,0.16169273853302002
1782987730257681400,7.508681396484375,-0.39791521430015564,-0.1416805535554886,0.1639481633901596
1782987730267755500,7.518755615234375,-0.36871445178985596,-0.050984740257263184,0.16190125048160553
1782987730277830400,7.528830322265625,-0.3380378484725952,0.04988475888967514,0.1631072759628296
1782987730287904500,7.538904541015625,-0.3032532334327698,0.12727250158786774,0.17151860892772675
1782987730297979400,7.5489794921875,-0.26275357604026794,0.14864428341388702,0.18364384770393372
1782987730308053500,7.559053466796875,-0.21950916945934296,0.11803709715604782,0.19185809791088104
1782987730318128400,7.56912841796875,-0.18573914468288422,0.05612620711326599,0.1900140941143036
1782987730328202500,7.579202392578125,-0.14860349893569946,-0.02824539877474308,0.17952656745910645
1782987730338277400,7.58927734375,-0.11503373086452484,-0.11719102412462234,0.1535971611738205
1782987730348351500,7.5993515625,-0.08664070069789886,-0.18583613634109497,0.10676867514848709
1782987730358426400,7.60942626953125,-0.061501599848270416,-0.20606538653373718,0.05202795937657356
1782987730368500500,7.61950048828125,-0.0434831865131855,-0.19798962771892548,-0.01261548325419426
1782987730378575400,7.629575439453125,-0.03676591441035271,-0.18427059054374695,-0.07761646807193756
1782987730388649500,7.6396494140625,-0.03869830444455147,-0.17298144102096558,-0.13584116101264954
1782987730398724400,7.649724365234375,-0.04948407784104347,-0.1440148800611496,-0.1675015687942505
1782987730408798500,7.659798583984375,-0.060525279492139816,-0.11201991885900497,-0.1682930588722229
1782987730418873300,7.669873291015625,-0.06357575953006744,-0.07145807147026062,-0.14771847426891327
1782987730428947500,7.679947509765625,-0.04784553125500679,0.0013210659381002188,-0.10935191065073013
1782987730439022300,7.690022216796875,-0.013352533802390099,0.08799763768911362,-0.06070847809314728
1782987730449096400,7.700096435546875,0.028684459626674652,0.1821424514055252,-0.009914734400808811
1782987730459171300,7.71017138671875,0.06821652501821518,0.2528740465641022,0.036473631858825684
1782987730469245400,7.720245361328125,0.10684940218925476,0.2811591923236847,0.08153751492500305
1782987730479320300,7.7303203125,0.15002083778381348,0.2795499563217163,0.11656351387500763
1782987730489394400,7.74039453125,0.19464556872844696,0.26097917556762695,0.1492713987827301
1782987730499469600,7.750469482421875,0.23392529785633087,0.2346062809228897,0.17523901164531708
1782987730509543400,7.76054345703125,0.26355668902397156,0.22276932001113892,0.18851646780967712
1782987730519618600,7.77061865234375,0.27696043252944946,0.2090052217245102,0.1772417575120926
1782987730529692400,7.7806923828125,0.2768629491329193,0.19723404943943024,0.13377629220485687
1782987730539767600,7.790767578125,0.27060818672180176,0.17311032116413116,0.06154787540435791
1782987730549841400,7.80084130859375,0.25359031558036804,0.12213901430368423,-0.0302203930914402
1782987730559916500,7.81091650390625,0.22780698537826538,0.1050994023680687,-0.13169334828853607
1782987730569990400,7.820990478515625,0.18595407903194427,0.2807796001434326,-0.2229636013507843
1782987730580065500,7.8310654296875,0.1462545394897461,0.5361526012420654,-0.2868461608886719
1782987730590140400,7.841140380859375,0.1106019914150238,0.617690920829773,-0.36421123147010803
1782987730600214500,7.851214599609375,0.08944679796695709,0.4911625385284424,-0.4566659927368164
1782987730610289400,7.861289306640625,0.08928781002759933,0.22997167706489563,-0.5424908995628357
1782987730620363500,7.871363525390625,0.08927040547132492,-0.08235608041286469,-0.5913374423980713
1782987730630438400,7.8814384765625,0.09004805237054825,-0.3302806615829468,-0.5678728818893433
1782987730640512500,7.891512451171875,0.08979115635156631,-0.35621505975723267,-0.4720718562602997
1782987730650587400,7.90158740234375,0.08314897119998932,-0.18537035584449768,-0.31530141830444336
1782987730660661500,7.91166162109375,0.06882593780755997,-0.04355912655591965,-0.17791736125946045
1782987730670736400,7.921736328125,0.052676793187856674,-0.07850299775600433,-0.09664380550384521
1782987730680810500,7.931810546875,0.06033250689506531,-0.21042968332767487,-0.04148827865719795
1782987730690885400,7.941885498046875,0.04883217811584473,-0.2284662127494812,0.051398251205682755
1782987730700959500,7.95195947265625,-0.007713480852544308,-0.05853988230228424,0.15547873079776764
1782987730711034400,7.962034423828125,-0.09499485790729523,0.1277570128440857,0.24438756704330444
1782987730721108500,7.9721083984375,-0.1824672818183899,0.23695802688598633,0.2790760099887848
1782987730731183400,7.982183349609375,-0.23024438321590424,0.25928089022636414,0.2622155249118805
1782987730741257500,7.992257568359375,-0.22462253272533417,0.21481189131736755,0.2073225975036621
1782987730751332600,8.00233251953125,-0.1753103882074356,0.1070055216550827,0.14720040559768677
1782987730761406500,8.012406494140626,-0.11321140080690384,0.0015240872744470835,0.11132253706455231
1782987730771481600,8.022481689453125,-0.053924381732940674,-0.05613521486520767,0.1118335947394371
1782987730781555500,8.032555419921875,-0.02101844921708107,-0.05667106434702873,0.15351629257202148
1782987730791630600,8.042630615234375,-0.02024693228304386,-0.033032044768333435,0.2066330462694168
1782987730801704400,8.052704345703125,-0.04033985733985901,-0.010550052858889103,0.24880751967430115
1782987730811779600,8.062779541015624,-0.06300708651542664,-0.0016601544339209795,0.25686731934547424
1782987730821853400,8.072853515625,-0.08341897279024124,-0.012217478826642036,0.2302204817533493
1782987730831928600,8.082928466796876,-0.10090954601764679,-0.07220811396837234,0.1659834384918213
1782987730842002400,8.09300244140625,-0.11227016896009445,-0.15309496223926544,0.08801602572202682
1782987730852077600,8.10307763671875,-0.11872833222150803,-0.20649054646492004,0.02154645137488842
1782987730862151400,8.1131513671875,-0.11355611681938171,-0.1856626272201538,-0.020445622503757477
1782987730872226600,8.1232265625,-0.10817333310842514,-0.16610704362392426,-0.029598642140626907
1782987730882300400,8.133300537109376,-0.09796223044395447,-0.1327887922525406,-0.011931615881621838
1782987730892375600,8.14337548828125,-0.08250284194946289,-0.06498339027166367,0.03473016247153282
1782987730902449400,8.153449462890626,-0.049264125525951385,-0.017840756103396416,0.09540519118309021
1782987730912524500,8.163524658203125,-0.013729565776884556,-0.05022639408707619,0.16935984790325165
1782987730922598400,8.173598388671875,0.004501906223595142,-0.08616378903388977,0.22751431167125702
1782987730932673500,8.183673583984374,0.004820686765015125,-0.10089133679866791,0.2474997341632843
1782987730942747400,8.193747314453125,-0.005007248837500811,-0.13779625296592712,0.226663738489151
1782987730952822500,8.203822509765626,-0.007419805973768234,-0.15536698698997498,0.1918671429157257
1782987730962896600,8.213896728515625,-0.014435574412345886,-0.14222699403762817,0.15952818095684052
1782987730972971500,8.223971435546876,-0.016940010711550713,-0.1785501092672348,0.13335809111595154
1782987730983045600,8.234045654296875,-0.02505819872021675,-0.22147785127162933,0.12676724791526794
1782987730993120500,8.24412060546875,-0.04459887742996216,-0.2360951453447342,0.1203325092792511
1782987731003194600,8.254194580078124,-0.0720343291759491,-0.23487910628318787,0.11910726130008698
1782987731013269500,8.26426953125,-0.09896740317344666,-0.26087477803230286,0.10764821618795395
1782987731023343600,8.274343505859376,-0.12674187123775482,-0.31248927116394043,0.08161606639623642
1782987731033418500,8.28441845703125,-0.1347193717956543,-0.3917990028858185,0.05872326344251633
1782987731043492600,8.29449267578125,-0.11736346036195755,-0.4698740541934967,0.028308914974331856
1782987731053567500,8.3045673828125,-0.0748884379863739,-0.5209611654281616,0.004900793544948101
1782987731063641600,8.3146416015625,-0.01827532984316349,-0.5249021053314209,0.0013932319125160575
1782987731073716500,8.324716552734374,0.03989503160119057,-0.4890780746936798,0.01783638820052147
1782987731083790600,8.33479052734375,0.0883210077881813,-0.4490368962287903,0.05393729358911514
1782987731093865500,8.344865478515626,0.12221585959196091,-0.41255879402160645,0.11990272998809814
1782987731103939600,8.354939697265625,0.13455496728420258,-0.3510987162590027,0.20103859901428223
1782987731114014500,8.365014404296875,0.13425244390964508,-0.2014559656381607,0.28627118468284607
1782987731124088600,8.375088623046874,0.12896013259887695,-0.05945982784032822,0.3676624894142151
1782987731134163500,8.38516357421875,0.11998447775840759,-0.09750708192586899,0.4006268382072449
1782987731144237600,8.395237548828124,0.11158539354801178,-0.2919292449951172,0.3829134404659271
1782987731154312400,8.4053125,0.10348006337881088,-0.5164414048194885,0.3332732021808624
1782987731164386600,8.415386474609376,0.07257711887359619,-0.6268323063850403,0.2591497004032135
1782987731174461700,8.425461669921875,0.024289479479193687,-0.6399334669113159,0.180863156914711
1782987731184535600,8.43553564453125,-0.040192149579524994,-0.6158646941184998,0.11201857775449753
1782987731194610700,8.445610595703124,-0.0945560559630394,-0.4700150787830353,0.07194439321756363
1782987731204684500,8.4556845703125,-0.11987908184528351,-0.23213258385658264,0.07731587439775467
1782987731214759700,8.465759765625,-0.1125657707452774,-0.0033811675384640694,0.10657389461994171
1782987731224833500,8.47583349609375,-0.07718931883573532,0.1252480447292328,0.136557474732399
1782987731234908700,8.48590869140625,-0.024363383650779724,0.10305645316839218,0.15669922530651093
1782987731244982500,8.495982421875,0.019326820969581604,-0.0123648252338171,0.14281237125396729
1782987731255057700,8.5060576171875,0.047966454178094864,-0.15068276226520538,0.10075519979000092
1782987731265131500,8.516131591796874,0.06168848276138306,-0.29136306047439575,0.0407380536198616
1782987731275206700,8.52620654296875,0.07003216445446014,-0.3788662850856781,-0.03275347128510475
1782987731285280500,8.536280517578126,0.07084337621927261,-0.36996567249298096,-0.10082335025072098
1782987731295355600,8.546355712890625,0.0632573589682579,-0.2517053484916687,-0.1539241224527359
1782987731305429500,8.556429443359375,0.04878147691488266,-0.04319415241479874,-0.18910570442676544
1782987731315504600,8.566504638671875,0.04284768924117088,0.2037314772605896,-0.18402600288391113
1782987731325578500,8.57657861328125,0.04524916410446167,0.44940266013145447,-0.15205785632133484
1782987731335653600,8.586653564453124,0.05198802426457405,0.6236754059791565,-0.11396825313568115
1782987731345727500,8.5967275390625,0.07750242948532104,0.6883725523948669,-0.06736504286527634
1782987731355802600,8.606802734375,0.10437958687543869,0.6674739718437195,-0.023002108559012413
1782987731365876500,8.61687646484375,0.12348920106887817,0.5406925678253174,0.004297337494790554
1782987731375951600,8.62695166015625,0.10955527424812317,0.3360060155391693,0.0050195869989693165
1782987731386025500,8.637025390625,0.07854799926280975,0.10666501522064209,-0.016210000962018967
1782987731396100600,8.6471005859375,0.04775865748524666,-0.04223152622580528,-0.06820342689752579
1782987731406174500,8.657174560546874,0.0468883290886879,-0.09555630385875702,-0.13764026761054993
1782987731416249600,8.66724951171875,0.08502772450447083,-0.0801248848438263,-0.21999773383140564
1782987731426323500,8.677323486328126,0.15437041223049164,-0.020252803340554237,-0.2910911440849304
1782987731436398600,8.687398681640625,0.2400408387184143,0.08859777450561523,-0.33399680256843567
1782987731446472400,8.697472412109375,0.3229656219482422,0.19613118469715118,-0.33223429322242737
1782987731456547600,8.707547607421875,0.38836729526519775,0.2776191234588623,-0.28407156467437744
1782987731466621400,8.717621337890625,0.42925703525543213,0.3000839352607727,-0.20410117506980896
1782987731476696600,8.727696533203124,0.45167312026023865,0.29501408338546753,-0.10113910585641861
1782987731486770400,8.7377705078125,0.46491071581840515,0.26107877492904663,0.0009247105335816741
1782987731496845600,8.747845458984376,0.4682774841785431,0.21498051285743713,0.08239400386810303
1782987731506919400,8.75791943359375,0.46388939023017883,0.19906553626060486,0.13919027149677277
1782987731516994600,8.76799462890625,0.47622647881507874,0.25666701793670654,0.18568746745586395
1782987731527068400,8.778068359375,0.5067487359046936,0.3417099714279175,0.21049050986766815
1782987731537143600,8.7881435546875,0.5530219674110413,0.4143306314945221,0.2274537831544876
1782987731547217700,8.7982177734375,0.6105329394340515,0.47466734051704407,0.2360561192035675
1782987731557292500,8.80829248046875,0.6645293235778809,0.5111084580421448,0.23249787092208862
1782987731567366700,8.81836669921875,0.7027379870414734,0.5077580213546753,0.21569858491420746
1782987731577441500,8.828441650390625,0.7406693696975708,0.4960273504257202,0.20328639447689056
1782987731587515600,8.838515625,0.769061803817749,0.4770873188972473,0.19238170981407166
1782987731597590500,8.848590576171874,0.7943551540374756,0.4113759696483612,0.17317551374435425
1782987731607664600,8.85866455078125,0.8130224347114563,0.29210665822029114,0.14234064519405365
1782987731617739500,8.868739501953126,0.8079440593719482,0.14623387157917023,0.0708981528878212
1782987731627813600,8.878813720703125,0.7628574371337891,-0.01464281976222992,-0.05020318925380707
1782987731637888500,8.888888427734376,0.6987605094909668,-0.11512868106365204,-0.21007567644119263
1782987731647962600,8.898962646484375,0.6236245036125183,-0.06067237630486488,-0.3745673894882202
1782987731658037500,8.90903759765625,0.5639327168464661,0.20751327276229858,-0.48135560750961304
1782987731668111600,8.919111572265624,0.5319467186927795,0.45932120084762573,-0.5249990820884705
1782987731678186500,8.9291865234375,0.5173107981681824,0.49237048625946045,-0.5482708811759949
1782987731688260600,8.939260498046876,0.5184202194213867,0.35130512714385986,-0.5619696974754333
1782987731698335500,8.94933544921875,0.5534862875938416,0.2345966100692749,-0.5134405493736267
1782987731708409600,8.95940966796875,0.6118857264518738,0.3661212623119354,-0.36483675241470337
1782987731718484500,8.969484375,0.6864396333694458,0.7428715229034424,-0.12291332334280014
1782987731728558600,8.97955859375,0.7596499919891357,1.107978105545044,0.10846453905105591
1782987731738633500,8.989633544921874,0.807375431060791,1.3053622245788574,0.26560142636299133
1782987731748707600,8.99970751953125,0.8699138164520264,1.3423365354537964,0.33787673711776733
1782987731758782500,9.009782470703126,0.9354584813117981,1.2669914960861206,0.32168206572532654
1782987731768856600,9.019856689453125,0.9748332500457764,1.0728999376296997,0.21138152480125427
1782987731778931500,9.029931396484375,0.993834912776947,0.7068266272544861,0.01629086770117283
1782987731789005600,9.040005615234374,0.9569616913795471,0.29155778884887695,-0.23512746393680573
1782987731799080400,9.05008056640625,0.8810698390007019,-0.007596435956656933,-0.4892718493938446
1782987731809154600,9.060154541015624,0.820164144039154,-0.1510421335697174,-0.6904669404029846
1782987731819229700,9.070229736328125,0.7876962423324585,-0.14747749269008636,-0.8140418529510498
1782987731829304600,9.0803046875,0.7860139608383179,-0.01269086729735136,-0.8527793884277344
1782987731839378700,9.090378662109375,0.8124873638153076,0.1408108025789261,-0.7994011640548706
1782987731849453600,9.10045361328125,0.8554961085319519,0.29348936676979065,-0.6680017709732056
1782987731859527700,9.110527587890624,0.8882279396057129,0.42024120688438416,-0.48452726006507874
1782987731869602600,9.1206025390625,0.8981523513793945,0.5106822848320007,-0.28506648540496826
1782987731879676700,9.1306767578125,0.8976538181304932,0.5758399367332458,-0.08815157413482666
1782987731889751600,9.14075146484375,0.9075447916984558,0.6427257657051086,0.0868372842669487
1782987731899825700,9.15082568359375,0.9341468214988708,0.7155470252037048,0.22197432816028595
1782987731909900500,9.160900634765625,0.9781619310379028,0.7673558592796326,0.31563371419906616
1782987731919974700,9.170974609375,1.0313180685043335,0.7406027913093567,0.36044591665267944
1782987731930049500,9.181049560546874,1.0945264101028442,0.6386622190475464,0.3562694787979126
1782987731940123600,9.19112353515625,1.169844627380371,0.5247575044631958,0.32785993814468384
1782987731950198500,9.201198486328124,1.2436606884002686,0.4351283311843872,0.3017705976963043
1782987731960273000,9.21127294921875,1.3027836084365845,0.3711378872394562,0.27419278025627136
1782987731970347500,9.221347412109376,1.3269598484039307,0.3178362250328064,0.24694406986236572
1782987731980422000,9.231421875,1.324088454246521,0.2670076787471771,0.21458560228347778
1782987731990496500,9.24149658203125,1.302728533744812,0.2158804088830948,0.17843486368656158
1782987732000571000,9.25157080078125,1.2561378479003906,0.1390591263771057,0.12468083202838898
1782987732010645500,9.2616455078125,1.2028393745422363,0.04035678133368492,0.0523679293692112
1782987732020719900,9.271719970703124,1.1473339796066284,-0.04829452559351921,-0.03644556552171707
1782987732030794500,9.28179443359375,1.096473217010498,-0.10345684736967087,-0.12633471190929413
1782987732040868900,9.291868896484376,1.0425066947937012,-0.10992593318223953,-0.21439558267593384
1782987732050943700,9.30194384765625,0.9908179044723511,-0.07821373641490936,-0.28322675824165344
1782987732061017900,9.312017822265625,0.9395781755447388,0.008944597095251083,-0.30933213233947754
1782987732071092700,9.3220927734375,0.8991403579711914,0.17162257432937622,-0.2792326509952545
1782987732081166800,9.332166748046875,0.8526167869567871,0.3531382977962494,-0.19552789628505707
1782987732091241700,9.34224169921875,0.801001787185669,0.47732552886009216,-0.0792553573846817
1782987732101315800,9.35231591796875,0.7769941687583923,0.5699931979179382,0.08458763360977173
1782987732111389700,9.3623896484375,0.7763937711715698,0.6398365497589111,0.24660860002040863
1782987732121464800,9.37246484375,0.7824835777282715,0.6401705145835876,0.3645589351654053
1782987732131538700,9.38253857421875,0.7939258813858032,0.5490611791610718,0.4219488203525543
1782987732141613800,9.39261376953125,0.796643078327179,0.4277150630950928,0.431311696767807
1782987732151687700,9.402687744140625,0.7904223203659058,0.29407164454460144,0.39136919379234314
1782987732161762800,9.4127626953125,0.788835883140564,0.1817149966955185,0.33784496784210205
1782987732171837000,9.4228369140625,0.8026436567306519,0.16945107281208038,0.30133140087127686
1782987732181911800,9.432911865234376,0.8378426432609558,0.3101849853992462,0.31640514731407166
1782987732191986000,9.44298583984375,0.8676663637161255,0.49274349212646484,0.36811956763267517
1782987732202060800,9.453060791015625,0.8860112428665161,0.5593933463096619,0.4023475646972656
1782987732212135000,9.463135009765624,0.9137175679206848,0.4811791777610779,0.41846898198127747
1782987732222209800,9.473209716796875,0.9304448962211609,0.3940011262893677,0.4217398762702942
1782987732232284000,9.483283935546876,0.9240991473197937,0.39100077748298645,0.42085710167884827
1782987732242358800,9.49335888671875,0.8745507597923279,0.4465801417827606,0.390543133020401
1782987732252433000,9.503432861328125,0.7981330156326294,0.5096613764762878,0.31472283601760864
1782987732262507800,9.5135078125,0.7219381332397461,0.528023362159729,0.1918001025915146
1782987732272582000,9.523581787109375,0.67769855260849,0.46568581461906433,0.031591709703207016
1782987732282656800,9.53365673828125,0.6633134484291077,0.31366273760795593,-0.1362960934638977
1782987732292731000,9.54373095703125,0.6701520681381226,0.18706823885440826,-0.29604223370552063
1782987732302805800,9.5538056640625,0.6951748728752136,0.21629537642002106,-0.394568532705307
1782987732312879900,9.5638798828125,0.7398907542228699,0.41461554169654846,-0.42121243476867676
1782987732322954800,9.573954833984375,0.8081364035606384,0.6875317692756653,-0.36201462149620056
1782987732333028900,9.58402880859375,0.8959993720054626,0.9715016484260559,-0.23986129462718964
1782987732343103700,9.594103759765625,0.9771834015846252,1.1733479499816895,-0.08794313669204712
1782987732353177900,9.604177734375,1.0556910037994385,1.2956969738006592,0.07966706156730652
1782987732363252700,9.614252685546875,1.1303108930587769,1.3877419233322144,0.24004873633384705
1782987732373326800,9.624326904296876,1.1902095079421997,1.4443793296813965,0.3660489618778229
1782987732383401700,9.634401611328125,1.2409496307373047,1.4482738971710205,0.4491656720638275
1782987732393475800,9.644475830078125,1.28242826461792,1.412786841392517,0.4840230941772461
1782987732403550700,9.65455078125,1.3084747791290283,1.313646674156189,0.4646557867527008
1782987732413624800,9.664624755859375,1.3284249305725098,1.120682716369629,0.39346832036972046
1782987732423700000,9.674699951171876,1.3360159397125244,0.8548297882080078,0.2678390145301819
1782987732433773800,9.68477392578125,1.3220654726028442,0.5610479712486267,0.09484647959470749
1782987732443849000,9.694848876953126,1.284347414970398,0.3287753164768219,-0.10344424098730087
1782987732453923600,9.704923583984375,1.2406940460205078,0.191140279173851,-0.30843386054039
1782987732463998000,9.714998046875,1.2041219472885132,0.15744489431381226,-0.5004711747169495
1782987732474072600,9.725072509765624,1.1771544218063354,0.2533797323703766,-0.6407359838485718
1782987732484147700,9.735147705078125,1.1746171712875366,0.4310935437679291,-0.7198917865753174
1782987732494221600,9.7452216796875,1.1814744472503662,0.6410082578659058,-0.7193194031715393
1782987732504296700,9.755296630859375,1.1951748132705688,0.7872986793518066,-0.6436366438865662
1782987732514370600,9.76537060546875,1.1989721059799194,0.845130443572998,-0.5227498412132263
1782987732524445700,9.77544580078125,1.2083706855773926,0.8332058191299438,-0.37149980664253235
1782987732534519600,9.78551953125,1.2483810186386108,0.8261154890060425,-0.20136825740337372
1782987732544594700,9.7955947265625,1.3129630088806152,0.8574981689453125,-0.03576011583209038
1782987732554668500,9.80566845703125,1.385056734085083,0.8814353942871094,0.09712570905685425
1782987732564743700,9.81574365234375,1.4453730583190918,0.8876323103904724,0.18462254106998444
1782987732574817500,9.825817626953125,1.478311538696289,0.8787291049957275,0.23090721666812897
1782987732584892700,9.835892578125,1.4980436563491821,0.8647815585136414,0.2590717375278473
1782987732594966500,9.845966552734374,1.4914244413375854,0.8627830743789673,0.26088449358940125
1782987732605041700,9.856041748046875,1.466691493988037,0.8469758629798889,0.24234488606452942
1782987732615115500,9.866115478515624,1.4162013530731201,0.8154186010360718,0.2123311311006546
1782987732625190700,9.876190673828125,1.3340809345245361,0.7863933444023132,0.17324711382389069
1782987732635264500,9.886264404296876,1.2357726097106934,0.7536992430686951,0.14002791047096252
1782987732645339600,9.896339599609375,1.1395467519760132,0.7639780044555664,0.11990638822317123
1782987732655413500,9.90641357421875,1.06386399269104,0.8276293873786926,0.10948646068572998
1782987732665488600,9.916488525390625,1.0158411264419556,0.8679373860359192,0.09425104409456253
1782987732675562500,9.9265625,1.0084247589111328,0.8750830292701721,0.0901477262377739
1782987732685637600,9.9366376953125,1.0251160860061646,0.8712270259857178,0.10326725989580154
1782987732695711700,9.946711669921875,1.0427900552749634,0.8348037600517273,0.12237968295812607
1782987732705786600,9.95678662109375,1.0342572927474976,0.763708770275116,0.1350371539592743
1782987732715860700,9.96686083984375,0.9949812293052673,0.6875001192092896,0.11968091875314713
1782987732725935600,9.976935546875,0.9299569725990295,0.6309292316436768,0.08779782801866531
1782987732736009700,9.987009765625,0.864190936088562,0.6710290908813477,0.03565319627523422
1782987732746084600,9.997084716796875,0.823399543762207,0.8797276616096497,-0.02115495875477791
1782987732756158700,10.00715869140625,0.8143704533576965,1.2422858476638794,-0.08000555634498596
1782987732766233600,10.017233642578125,0.8485025763511658,1.468608021736145,-0.1443786919116974
1782987732776307700,10.0273076171875,0.9000712037086487,1.3531973361968994,-0.2393108755350113
1782987732786382600,10.037382568359375,0.9595198631286621,1.0564018487930298,-0.31685492396354675
1782987732796456700,10.047456787109375,0.9984479546546936,0.8483463525772095,-0.31438010931015015
1782987732806531600,10.057531494140624,1.0176714658737183,0.8398285508155823,-0.22548645734786987
1782987732816605700,10.067605712890625,1.0242104530334473,0.9999653697013855,-0.0758267268538475
1782987732826680600,10.0776806640625,1.0423691272735596,1.2634590864181519,0.09479347616434097
1782987732836754700,10.087754638671875,1.0768914222717285,1.5208487510681152,0.24506327509880066
1782987732846829600,10.09782958984375,1.0998376607894897,1.5814615488052368,0.33832263946533203
1782987732856903700,10.107903564453125,1.1031287908554077,1.4808002710342407,0.3425682783126831
1782987732866978600,10.117978515625,1.0912790298461914,1.2677394151687622,0.26369211077690125
1782987732877052700,10.128052734375,1.0813158750534058,0.9898577332496643,0.13703978061676025
1782987732887127600,10.13812744140625,1.067982792854309,0.775894820690155,-0.022437768056988716
1782987732897201700,10.14820166015625,1.0571705102920532,0.6450909972190857,-0.19835887849330902
1782987732907276500,10.158276611328125,1.0522139072418213,0.6157288551330566,-0.3559897840023041
1782987732917350700,10.1683505859375,1.075727939605713,0.6798661351203918,-0.46805185079574585
1782987732927425500,10.178425537109375,1.1084747314453125,0.7783809900283813,-0.5317296385765076
1782987732937499600,10.188499755859375,1.139858365058899,0.8691455125808716,-0.5298404097557068
1782987732947574800,10.19857470703125,1.17648184299469,0.9600967168807983,-0.4603007435798645
1782987732957648600,10.208648681640625,1.1941760778427124,1.0074121952056885,-0.33904117345809937
1782987732967723000,10.218722900390626,1.1701043844223022,1.0258607864379883,-0.19504216313362122
1782987732977797400,10.22879736328125,1.1405857801437378,0.9883507490158081,-0.08291637897491455
1782987732987872000,10.2388720703125,1.1312764883041382,0.8969380259513855,-0.011648587882518768
1782987732997946400,10.2489462890625,1.1505545377731323,0.8275202512741089,0.02486403100192547
1782987733008021200,10.259021240234375,1.2066856622695923,0.8436079025268555,0.047049496322870255
1782987733018095400,10.269095458984374,1.2705024480819702,0.8918803334236145,0.05064662918448448
1782987733028170200,10.279170166015625,1.3319001197814941,0.919726550579071,0.04497043415904045
1782987733038244400,10.289244384765626,1.37985360622406,0.9058865904808044,0.025889070704579353
1782987733048319200,10.2993193359375,1.395987868309021,0.8584918975830078,0.019410664215683937
1782987733058393300,10.309393310546875,1.3792004585266113,0.7993580102920532,0.019644135609269142
1782987733068468200,10.31946826171875,1.344412088394165,0.7211401462554932,0.029758555814623833
1782987733078542300,10.329542236328125,1.302206039428711,0.6099533438682556,0.04041639342904091
1782987733088617200,10.3396171875,1.249826431274414,0.5020686984062195,0.04707828909158707
1782987733098691300,10.34969140625,1.197265386581421,0.4403051435947418,0.03725206106901169
1782987733108766200,10.35976611328125,1.1606935262680054,0.44587621092796326,0.016231730580329895
1782987733118840300,10.36984033203125,1.1335947513580322,0.468497633934021,-0.016881799325346947
1782987733128915200,10.379915283203125,1.1130850315093994,0.47920700907707214,-0.06215980276465416
1782987733138989300,10.3899892578125,1.0790523290634155,0.49009403586387634,-0.1294439733028412
1782987733149064200,10.400064208984375,1.0526812076568604,0.5088515281677246,-0.20845063030719757
1782987733159138300,10.41013818359375,1.001370906829834,0.5120210647583008,-0.2955332100391388
1782987733169213200,10.420213134765625,0.9317631125450134,0.46606314182281494,-0.3009812533855438
1782987733179287300,10.430287353515626,0.773182213306427,0.3135397434234619,-0.1721094697713852
1782987733189362200,10.440362060546875,0.6259579062461853,0.09532245993614197,-0.11094199120998383
1782987733199436300,10.450436279296875,0.6010889410972595,-0.09321185201406479,-0.10807789117097855
1782987733209511200,10.46051123046875,0.6260116100311279,-0.0028939414769411087,-0.14008881151676178
1782987733219585300,10.470585205078125,0.5996683835983276,0.2727157473564148,-0.18821722269058228
1782987733229660200,10.48066015625,0.49274322390556335,0.48107215762138367,-0.2097717821598053
1782987733239734300,10.490734375,0.33630967140197754,0.5335371494293213,-0.11339765787124634
1782987733249809200,10.50080908203125,0.23792077600955963,0.404935747385025,0.1493532806634903
1782987733259883300,10.51088330078125,0.23112697899341583,0.1710931360721588,0.4715326130390167
1782987733269958100,10.520958251953125,0.2944321930408478,-0.1311972290277481,0.7215312719345093
