time,seconds_elapsed,z,y,x
1782987722808846600,0.0598466796875,0.48266544938087463,0.04952121526002884,0.01715315505862236
1782987722818921700,0.069921630859375,0.4307015836238861,0.006400375161319971,0.008610532619059086
1782987722828995600,0.07999560546875,0.39639848470687866,-0.028489165008068085,0.011983159929513931
1782987722839070700,0.09007080078125,0.3628000319004059,-0.05840951204299927,0.013097425922751427
1782987722849144600,0.10014453125,0.32723352313041687,-0.0674983486533165,0.026329608634114265
1782987722859219700,0.1102197265625,0.2844615578651428,-0.03586399182677269,0.043898481875658035
1782987722869293600,0.12029345703125,0.2362910956144333,0.007715177722275257,0.06634360551834106
1782987722879368700,0.13036865234375,0.17234566807746887,0.04857499152421951,0.09294085949659348
1782987722889442600,0.140442626953125,0.1115153431892395,0.11468024551868439,0.11209138482809067
1782987722899517700,0.150517578125,0.05013187602162361,0.18843995034694672,0.12316267937421799
1782987722909591600,0.160591552734375,-0.008106928318738937,0.22044742107391357,0.1071552187204361
1782987722919666700,0.170666748046875,-0.06510256975889206,0.2240927517414093,0.08960019052028656
1782987722929740500,0.180740478515625,-0.1235504299402237,0.20506499707698822,0.06589006632566452
1782987722939815700,0.190815673828125,-0.1842222958803177,0.12585273385047913,0.028671059757471085
1782987722949885200,0.20088525390625,-0.2317594587802887,0.009966613724827766,0.0022216090001165867
1782987722959960000,0.2109599609375,-0.2564850449562073,-0.09587539732456207,-0.024150077253580093
1782987722970034200,0.2210341796875,-0.2686935067176819,-0.1546686738729477,-0.04645351693034172
1782987722980109000,0.231109130859375,-0.2629584074020386,-0.14325515925884247,-0.05528402701020241
1782987722990183200,0.24118310546875,-0.25188761949539185,-0.11384826898574829,-0.05776183307170868
1782987723000258000,0.251258056640625,-0.22849895060062408,-0.12168222665786743,-0.09182925522327423
1782987723010332200,0.261332275390625,-0.20213712751865387,-0.1949836015701294,-0.13796798884868622
1782987723020407000,0.271406982421875,-0.18066005408763885,-0.280193030834198,-0.1819210648536682
1782987723030481200,0.281481201171875,-0.16766862571239471,-0.27525368332862854,-0.21037614345550537
1782987723040556000,0.29155615234375,-0.17989227175712585,-0.1994960606098175,-0.2170678675174713
1782987723050630100,0.301630126953125,-0.19658230245113373,-0.08757645636796951,-0.18874861299991608
1782987723060705000,0.311705078125,-0.22263094782829285,0.03334011510014534,-0.13773682713508606
1782987723070779100,0.321779052734375,-0.24267229437828064,0.14400218427181244,-0.08533620089292526
1782987723080854000,0.33185400390625,-0.24743854999542236,0.21201957762241364,-0.042398590594530106
1782987723090928000,0.34192822265625,-0.2420073002576828,0.18255595862865448,-0.01738405041396618
1782987723101003000,0.3520029296875,-0.22443176805973053,0.10740847885608673,0.009489375166594982
1782987723111077000,0.3620771484375,-0.19163867831230164,0.04176582396030426,0.032466065138578415
1782987723121152000,0.372152099609375,-0.14788080751895905,0.03742753341794014,0.061593856662511826
1782987723131227100,0.38222705078125,-0.09554915875196457,0.10659701377153397,0.11661449819803238
1782987723141301000,0.392301025390625,-0.036548957228660583,0.20812657475471497,0.19266586005687714
1782987723151376100,0.402376220703125,0.01895371824502945,0.32008931040763855,0.28775349259376526
1782987723161450200,0.4124501953125,0.05389225855469704,0.4356268346309662,0.38522598147392273
1782987723171525000,0.422525146484375,0.05951898545026779,0.4449321925640106,0.47302907705307007
1782987723181599200,0.43259912109375,0.036560941487550735,0.37501809000968933,0.544843852519989
1782987723191674000,0.442674072265625,-0.006178267300128937,0.2586667239665985,0.6115810871124268
1782987723201748200,0.452748291015625,-0.06857453286647797,0.14650927484035492,0.6829844117164612
1782987723211823000,0.462822998046875,-0.13166694343090057,0.05217691883444786,0.7555902004241943
1782987723221897200,0.472897216796875,-0.1848268359899521,-0.04752890393137932,0.8107399940490723
1782987723231972000,0.48297216796875,-0.19416175782680511,-0.13999386131763458,0.8237450122833252
1782987723242046200,0.493046142578125,-0.14644242823123932,-0.16144642233848572,0.788346529006958
1782987723252121000,0.50312109375,-0.0755448266863823,-0.06516781449317932,0.7213536500930786
1782987723262195200,0.5131953125,0.004000334069132805,0.11080507934093475,0.6355612874031067
1782987723272270000,0.52327001953125,0.07230216264724731,0.26615896821022034,0.5298933982849121
1782987723282344200,0.53334423828125,0.12146491557359695,0.35941222310066223,0.41240406036376953
1782987723292419000,0.543419189453125,0.1593097597360611,0.4241989552974701,0.2974913418292999
1782987723302493200,0.5534931640625,0.18610195815563202,0.4489612877368927,0.18191787600517273
1782987723312568000,0.563568115234375,0.20686423778533936,0.40460366010665894,0.08662490546703339
1782987723322642200,0.57364208984375,0.2268667072057724,0.32528993487358093,0.011829229071736336
1782987723332717000,0.583717041015625,0.23440158367156982,0.24727770686149597,-0.030823159962892532
1782987723342791200,0.593791259765625,0.22362270951271057,0.18010053038597107,-0.04680106043815613
1782987723352866000,0.603865966796875,0.17608101665973663,0.08266159147024155,-0.06868558377027512
1782987723362940200,0.613940185546875,0.11755245923995972,0.05655195936560631,-0.07518396526575089
1782987723373015000,0.62401513671875,0.06684800237417221,0.07989749312400818,-0.07991640269756317
1782987723383089200,0.634089111328125,0.039863791316747665,0.11799001693725586,-0.11121733486652374
1782987723393164000,0.6441640625,0.04025314748287201,0.16697406768798828,-0.13971662521362305
1782987723403238100,0.654238037109375,0.04440794512629509,0.18770278990268707,-0.15648068487644196
1782987723413313000,0.66431298828125,0.051106858998537064,0.18188431859016418,-0.1599728912115097
1782987723423387100,0.67438720703125,0.06384476274251938,0.16475699841976166,-0.1540534794330597
1782987723433462000,0.6844619140625,0.08572795242071152,0.15783357620239258,-0.13804921507835388
1782987723443536100,0.6945361328125,0.11618492752313614,0.12752945721149445,-0.1299489438533783
1782987723453611000,0.704611083984375,0.16051511466503143,0.07241827249526978,-0.11855940520763397
1782987723463685000,0.71468505859375,0.21770809590816498,0.04875076189637184,-0.10416474938392639
1782987723473760300,0.72476025390625,0.28803232312202454,0.07908470183610916,-0.09048276394605637
1782987723483835000,0.7348349609375,0.34410303831100464,0.1256423443555832,-0.07054287195205688
1782987723493909200,0.7449091796875,0.38910993933677673,0.15656724572181702,-0.04495176300406456
1782987723503983900,0.75498388671875,0.4177844524383545,0.2215598225593567,0.005192098673433065
1782987723514058200,0.765058349609375,0.41928568482398987,0.3000868558883667,0.07878722250461578
1782987723524132900,0.7751328125,0.39634841680526733,0.3853152096271515,0.16404034197330475
1782987723534207200,0.785207275390625,0.3822091519832611,0.4374662935733795,0.25404664874076843
1782987723544281900,0.79528173828125,0.40828070044517517,0.4863155782222748,0.32535067200660706
1782987723554356200,0.805356201171875,0.47260695695877075,0.5270885825157166,0.3607880175113678
1782987723564430800,0.815430908203125,0.5427008271217346,0.5336173176765442,0.36337020993232727
1782987723574505200,0.825505126953125,0.604019820690155,0.5299429297447205,0.33824196457862854
1782987723584579800,0.835579833984375,0.6397759914398193,0.5174495577812195,0.3073711395263672
1782987723594654200,0.845654296875,0.6430527567863464,0.4623793661594391,0.2622385323047638
1782987723604728800,0.855728759765625,0.6168954372406006,0.40356025099754333,0.22458943724632263
1782987723614803200,0.86580322265625,0.5687393546104431,0.34015756845474243,0.1862311214208603
1782987723624877800,0.8758779296875,0.5208261609077454,0.28328177332878113,0.15884238481521606
1782987723634952200,0.8859521484375,0.4760890305042267,0.3095138967037201,0.14729943871498108
1782987723645026800,0.89602685546875,0.4314209222793579,0.5302316546440125,0.14788666367530823
1782987723655101200,0.90610107421875,0.3833164870738983,0.765558123588562,0.13429522514343262
1782987723665175800,0.91617578125,0.36272308230400085,0.7476358413696289,0.06264500319957733
1782987723675250200,0.926250244140625,0.34157705307006836,0.5928657054901123,-0.04042225703597069
1782987723685325000,0.936324951171875,0.30667179822921753,0.3704129457473755,-0.15778642892837524
1782987723695399200,0.946399169921875,0.27141445875167847,0.13650351762771606,-0.2831483483314514
1782987723705474000,0.95647412109375,0.24402359127998352,0.06512200832366943,-0.38039660453796387
1782987723715548200,0.966548095703125,0.23476910591125488,0.17816653847694397,-0.42596861720085144
1782987723725623000,0.976623046875,0.2382887303829193,0.3470056354999542,-0.4108421206474304
1782987723735697200,0.986697265625,0.2585814893245697,0.5163890719413757,-0.3403290808200836
1782987723745772000,0.99677197265625,0.3006245493888855,0.6596388816833496,-0.231678768992424
1782987723755846100,1.00684619140625,0.35171568393707275,0.7468198537826538,-0.10781248658895493
1782987723765921000,1.016921142578125,0.40036365389823914,0.7737635970115662,0.023500265553593636
1782987723775995100,1.0269951171875,0.43672963976860046,0.736047625541687,0.15924611687660217
1782987723786070000,1.037070068359375,0.45394405722618103,0.6587603092193604,0.2914944291114807
1782987723796144000,1.04714404296875,0.46403104066848755,0.5366437435150146,0.4078111946582794
1782987723806219000,1.057218994140625,0.48974573612213135,0.3927779197692871,0.48137062788009644
1782987723816293000,1.067293212890625,0.5280444025993347,0.25837987661361694,0.5116134881973267
1782987723826368000,1.077367919921875,0.5600659847259521,0.14813780784606934,0.5028029680252075
1782987723836443000,1.08744287109375,0.5863039493560791,0.048413071781396866,0.4507426619529724
1782987723846517000,1.09751708984375,0.6163231134414673,-0.02064695581793785,0.35958853363990784
1782987723856592000,1.107591796875,0.6454490423202515,-0.03863820433616638,0.24670858681201935
1782987723866666000,1.117666015625,0.6650741696357727,-0.053762298077344894,0.1130988597869873
1782987723876740900,1.127740966796875,0.6721158027648926,-0.08147222548723221,-0.03380483388900757
1782987723886815000,1.13781494140625,0.6640232801437378,-0.11240057647228241,-0.17774896323680878
1782987723896889900,1.147889892578125,0.6335702538490295,-0.12139113992452621,-0.272754043340683
1782987723906964000,1.1579638671875,0.5712224841117859,-0.05620068684220314,-0.3064936101436615
1782987723917038800,1.168038818359375,0.48306334018707275,0.06118479371070862,-0.28774017095565796
1782987723927113000,1.178113037109375,0.38081473112106323,0.16661028563976288,-0.237320676445961
1782987723937188000,1.18818798828125,0.2822340726852417,0.24718156456947327,-0.18262600898742676
1782987723947262000,1.198261962890625,0.1907116323709488,0.3022101819515228,-0.1394742727279663
1782987723957337900,1.208337890625,0.10149946063756943,0.303799569606781,-0.10551470518112183
1782987723967411700,1.21841162109375,0.016174709424376488,0.2284209281206131,-0.07750038057565689
1782987723977486800,1.22848681640625,-0.051117245107889175,0.16984708607196808,-0.025013741105794907
1782987723987560700,1.238560791015625,-0.10003658384084702,0.1866881251335144,0.05762254819273949
1782987723997635800,1.2486357421875,-0.125467911362648,0.21626678109169006,0.15380048751831055
1782987724007709700,1.258709716796875,-0.11538571119308472,0.2330779880285263,0.25604376196861267
1782987724017784800,1.268784912109375,-0.1228601410984993,0.2019355148077011,0.36761823296546936
1782987724027858700,1.278858642578125,-0.14655694365501404,0.014129667542874813,0.3991908133029938
1782987724037933800,1.288933837890625,-0.15969964861869812,-0.140316903591156,0.3419927656650543
1782987724048007700,1.299007568359375,-0.12313205003738403,-0.2915961742401123,0.23646819591522217
1782987724058082800,1.309082763671875,-0.08792213350534439,-0.3597661554813385,0.12233736366033554
1782987724068156700,1.31915673828125,-0.09048063308000565,-0.35353943705558777,0.03976605460047722
1782987724078231800,1.329231689453125,-0.14031343162059784,-0.31363409757614136,-0.018262360244989395
1782987724088305700,1.3393056640625,-0.19214573502540588,-0.24704280495643616,-0.09094588458538055
1782987724098380800,1.349380859375,-0.20935001969337463,-0.23236027359962463,-0.2007906287908554
1782987724108454700,1.35945458984375,-0.1783420443534851,-0.2825126647949219,-0.3117744028568268
1782987724118529800,1.36952978515625,-0.12223909050226212,-0.2069166898727417,-0.3694899082183838
1782987724128603600,1.379603759765625,-0.08348024636507034,-0.054425157606601715,-0.3523055911064148
1782987724138678800,1.3896787109375,-0.08159339427947998,0.00884995050728321,-0.27861884236335754
1782987724148752600,1.399752685546875,-0.10761620849370956,-0.023481624200940132,-0.16640202701091766
1782987724158827800,1.409827880859375,-0.1369248330593109,-0.1332549899816513,-0.036734577268362045
1782987724168901600,1.419901611328125,-0.16644038259983063,-0.26699814200401306,0.07401244342327118
1782987724178976800,1.429976806640625,-0.20193445682525635,-0.3843354284763336,0.14556199312210083
1782987724189050600,1.440050537109375,-0.2502734959125519,-0.445277601480484,0.15546974539756775
1782987724199125800,1.450125732421875,-0.3045591115951538,-0.46529844403266907,0.10749290138483047
1782987724209200600,1.46020068359375,-0.35516953468322754,-0.4719662070274353,0.026510436087846756
1782987724219274800,1.470274658203125,-0.38290050625801086,-0.44487306475639343,-0.07810945063829422
1782987724229350000,1.480349853515625,-0.39303675293922424,-0.38886865973472595,-0.16903269290924072
1782987724239423700,1.490423828125,-0.4014904499053955,-0.3186197876930237,-0.2164287120103836
1782987724249499000,1.500498779296875,-0.4255286753177643,-0.25142744183540344,-0.19423899054527283
1782987724259572700,1.51057275390625,-0.4679115414619446,-0.18090826272964478,-0.11391191929578781
1782987724269648000,1.52064794921875,-0.5323765277862549,-0.015062838792800903,0.004797950852662325
1782987724279721700,1.5307216796875,-0.5900877714157104,0.07251894474029541,0.11148551851511002
1782987724289796900,1.540796875,-0.6387157440185547,-0.0309283547103405,0.16076597571372986
1782987724299870700,1.55087060546875,-0.6838427782058716,-0.3327265679836273,0.12010829895734787
1782987724309945900,1.56094580078125,-0.717216432094574,-0.6974707245826721,-0.018765166401863098
1782987724320019700,1.571019775390625,-0.7415558695793152,-0.9113662242889404,-0.22037523984909058
1782987724330094800,1.5810947265625,-0.7625895142555237,-0.9057924747467041,-0.4067038297653198
1782987724340168700,1.591168701171875,-0.7891619801521301,-0.6929854154586792,-0.5336436629295349
1782987724350243800,1.601243896484375,-0.7980351448059082,-0.3731845021247864,-0.5582472681999207
1782987724360317700,1.611317626953125,-0.8095932602882385,-0.08028338849544525,-0.4648449122905731
1782987724370392800,1.621392822265625,-0.8198477625846863,0.07312667369842529,-0.28890877962112427
1782987724380466700,1.631466796875,-0.7999403476715088,0.053577207028865814,-0.07982292771339417
1782987724390541800,1.641541748046875,-0.7505730390548706,-0.08955118805170059,0.11463576555252075
1782987724400615700,1.65161572265625,-0.6762266755104065,-0.26351606845855713,0.26101934909820557
1782987724410690800,1.66169091796875,-0.5813971161842346,-0.442586749792099,0.32545027136802673
1782987724420764700,1.6717646484375,-0.49182406067848206,-0.5876134634017944,0.3093549311161041
1782987724430839800,1.68183984375,-0.4143180847167969,-0.6621827483177185,0.24825695157051086
1782987724440913700,1.69191357421875,-0.3566531836986542,-0.6243099570274353,0.18324226140975952
1782987724450988800,1.70198876953125,-0.3168930113315582,-0.5331839919090271,0.1279321312904358
1782987724461062700,1.712062744140625,-0.29209309816360474,-0.4204641282558441,0.08885397017002106
1782987724471137800,1.7221376953125,-0.2990674078464508,-0.3279075622558594,0.08093985915184021
1782987724481211600,1.732211669921875,-0.33767151832580566,-0.24496634304523468,0.11870827525854111
1782987724491286800,1.742286865234375,-0.4200763702392578,-0.12235414236783981,0.20318640768527985
1782987724501360600,1.752360595703125,-0.518543541431427,0.004749747924506664,0.3086366653442383
1782987724511435800,1.762435791015625,-0.602003276348114,0.10337219387292862,0.41649550199508667
1782987724521509600,1.772509521484375,-0.6398817300796509,0.1797116994857788,0.5076565742492676
1782987724531584800,1.782584716796875,-0.6324674487113953,0.19131110608577728,0.5604752898216248
1782987724541658600,1.79265869140625,-0.5913026928901672,0.1001761332154274,0.5641187429428101
1782987724551733800,1.802733642578125,-0.5224695801734924,-0.050083938986063004,0.5237215161323547
1782987724561807600,1.8128076171875,-0.4440173804759979,-0.22164024412631989,0.4449159502983093
1782987724571882800,1.8228828125,-0.36688292026519775,-0.37211018800735474,0.3218499422073364
1782987724581956600,1.83295654296875,-0.2870844900608063,-0.50546795129776,0.15565963089466095
1782987724592031700,1.84303173828125,-0.22741664946079254,-0.6112124919891357,-0.02622734196484089
1782987724602105900,1.85310595703125,-0.187407448887825,-0.6260668039321899,-0.18153490126132965
1782987724612180700,1.8631806640625,-0.1841365545988083,-0.566135823726654,-0.29445239901542664
1782987724622254800,1.8732548828125,-0.22905582189559937,-0.448939710855484,-0.3498898148536682
1782987724632329700,1.883329833984375,-0.3022772967815399,-0.3139435350894928,-0.3316620886325836
1782987724642404900,1.89340478515625,-0.3748897314071655,-0.2051057517528534,-0.25079333782196045
1782987724652478700,1.903478759765625,-0.42858970165252686,-0.17301571369171143,-0.12991619110107422
1782987724662553900,1.913553955078125,-0.45632705092430115,-0.2298925817012787,-0.013498498126864433
1782987724672627700,1.923627685546875,-0.46809449791908264,-0.3265994191169739,0.08401740342378616
1782987724682702800,1.933702880859375,-0.47217658162117004,-0.43508702516555786,0.13632722198963165
1782987724692776700,1.943776611328125,-0.4520265758037567,-0.4842582941055298,0.13708116114139557
1782987724702851800,1.953851806640625,-0.4075664281845093,-0.46739569306373596,0.0992102101445198
1782987724712925700,1.96392578125,-0.334808886051178,-0.40723514556884766,0.056951697915792465
1782987724723000800,1.974000732421875,-0.2644042372703552,-0.2988833785057068,0.0009068063227459788
1782987724733074700,1.98407470703125,-0.21646812558174133,-0.19567495584487915,-0.04590117931365967
1782987724743149800,1.99414990234375,-0.19695860147476196,-0.09298773109912872,-0.07542231678962708
1782987724753223700,2.0042236328125,-0.19795569777488708,0.00282055395655334,-0.09499948471784592
1782987724763298800,2.014298828125,-0.20216135680675507,0.06999906152486801,-0.1035865768790245
1782987724773372700,2.02437255859375,-0.19400542974472046,0.07766736298799515,-0.0923248678445816
1782987724783447800,2.03444775390625,-0.18202386796474457,0.03231106698513031,-0.07926419377326965
1782987724793521700,2.044521728515625,-0.16592878103256226,-0.024690166115760803,-0.05360889807343483
1782987724803596800,2.0545966796875,-0.1393730789422989,-0.10631924867630005,-0.044322188943624496
1782987724813670700,2.064670654296875,-0.10306300222873688,-0.1973988264799118,-0.05320649594068527
1782987724823745800,2.074745849609375,-0.06053072214126587,-0.2540530562400818,-0.07045339047908783
1782987724833819600,2.084819580078125,-0.023576432839035988,-0.21669821441173553,-0.07853502035140991
1782987724843894800,2.094894775390625,0.007542338687926531,-0.1316176801919937,-0.09131047129631042
1782987724853968600,2.10496875,0.01007846649736166,0.04631476849317551,-0.10593654960393906
1782987724864043800,2.115043701171875,-0.009033442474901676,0.30294257402420044,-0.09996601194143295
1782987724874118000,2.125117919921875,-0.020505275577306747,0.4038710296154022,-0.0904763713479042
1782987724884192800,2.13519287109375,-0.013803962618112564,0.2767660915851593,-0.11312069743871689
1782987724894267000,2.145266845703125,0.00740145705640316,-0.022115688771009445,-0.17805495858192444
1782987724904341800,2.155341796875,0.04023690149188042,-0.35036414861679077,-0.26526281237602234
1782987724914415900,2.165415771484375,0.07914195954799652,-0.4286338984966278,-0.3152439594268799
1782987724924490800,2.17549072265625,0.13075508177280426,-0.24400600790977478,-0.28604933619499207
1782987724934564900,2.18556494140625,0.1824507713317871,-0.017124924808740616,-0.1987655609846115
1782987724944639700,2.1956396484375,0.20917318761348724,0.15561115741729736,-0.07650835812091827
1782987724954713900,2.2057138671875,0.20439308881759644,0.20373421907424927,0.044011931866407394
1782987724964789000,2.2157890625,0.19354656338691711,0.12392647564411163,0.14723604917526245
1782987724974862800,2.22586279296875,0.17479977011680603,0.03098401427268982,0.22779640555381775
1782987724984938000,2.23593798828125,0.145046666264534,-0.006746585946530104,0.2963744103908539
1782987724995011800,2.24601171875,0.10164780169725418,0.006356965284794569,0.345193088054657
1782987725005087000,2.2560869140625,0.05747154727578163,0.03844273090362549,0.37229421734809875
1782987725015160800,2.266160888671875,0.03210999816656113,0.07950068265199661,0.37089312076568604
1782987725025236000,2.276236083984375,0.044084370136260986,0.10854379087686539,0.3455677926540375
1782987725035309800,2.286309814453125,0.07247819751501083,0.10188162326812744,0.295803427696228
1782987725045385000,2.296385009765625,0.10830170661211014,0.04541542008519173,0.23633930087089539
1782987725055458800,2.306458740234375,0.1356704831123352,-0.0264169592410326,0.17598381638526917
1782987725065534000,2.316533935546875,0.14035631716251373,-0.09261302649974823,0.12300927937030792
1782987725075607800,2.32660791015625,0.13134656846523285,-0.12617364525794983,0.09186680614948273
1782987725085683000,2.336682861328125,0.10176950693130493,-0.13672642409801483,0.08076781779527664
1782987725095756800,2.3467568359375,0.06527354568243027,-0.12838566303253174,0.07959868758916855
1782987725105832000,2.35683203125,0.023207850754261017,-0.12983283400535583,0.0905890241265297
1782987725115907000,2.366906982421875,-0.014665761962532997,-0.12908688187599182,0.10701247304677963
1782987725125981000,2.37698095703125,-0.05259450152516365,-0.1396721452474594,0.12040923535823822
1782987725136056000,2.38705615234375,-0.09570122510194778,-0.13876746594905853,0.12259222567081451
1782987725146130000,2.3971298828125,-0.13801325857639313,-0.10224541276693344,0.11853916198015213
1782987725156205000,2.407205078125,-0.17405648529529572,-0.04018763452768326,0.12449212372303009
1782987725166279000,2.41727880859375,-0.20255950093269348,0.03133581951260567,0.13450747728347778
1782987725176354000,2.42735400390625,-0.2052048146724701,0.07331869006156921,0.1566213071346283
1782987725186428000,2.437427978515625,-0.18383561074733734,0.06902540475130081,0.17994047701358795
1782987725196503000,2.4475029296875,-0.15436320006847382,0.0052200620993971825,0.1992236226797104
1782987725206577000,2.457576904296875,-0.11819455027580261,-0.08911442756652832,0.2068575769662857
1782987725216652000,2.467652099609375,-0.08857860416173935,-0.16919834911823273,0.2133338451385498
1782987725226726000,2.477725830078125,-0.08055369555950165,-0.21767133474349976,0.2067188173532486
1782987725236801000,2.487801025390625,-0.0921003669500351,-0.24318762123584747,0.18098177015781403
1782987725246875000,2.497875,-0.11656096577644348,-0.23437361419200897,0.14072063565254211
1782987725256950000,2.507949951171875,-0.1424921602010727,-0.21326087415218353,0.0889652892947197
1782987725267024000,2.51802392578125,-0.16371063888072968,-0.20162685215473175,0.030828751623630524
1782987725277099000,2.52809912109375,-0.17391134798526764,-0.2011118084192276,-0.012123242020606995
1782987725287172900,2.5381728515625,-0.1802898794412613,-0.19664302468299866,-0.03387514129281044
1782987725297248000,2.548248046875,-0.19516123831272125,-0.19658416509628296,-0.03797481209039688
1782987725307321900,2.55832177734375,-0.20912764966487885,-0.20098237693309784,-0.032754749059677124
1782987725317397000,2.56839697265625,-0.22606216371059418,-0.19528640806674957,-0.023980166763067245
1782987725327470800,2.578470947265625,-0.2495749443769455,-0.1725613921880722,-0.019950805231928825
1782987725337546000,2.5885458984375,-0.28056269884109497,-0.15207555890083313,-0.007821171544492245
1782987725347619800,2.598619873046875,-0.3159310519695282,-0.14516624808311462,0.006523945834487677
1782987725357695000,2.608695068359375,-0.35129624605178833,-0.14461763203144073,0.02671017311513424
1782987725367768800,2.618768798828125,-0.3634383976459503,-0.1880231648683548,0.03921877592802048
1782987725377844000,2.628843994140625,-0.3586937189102173,-0.2591197192668915,0.03898681327700615
1782987725387917800,2.638917724609375,-0.3415525257587433,-0.2845345139503479,0.05107596889138222
1782987725397993000,2.648992919921875,-0.3337324261665344,-0.2814769446849823,0.06332065165042877
1782987725408066800,2.65906689453125,-0.33182933926582336,-0.30085116624832153,0.06563307344913483
1782987725418142000,2.669141845703125,-0.33871492743492126,-0.264761358499527,0.06296777725219727
1782987725428216000,2.679216064453125,-0.3488794267177582,-0.15507933497428894,0.06479310989379883
1782987725438291000,2.689291015625,-0.353715717792511,-0.12841203808784485,0.05351435765624046
1782987725448365000,2.699364990234375,-0.3460242450237274,-0.2613871395587921,0.006157760974019766
1782987725458440000,2.70943994140625,-0.3355460464954376,-0.542676568031311,-0.10703963041305542
1782987725468514000,2.71951416015625,-0.33570531010627747,-0.8569858074188232,-0.27463263273239136
1782987725478589000,2.7295888671875,-0.3556465208530426,-0.9860316514968872,-0.44324561953544617
1782987725488663000,2.7396630859375,-0.39873698353767395,-0.8767198324203491,-0.5785858631134033
1782987725498738000,2.749738037109375,-0.43420523405075073,-0.6411837339401245,-0.6325116753578186
1782987725508812000,2.75981201171875,-0.4538753628730774,-0.3064725697040558,-0.5762926340103149
1782987725518887000,2.769886962890625,-0.45999211072921753,0.07622579485177994,-0.4022499620914459
1782987725528961000,2.7799609375,-0.4550820291042328,0.35550349950790405,-0.16759778559207916
1782987725539036000,2.790035888671875,-0.4146009087562561,0.3975364565849304,0.06839636713266373
1782987725549110000,2.800110107421875,-0.3322237432003021,0.22922572493553162,0.2607431709766388
1782987725559185000,2.810184814453125,-0.2330649495124817,-0.011000187136232853,0.4060835838317871
1782987725569259000,2.820259033203125,-0.14348791539669037,-0.2146502435207367,0.48945677280426025
1782987725579334000,2.830333984375,-0.07575973868370056,-0.31797876954078674,0.5024290084838867
1782987725589408000,2.840407958984375,-0.03845444694161415,-0.32288190722465515,0.447592169046402
1782987725599483000,2.85048291015625,-0.03297339752316475,-0.2723252773284912,0.3554568886756897
1782987725609557000,2.860556884765625,-0.05566858872771263,-0.20427510142326355,0.2424485981464386
1782987725619631900,2.8706318359375,-0.09663812816143036,-0.1503186672925949,0.12813933193683624
1782987725629706000,2.8807060546875,-0.14366662502288818,-0.1076742634177208,0.05823161453008652
1782987725639780900,2.89078076171875,-0.18109548091888428,-0.042206842452287674,0.024407604709267616
1782987725649855700,2.900855712890625,-0.20896679162979126,0.009821738116443157,0.021454958245158195
1782987725659929900,2.910929931640625,-0.22799934446811676,0.023907463997602463,0.0314580574631691
1782987725670004000,2.92100390625,-0.23499546945095062,-0.0020535634830594063,0.0432707741856575
1782987725680078800,2.931078857421875,-0.23192137479782104,-0.05026450380682945,0.05405125021934509
1782987725690153700,2.94115380859375,-0.22759667038917542,-0.1246950626373291,0.05607977882027626
1782987725700228000,2.95122802734375,-0.22188659012317657,-0.18370725214481354,0.035540949553251266
1782987725710302700,2.961302734375,-0.21280626952648163,-0.19726327061653137,0.00926380604505539
1782987725720377000,2.971377197265625,-0.19542196393013,-0.19203202426433563,-0.024683509021997452
1782987725730451700,2.98145166015625,-0.17649008333683014,-0.17993541061878204,-0.0596417598426342
1782987725740526000,2.991526123046875,-0.16011297702789307,-0.14566239714622498,-0.08726432919502258
1782987725750600700,3.0016005859375,-0.13387258350849152,-0.1047264114022255,-0.10646092891693115
1782987725760675000,3.011675048828125,-0.10510138422250748,-0.06943926215171814,-0.11621022969484329
1782987725770749700,3.021749755859375,-0.06871967762708664,-0.03602990508079529,-0.10305660963058472
1782987725780824000,3.031823974609375,-0.03676147758960724,-0.013944577425718307,-0.06539285182952881
1782987725790898700,3.041898681640625,-0.011266236193478107,0.0014237258583307266,-0.0027148264925926924
1782987725800973000,3.05197314453125,0.011380219832062721,0.027217239141464233,0.08677297830581665
1782987725811047700,3.062047607421875,0.01835264265537262,0.054898668080568314,0.17859211564064026
1782987725821122000,3.0721220703125,0.017519071698188782,0.07707640528678894,0.26004675030708313
1782987725831196700,3.08219677734375,0.00027270769351162016,0.0809427872300148,0.32036495208740234
1782987725841271000,3.09227099609375,-0.017005881294608116,0.0542035847902298,0.3605075776576996
1782987725851345700,3.102345703125,-0.03327593207359314,0.019407253712415695,0.38439080119132996
1782987725861420000,3.112419921875,-0.05416044220328331,0.009312274865806103,0.3898926377296448
1782987725871494700,3.12249462890625,-0.07142358273267746,-0.005759618245065212,0.3783408999443054
1782987725881569000,3.132569091796875,-0.09255523234605789,-0.01593928597867489,0.346315860748291
1782987725891643600,3.1426435546875,-0.10889532417058945,0.005126318894326687,0.30360302329063416
1782987725901718000,3.152718017578125,-0.12121403962373734,0.04037352278828621,0.24533705413341522
1782987725911792600,3.162792724609375,-0.12576033174991608,0.07250509411096573,0.17191743850708008
1782987725921867000,3.172866943359375,-0.11999990791082382,0.09242953360080719,0.09028355777263641
1782987725931941600,3.182941650390625,-0.10344543308019638,0.10393732041120529,0.012545352801680565
1782987725942016000,3.19301611328125,-0.08033611625432968,0.11730878055095673,-0.0438004769384861
1782987725952090600,3.203090576171875,-0.06175790727138519,0.1515977829694748,-0.07154183089733124
1782987725962164700,3.213164794921875,-0.04819123074412346,0.19781294465065002,-0.07023075222969055
1782987725972239600,3.223239501953125,-0.05219263210892677,0.2992556691169739,-0.053045906126499176
1782987725982313700,3.233313720703125,-0.05255135893821716,0.37696459889411926,-0.02407284639775753
1782987725992388600,3.243388671875,-0.03753725439310074,0.26237836480140686,-0.04398343712091446
1782987726002462700,3.253462646484375,-0.006736199837177992,-0.057080596685409546,-0.13517087697982788
1782987726012537600,3.26353759765625,0.005119394510984421,-0.5163805484771729,-0.31946054100990295
1782987726022611700,3.27361181640625,-0.006361492909491062,-0.8805254697799683,-0.5343409180641174
1782987726032686600,3.2836865234375,-0.04622768238186836,-0.9138360023498535,-0.7110962271690369
1782987726042760700,3.2937607421875,-0.08263096213340759,-0.6559045910835266,-0.7956995368003845
1782987726052835600,3.303835693359375,-0.10533680766820908,-0.2677193284034729,-0.7921402454376221
1782987726062909700,3.31390966796875,-0.12000975757837296,0.08246877789497375,-0.7217195630073547
1782987726072984600,3.323984619140625,-0.11760971695184708,0.26170778274536133,-0.6039727330207825
1782987726083058700,3.33405859375,-0.09590069949626923,0.30906251072883606,-0.46184486150741577
1782987726093133600,3.344133544921875,-0.07026883959770203,0.3011755645275116,-0.3149094879627228
1782987726103207700,3.354207763671875,-0.05590401217341423,0.24825668334960938,-0.1687282919883728
1782987726113282600,3.364282470703125,-0.058454256504774094,0.138358935713768,-0.055389489978551865
1782987726123356700,3.374356689453125,-0.05170926824212074,0.00398755120113492,0.04469024017453194
1782987726133431600,3.384431640625,-0.02292475663125515,-0.09758594632148743,0.13085255026817322
1782987726143505700,3.394505615234375,0.0062280683778226376,-0.15548625588417053,0.18459062278270721
1782987726153580500,3.40458056640625,0.03605041280388832,-0.17894499003887177,0.20486445724964142
1782987726163654700,3.414654541015625,0.05567071959376335,-0.18541806936264038,0.17787092924118042
1782987726173729500,3.4247294921875,0.06994473189115524,-0.1918186992406845,0.11818656325340271
1782987726183803600,3.4348037109375,0.07700823247432709,-0.1984611600637436,0.044800493866205215
1782987726193878500,3.44487841796875,0.09294378757476807,-0.19287517666816711,-0.02123418264091015
1782987726203952600,3.45495263671875,0.11157713085412979,-0.1686052531003952,-0.06575317680835724
1782987726214027500,3.465027587890625,0.13534584641456604,-0.12128781527280807,-0.07975687831640244
1782987726224101600,3.4751015625,0.15889111161231995,-0.08247783035039902,-0.060079317539930344
1782987726234176500,3.485176513671875,0.17632949352264404,-0.07804553210735321,-0.01239488460123539
1782987726244251000,3.4952509765625,0.18282121419906616,-0.07792222499847412,0.060690246522426605
1782987726254325500,3.505325439453125,0.17952342331409454,-0.07140893489122391,0.1459076702594757
1782987726264400600,3.515400634765625,0.16656580567359924,-0.06131049618124962,0.23199088871479034
1782987726274474500,3.525474609375,0.14098988473415375,-0.04078871011734009,0.29318714141845703
1782987726284549600,3.535549560546875,0.12538641691207886,-0.0052142031490802765,0.33727604150772095
1782987726294623500,3.54562353515625,0.11588399112224579,0.04056047648191452,0.3576897084712982
1782987726304698600,3.55569873046875,0.11230150610208511,0.05974802002310753,0.3491111099720001
1782987726314772500,3.5657724609375,0.09990023076534271,0.041426535695791245,0.31621628999710083
1782987726324847600,3.57584765625,0.0867609903216362,0.013073723763227463,0.27681800723075867
1782987726334921500,3.58592138671875,0.06607995182275772,-0.013408216647803783,0.2204436957836151
1782987726344996600,3.59599658203125,0.0345342755317688,-0.026583407074213028,0.15746073424816132
1782987726355070500,3.606070556640625,0.003512975759804249,-0.05227092653512955,0.08428159356117249
1782987726365145600,3.6161455078125,-0.02213672734797001,-0.06107906624674797,0.004254133440554142
1782987726375219500,3.626219482421875,-0.04314693808555603,-0.06060369312763214,-0.06226364150643349
1782987726385294600,3.636294677734375,-0.07480153441429138,-0.052010469138622284,-0.11584191024303436
1782987726395368700,3.64636865234375,-0.09500880539417267,-0.04302762821316719,-0.14318405091762543
1782987726405443600,3.656443603515625,-0.12047234922647476,-0.0265439935028553,-0.1488797515630722
1782987726415517700,3.666517578125,-0.14059625566005707,-0.030660174787044525,-0.15512247383594513
1782987726425592600,3.676592529296875,-0.15154024958610535,-0.05111085623502731,-0.1571592539548874
1782987726435666700,3.686666748046875,-0.1607273668050766,-0.07665962725877762,-0.161800354719162
1782987726445741600,3.696741455078125,-0.17076322436332703,-0.09118157625198364,-0.16384805738925934
1782987726455815700,3.706815673828125,-0.18877817690372467,-0.06437765806913376,-0.16986839473247528
1782987726465890600,3.716890625,-0.1990550458431244,-0.024583106860518456,-0.17580698430538177
1782987726475964700,3.726964599609375,-0.20163671672344208,0.012142682448029518,-0.17678755521774292
1782987726486039600,3.73703955078125,-0.19705288112163544,0.06432918459177017,-0.16546033322811127
1782987726496113700,3.74711376953125,-0.1889035999774933,0.0832967534661293,-0.1382438987493515
1782987726506188500,3.7571884765625,-0.187897726893425,0.06973779946565628,-0.10006161779165268
1782987726516262700,3.7672626953125,-0.17962008714675903,0.0385146364569664,-0.0563623420894146
1782987726526337500,3.777337646484375,-0.16037316620349884,0.020839234814047813,-0.01630254089832306
1782987726536411600,3.78741162109375,-0.14613217115402222,-0.009018528275191784,0.010298177599906921
1782987726546486500,3.797486572265625,-0.14134913682937622,-0.0525851808488369,0.019091935828328133
1782987726556560600,3.807560546875,-0.14288391172885895,-0.09814680367708206,0.02273940108716488
1782987726566635500,3.817635498046875,-0.15531368553638458,-0.13987427949905396,0.018856512382626534
1782987726576709600,3.827709716796875,-0.18026190996170044,-0.13719354569911957,0.01335708424448967
1782987726586784500,3.837784423828125,-0.20464608073234558,-0.04911694675683975,0.016157930716872215
1782987726596858600,3.847858642578125,-0.21678423881530762,-0.02142592892050743,0.02599165216088295
1782987726606933500,3.85793359375,-0.22050121426582336,-0.14065511524677277,0.015383483842015266
1782987726617007600,3.868007568359375,-0.23374538123607635,-0.3467840552330017,-0.03404265642166138
1782987726627082500,3.87808251953125,-0.2589636445045471,-0.5707873106002808,-0.12620480358600616
1782987726637156600,3.888156494140625,-0.30536842346191406,-0.6736476421356201,-0.234782412648201
1782987726647231500,3.8982314453125,-0.36773595213890076,-0.6024344563484192,-0.3607257008552551
1782987726657305600,3.9083056640625,-0.4307231605052948,-0.44573673605918884,-0.4784925580024719
1782987726667380500,3.91838037109375,-0.4931039810180664,-0.30870988965034485,-0.5793605446815491
1782987726677454600,3.92845458984375,-0.5306010246276855,-0.21181078255176544,-0.6497010588645935
1782987726687529500,3.938529541015625,-0.5361816883087158,-0.1083563044667244,-0.6672784686088562
1782987726697603600,3.948603515625,-0.5092152953147888,0.03819532319903374,-0.6001452207565308
1782987726707678500,3.958678466796875,-0.4539528489112854,0.20882351696491241,-0.4392295479774475
1782987726717752600,3.968752685546875,-0.3889616131782532,0.3125443160533905,-0.21482868492603302
1782987726727827500,3.978827392578125,-0.31625595688819885,0.2774427831172943,0.025073129683732986
1782987726737901600,3.988901611328125,-0.24883592128753662,0.09146280586719513,0.24482280015945435
1782987726747976400,3.9989765625,-0.1840454638004303,-0.21093806624412537,0.41924095153808594
1782987726758050600,4.009050537109375,-0.1301225870847702,-0.5196123123168945,0.5388906598091125
1782987726768125700,4.019125732421875,-0.09032750129699707,-0.7507770657539368,0.5976532697677612
1782987726778199600,4.029199462890625,-0.08044157922267914,-0.8823300004005432,0.5878145098686218
1782987726788274700,4.039274658203125,-0.1146746501326561,-0.9225339293479919,0.5267775058746338
1782987726798348500,4.0493486328125,-0.1953340768814087,-0.8424185514450073,0.42677369713783264
1782987726808423700,4.059423583984375,-0.3091557025909424,-0.642859935760498,0.31078583002090454
1782987726818497500,4.06949755859375,-0.44084611535072327,-0.3531213104724884,0.20188705623149872
1782987726828572700,4.07957275390625,-0.5718339681625366,-0.03948695585131645,0.12045690417289734
1782987726838646500,4.089646484375,-0.6787465214729309,0.19828511774539948,0.0813627690076828
1782987726848721700,4.0997216796875,-0.7445188760757446,0.29099908471107483,0.08009723573923111
1782987726858795500,4.10979541015625,-0.7589444518089294,0.24834509193897247,0.10492987930774689
1782987726868870700,4.11987060546875,-0.7437175512313843,0.1263131946325302,0.14888988435268402
1782987726878944500,4.129944580078125,-0.7236514091491699,-0.04734647646546364,0.18827323615550995
1782987726889019600,4.14001953125,-0.7105057835578918,-0.22672902047634125,0.2054290473461151
1782987726899093500,4.150093505859375,-0.700244128704071,-0.3649321496486664,0.19358916580677032
1782987726909168600,4.160168701171875,-0.6993120312690735,-0.4341104328632355,0.14773859083652496
1782987726919242500,4.170242431640625,-0.7075505256652832,-0.45646315813064575,0.07058468461036682
1782987726929317600,4.180317626953125,-0.7148611545562744,-0.4367448389530182,-0.028667330741882324
1782987726939391500,4.1903916015625,-0.7114352583885193,-0.3939638137817383,-0.12682266533374786
1782987726949466600,4.200466552734375,-0.7055520415306091,-0.367977499961853,-0.2013661414384842
1782987726959540200,4.210540283203125,-0.6999194622039795,-0.34178823232650757,-0.24246031045913696
1782987726969615000,4.220614990234375,-0.7087249755859375,-0.28845417499542236,-0.23822587728500366
1782987726979689200,4.230689208984375,-0.7312057614326477,-0.2279953509569168,-0.20079462230205536
1782987726989764000,4.24076416015625,-0.7668460607528687,-0.16281208395957947,-0.13903139531612396
1782987726999838200,4.250838134765625,-0.7817938327789307,-0.12490624934434891,-0.06420295685529709
1782987727009913000,4.2609130859375,-0.7816494703292847,-0.10834458470344543,0.0095658078789711
1782987727019988000,4.270988037109375,-0.7710567712783813,-0.13583426177501678,0.06290625780820847
1782987727030062000,4.28106201171875,-0.7565284371376038,-0.2144651561975479,0.09691722691059113
1782987727040137000,4.291136962890625,-0.7409614324569702,-0.25872156023979187,0.11725818365812302
1782987727050211000,4.301211181640625,-0.7282597422599792,-0.245578333735466,0.12986105680465698
1782987727060286000,4.311285888671875,-0.718784511089325,-0.18696722388267517,0.13590644299983978
1782987727070360000,4.321360107421875,-0.7096256613731384,-0.11575323343276978,0.1425315886735916
1782987727080435000,4.33143505859375,-0.6900748610496521,-0.047328900545835495,0.1545799821615219
1782987727090509000,4.341509033203125,-0.6610903143882751,-0.013051353394985199,0.18004965782165527
1782987727100584200,4.351584228515625,-0.6215106844902039,-0.032816268503665924,0.21235859394073486
1782987727110658000,4.361657958984375,-0.5765506625175476,-0.08718736469745636,0.24975018203258514
1782987727120733200,4.371733154296875,-0.5330101251602173,-0.18451179563999176,0.27027595043182373
1782987727130807000,4.38180712890625,-0.49756425619125366,-0.30489012598991394,0.27114254236221313
1782987727140882200,4.391882080078125,-0.47367674112319946,-0.40948551893234253,0.25659850239753723
1782987727150956000,4.4019560546875,-0.4658438563346863,-0.44903799891471863,0.23317547142505646
1782987727161031200,4.41203125,-0.4880695343017578,-0.38194629549980164,0.19632397592067719
1782987727171105000,4.42210498046875,-0.5364996790885925,-0.18714725971221924,0.1531115174293518
1782987727181180200,4.43218017578125,-0.5863173007965088,-0.093378946185112,0.08312338590621948
1782987727191254000,4.44225390625,-0.6287648677825928,-0.19666965305805206,-0.037338051944971085
1782987727201329200,4.4523291015625,-0.6695554256439209,-0.3939201235771179,-0.2099231332540512
1782987727211403000,4.462403076171875,-0.7069805860519409,-0.5237503051757812,-0.37911802530288696
1782987727221478100,4.47247802734375,-0.7358779907226562,-0.45173150300979614,-0.49484434723854065
1782987727231552000,4.482552001953125,-0.7523350119590759,-0.20966720581054688,-0.5204176306724548
1782987727241627100,4.492627197265625,-0.7472989559173584,0.027281688526272774,-0.46047067642211914
1782987727251701000,4.502700927734375,-0.7248722314834595,0.17695213854312897,-0.3237982988357544
1782987727261776100,4.512776123046875,-0.689113974571228,0.2506239712238312,-0.1168224886059761
1782987727271850000,4.52285009765625,-0.6405349969863892,0.29242199659347534,0.1329471319913864
1782987727281925000,4.532925048828125,-0.5871849656105042,0.36001330614089966,0.4051477611064911
1782987727291999000,4.5429990234375,-0.5416983962059021,0.43984633684158325,0.6586777567863464
1782987727302074000,4.55307421875,-0.5201912522315979,0.45832017064094543,0.847294807434082
1782987727312148000,4.56314794921875,-0.5132465362548828,0.3738955557346344,0.9531275033950806
1782987727322223000,4.57322314453125,-0.5132619738578796,0.1950099766254425,0.9730846881866455
1782987727332297000,4.583296875,-0.5119231939315796,-0.06161010265350342,0.9092018604278564
1782987727342372000,4.5933720703125,-0.5076727867126465,-0.3567866086959839,0.774231493473053
1782987727352446000,4.603446044921875,-0.49850672483444214,-0.6424636244773865,0.5906731486320496
1782987727362521000,4.61352099609375,-0.4949503540992737,-0.8394962549209595,0.3836834728717804
1782987727372595000,4.623594970703125,-0.5112787485122681,-0.9394950270652771,0.17255286872386932
1782987727382670000,4.633670166015625,-0.5591248273849487,-0.9730445146560669,-0.030770162120461464
1782987727392744200,4.643744140625,-0.6302445530891418,-0.9285726547241211,-0.2043941468000412
1782987727402819000,4.653819091796875,-0.7033517360687256,-0.8047960996627808,-0.32306382060050964
1782987727412893200,4.66389306640625,-0.7752259373664856,-0.6215463876724243,-0.3791283965110779
1782987727422968000,4.673968017578125,-0.8349499702453613,-0.3861042857170105,-0.3576401472091675
1782987727433042200,4.684042236328125,-0.8833563923835754,-0.17260345816612244,-0.28189319372177124
1782987727443117000,4.694116943359375,-0.9242056012153625,-0.0761437714099884,-0.1837405413389206
1782987727453191200,4.704191162109375,-0.9542838335037231,-0.10103527456521988,-0.08723264187574387
1782987727463266000,4.71426611328125,-0.9570186734199524,-0.14291907846927643,0.009636381641030312
1782987727473340200,4.724340087890625,-0.931572675704956,-0.14583389461040497,0.12299223244190216
1782987727483415000,4.7344150390625,-0.895266056060791,-0.13494184613227844,0.21879465878009796
1782987727493489200,4.7444892578125,-0.8607373833656311,-0.1297348290681839,0.2893148958683014
1782987727503564000,4.75456396484375,-0.8217068910598755,-0.1306600123643875,0.3314932584762573
1782987727513638100,4.76463818359375,-0.7753077149391174,-0.14688292145729065,0.34552329778671265
1782987727523713000,4.774713134765625,-0.7253936529159546,-0.20453663170337677,0.3324549198150635
1782987727533787100,4.784787109375,-0.6784554719924927,-0.3044640123844147,0.29551392793655396
1782987727543862000,4.794862060546875,-0.6421416401863098,-0.40553897619247437,0.24297216534614563
1782987727553936100,4.80493603515625,-0.6229844689369202,-0.4828108549118042,0.18406544625759125
1782987727564011000,4.815010986328125,-0.6254902482032776,-0.5424976348876953,0.13003602623939514
1782987727574085000,4.825085205078125,-0.6428596377372742,-0.553723931312561,0.0873309075832367
1782987727584160000,4.835159912109375,-0.659752607345581,-0.5217156410217285,0.06538087129592896
1782987727594234000,4.845234130859375,-0.6831786036491394,-0.4879683256149292,0.05759991332888603
1782987727604309000,4.85530908203125,-0.7105100750923157,-0.47603845596313477,0.06574199348688126
1782987727614383000,4.865383056640625,-0.7307306528091431,-0.42797717452049255,0.10832034796476364
1782987727624458000,4.8754580078125,-0.7473394274711609,-0.3589717447757721,0.17976203560829163
1782987727634532000,4.885531982421875,-0.7661837339401245,-0.3109467029571533,0.2597767114639282
1782987727644607000,4.89560693359375,-0.7760781645774841,-0.3062014579772949,0.32740288972854614
1782987727654681000,4.90568115234375,-0.7731095552444458,-0.36268100142478943,0.37381139397621155
1782987727664756000,4.915755859375,-0.7675371170043945,-0.45121750235557556,0.3970932960510254
1782987727674830000,4.925830078125,-0.7640110850334167,-0.5528514385223389,0.3837583065032959
1782987727684905000,4.935905029296875,-0.7736208438873291,-0.6706790328025818,0.33578839898109436
1782987727694979000,4.94597900390625,-0.7884820699691772,-0.7896528244018555,0.2519608736038208
1782987727705054000,4.956053955078125,-0.805237889289856,-0.8512448072433472,0.16371037065982819
1782987727715128000,4.966128173828125,-0.8243191838264465,-0.8488969802856445,0.08401767164468765
1782987727725203000,4.976202880859375,-0.84676593542099,-0.7917513847351074,0.04693634808063507
1782987727735277000,4.986277099609375,-0.8691769242286682,-0.6836382150650024,0.06452493369579315
1782987727745352200,4.996352294921875,-0.8937011957168579,-0.5569306015968323,0.13054576516151428
1782987727755426000,5.006426025390625,-0.9177679419517517,-0.4294626712799072,0.24329973757266998
1782987727765501200,5.016501220703125,-0.9270197153091431,-0.4051506817340851,0.36696016788482666
1782987727775575000,5.026574951171875,-0.913278341293335,-0.5484548807144165,0.4463929235935211
1782987727785650200,5.036650146484375,-0.8968183994293213,-0.8865540623664856,0.4506337642669678
1782987727795724000,5.04672412109375,-0.9114823341369629,-1.3387361764907837,0.36235368251800537
1782987727805799200,5.056799072265625,-0.9693200588226318,-1.7484028339385986,0.2217145562171936
1782987727815873000,5.066873046875,-1.0642316341400146,-2.0134363174438477,0.0694965198636055
1782987727825948200,5.0769482421875,-1.1669971942901611,-2.0513598918914795,-0.03575453534722328
1782987727836022000,5.08702197265625,-1.2568809986114502,-1.780303955078125,-0.06374169141054153
1782987727846097200,5.09709716796875,-1.3002811670303345,-1.1857982873916626,0.009072856977581978
1782987727856172000,5.107172119140625,-1.3095988035202026,-0.410270094871521,0.16379718482494354
1782987727866246100,5.11724609375,-1.3058650493621826,0.28466740250587463,0.36140745878219604
1782987727876321000,5.127321044921875,-1.3030974864959717,0.6815963983535767,0.5358818173408508
1782987727886395100,5.13739501953125,-1.271031379699707,0.6605142951011658,0.6766780614852905
1782987727896470000,5.147469970703125,-1.2235901355743408,0.356703519821167,0.773174524307251
1782987727906544000,5.157544189453125,-1.1700243949890137,-0.07391390204429626,0.8299245834350586
1782987727916619000,5.167618896484375,-1.1179382801055908,-0.4942843019962311,0.8558251857757568
1782987727926693000,5.177693115234375,-1.0690945386886597,-0.8219814896583557,0.8358176350593567
1782987727936768000,5.18776806640625,-1.0217055082321167,-1.0065891742706299,0.752997875213623
1782987727946842000,5.197842041015625,-0.9886471629142761,-1.0604102611541748,0.629561185836792
1782987727956918500,5.20791845703125,-0.9870615005493164,-0.9722087979316711,0.4872724413871765
1782987727966992400,5.217992431640625,-1.015865445137024,-0.7682521939277649,0.35198894143104553
1782987727977067500,5.228067626953125,-1.084221601486206,-0.5642138123512268,0.22818896174430847
1782987727987141400,5.238141357421875,-1.183655023574829,-0.44107139110565186,0.11396785080432892
1782987727997216500,5.248216552734375,-1.266465425491333,-0.403734415769577,0.01230327133089304
1782987728007290600,5.25829052734375,-1.304632544517517,-0.4409547448158264,-0.07018627971410751
1782987728017365500,5.268365478515625,-1.3160064220428467,-0.5086102485656738,-0.13468964397907257
1782987728027439600,5.278439697265625,-1.306593656539917,-0.5638148784637451,-0.1743755340576172
1782987728037514500,5.288514404296875,-1.2843352556228638,-0.5757256150245667,-0.1788480430841446
1782987728047588600,5.298588623046875,-1.2479472160339355,-0.5526165962219238,-0.1638893336057663
1782987728057663500,5.30866357421875,-1.1961593627929688,-0.5228701233863831,-0.12776142358779907
1782987728067737600,5.318737548828125,-1.1380102634429932,-0.4923572242259979,-0.07354532182216644
1782987728077812500,5.3288125,-1.0752192735671997,-0.4879313111305237,-0.01589321345090866
1782987728087886600,5.338886474609375,-1.0159631967544556,-0.5252035856246948,0.04662635922431946
1782987728097960400,5.34896044921875,-0.9661657810211182,-0.5339717864990234,0.12737393379211426
1782987728108034300,5.359034423828125,-0.9330547451972961,-0.5157336592674255,0.21198149025440216
1782987728118109400,5.369109375,-0.9223400354385376,-0.5056192278862,0.28260400891304016
1782987728128183600,5.37918359375,-0.9356603622436523,-0.5224599838256836,0.30179712176322937
1782987728138258400,5.389258544921875,-0.958555281162262,-0.5283173322677612,0.28949785232543945
1782987728148332500,5.39933251953125,-0.980140745639801,-0.48005369305610657,0.277536541223526
1782987728158407400,5.409407470703125,-1.0095868110656738,-0.3966946303844452,0.2641080915927887
1782987728168481500,5.4194814453125,-1.0457724332809448,-0.33710211515426636,0.23522716760635376
1782987728178556400,5.429556396484375,-1.0737266540527344,-0.3098928928375244,0.19736073911190033
1782987728188630500,5.439630615234375,-1.084678292274475,-0.2915080189704895,0.15788604319095612
1782987728198705400,5.449705322265625,-1.074589729309082,-0.2683073580265045,0.12020816653966904
1782987728208779500,5.459779541015625,-1.047619342803955,-0.2411404401063919,0.09129182994365692
1782987728218854400,5.4698544921875,-0.9984169602394104,-0.22025753557682037,0.07590381801128387
1782987728228928500,5.479928466796875,-0.9289936423301697,-0.2046801745891571,0.08149166405200958
1782987728239003400,5.49000341796875,-0.8473637700080872,-0.1786016970872879,0.09919635951519012
1782987728249077500,5.500077392578125,-0.7586174011230469,-0.1983780711889267,0.1099102571606636
1782987728259152400,5.51015234375,-0.6720439195632935,-0.27561241388320923,0.1173524558544159
1782987728269226500,5.5202265625,-0.5927655696868896,-0.3652120530605316,0.10908573865890503
1782987728279301400,5.53030126953125,-0.546477198600769,-0.451031893491745,0.08347970992326736
1782987728289375500,5.54037548828125,-0.5229412317276001,-0.5466689467430115,0.027826039120554924
1782987728299450400,5.550450439453125,-0.5121234655380249,-0.6198883056640625,-0.04470888152718544
1782987728309524500,5.5605244140625,-0.5008897185325623,-0.6052638292312622,-0.12350089848041534
1782987728319599400,5.570599365234375,-0.49609363079071045,-0.4864575266838074,-0.19070523977279663
1782987728329673500,5.580673583984375,-0.5094496607780457,-0.45225775241851807,-0.2354697734117508
1782987728339748400,5.590748291015625,-0.5293647646903992,-0.5727391242980957,-0.25944754481315613
1782987728349822500,5.600822509765625,-0.5586177706718445,-0.6809968948364258,-0.23921045660972595
1782987728359897300,5.6108974609375,-0.5800769329071045,-0.6363503336906433,-0.14827708899974823
1782987728369971500,5.620971435546875,-0.5843098163604736,-0.4361751973628998,0.023131152614951134
1782987728380046600,5.631046630859375,-0.5692594647407532,-0.19915331900119781,0.23966293036937714
1782987728390120400,5.641120361328125,-0.5399675965309143,-0.03179521486163139,0.458500474691391
1782987728400195600,5.651195556640625,-0.5003320574760437,0.05787475034594536,0.641664445400238
1782987728410269400,5.66126953125,-0.4546860158443451,0.023785490542650223,0.751140296459198
1782987728420344600,5.671344482421875,-0.41848647594451904,-0.1832909882068634,0.7884557247161865
1782987728430418400,5.68141845703125,-0.3923046588897705,-0.5201699733734131,0.7553837895393372
1782987728440493600,5.69149365234375,-0.39190733432769775,-0.9009766578674316,0.6732321977615356
1782987728450567400,5.7015673828125,-0.4231019914150238,-1.2210068702697754,0.5496159791946411
1782987728460642600,5.711642578125,-0.4812116324901581,-1.4118258953094482,0.39745867252349854
1782987728470716400,5.72171630859375,-0.5487139821052551,-1.4387903213500977,0.24628780782222748
1782987728480791600,5.73179150390625,-0.611194372177124,-1.2860418558120728,0.13096573948860168
1782987728490865400,5.741865478515625,-0.6522718071937561,-1.0275967121124268,0.06675692647695541
1782987728500940500,5.7519404296875,-0.6969423294067383,-0.7333892583847046,0.05309677496552467
1782987728511014400,5.762014404296875,-0.7541329264640808,-0.46666252613067627,0.07825671881437302
1782987728521089500,5.772089599609375,-0.809116005897522,-0.2924499809741974,0.13224992156028748
1782987728531163400,5.782163330078125,-0.8581975102424622,-0.23098208010196686,0.18245743215084076
1782987728541238500,5.792238525390625,-0.8990112543106079,-0.26566362380981445,0.21356208622455597
1782987728551312400,5.8023125,-0.9302837252616882,-0.360215425491333,0.21143607795238495
1782987728561387500,5.812387451171875,-0.9481108784675598,-0.4575398564338684,0.18481005728244781
1782987728571461400,5.82246142578125,-0.9553802609443665,-0.509124755859375,0.1452900767326355
1782987728581536500,5.83253662109375,-0.9555041193962097,-0.5498567223548889,0.08792852610349655
1782987728591610400,5.8426103515625,-0.9411650896072388,-0.5861707925796509,0.02250717394053936
1782987728601685500,5.852685546875,-0.914758026599884,-0.5932297706604004,-0.031554196029901505
1782987728611759400,5.86275927734375,-0.887790322303772,-0.5495123863220215,-0.0779038518667221
1782987728621834500,5.87283447265625,-0.8601099252700806,-0.47044873237609863,-0.10355409234762192
1782987728631908400,5.882908447265625,-0.8544626832008362,-0.42461252212524414,-0.12899047136306763
1782987728641983500,5.8929833984375,-0.8553735017776489,-0.4535038471221924,-0.14566558599472046
1782987728652057300,5.903057373046875,-0.8633070588111877,-0.5398864150047302,-0.1485641747713089
1782987728662132500,5.913132568359375,-0.8637257218360901,-0.6003713011741638,-0.12775689363479614
1782987728672206300,5.923206298828125,-0.8590446710586548,-0.5964101552963257,-0.08023998141288757
1782987728682281500,5.933281494140625,-0.8555309176445007,-0.5572741627693176,-0.03501790389418602
1782987728692355300,5.943355224609375,-0.8453339338302612,-0.4934792220592499,-0.006527407560497522
1782987728702430500,5.953430419921875,-0.8325313329696655,-0.43412187695503235,0.009498696774244308
1782987728712504300,5.96350439453125,-0.8179832696914673,-0.3770327568054199,0.016649549826979637
1782987728722579500,5.973579345703125,-0.8123834133148193,-0.3036043643951416,0.022189192473888397
1782987728732653300,5.9836533203125,-0.799561619758606,-0.27612584829330444,0.03575986251235008
1782987728742728400,5.993728515625,-0.7776747345924377,-0.29572594165802,0.05383793264627457
1782987728752803600,6.003803466796875,-0.7466209530830383,-0.3945028483867645,0.08361313492059708
1782987728762877400,6.01387744140625,-0.7195792198181152,-0.5105535387992859,0.13183926045894623
1782987728772952600,6.02395263671875,-0.7004600763320923,-0.566515326499939,0.20079515874385834
1782987728783026400,6.0340263671875,-0.7068184018135071,-0.5966540575027466,0.2667427361011505
1782987728793101600,6.0441015625,-0.7284888029098511,-0.6336677670478821,0.31018128991127014
1782987728803175400,6.054175537109375,-0.7646934390068054,-0.666413426399231,0.31908851861953735
1782987728813250600,6.06425048828125,-0.7938230633735657,-0.6815902590751648,0.30117902159690857
1782987728823324400,6.074324462890625,-0.8188804984092712,-0.6736820340156555,0.24943113327026367
1782987728833399600,6.084399658203125,-0.8297269940376282,-0.6554811596870422,0.19233909249305725
1782987728843473400,6.094473388671875,-0.827117383480072,-0.6269416809082031,0.1330198347568512
1782987728853548500,6.104548583984375,-0.8151746988296509,-0.6222835183143616,0.09371317923069
1782987728863622400,6.114622314453125,-0.7955842018127441,-0.5938318967819214,0.10281240195035934
1782987728873697500,6.124697509765625,-0.7738885283470154,-0.5382962226867676,0.15592515468597412
1782987728883771400,6.134771484375,-0.7447593808174133,-0.49340277910232544,0.22825421392917633
1782987728893846500,6.144846435546875,-0.7162054777145386,-0.44088178873062134,0.29830095171928406
1782987728903920400,6.15492041015625,-0.6999666094779968,-0.43333518505096436,0.3295571208000183
1782987728913995500,6.16499560546875,-0.6828510165214539,-0.5911916494369507,0.3027665317058563
1782987728924069400,6.1750693359375,-0.6813244819641113,-0.9001412391662598,0.23489347100257874
1782987728934144500,6.18514453125,-0.6947108507156372,-1.1985244750976562,0.15988260507583618
1782987728944218400,6.19521826171875,-0.7393076419830322,-1.3318111896514893,0.09501279890537262
1782987728954293500,6.20529345703125,-0.7817142009735107,-1.309785008430481,0.06718090176582336
1782987728964366600,6.21536669921875,-0.8063992857933044,-1.0561667680740356,0.08990059792995453
1782987728974441500,6.22544140625,-0.8032506704330444,-0.6161656975746155,0.16952592134475708
1782987728984515600,6.235515625,-0.7877518534660339,-0.1821676790714264,0.25135740637779236
1782987728994590500,6.245590576171875,-0.7703249454498291,-0.0008977515972219408,0.2949695885181427
1782987729004664600,6.25566455078125,-0.7376170754432678,-0.10822553932666779,0.29353228211402893
1782987729014739500,6.265739501953125,-0.678439199924469,-0.3677958548069,0.26747724413871765
1782987729024813600,6.2758134765625,-0.6175149083137512,-0.6398747563362122,0.24241796135902405
1782987729034888400,6.285888427734375,-0.5738033652305603,-0.7998418211936951,0.213280588388443
1782987729044962600,6.295962646484375,-0.5631269812583923,-0.7969626784324646,0.16710856556892395
1782987729055037400,6.306037353515625,-0.5723940134048462,-0.6967937350273132,0.10680980235338211
1782987729065111600,6.316111572265625,-0.5685329437255859,-0.5472039580345154,0.04632994905114174
1782987729075186700,6.326186767578125,-0.5500516891479492,-0.4119521379470825,-0.008341286331415176
1782987729085260500,6.336260498046875,-0.5301852822303772,-0.36464959383010864,-0.07959149777889252
1782987729095335700,6.346335693359375,-0.5229350924491882,-0.4144009053707123,-0.14687785506248474
1782987729105409500,6.356409423828125,-0.5342021584510803,-0.4948275685310364,-0.21418233215808868
1782987729115484700,6.366484619140625,-0.555151641368866,-0.5662644505500793,-0.2564046084880829
1782987729125558500,6.37655859375,-0.58527010679245,-0.5817773938179016,-0.2744787037372589
1782987729135633700,6.386633544921875,-0.624477207660675,-0.5563977360725403,-0.28363969922065735
1782987729145707500,6.39670751953125,-0.6548864841461182,-0.5025818943977356,-0.29473602771759033
1782987729155782700,6.40678271484375,-0.6565765142440796,-0.4240402281284332,-0.30413034558296204
1782987729165856500,6.4168564453125,-0.6147891283035278,-0.3355090320110321,-0.2955187261104584
1782987729175931600,6.426931640625,-0.5303802490234375,-0.24451947212219238,-0.23999156057834625
1782987729186005500,6.437005615234375,-0.42563626170158386,-0.1404801458120346,-0.13832831382751465
1782987729196080600,6.44708056640625,-0.3294109106063843,-0.05260781571269035,-0.007020358927547932
1782987729206154500,6.457154541015625,-0.24990516901016235,-0.01471795979887247,0.13532958924770355
1782987729216229600,6.467229736328125,-0.1851954162120819,-0.028191691264510155,0.24428270757198334
1782987729226303500,6.477303466796875,-0.14203223586082458,-0.05307360365986824,0.32195061445236206
1782987729236378600,6.487378662109375,-0.11266157031059265,-0.07188644260168076,0.36291882395744324
1782987729246452500,6.497452392578125,-0.09657207876443863,-0.07322227954864502,0.3622317314147949
1782987729256527600,6.507527587890625,-0.08371167629957199,-0.08466721326112747,0.33602967858314514
1782987729266601500,6.5176015625,-0.0747741088271141,-0.12354963272809982,0.2721380293369293
1782987729276676600,6.527676513671875,-0.0622258223593235,-0.17738863825798035,0.18294104933738708
1782987729286750500,6.53775048828125,-0.0372387133538723,-0.21334929764270782,0.08673515915870667
1782987729296825600,6.54782568359375,-0.00043063313933089375,-0.1699773222208023,-0.0008354336023330688
1782987729306899500,6.5578994140625,0.0469302237033844,-0.03997724503278732,-0.05161578953266144
1782987729316974600,6.567974609375,0.09633612632751465,0.13605476915836334,-0.08509732037782669
1782987729327048400,6.57804833984375,0.1552116870880127,0.26883944869041443,-0.07992732524871826
1782987729337123600,6.58812353515625,0.2253931760787964,0.3134891986846924,-0.033312417566776276
1782987729347197400,6.598197509765625,0.31732842326164246,0.31110408902168274,0.04560397192835808
1782987729357272600,6.6082724609375,0.40144702792167664,0.2850801944732666,0.14457689225673676
1782987729367346400,6.618346435546875,0.48159193992614746,0.18705643713474274,0.21783699095249176
1782987729377421600,6.628421630859375,0.5464015603065491,-0.005630454979836941,0.26619094610214233
1782987729387495400,6.638495361328125,0.5782095789909363,-0.16074919700622559,0.2672162652015686
1782987729397570600,6.648570556640625,0.6303417086601257,-0.221722811460495,0.2320673167705536
1782987729407644400,6.65864453125,0.7156267762184143,-0.1436687558889389,0.1955476552248001
1782987729417719600,6.668719482421875,0.8444795608520508,-0.04975131154060364,0.18432164192199707
1782987729427793400,6.67879345703125,0.9780451059341431,-0.0061521683819592,0.15999871492385864
1782987729437868500,6.68886865234375,1.061530351638794,-0.14854925870895386,0.10009703785181046
1782987729447942400,6.6989423828125,1.0658016204833984,-0.37520715594291687,0.01674063131213188
1782987729458017500,6.709017578125,1.0258594751358032,-0.4086162745952606,-0.04687536507844925
1782987729468091600,6.719091552734375,1.0024713277816772,-0.3063173294067383,-0.0650775358080864
1782987729478166500,6.72916650390625,1.0042868852615356,-0.25968483090400696,-0.09047476947307587
1782987729488240600,6.73924072265625,0.9896154999732971,-0.30706512928009033,-0.14119893312454224
1782987729498315500,6.7493154296875,0.9014134407043457,-0.3878755569458008,-0.2266792207956314
1782987729508389600,6.7593896484375,0.746807336807251,-0.4486512839794159,-0.3290327489376068
1782987729518464500,6.769464599609375,0.5706525444984436,-0.40569210052490234,-0.42941954731941223
1782987729528538600,6.77953857421875,0.4175027012825012,-0.21462495625019073,-0.4999472498893738
1782987729538613500,6.789613525390625,0.31811484694480896,0.11055660247802734,-0.4962238669395447
1782987729548687600,6.7996875,0.28600192070007324,0.46534213423728943,-0.4150155782699585
1782987729558762500,6.809762451171875,0.3075748682022095,0.6968552470207214,-0.28344637155532837
1782987729568836600,6.819836669921875,0.37311604619026184,0.7366601824760437,-0.15719947218894958
1782987729578911500,6.829911376953125,0.45659682154655457,0.6376183032989502,-0.060925137251615524
1782987729588985600,6.839985595703125,0.5170098543167114,0.5112454295158386,0.003231213428080082
1782987729599060500,6.850060546875,0.5316771864891052,0.4098533093929291,0.03923502191901207
1782987729609134600,6.860134521484375,0.5025941729545593,0.37861254811286926,0.050640273839235306
1782987729619209500,6.87020947265625,0.4578394591808319,0.4122573435306549,0.042096320539712906
1782987729629283600,6.88028369140625,0.4240170419216156,0.500011146068573,0.02082725055515766
1782987729639358500,6.8903583984375,0.40100574493408203,0.6015526652336121,0.003940679598599672
1782987729649432600,6.9004326171875,0.38670217990875244,0.6743336915969849,0.005776130128651857
1782987729659507500,6.910507568359375,0.372089684009552,0.6678848266601562,0.017346499487757683
1782987729669581600,6.92058154296875,0.3596034348011017,0.5953525900840759,0.042765840888023376
1782987729679656400,6.930656494140625,0.3556217551231384,0.4894202947616577,0.06988560408353806
1782987729689730600,6.94073046875,0.3361702859401703,0.37584367394447327,0.08514285832643509
1782987729699805400,6.950805419921875,0.3041236698627472,0.2929549217224121,0.0737149640917778
1782987729709879600,6.960879638671875,0.2713928818702698,0.22190922498703003,0.041187651455402374
1782987729719954700,6.97095458984375,0.2512628436088562,0.18750198185443878,-0.006560430862009525
1782987729730028500,6.981028564453125,0.24296258389949799,0.21637092530727386,-0.05877463147044182
1782987729740103700,6.991103759765625,0.2365345060825348,0.27987533807754517,-0.10356660187244415
1782987729750177500,7.001177490234375,0.2327168732881546,0.3468517065048218,-0.13559138774871826
1782987729760252700,7.011252685546875,0.23458561301231384,0.3868553042411804,-0.14861370623111725
1782987729770326500,7.021326416015625,0.24280385673046112,0.40095967054367065,-0.1389826536178589
1782987729780401700,7.031401611328125,0.24998320639133453,0.41507628560066223,-0.09670044481754303
1782987729790475500,7.0414755859375,0.2526381015777588,0.4430125951766968,-0.03960040584206581
1782987729800550700,7.051550537109375,0.23888634145259857,0.4486384987831116,0.021916218101978302
1782987729810624500,7.06162451171875,0.21649529039859772,0.42997509241104126,0.06264180690050125
1782987729820699600,7.07169970703125,0.20015466213226318,0.410649836063385,0.08084291964769363
1782987729830773500,7.0817734375,0.18946367502212524,0.4060007631778717,0.09051791578531265
1782987729840848600,7.0918486328125,0.1874343454837799,0.3891432285308838,0.09911220520734787
1782987729850922500,7.101922607421875,0.1822795271873474,0.3455730974674225,0.11127406358718872
1782987729860997600,7.11199755859375,0.18549449741840363,0.2805035710334778,0.12906424701213837
1782987729871071500,7.122071533203125,0.19631251692771912,0.202896386384964,0.14407648146152496
1782987729881146600,7.132146728515625,0.20182712376117706,0.07692807167768478,0.1564284861087799
1782987729891220500,7.142220458984375,0.19284109771251678,-0.10805642604827881,0.1375322937965393
1782987729901295600,7.152295654296875,0.17086175084114075,-0.29605749249458313,0.0934564471244812
1782987729911370500,7.16237060546875,0.13962048292160034,-0.413338303565979,0.02611948549747467
1782987729921444600,7.172444580078125,0.10792487114667892,-0.4818694293498993,-0.056057408452034
1782987729931518500,7.1825185546875,0.06704162061214447,-0.5189992189407349,-0.13605104386806488
1782987729941593600,7.192593505859375,0.028863605111837387,-0.49439722299575806,-0.1762746274471283
1782987729951668500,7.20266845703125,-0.012616725638508797,-0.39701712131500244,-0.14643257856369019
1782987729961742300,7.212742431640625,-0.06323622912168503,-0.1631721407175064,-0.036311935633420944
1782987729971816200,7.222816162109375,-0.13077585399150848,0.24796585738658905,0.1470744013786316
1782987729981891300,7.232891357421875,-0.20833349227905273,0.532071590423584,0.31197652220726013
1782987729991966500,7.242966552734375,-0.2978151738643646,0.49390292167663574,0.3449060022830963
1782987730002040300,7.253040283203125,-0.3756532371044159,0.14211373031139374,0.24666810035705566
1782987730012115500,7.263115478515625,-0.46825268864631653,-0.31573426723480225,0.05976000428199768
1782987730022189300,7.273189208984375,-0.5909786224365234,-0.6632216572761536,-0.17715933918952942
1782987730032264400,7.283264404296875,-0.7239289283752441,-0.8267844915390015,-0.413519948720932
1782987730042338300,7.29333837890625,-0.8409855365753174,-0.7338787913322449,-0.5902904272079468
1782987730052413400,7.303413330078125,-0.9062893986701965,-0.34664130210876465,-0.6561144590377808
1782987730062487300,7.3134873046875,-0.8915163278579712,0.2226511836051941,-0.5871463418006897
1782987730072562400,7.3235625,-0.8128417730331421,0.7421864867210388,-0.43719303607940674
1782987730082636300,7.33363623046875,-0.7182081937789917,0.9622038006782532,-0.2703803479671478
1782987730092711400,7.34371142578125,-0.6280375719070435,0.865298330783844,-0.12132696062326431
1782987730102785300,7.353785400390625,-0.5487973093986511,0.5832522511482239,-0.011215902864933014
1782987730112860400,7.3638603515625,-0.4937306344509125,0.28172993659973145,0.05878475308418274
1782987730122934300,7.373934326171875,-0.45681628584861755,0.06178000941872597,0.0915384367108345
1782987730133009400,7.384009521484375,-0.446136474609375,-0.05357321351766586,0.08265386521816254
1782987730143083300,7.394083251953125,-0.44871360063552856,-0.07542818039655685,0.03314144164323807
1782987730153158400,7.404158447265625,-0.45265933871269226,-0.04213733226060867,-0.03194568306207657
1782987730163232300,7.414232177734375,-0.4588914215564728,-0.010038252919912338,-0.10354689508676529
1782987730173307400,7.424307373046875,-0.4554591178894043,0.018698319792747498,-0.14918309450149536
1782987730183381200,7.43438134765625,-0.44765686988830566,0.04009042680263519,-0.15366731584072113
1782987730193456400,7.444456298828125,-0.4421646296977997,0.04868178442120552,-0.1137864887714386
1782987730203530200,7.4545302734375,-0.44045355916023254,0.03136537969112396,-0.047863397747278214
1782987730213605400,7.46460546875,-0.44658362865448,-0.028376247733831406,0.022180935367941856
1782987730223679200,7.47467919921875,-0.4453391134738922,-0.12045317888259888,0.08848805725574493
1782987730233754400,7.48475439453125,-0.44459158182144165,-0.19275373220443726,0.13279053568840027
1782987730243828200,7.494828125,-0.43286406993865967,-0.20832444727420807,0.15911215543746948
1782987730253903400,7.5049033203125,-0.4068489968776703,-0.16887503862380981,0.16589948534965515
1782987730263977200,7.514977294921875,-0.3806525468826294,-0.08587309718132019,0.1620994210243225
1782987730274052400,7.52505224609375,-0.35019874572753906,0.013814348727464676,0.161088228225708
1782987730284126500,7.53512646484375,-0.3159204125404358,0.10702605545520782,0.1645202338695526
1782987730294201300,7.545201416015625,-0.27506139874458313,0.15175171196460724,0.17773431539535522
1782987730304275500,7.555275390625,-0.23388519883155823,0.13141635060310364,0.18925541639328003
1782987730314350300,7.565350341796875,-0.1970510184764862,0.08346027135848999,0.19332312047481537
1782987730324424400,7.575424560546875,-0.1594831347465515,0.007363906595855951,0.1851421594619751
1782987730334499300,7.585499267578125,-0.12553928792476654,-0.08142481744289398,0.1634347289800644
1782987730344573400,7.595573486328125,-0.09388414770364761,-0.162902370095253,0.12583541870117188
1782987730354648300,7.6056484375,-0.06911595165729523,-0.20068196952342987,0.06897054612636566
1782987730364722400,7.615722412109375,-0.050742007791996,-0.1987682282924652,0.01435257401317358
1782987730374797300,7.62579736328125,-0.03682592511177063,-0.18469901382923126,-0.05215401574969292
1782987730384871400,7.635871337890625,-0.03404052555561066,-0.17656545341014862,-0.11718201637268066
1782987730394946300,7.6459462890625,-0.04537414014339447,-0.15162122249603271,-0.15771612524986267
1782987730405020400,7.6560205078125,-0.05435778200626373,-0.12122442573308945,-0.16709259152412415
1782987730415095300,7.66609521484375,-0.061115819960832596,-0.08909818530082703,-0.15734247863292694
1782987730425169400,7.67616943359375,-0.05542091280221939,-0.026687270030379295,-0.12256346642971039
1782987730435244300,7.686244384765625,-0.02648007683455944,0.05842762440443039,-0.07976993173360825
1782987730445318400,7.696318359375,0.011130149476230145,0.1512955129146576,-0.029632993042469025
1782987730455393300,7.706393310546875,0.053583864122629166,0.2336881160736084,0.02052977681159973
1782987730465467400,7.71646728515625,0.09459654986858368,0.27713334560394287,0.0659867376089096
1782987730475542300,7.726542236328125,0.13541960716247559,0.282693475484848,0.10269255936145782
1782987730485616400,7.736616455078125,0.1812930852174759,0.2700221538543701,0.13640044629573822
1782987730495691300,7.746691162109375,0.22370979189872742,0.2461426556110382,0.16792535781860352
1782987730505765400,7.756765380859375,0.25782355666160583,0.2243015468120575,0.18765830993652344
1782987730515840300,7.76684033203125,0.27428027987480164,0.21709157526493073,0.18662020564079285
1782987730525914400,7.776914306640625,0.2792305648326874,0.2031102329492569,0.15552833676338196
1782987730535989500,7.786989501953125,0.27652081847190857,0.1862550973892212,0.09519176185131073
1782987730546063400,7.7970634765625,0.26406601071357727,0.1465790569782257,0.007905061356723309
1782987730556138500,7.807138427734375,0.24132341146469116,0.10347498953342438,-0.09749406576156616
1782987730566212400,7.81721240234375,0.20664212107658386,0.18963304162025452,-0.19268690049648285
1782987730576287500,7.82728759765625,0.15964186191558838,0.45574623346328735,-0.2656734883785248
1782987730586361300,7.837361328125,0.12467508763074875,0.6140522360801697,-0.3289318084716797
1782987730596436500,7.8474365234375,0.09617393463850021,0.5623797178268433,-0.42167240381240845
1782987730606510300,7.85751025390625,0.09064122289419174,0.33945369720458984,-0.5133442878723145
1782987730616585500,7.86758544921875,0.09040766209363937,0.04042572155594826,-0.5816511511802673
1782987730626659300,7.877659423828125,0.09039328247308731,-0.2517930865287781,-0.589675784111023
1782987730636734500,7.887734375,0.09379653632640839,-0.37797340750694275,-0.5188639163970947
1782987730646808300,7.897808349609375,0.08675780147314072,-0.258107990026474,-0.376803457736969
1782987730656883500,7.907883544921875,0.07532431185245514,-0.07759838551282883,-0.2264357954263687
1782987730666957300,7.917957275390625,0.060570403933525085,-0.04237861558794975,-0.12013759464025497
1782987730677032400,7.928032470703125,0.058466505259275436,-0.15213653445243835,-0.06502187997102737
1782987730687106300,7.938106201171875,0.06172648072242737,-0.24978400766849518,0.016263391822576523
1782987730697181400,7.948181396484375,0.01996838115155697,-0.12980593740940094,0.1159934476017952
1782987730707255300,7.95825537109375,-0.0577639639377594,0.06729621440172195,0.21476024389266968
1782987730717330400,7.968330322265625,-0.15014183521270752,0.210739403963089,0.2710927426815033
1782987730727404300,7.978404296875,-0.21538501977920532,0.2626017928123474,0.2728879749774933
1782987730737479400,7.9884794921875,-0.23212137818336487,0.23907463252544403,0.23059459030628204
1782987730747553300,7.99855322265625,-0.195331409573555,0.15334641933441162,0.1701837182044983
1782987730757628400,8.00862841796875,-0.13007038831710815,0.03927896171808243,0.12068726867437363
1782987730767702300,8.018702392578126,-0.0711708515882492,-0.04210777208209038,0.10632111132144928
1782987730777777400,8.02877734375,-0.030006634071469307,-0.05742494389414787,0.13313168287277222
1782987730787851300,8.038851318359375,-0.019585952162742615,-0.039265912026166916,0.18391497433185577
1782987730797926400,8.048926513671875,-0.028807146474719048,-0.01366281509399414,0.2353762984275818
1782987730808000300,8.059000244140625,-0.052978262305259705,0.0001739044237183407,0.25810346007347107
1782987730818075400,8.069075439453124,-0.07694032043218613,-0.0006764429272152483,0.24857385456562042
1782987730828149200,8.079149169921875,-0.09191474318504333,-0.04129018262028694,0.19217875599861145
1782987730838224400,8.089224365234376,-0.10711526870727539,-0.1194068193435669,0.11604830622673035
1782987730848298200,8.09929833984375,-0.11439581960439682,-0.19074997305870056,0.04057139530777931
1782987730858373400,8.109373291015626,-0.11773622035980225,-0.20028196275234222,-0.009357282891869545
1782987730868447200,8.119447265625,-0.11089003086090088,-0.17034457623958588,-0.029528331011533737
1782987730878522400,8.1295224609375,-0.09972099959850311,-0.14891943335533142,-0.020781444385647774
1782987730888596200,8.13959619140625,-0.09106359630823135,-0.09119515866041183,0.011750665493309498
1782987730898671400,8.14967138671875,-0.06352118402719498,-0.024507474154233932,0.07083049416542053
1782987730908745200,8.1597451171875,-0.02515435591340065,-0.02821645699441433,0.14380164444446564
1782987730918820400,8.1698203125,0.0018098842119798064,-0.07395065575838089,0.208631232380867
1782987730928894500,8.17989453125,0.006767624989151955,-0.09467457979917526,0.24713096022605896
1782987730938969300,8.18996923828125,-0.0006215817993506789,-0.11754127591848373,0.23804105818271637
1782987730949043500,8.20004345703125,-0.004490089602768421,-0.14910000562667847,0.20754572749137878
1782987730959118600,8.21011865234375,-0.011077684350311756,-0.14591459929943085,0.17106735706329346
1782987730969192400,8.2201923828125,-0.009939716197550297,-0.15394695103168488,0.13876746594905853
1782987730979267600,8.230267578125,-0.01864931732416153,-0.2094845175743103,0.12984241545200348
1782987730989341400,8.240341552734375,-0.03407488018274307,-0.23334883153438568,0.12311074882745743
1782987730999416600,8.25041650390625,-0.0583069808781147,-0.23354537785053253,0.12074931710958481
1782987731009490400,8.260490478515624,-0.08707018941640854,-0.24558766186237335,0.11085594445466995
1782987731019565600,8.270565673828125,-0.11884462833404541,-0.28846749663352966,0.09285750240087509
1782987731029639400,8.280639404296876,-0.1356089562177658,-0.3575213849544525,0.06841927021741867
1782987731039714600,8.290714599609375,-0.12767300009727478,-0.4390343427658081,0.03750396519899368
1782987731049788400,8.300788330078126,-0.09399893134832382,-0.5051339864730835,0.011151987127959728
1782987731059863600,8.310863525390625,-0.03987924009561539,-0.5262576937675476,-0.00014567491598427296
1782987731069937400,8.3209375,0.021020863205194473,-0.5014146566390991,0.010009490884840488
1782987731080012500,8.331012451171874,0.07189469784498215,-0.4601297974586487,0.03910292685031891
1782987731090086400,8.34108642578125,0.1129811480641365,-0.42027851939201355,0.09325671195983887
1782987731100161500,8.35116162109375,0.13309599459171295,-0.38102057576179504,0.1692739725112915
1782987731110235400,8.3612353515625,0.1360401213169098,-0.2676772475242615,0.251912921667099
1782987731120310500,8.371310546875,0.1311042308807373,-0.09506846219301224,0.338577002286911
1782987731130384400,8.38138427734375,0.12468467652797699,-0.05643291398882866,0.39132675528526306
1782987731140459500,8.39145947265625,0.11350925266742706,-0.20587512850761414,0.393391489982605
1782987731150533400,8.401533447265624,0.1088188886642456,-0.43566039204597473,0.3542986810207367
1782987731160608500,8.4116083984375,0.08838631957769394,-0.6023346185684204,0.2868584096431732
1782987731170683400,8.421683349609374,0.0456034392118454,-0.6359878778457642,0.20509855449199677
1782987731180757500,8.431757568359375,-0.01047554425895214,-0.6370230913162231,0.1323484480381012
1782987731190832400,8.441832275390626,-0.075333371758461,-0.5365760922431946,0.08091721683740616
1782987731200906500,8.451906494140625,-0.11320405453443527,-0.3256814181804657,0.070523701608181
1782987731210981600,8.461981689453125,-0.11500754207372665,-0.07770144939422607,0.09417390078306198
1782987731221055500,8.472055419921874,-0.09227906167507172,0.09763814508914948,0.13129277527332306
1782987731231130600,8.482130615234375,-0.04694993048906326,0.1317359209060669,0.14784938097000122
1782987731241204500,8.49220458984375,0.005528189707547426,0.035832565277814865,0.15041613578796387
1782987731251279600,8.502279541015625,0.038966041058301926,-0.08991950005292892,0.1210089772939682
1782987731261353500,8.512353515625,0.06127480790019035,-0.23796622455120087,0.06966137140989304
1782987731271428600,8.5224287109375,0.06830129027366638,-0.3546110689640045,-0.005889580585062504
1782987731281502500,8.53250244140625,0.07255436480045319,-0.3820970356464386,-0.07341828942298889
1782987731291577600,8.54257763671875,0.06943606585264206,-0.3089061677455902,-0.1371181756258011
1782987731301651500,8.5526513671875,0.05645155906677246,-0.1278141587972641,-0.18167366087436676
1782987731311726600,8.5627265625,0.04786020144820213,0.11089988797903061,-0.19092947244644165
1782987731321800400,8.572800537109375,0.04325373098254204,0.3640306890010834,-0.1681397408246994
1782987731331875600,8.58287548828125,0.04879150912165642,0.5752363801002502,-0.128792867064476
1782987731341949400,8.592949462890624,0.06928293406963348,0.6813703179359436,-0.0821678414940834
1782987731352024600,8.603024658203125,0.09641522169113159,0.6866270899772644,-0.04282389581203461
1782987731362098400,8.613098388671874,0.12216532230377197,0.6013020873069763,-0.0006740460521541536
1782987731372173600,8.623173583984375,0.12000283598899841,0.4237848222255707,0.008883772417902946
1782987731382247400,8.633247314453126,0.09193924069404602,0.1912301480770111,-0.0067838700488209724
1782987731392322600,8.643322509765625,0.059786099940538406,0.004967061802744865,-0.04626097157597542
1782987731402396400,8.653396484375,0.04349714517593384,-0.0821089819073677,-0.11113637685775757
1782987731412471600,8.663471435546874,0.06653694808483124,-0.09069794416427612,-0.18864022195339203
1782987731422545400,8.67354541015625,0.13010287284851074,-0.046842072159051895,-0.26393362879753113
1782987731432620500,8.68362060546875,0.20709805190563202,0.04907646402716637,-0.3242558538913727
1782987731442694400,8.6936943359375,0.2942982017993927,0.16184988617897034,-0.3376312851905823
1782987731452769500,8.70376953125,0.36649250984191895,0.2544187009334564,-0.306600958108902
1782987731462843400,8.713843505859375,0.4189586341381073,0.3010791540145874,-0.2364943027496338
1782987731472918500,8.72391845703125,0.4469122588634491,0.3028847575187683,-0.14201945066452026
1782987731482992400,8.733992431640624,0.4646185338497162,0.27853789925575256,-0.03428393602371216
1782987731493067500,8.744067626953125,0.4690319299697876,0.23543089628219604,0.05414792522788048
1782987731503141400,8.754141357421876,0.4666782319545746,0.19989261031150818,0.11962679773569107
1782987731513216500,8.764216552734375,0.47107166051864624,0.2298332005739212,0.16861698031425476
1782987731523290400,8.774290283203126,0.4945596754550934,0.31117305159568787,0.20427058637142181
1782987731533365500,8.784365478515625,0.5343150496482849,0.39338192343711853,0.22304746508598328
1782987731543439400,8.794439453125,0.5880858898162842,0.45395392179489136,0.22870108485221863
1782987731553514500,8.804514404296874,0.6451789736747742,0.5039550065994263,0.23517656326293945
1782987731563588400,8.81458837890625,0.6914844512939453,0.5149922370910645,0.22584538161754608
1782987731573663500,8.82466357421875,0.7265116572380066,0.5011650919914246,0.20723333954811096
1782987731583737300,8.8347373046875,0.7610417008399963,0.489290326833725,0.19447973370552063
1782987731593812500,8.8448125,0.7886046171188354,0.44307196140289307,0.18225395679473877
1782987731603886600,8.854886474609375,0.8078456521034241,0.3390262722969055,0.15414562821388245
1782987731613961500,8.86496142578125,0.81673663854599,0.2087731808423996,0.10382253676652908
1782987731624035600,8.87503564453125,0.7857222557067871,0.04404468834400177,0.0008948221220634878
1782987731634110500,8.8851103515625,0.7272374033927917,-0.08736606687307358,-0.14588183164596558
1782987731644184600,8.8951845703125,0.6524621844291687,-0.1047956570982933,-0.3122127652168274
1782987731654259500,8.905259521484375,0.5835912823677063,0.09497631341218948,-0.4513743817806244
1782987731664333600,8.91533349609375,0.5419530272483826,0.3864467740058899,-0.5134758353233337
1782987731674408400,8.925408447265625,0.5234898328781128,0.5081681609153748,-0.5367851257324219
1782987731684482600,8.935482666015625,0.5152841210365295,0.4140927791595459,-0.5613123178482056
1782987731694557400,8.945557373046874,0.5400515198707581,0.26127713918685913,-0.5418073534965515
1782987731704631600,8.955631591796875,0.5894646048545837,0.28029903769493103,-0.43033379316329956
1782987731714706400,8.96570654296875,0.658923864364624,0.5915980339050293,-0.2194806933403015
1782987731724780500,8.975780517578125,0.7365613579750061,0.9868513941764832,0.02797490917146206
1782987731734855400,8.98585546875,0.7898229956626892,1.25778067111969,0.21590059995651245
1782987731744929500,8.995929443359374,0.8465198278427124,1.3453773260116577,0.3174069821834564
1782987731755004400,9.00600439453125,0.916032075881958,1.3060085773468018,0.3372930884361267
1782987731765078500,9.01607861328125,0.9647514224052429,1.1642354726791382,0.2626260221004486
1782987731775153400,9.0261533203125,0.9939524531364441,0.8680770397186279,0.09329372644424438
1782987731785227500,9.0362275390625,0.9798981547355652,0.44012197852134705,-0.13467472791671753
1782987731795302400,9.046302490234375,0.9145233631134033,0.09099967777729034,-0.397687166929245
1782987731805376500,9.05637646484375,0.8395735025405884,-0.11341390758752823,-0.6253344416618347
1782987731815451400,9.066451416015624,0.7971248626708984,-0.1652078628540039,-0.7786576747894287
1782987731825525500,9.076525390625,0.7878783345222473,-0.06890556216239929,-0.8468945622444153
1782987731835600400,9.086600341796874,0.8028852939605713,0.08392100036144257,-0.8287586569786072
1782987731845674500,9.096674560546875,0.8411921858787537,0.23703624308109283,-0.7260147333145142
1782987731855749600,9.10674951171875,0.8804476857185364,0.37708336114883423,-0.5573279857635498
1782987731865823500,9.116823486328125,0.8957731127738953,0.48351845145225525,-0.3593107759952545
1782987731875898600,9.126898681640625,0.9005386233329773,0.5550571084022522,-0.1595316082239151
1782987731885972500,9.136972412109374,0.9051192402839661,0.6176400780677795,0.021263476461172104
1782987731896047600,9.147047607421875,0.9253851175308228,0.6908679008483887,0.1756751537322998
1782987731906121500,9.15712158203125,0.9637625813484192,0.7565411925315857,0.29134687781333923
1782987731916196600,9.167196533203125,1.0130797624588013,0.7651405334472656,0.3502088785171509
1782987731926270500,9.1772705078125,1.0714930295944214,0.6854619979858398,0.36240988969802856
1782987731936345600,9.187345703125,1.1397123336791992,0.5669800639152527,0.34089207649230957
1782987731946419500,9.19741943359375,1.2172236442565918,0.4677980840206146,0.3098374903202057
1782987731956494600,9.20749462890625,1.286848783493042,0.3912354111671448,0.28290867805480957
1782987731966568700,9.217568603515625,1.3244661092758179,0.33843478560447693,0.25761157274246216
1782987731976643800,9.227643798828124,1.3300694227218628,0.2879391014575958,0.2268877476453781
1782987731986717700,9.2377177734375,1.3134022951126099,0.23841975629329681,0.1919044554233551
1782987731996792800,9.247792724609376,1.2777708768844604,0.1716548502445221,0.14684030413627625
1782987732006866700,9.25786669921875,1.222508430480957,0.08000881224870682,0.07981200516223907
1782987732016941800,9.26794189453125,1.171948790550232,-0.014769092202186584,-0.0028040423057973385
1782987732027015700,9.278015625,1.1161552667617798,-0.08833944797515869,-0.09079967439174652
1782987732037090800,9.2880908203125,1.0643770694732666,-0.10965832322835922,-0.18471018970012665
1782987732047164700,9.29816455078125,1.0107226371765137,-0.09142019599676132,-0.2608289420604706
1782987732057239800,9.30823974609375,0.9588181376457214,-0.027950141578912735,-0.30732452869415283
1782987732067313700,9.318313720703125,0.91595059633255,0.10348298400640488,-0.2967592477798462
1782987732077388800,9.328388916015625,0.8749117851257324,0.29279831051826477,-0.23318079113960266
1782987732087462700,9.338462646484375,0.8221814632415771,0.4410567581653595,-0.12893694639205933
1782987732097537800,9.348537841796874,0.7855848670005798,0.5370144248008728,0.021036310121417046
1782987732107611600,9.358611572265625,0.7752054333686829,0.6214573979377747,0.18978165090084076
1782987732117686800,9.368686767578126,0.7810486555099487,0.6560108661651611,0.3258393406867981
1782987732127760600,9.3787607421875,0.7909359335899353,0.5900377035140991,0.4072399437427521
1782987732137835800,9.388835693359376,0.795516848564148,0.47893595695495605,0.43433812260627747
1782987732147909600,9.39890966796875,0.7948326468467712,0.34930580854415894,0.4104064404964447
1782987732157984800,9.40898486328125,0.7877257466316223,0.2182987779378891,0.35893872380256653
1782987732168058600,9.41905859375,0.7956579923629761,0.15546682476997375,0.30820363759994507
1782987732178133800,9.4291337890625,0.822271466255188,0.24510295689105988,0.30578094720840454
1782987732188207600,9.43920751953125,0.8565908670425415,0.4345133602619171,0.34800243377685547
1782987732198282800,9.44928271484375,0.8811910152435303,0.5562408566474915,0.39039304852485657
1782987732208356900,9.45935693359375,0.903486430644989,0.524360179901123,0.4128115475177765
1782987732218431700,9.469431640625,0.9290046095848083,0.42133232951164246,0.4242420792579651
1782987732228505900,9.479505859375,0.9356563687324524,0.37997928261756897,0.4233722984790802
1782987732238580700,9.489580810546874,0.8988059163093567,0.42394888401031494,0.4072577953338623
1782987732248654800,9.49965478515625,0.828692615032196,0.4910624027252197,0.35062113404273987
1782987732258729700,9.509729736328126,0.7517448663711548,0.532514214515686,0.24528485536575317
1782987732268803800,9.519803955078125,0.6922178864479065,0.5016309022903442,0.09596115350723267
1782987732278878700,9.529878662109375,0.6692691445350647,0.3773305118083954,-0.07346489280462265
1782987732288952800,9.539952880859374,0.6649548411369324,0.22193798422813416,-0.23973029851913452
1782987732299027700,9.55002783203125,0.6852039098739624,0.1859877109527588,-0.36823928356170654
1782987732309101800,9.560101806640626,0.7229300141334534,0.32814672589302063,-0.4182092249393463
1782987732319176700,9.5701767578125,0.7838226556777954,0.582578718662262,-0.39227190613746643
1782987732329250800,9.580250732421876,0.8647260069847107,0.8708097338676453,-0.29008960723876953
1782987732339325700,9.59032568359375,0.9460487961769104,1.1114740371704102,-0.1500542163848877
1782987732349399800,9.60039990234375,1.0289729833602905,1.2551627159118652,0.016271913424134254
1782987732359474700,9.610474609375,1.1045728921890259,1.3586435317993164,0.18095886707305908
1782987732369548800,9.620548828125,1.170609712600708,1.4304746389389038,0.3196227252483368
1782987732379623700,9.630623779296876,1.2251750230789185,1.4527913331985474,0.4180276095867157
1782987732389697800,9.64069775390625,1.2705196142196655,1.4337154626846313,0.4770107567310333
1782987732399772700,9.650772705078126,1.3037753105163574,1.3635836839675903,0.4779508709907532
1782987732409846800,9.6608466796875,1.3227657079696655,1.2037402391433716,0.42640697956085205
1782987732419921700,9.670921630859375,1.337198257446289,0.957811713218689,0.32084378600120544
1782987732429995800,9.680995849609374,1.3315041065216064,0.6699013710021973,0.16329199075698853
1782987732440070700,9.691070556640625,1.3021211624145508,0.4077549874782562,-0.02556714601814747
1782987732450145800,9.701145751953124,1.260689616203308,0.23501810431480408,-0.2339903861284256
1782987732460219600,9.7112197265625,1.2158209085464478,0.1561134308576584,-0.43324917554855347
1782987732470294800,9.721294677734376,1.1840347051620483,0.2064780741930008,-0.5963142514228821
1782987732480369000,9.731368896484375,1.1754367351531982,0.3614942729473114,-0.6964078545570374
1782987732490443800,9.74144384765625,1.1769003868103027,0.566948652267456,-0.7322872877120972
1782987732500518000,9.751517822265624,1.1930264234542847,0.743372917175293,-0.6817343235015869
1782987732510592800,9.7615927734375,1.1983609199523926,0.8346285820007324,-0.5702294111251831
1782987732520667000,9.7716669921875,1.2050955295562744,0.8400161266326904,-0.43015778064727783
1782987732530741800,9.78174169921875,1.2292746305465698,0.8226048946380615,-0.2620513141155243
1782987732540816000,9.79181591796875,1.2864569425582886,0.8466423153877258,-0.09510627388954163
1782987732550890800,9.801890869140625,1.3615692853927612,0.8767893314361572,0.054245661944150925
1782987732560964900,9.81196484375,1.4249470233917236,0.8896377682685852,0.15467612445354462
1782987732571039700,9.822039794921874,1.4705748558044434,0.8826844692230225,0.2182588279247284
1782987732581113900,9.83211376953125,1.4969977140426636,0.8702395558357239,0.2514069378376007
1782987732591188700,9.842188720703126,1.4992595911026,0.8655361533164978,0.26451635360717773
1782987732601262800,9.852262939453125,1.4802762269973755,0.8570305109024048,0.2508878707885742
1782987732611337700,9.862337646484375,1.4393235445022583,0.8281522989273071,0.22377769649028778
1782987732621411800,9.872411865234374,1.3696807622909546,0.7973253726959229,0.18654963374137878
1782987732631486700,9.88248681640625,1.276761770248413,0.764439582824707,0.150013729929924
1782987732641560800,9.892560791015624,1.174491047859192,0.757194459438324,0.12574301660060883
1782987732651635700,9.9026357421875,1.089521050453186,0.8063316941261292,0.1115904450416565
1782987732661709800,9.912709716796876,1.0297179222106934,0.8621081113815308,0.0977577194571495
1782987732671784700,9.92278466796875,1.0078128576278687,0.8805816769599915,0.09058662503957748
1782987732681858800,9.93285888671875,1.0177708864212036,0.8790314197540283,0.09795452654361725
1782987732691933700,9.94293359375,1.036781668663025,0.8543130159378052,0.11738201975822449
1782987732702007800,9.9530078125,1.041636347770691,0.7917354106903076,0.13222675025463104
1782987732712082700,9.963082763671874,1.0123157501220703,0.7205568552017212,0.12756355106830597
1782987732722156800,9.97315673828125,0.956454336643219,0.6484956741333008,0.09950128942728043
1782987732732232000,9.98323193359375,0.8874435424804688,0.6429296731948853,0.05679936707019806
1782987732742305800,9.993305908203125,0.8359478712081909,0.7741907835006714,-0.0019094864837825298
1782987732752381000,10.003380859375,0.8130846619606018,1.1075133085250854,-0.0627904161810875
1782987732762454800,10.013454833984374,0.8352903723716736,1.4213823080062866,-0.11646855622529984
1782987732772530000,10.023530029296875,0.8799821734428406,1.4379311800003052,-0.20375072956085205
1782987732782603800,10.033603759765626,0.9390356540679932,1.1691042184829712,-0.29592540860176086
1782987732792679000,10.043678955078125,0.9883398413658142,0.907070517539978,-0.326141357421875
1782987732802752800,10.053752685546876,1.0136646032333374,0.8215545415878296,-0.2711004614830017
1782987732812828000,10.063827880859375,1.0244884490966797,0.9262194633483887,-0.13370266556739807
1782987732822901800,10.07390185546875,1.0355579853057861,1.1579499244689941,0.028569858521223068
1782987732832977000,10.083976806640624,1.0624827146530151,1.4423989057540894,0.19473007321357727
1782987732843050800,10.09405078125,1.0932867527008057,1.587218999862671,0.31044894456863403
1782987732853126000,10.1041259765625,1.1046254634857178,1.5339571237564087,0.3499052822589874
1782987732863199700,10.11419970703125,1.0990726947784424,1.3616273403167725,0.30263176560401917
1782987732873275000,10.12427490234375,1.0861287117004395,1.0935850143432617,0.18621620535850525
1782987732883348700,10.1343486328125,1.0726134777069092,0.8503241539001465,0.03876204416155815
1782987732893423900,10.144423828125,1.0617514848709106,0.685900866985321,-0.13348855078220367
1782987732903497700,10.154497802734374,1.0531880855560303,0.6143465042114258,-0.29901811480522156
1782987732913572900,10.16457275390625,1.065155029296875,0.6496776342391968,-0.4343581199645996
1782987732923646700,10.174646728515626,1.0977877378463745,0.7448339462280273,-0.5146875977516174
1782987732933721900,10.184721923828125,1.1317249536514282,0.8399199843406677,-0.5423988103866577
1782987732943795700,10.194795654296875,1.1663169860839844,0.9311884045600891,-0.497732013463974
1782987732953870800,10.204870849609375,1.1941853761672974,0.9940853118896484,-0.3894502818584442
1782987732963944200,10.214944091796875,1.1841298341751099,1.0238267183303833,-0.24709899723529816
1782987732974019300,10.225019287109374,1.1524419784545898,1.0110509395599365,-0.12247531861066818
1782987732984093200,10.23509326171875,1.1297895908355713,0.9351692795753479,-0.03307672590017319
1782987732994168300,10.245168212890626,1.1425237655639648,0.8483915328979492,0.013075055554509163
1782987733004242200,10.2552421875,1.184653639793396,0.8328104019165039,0.038057371973991394
1782987733014317300,10.2653173828125,1.2468552589416504,0.876427948474884,0.052137501537799835
1782987733024391200,10.27539111328125,1.3121535778045654,0.9150773286819458,0.04947647452354431
1782987733034466300,10.28546630859375,1.364493489265442,0.9152283072471619,0.03609568625688553
1782987733044540200,10.2955400390625,1.3945064544677734,0.8797728419303894,0.021622205153107643
1782987733054615300,10.305615234375,1.391403079032898,0.8257343769073486,0.018551314249634743
1782987733064689200,10.315689208984375,1.3603274822235107,0.7545347809791565,0.025495773181319237
1782987733074764300,10.325764404296875,1.3201361894607544,0.6577674746513367,0.03477821871638298
1782987733084838100,10.335838134765625,1.2713680267333984,0.5429884195327759,0.04471287503838539
1782987733094913300,10.345913330078124,1.218932032585144,0.4577830135822296,0.04367397725582123
1782987733104987100,10.355987060546875,1.1741759777069092,0.43971478939056396,0.025540513917803764
1782987733115062300,10.366062255859376,1.1447765827178955,0.4601130187511444,-0.004718322306871414
1782987733125137400,10.376137451171875,1.1244760751724243,0.481259822845459,-0.043290216475725174
1782987733135211300,10.386211181640626,1.092965841293335,0.4817748963832855,-0.10262171924114227
1782987733145286400,10.396286376953125,1.0648572444915771,0.5112361311912537,-0.17985151708126068
1782987733155360300,10.4063603515625,1.0242775678634644,0.5125868916511536,-0.2615261375904083
1782987733165434000,10.41643408203125,0.9671812653541565,0.5025363564491272,-0.33989018201828003
1782987733175509200,10.42650927734375,0.8414095044136047,0.38752481341362,-0.2123279720544815
1782987733185584400,10.43658447265625,0.6734612584114075,0.1865517646074295,-0.12361568212509155
1782987733195658200,10.446658203125,0.5974535346031189,-0.04114823415875435,-0.10239561647176743
1782987733205733400,10.4567333984375,0.6190483570098877,-0.06934978067874908,-0.12477948516607285
1782987733215807200,10.46680712890625,0.6200390458106995,0.17141835391521454,-0.17187854647636414
1782987733225882400,10.47688232421875,0.5446800589561462,0.417219340801239,-0.2109316736459732
1782987733235956200,10.486956298828124,0.40044647455215454,0.541852593421936,-0.16931898891925812
1782987733246031400,10.49703125,0.26348409056663513,0.47101733088493347,0.036677587777376175
1782987733256105200,10.507105224609376,0.22457292675971985,0.26978060603141785,0.35106801986694336
1782987733266180400,10.517180419921875,0.26623594760894775,-0.013942980207502842,0.6429831981658936
1782987733276254200,10.527254150390625,0.3485550582408905,-0.2743138372898102,0.8088909387588501
