time,seconds_elapsed,z,y,x
1782985773515511000,0.061510986328125,-0.9686126708984375,-1.5088348388671875,0.29718017578125
1782985773525585000,0.0715849609375,-1.0700225830078125,-1.2321319580078125,0.1577911376953125
1782985773535659000,0.081658935546875,-1.0919952392578125,-0.98529052734375,0.0415496826171875
1782985773545732900,0.09173291015625,-1.0308685302734375,-0.8006591796875,-0.0382232666015625
1782985773555806000,0.101805908203125,-0.956268310546875,-0.65771484375,-0.081573486328125
1782985773565880000,0.111880126953125,-0.8802337646484375,-0.561981201171875,-0.0930328369140625
1782985773575954000,0.121953857421875,-0.86297607421875,-0.5173492431640625,-0.0668182373046875
1782985773586028000,0.132028076171875,-0.9702911376953125,-0.5170135498046875,-0.007904052734375
1782985773596102000,0.142101806640625,-1.1621246337890625,-0.4957275390625,0.0689239501953125
1782985773606175000,0.152175048828125,-1.320892333984375,-0.45794677734375,0.112548828125
1782985773616249000,0.1622490234375,-1.367919921875,-0.4352264404296875,0.098480224609375
1782985773626323000,0.172322998046875,-1.2999725341796875,-0.4263153076171875,0.061798095703125
1782985773636397000,0.18239697265625,-1.1545867919921875,-0.4270477294921875,0.0402984619140625
1782985773646471000,0.192470947265625,-0.971099853515625,-0.414154052734375,0.0226287841796875
1782985773656544000,0.2025439453125,-0.7670135498046875,-0.39105224609375,-0.0159912109375
1782985773666618000,0.2126181640625,-0.574859619140625,-0.3873748779296875,-0.0518798828125
1782985773676692000,0.22269189453125,-0.4304351806640625,-0.4022979736328125,-0.0781707763671875
1782985773686765800,0.232765869140625,-0.3369903564453125,-0.401824951171875,-0.0741729736328125
1782985773696840000,0.24283984375,-0.2713775634765625,-0.3763275146484375,-0.0758514404296875
1782985773706913000,0.2529130859375,-0.2236480712890625,-0.349273681640625,-0.0684661865234375
1782985773716987000,0.26298681640625,-0.1985931396484375,-0.3197021484375,-0.04656982421875
1782985773727061000,0.27306103515625,-0.1860809326171875,-0.297515869140625,-0.0287322998046875
1782985773737134800,0.283134765625,-0.173309326171875,-0.2764892578125,-0.0101318359375
1782985773747209000,0.293208984375,-0.1586151123046875,-0.2588348388671875,0.009765625
1782985773757282000,0.303281982421875,-0.13458251953125,-0.251678466796875,0.0171661376953125
1782985773767356000,0.31335595703125,-0.12103271484375,-0.247528076171875,0.036346435546875
1782985773777430000,0.323429931640625,-0.144805908203125,-0.2322845458984375,0.05865478515625
1782985773787503900,0.33350390625,-0.1595001220703125,-0.2166748046875,0.0755462646484375
1782985773797578000,0.343577880859375,-0.17034912109375,-0.2066802978515625,0.0803985595703125
1782985773807651000,0.353651123046875,-0.1817474365234375,-0.2054443359375,0.077606201171875
1782985773817725000,0.363724853515625,-0.1768035888671875,-0.208160400390625,0.052001953125
1782985773827799000,0.373799072265625,-0.199981689453125,-0.2270050048828125,0.0012664794921875
1782985773837873000,0.383872802734375,-0.25738525390625,-0.2656707763671875,-0.0726470947265625
1782985773847947000,0.393947021484375,-0.3611297607421875,-0.3057861328125,-0.160125732421875
1782985773858020000,0.40402001953125,-0.4328765869140625,-0.336273193359375,-0.269927978515625
1782985773868094000,0.414093994140625,-0.506378173828125,-0.3579864501953125,-0.35284423828125
1782985773878168000,0.42416796875,-0.6105804443359375,-0.38232421875,-0.3641357421875
1782985773888242000,0.434241943359375,-0.699127197265625,-0.407318115234375,-0.2552642822265625
1782985773898316000,0.44431591796875,-0.7514801025390625,-0.5013885498046875,-0.070770263671875
1782985773908390100,0.45439013671875,-0.8102569580078125,-0.689453125,0.131561279296875
1782985773918463000,0.464462890625,-0.9102783203125,-0.9207611083984375,0.312347412109375
1782985773928536800,0.474536865234375,-1.0802001953125,-1.138671875,0.3212432861328125
1782985773938611000,0.48461083984375,-1.3583221435546875,-1.2221221923828125,0.0005645751953125
1782985773948685000,0.49468505859375,-1.6798248291015625,-1.19952392578125,-0.4216766357421875
1782985773958759200,0.50475927734375,-1.9016876220703125,-1.1822662353515625,-0.7178497314453125
1782985773968832000,0.51483203125,-2.01007080078125,-1.2144012451171875,-0.808746337890625
1782985773978905900,0.52490576171875,-2.069366455078125,-1.3128509521484375,-0.6874847412109375
1782985773988980000,0.53497998046875,-1.9410552978515625,-1.388275146484375,-0.5212249755859375
1782985773999054000,0.54505419921875,-1.709625244140625,-1.418121337890625,-0.42877197265625
1782985774009128200,0.555128173828125,-1.56817626953125,-1.3649444580078125,-0.3541259765625
1782985774019201000,0.565200927734375,-1.52178955078125,-1.1162567138671875,-0.290557861328125
1782985774029275000,0.57527490234375,-1.5243072509765625,-0.8602752685546875,-0.2137298583984375
1782985774039349000,0.585348876953125,-1.491119384765625,-0.692718505859375,-0.170989990234375
1782985774049423000,0.595423095703125,-1.3780975341796875,-0.5376129150390625,-0.2322540283203125
1782985774059497200,0.605497314453125,-1.284149169921875,-0.44329833984375,-0.3341064453125
1782985774069570000,0.615570068359375,-1.185089111328125,-0.385040283203125,-0.39691162109375
1782985774079644000,0.625643798828125,-1.051025390625,-0.350616455078125,-0.4103240966796875
1782985774089718000,0.635718017578125,-0.930999755859375,-0.4045562744140625,-0.397552490234375
1782985774099792100,0.645792236328125,-0.8601226806640625,-0.5002593994140625,-0.3666229248046875
1782985774109866000,0.655865966796875,-0.8735198974609375,-0.583160400390625,-0.303070068359375
1782985774119939000,0.66593896484375,-0.8393096923828125,-0.6046142578125,-0.2319488525390625
1782985774130013000,0.676012939453125,-0.7097625732421875,-0.5791473388671875,-0.0967864990234375
1782985774140087000,0.686087158203125,-0.5553436279296875,-0.5799102783203125,0.0674896240234375
1782985774150161200,0.6961611328125,-0.3839874267578125,-0.5720672607421875,0.192657470703125
1782985774160235000,0.706235107421875,-0.232879638671875,-0.5373077392578125,0.2300262451171875
1782985774170309000,0.71630908203125,-0.144439697265625,-0.5106964111328125,0.1362457275390625
1782985774180382000,0.7263818359375,-0.083343505859375,-0.49407958984375,0.0917510986328125
1782985774190455800,0.736455810546875,-0.03826904296875,-0.494781494140625,0.1155242919921875
1782985774200530000,0.746530029296875,-0.033477783203125,-0.50177001953125,0.122283935546875
1782985774210604000,0.75660400390625,-0.04034423828125,-0.4715728759765625,0.159820556640625
1782985774220678000,0.766677978515625,-0.1156005859375,-0.3970489501953125,0.2270965576171875
1782985774230750700,0.776750732421875,-0.39971923828125,-0.3332672119140625,0.28741455078125
1782985774240824800,0.786824951171875,-0.631866455078125,-0.2951202392578125,0.2569580078125
1782985774250899000,0.79689892578125,-0.7375335693359375,-0.1890869140625,0.2087860107421875
1782985774260973000,0.80697314453125,-0.808502197265625,-0.138458251953125,0.1404876708984375
1782985774271047000,0.817046875,-0.8688812255859375,-0.1598052978515625,0.1035308837890625
1782985774281119700,0.82711962890625,-0.8584442138671875,-0.1898956298828125,0.101470947265625
1782985774291193900,0.83719384765625,-0.800201416015625,-0.2126617431640625,0.1114044189453125
1782985774301268000,0.84726806640625,-0.746856689453125,-0.2379608154296875,0.1204833984375
1782985774311342000,0.857342041015625,-0.7091522216796875,-0.2409515380859375,0.125213623046875
1782985774321416000,0.867416015625,-0.7606048583984375,-0.222503662109375,0.0901641845703125
1782985774331488800,0.87748876953125,-0.817108154296875,-0.2164306640625,0.0131072998046875
1782985774341563000,0.88756298828125,-0.8190460205078125,-0.2270355224609375,-0.0947418212890625
1782985774351637000,0.897636962890625,-0.7957916259765625,-0.2717742919921875,-0.206695556640625
1782985774361710800,0.9077109375,-0.7580718994140625,-0.311920166015625,-0.271331787109375
1782985774371785000,0.917784912109375,-0.7343902587890625,-0.3448944091796875,-0.2510223388671875
1782985774381857800,0.92785791015625,-0.712982177734375,-0.3931732177734375,-0.12646484375
1782985774391931600,0.937931640625,-0.720367431640625,-0.4399871826171875,0.0646820068359375
1782985774402006000,0.948006103515625,-0.7679443359375,-0.5055389404296875,0.2631988525390625
1782985774412079900,0.958079833984375,-0.8785552978515625,-0.6373748779296875,0.40728759765625
1782985774422154000,0.968154052734375,-1.13031005859375,-0.7608489990234375,0.5078125
1782985774432226800,0.978226806640625,-1.5438232421875,-0.773468017578125,0.543548583984375
1782985774442300700,0.98830078125,-1.87890625,-0.6880645751953125,0.43359375
1782985774452375000,0.998375,-1.9127655029296875,-0.5531768798828125,0.30450439453125
1782985774462449000,1.008448974609375,-1.7138824462890625,-0.563812255859375,0.332244873046875
1782985774472523000,1.01852294921875,-1.4153594970703125,-0.7808685302734375,0.4851226806640625
1782985774482596900,1.028596923828125,-1.1479949951171875,-1.0589752197265625,0.6025238037109375
1782985774492669700,1.038669677734375,-0.9984130859375,-1.268341064453125,0.5992431640625
1782985774502744000,1.048744140625,-0.9016571044921875,-1.385955810546875,0.6598358154296875
1782985774512818000,1.05881787109375,-0.818817138671875,-1.4573822021484375,0.7397613525390625
1782985774522892000,1.06889208984375,-0.8446502685546875,-1.4806365966796875,0.831817626953125
1782985774532966000,1.0789658203125,-0.947601318359375,-1.4040679931640625,0.81146240234375
1782985774543038700,1.089038818359375,-1.0306854248046875,-1.2450103759765625,0.6393280029296875
1782985774553113000,1.099113037109375,-1.182342529296875,-1.023193359375,0.41741943359375
1782985774563187000,1.10918701171875,-1.3752899169921875,-0.7503509521484375,0.1746673583984375
1782985774573260800,1.1192607421875,-1.457763671875,-0.493133544921875,-0.0759735107421875
1782985774583335000,1.1293349609375,-1.4120635986328125,-0.339599609375,-0.2550506591796875
1782985774593407700,1.13940771484375,-1.2891998291015625,-0.2916107177734375,-0.282745361328125
1782985774603481900,1.14948193359375,-1.2112274169921875,-0.3115997314453125,-0.16033935546875
1782985774613556000,1.159555908203125,-1.1437835693359375,-0.3405303955078125,0.0059661865234375
1782985774623629800,1.1696298828125,-1.012420654296875,-0.3302459716796875,0.1320343017578125
1782985774633704000,1.179703857421875,-0.8837127685546875,-0.2910308837890625,0.198974609375
1782985774643777800,1.18977783203125,-0.7803955078125,-0.263031005859375,0.207733154296875
1782985774653851000,1.199850830078125,-0.6642913818359375,-0.23651123046875,0.177001953125
1782985774663925000,1.209925048828125,-0.5708160400390625,-0.220489501953125,0.1412353515625
1782985774673998800,1.219998779296875,-0.483642578125,-0.2379302978515625,0.0999908447265625
1782985774684073000,1.230072998046875,-0.3766632080078125,-0.26629638671875,0.0365753173828125
1782985774694146800,1.240146728515625,-0.2776031494140625,-0.2787017822265625,-0.0229644775390625
1782985774704220000,1.250219970703125,-0.1939544677734375,-0.2532196044921875,-0.0448760986328125
1782985774714294000,1.2602939453125,-0.1501007080078125,-0.2074127197265625,-0.020111083984375
1782985774724368000,1.270367919921875,-0.1816253662109375,-0.17205810546875,0.0406646728515625
1782985774734442000,1.28044189453125,-0.25604248046875,-0.1490631103515625,0.107208251953125
1782985774744515800,1.290515869140625,-0.3315277099609375,-0.1215362548828125,0.1341400146484375
1782985774754589000,1.3005888671875,-0.3775177001953125,-0.073089599609375,0.11639404296875
1782985774764663000,1.3106630859375,-0.3727264404296875,-0.0147552490234375,0.0897369384765625
1782985774774737000,1.32073681640625,-0.34356689453125,0.01837158203125,0.0780792236328125
1782985774784810800,1.330810791015625,-0.3126983642578125,-0.0023040771484375,0.06622314453125
1782985774794884900,1.340884765625,-0.2922821044921875,-0.0534515380859375,0.0215911865234375
1782985774804958000,1.3509580078125,-0.271514892578125,-0.1109619140625,-0.0532379150390625
1782985774815031800,1.36103173828125,-0.2385406494140625,-0.138671875,-0.1366424560546875
1782985774825106000,1.37110595703125,-0.215606689453125,-0.1360015869140625,-0.1891632080078125
1782985774835179800,1.3811796875,-0.2277069091796875,-0.1368560791015625,-0.22052001953125
1782985774845254000,1.39125390625,-0.2762603759765625,-0.1557769775390625,-0.231475830078125
1782985774855327000,1.401326904296875,-0.3148651123046875,-0.1735992431640625,-0.2397613525390625
1782985774865400800,1.41140087890625,-0.3208465576171875,-0.16802978515625,-0.225250244140625
1782985774875475000,1.421474853515625,-0.3018035888671875,-0.15313720703125,-0.1923828125
1782985774885548800,1.431548828125,-0.27581787109375,-0.1634979248046875,-0.147064208984375
1782985774895623000,1.441622802734375,-0.2567596435546875,-0.2202606201171875,-0.10906982421875
1782985774905696800,1.45169677734375,-0.254608154296875,-0.31915283203125,-0.1085662841796875
1782985774915769900,1.461769775390625,-0.281097412109375,-0.4706268310546875,-0.1169281005859375
1782985774925844000,1.471843994140625,-0.3697967529296875,-0.6788330078125,-0.10205078125
1782985774935917800,1.481917724609375,-0.60919189453125,-0.9505157470703125,-0.04229736328125
1782985774945992000,1.491991943359375,-1.1017608642578125,-1.18548583984375,0.049346923828125
1782985774956065800,1.502065673828125,-1.7879180908203125,-1.253814697265625,0.124908447265625
1782985774966139000,1.512138916015625,-2.5453033447265625,-1.1634521484375,0.0399017333984375
1782985774976213000,1.522212890625,-2.8909759521484375,-0.92950439453125,-0.197479248046875
1782985774986286800,1.532286865234375,-2.7254486083984375,-0.74053955078125,-0.461517333984375
1782985774996360700,1.542360595703125,-2.3834381103515625,-0.84552001953125,-0.5879974365234375
1782985775006434800,1.552434814453125,-1.9639434814453125,-1.151580810546875,-0.532440185546875
1782985775016509000,1.562509033203125,-1.5727386474609375,-1.4864044189453125,-0.38397216796875
1782985775026582000,1.57258203125,-1.305328369140625,-1.72821044921875,-0.2153778076171875
1782985775036655900,1.58265576171875,-1.1444244384765625,-1.7691192626953125,-0.089508056640625
1782985775046729700,1.592729736328125,-1.108978271484375,-1.6221160888671875,0.040130615234375
1782985775056803800,1.602803955078125,-1.1707763671875,-1.49884033203125,0.2070465087890625
1782985775066878000,1.6128779296875,-1.266998291015625,-1.418914794921875,0.4404449462890625
1782985775076950800,1.62295068359375,-1.37139892578125,-1.3131866455078125,0.6293182373046875
1782985775087025000,1.63302490234375,-1.407562255859375,-1.14691162109375,0.602447509765625
1782985775097098800,1.6430986328125,-1.365997314453125,-0.977935791015625,0.405792236328125
1782985775107172900,1.6531728515625,-1.28546142578125,-0.8590850830078125,0.207183837890625
1782985775117247000,1.6632470703125,-1.1183929443359375,-0.83819580078125,0.00042724609375
1782985775127319800,1.67331982421875,-0.9055328369140625,-0.8951873779296875,-0.2407073974609375
1782985775137394000,1.683393798828125,-0.6881866455078125,-0.9760284423828125,-0.4756317138671875
1782985775147467800,1.6934677734375,-0.500213623046875,-1.0054931640625,-0.6206817626953125
1782985775157542000,1.7035419921875,-0.399566650390625,-0.891845703125,-0.582305908203125
1782985775167616000,1.713615966796875,-0.3692169189453125,-0.6930084228515625,-0.381195068359375
1782985775177688800,1.723688720703125,-0.3627166748046875,-0.5095367431640625,-0.1096343994140625
1782985775187763000,1.733762939453125,-0.3325958251953125,-0.3599090576171875,0.1281890869140625
1782985775197837300,1.74383740234375,-0.293243408203125,-0.257415771484375,0.3174591064453125
1782985775207911200,1.7539111328125,-0.2574920654296875,-0.2014617919921875,0.4403076171875
1782985775217985300,1.7639853515625,-0.220947265625,-0.200927734375,0.4857635498046875
1782985775228059400,1.774059326171875,-0.181976318359375,-0.2386932373046875,0.466278076171875
1782985775238132200,1.78413232421875,-0.158477783203125,-0.2773895263671875,0.412750244140625
1782985775248206300,1.794206298828125,-0.1562652587890625,-0.297210693359375,0.3246307373046875
1782985775258280200,1.8042802734375,-0.1558837890625,-0.2864837646484375,0.2085418701171875
1782985775268354300,1.814354248046875,-0.1672515869140625,-0.2769317626953125,0.0731201171875
1782985775278428400,1.824428466796875,-0.2108001708984375,-0.2494049072265625,-0.025299072265625
1782985775288501200,1.834501220703125,-0.2955169677734375,-0.1889801025390625,-0.0816497802734375
1782985775298575000,1.8445751953125,-0.3900299072265625,-0.10009765625,-0.1228790283203125
1782985775308649200,1.854649169921875,-0.4568023681640625,0.0055084228515625,-0.126373291015625
1782985775318723300,1.864723388671875,-0.46820068359375,0.0909271240234375,-0.1048583984375
1782985775328797400,1.87479736328125,-0.45172119140625,0.116912841796875,-0.0490875244140625
1782985775338870300,1.884870361328125,-0.44451904296875,0.0854034423828125,0.0309295654296875
1782985775348944100,1.894944091796875,-0.4583892822265625,0.0413360595703125,0.1093597412109375
1782985775359018200,1.905018310546875,-0.47845458984375,0.0216522216796875,0.1686859130859375
1782985775369092400,1.91509228515625,-0.476776123046875,0.02978515625,0.20849609375
1782985775379166500,1.92516650390625,-0.42962646484375,0.0457916259765625,0.2219390869140625
1782985775389239300,1.9352392578125,-0.34759521484375,0.05426025390625,0.2088165283203125
1782985775399313200,1.945313232421875,-0.25701904296875,0.016876220703125,0.16558837890625
1782985775409387300,1.95538720703125,-0.2025146484375,-0.0658416748046875,0.105316162109375
1782985775419461400,1.96546142578125,-0.202667236328125,-0.148406982421875,0.044830322265625
1782985775429535200,1.97553515625,-0.2608489990234375,-0.1979217529296875,0.0180206298828125
1782985775439609300,1.985609375,-0.34661865234375,-0.20245361328125,0.051361083984375
1782985775449682200,1.99568212890625,-0.4042205810546875,-0.201263427734375,0.149200439453125
1782985775459756300,2.00575634765625,-0.449615478515625,-0.2161712646484375,0.3082427978515625
1782985775469830400,2.015830322265625,-0.5266571044921875,-0.2292938232421875,0.4834442138671875
1782985775479904300,2.025904296875,-0.6580810546875,-0.247161865234375,0.65106201171875
1782985775489978400,2.035978271484375,-0.9967193603515625,-0.283111572265625,0.7762298583984375
1782985775500051200,2.04605126953125,-1.4183197021484375,-0.3671417236328125,0.791656494140625
1782985775510125000,2.056125,-1.69122314453125,-0.455474853515625,0.680145263671875
1782985775520199400,2.066199462890625,-1.7938690185546875,-0.58642578125,0.5337982177734375
1782985775530273300,2.076273193359375,-1.7734527587890625,-0.8511810302734375,0.48040771484375
1782985775540347400,2.086347412109375,-1.762969970703125,-1.2158050537109375,0.564910888671875
1782985775550420200,2.096420166015625,-1.90826416015625,-1.5682373046875,0.717010498046875
1782985775560494000,2.106494140625,-1.97210693359375,-1.7003936767578125,0.7721710205078125
1782985775570568400,2.116568359375,-1.86883544921875,-1.5309295654296875,0.64666748046875
1782985775580642300,2.126642333984375,-1.9039154052734375,-1.356292724609375,0.52984619140625
1782985775590716400,2.13671630859375,-2.138092041015625,-1.24615478515625,0.3637847900390625
1782985775600790300,2.146790283203125,-2.2554473876953125,-1.0807037353515625,0.0919647216796875
1782985775610863000,2.156863037109375,-2.142822265625,-0.89453125,-0.115997314453125
1782985775620937500,2.1669375,-1.836181640625,-0.732086181640625,-0.203033447265625
1782985775631011300,2.17701123046875,-1.4521026611328125,-0.5962677001953125,-0.2304534912109375
1782985775641085200,2.187085205078125,-1.0774383544921875,-0.5239105224609375,-0.2423553466796875
1782985775651159300,2.1971591796875,-0.7467193603515625,-0.5364837646484375,-0.2566375732421875
1782985775661232000,2.207232177734375,-0.507354736328125,-0.605194091796875,-0.29278564453125
1782985775671306500,2.217306396484375,-0.3823699951171875,-0.6901702880859375,-0.3210296630859375
1782985775681380400,2.22738037109375,-0.377471923828125,-0.736907958984375,-0.2968597412109375
1782985775691454200,2.2374541015625,-0.461334228515625,-0.7130889892578125,-0.21612548828125
1782985775701528300,2.2475283203125,-0.5722503662109375,-0.619171142578125,-0.1312103271484375
1782985775711601200,2.25760107421875,-0.6576995849609375,-0.481292724609375,-0.0904998779296875
1782985775721675300,2.26767529296875,-0.72235107421875,-0.349945068359375,-0.0815277099609375
1782985775731749400,2.277749267578125,-0.7689971923828125,-0.26275634765625,-0.0857391357421875
1782985775741823200,2.2878232421875,-0.74896240234375,-0.22467041015625,-0.0769805908203125
1782985775751897300,2.2978974609375,-0.690277099609375,-0.2171173095703125,-0.054656982421875
1782985775761971200,2.30797119140625,-0.6296844482421875,-0.22344970703125,-0.0455780029296875
1782985775772044300,2.318044189453125,-0.5668182373046875,-0.2496795654296875,-0.02996826171875
1782985775782118400,2.328118408203125,-0.52117919921875,-0.2746124267578125,-0.002349853515625
1782985775792192300,2.338192138671875,-0.501983642578125,-0.27813720703125,0.0248870849609375
1782985775802266400,2.348266357421875,-0.4929351806640625,-0.258514404296875,0.02618408203125
1782985775812340200,2.35834033203125,-0.48486328125,-0.2232513427734375,0.0066680908203125
1782985775822413300,2.368413330078125,-0.4617767333984375,-0.1821746826171875,-0.0159912109375
1782985775832487400,2.3784873046875,-0.428741455078125,-0.150909423828125,-0.02294921875
1782985775842561300,2.388561279296875,-0.393951416015625,-0.135955810546875,-0.01043701171875
1782985775852635100,2.39863525390625,-0.35076904296875,-0.139862060546875,0.0074920654296875
1782985775862709200,2.408709228515625,-0.304229736328125,-0.1556854248046875,0.0270538330078125
1782985775872783000,2.418783203125,-0.259033203125,-0.18353271484375,0.0377044677734375
1782985775882856400,2.4288564453125,-0.2244110107421875,-0.2149505615234375,0.0340423583984375
1782985775892930300,2.438930419921875,-0.2022552490234375,-0.225128173828125,0.031463623046875
1782985775903004200,2.449004150390625,-0.1942138671875,-0.210418701171875,0.0325927734375
1782985775913078300,2.459078369140625,-0.1908416748046875,-0.1786651611328125,0.039093017578125
1782985775923152100,2.469152099609375,-0.183563232421875,-0.14324951171875,0.0455322265625
1782985775933225200,2.47922509765625,-0.1757965087890625,-0.1106414794921875,0.05072021484375
1782985775943299300,2.48929931640625,-0.1946258544921875,-0.091278076171875,0.050567626953125
1782985775953373200,2.499373291015625,-0.26092529296875,-0.10955810546875,0.01068115234375
1782985775963447300,2.509447265625,-0.3710479736328125,-0.150054931640625,-0.0531158447265625
1782985775973521200,2.519521240234375,-0.452117919921875,-0.188934326171875,-0.095794677734375
1782985775983594200,2.52959423828125,-0.49615478515625,-0.233245849609375,-0.1271209716796875
1782985775993668400,2.53966845703125,-0.5407867431640625,-0.3194427490234375,-0.150665283203125
1782985776003742200,2.5497421875,-0.6440887451171875,-0.479583740234375,-0.1903228759765625
1782985776013816300,2.55981640625,-0.797515869140625,-0.6783905029296875,-0.25140380859375
1782985776023890200,2.56989013671875,-1.0051422119140625,-0.795196533203125,-0.2830657958984375
1782985776033964000,2.579964111328125,-1.3229827880859375,-0.7886810302734375,-0.275726318359375
1782985776044037400,2.590037353515625,-1.7308349609375,-0.7519683837890625,-0.264190673828125
1782985776054111200,2.600111328125,-2.0189056396484375,-0.75152587890625,-0.2570037841796875
1782985776064185000,2.61018505859375,-2.04473876953125,-0.8041839599609375,-0.302734375
1782985776074259200,2.62025927734375,-1.9386138916015625,-0.971893310546875,-0.418426513671875
1782985776084333000,2.6303330078125,-1.777008056640625,-1.258331298828125,-0.5121612548828125
1782985776094406400,2.640406494140625,-1.644012451171875,-1.5888824462890625,-0.50372314453125
1782985776104480300,2.650480224609375,-1.4976806640625,-1.78948974609375,-0.37652587890625
1782985776114554000,2.66055419921875,-1.312835693359375,-1.7233428955078125,-0.1854248046875
1782985776124628200,2.670628173828125,-1.1819915771484375,-1.4539031982421875,-0.0445556640625
1782985776134702000,2.6807021484375,-1.1897125244140625,-1.1075286865234375,0.051849365234375
1782985776144775200,2.690775146484375,-1.3967132568359375,-0.7613067626953125,0.1351776123046875
1782985776154849300,2.700849365234375,-1.709930419921875,-0.4809112548828125,0.15008544921875
1782985776164923100,2.710923095703125,-1.9280548095703125,-0.292449951171875,0.0930328369140625
1782985776174997200,2.720997314453125,-1.98602294921875,-0.2339019775390625,-0.027557373046875
1782985776185071000,2.731071044921875,-1.93072509765625,-0.31787109375,-0.186492919921875
1782985776195145500,2.7411455078125,-1.73016357421875,-0.5003662109375,-0.348541259765625
1782985776205218300,2.75121826171875,-1.3721466064453125,-0.6766357421875,-0.4976043701171875
1782985776215292200,2.761292236328125,-0.982147216796875,-0.7521209716796875,-0.6063690185546875
1782985776225366300,2.7713662109375,-0.6958160400390625,-0.7370758056640625,-0.6155242919921875
1782985776235440000,2.781440185546875,-0.5766754150390625,-0.6496429443359375,-0.4857635498046875
1782985776245514500,2.791514404296875,-0.5814666748046875,-0.505615234375,-0.246612548828125
1782985776255587300,2.80158740234375,-0.63531494140625,-0.3607940673828125,0.0335540771484375
1782985776265661200,2.8116611328125,-0.6933746337890625,-0.245208740234375,0.286407470703125
1782985776275735300,2.8217353515625,-0.7204742431640625,-0.156463623046875,0.461212158203125
1782985776285809200,2.83180908203125,-0.7147674560546875,-0.1091766357421875,0.5298309326171875
1782985776295883500,2.841883544921875,-0.682342529296875,-0.0974884033203125,0.49127197265625
1782985776305957400,2.851957275390625,-0.6389312744140625,-0.117950439453125,0.3606719970703125
1782985776316030200,2.8620302734375,-0.58526611328125,-0.1532440185546875,0.1775360107421875
1782985776326104300,2.872104248046875,-0.5073394775390625,-0.173675537109375,0.0053253173828125
1782985776336178200,2.88217822265625,-0.46466064453125,-0.183502197265625,-0.1103515625
1782985776346252300,2.892252197265625,-0.4651336669921875,-0.1856842041015625,-0.1707000732421875
1782985776356326400,2.902326416015625,-0.4852447509765625,-0.1617431640625,-0.184844970703125
1782985776366399200,2.912399169921875,-0.5320892333984375,-0.122406005859375,-0.17633056640625
1782985776376473000,2.92247314453125,-0.520172119140625,-0.0694732666015625,-0.1477508544921875
1782985776386547200,2.932547119140625,-0.4810638427734375,-0.025482177734375,-0.0938873291015625
1782985776396621300,2.942621337890625,-0.434478759765625,-0.006927490234375,-0.01727294921875
1782985776406695400,2.9526953125,-0.376007080078125,-0.0037078857421875,0.0490570068359375
1782985776416768300,2.962768310546875,-0.3148651123046875,-0.0056915283203125,0.092926025390625
1782985776426842000,2.972842041015625,-0.2685089111328125,-0.0059356689453125,0.1236114501953125
1782985776436916200,2.982916259765625,-0.231201171875,-0.006103515625,0.133880615234375
1782985776446990300,2.992990234375,-0.1996002197265625,-0.0128936767578125,0.1287689208984375
1782985776457064400,3.003064453125,-0.17669677734375,-0.016021728515625,0.1250762939453125
1782985776467138300,3.01313818359375,-0.174530029296875,-0.0178375244140625,0.1100921630859375
1782985776477211100,3.023211181640625,-0.215301513671875,-0.022216796875,0.0814666748046875
1782985776487285200,3.03328515625,-0.2722320556640625,-0.027923583984375,0.048797607421875
1782985776497359400,3.043359375,-0.3177490234375,-0.03436279296875,0.032257080078125
1782985776507433500,3.05343359375,-0.3840789794921875,-0.042449951171875,0.0090484619140625
1782985776517507300,3.06350732421875,-0.4262847900390625,-0.0586700439453125,-0.0092620849609375
1782985776527580200,3.073580078125,-0.4483642578125,-0.09722900390625,-0.00262451171875
1782985776537654300,3.083654296875,-0.49395751953125,-0.1853179931640625,0.0442047119140625
1782985776547728400,3.093728271484375,-0.61773681640625,-0.3323211669921875,0.1371612548828125
1782985776557802200,3.10380224609375,-0.8134002685546875,-0.518402099609375,0.2420806884765625
1782985776567876400,3.11387646484375,-1.0634918212890625,-0.7100677490234375,0.3832855224609375
1782985776577950200,3.1239501953125,-1.39495849609375,-0.8616180419921875,0.50860595703125
1782985776588023300,3.134023193359375,-1.649383544921875,-0.8675689697265625,0.459136962890625
1782985776598097400,3.144097412109375,-1.787567138671875,-0.720794677734375,0.2970123291015625
1782985776608171300,3.154171142578125,-1.8156280517578125,-0.6629486083984375,0.261322021484375
1782985776618245400,3.164245361328125,-1.8348236083984375,-0.8428497314453125,0.45159912109375
1782985776628319200,3.1743193359375,-1.8418121337890625,-1.09979248046875,0.7119903564453125
1782985776638392300,3.184392333984375,-1.75738525390625,-1.2195892333984375,0.7749176025390625
1782985776648466400,3.194466552734375,-1.7230072021484375,-1.2041778564453125,0.5891571044921875
1782985776658540300,3.204540283203125,-1.9088134765625,-1.1583709716796875,0.3457794189453125
1782985776668614400,3.214614501953125,-2.1300506591796875,-1.0115509033203125,0.0678863525390625
1782985776678688300,3.224688232421875,-2.2566986083984375,-0.739227294921875,-0.2065582275390625
1782985776688761300,3.23476123046875,-2.1770477294921875,-0.47613525390625,-0.317596435546875
1782985776698835500,3.24483544921875,-1.824737548828125,-0.3485870361328125,-0.2441558837890625
1782985776708909300,3.254909423828125,-1.391998291015625,-0.3627166748046875,-0.0538787841796875
1782985776718983400,3.2649833984375,-1.0490570068359375,-0.436614990234375,0.1260223388671875
1782985776729057300,3.275057373046875,-0.8659515380859375,-0.5087738037109375,0.22222900390625
1782985776739131100,3.285131103515625,-0.800811767578125,-0.54656982421875,0.245269775390625
1782985776749204500,3.29520458984375,-0.8012847900390625,-0.5648193359375,0.1557769775390625
1782985776759278300,3.3052783203125,-0.847625732421875,-0.553985595703125,0.00164794921875
1782985776769352200,3.315352294921875,-0.8834686279296875,-0.5054168701171875,-0.123382568359375
1782985776779426300,3.32542626953125,-0.893096923828125,-0.4305267333984375,-0.20068359375
1782985776789500200,3.335500244140625,-0.860992431640625,-0.3423309326171875,-0.204742431640625
1782985776799573200,3.3455732421875,-0.8024139404296875,-0.2681884765625,-0.124237060546875
1782985776809647400,3.3556474609375,-0.8350067138671875,-0.223114013671875,-0.055419921875
1782985776819721200,3.36572119140625,-0.832122802734375,-0.1900482177734375,-0.0321502685546875
1782985776829795300,3.37579541015625,-0.77008056640625,-0.1641845703125,-0.0443878173828125
1782985776839869200,3.385869140625,-0.6843719482421875,-0.1522674560546875,-0.0767059326171875
1782985776849943300,3.395943359375,-0.64910888671875,-0.156585693359375,-0.1162872314453125
1782985776860016400,3.406016357421875,-0.648651123046875,-0.1634063720703125,-0.1399993896484375
1782985776870090200,3.41609033203125,-0.634552001953125,-0.15228271484375,-0.1403350830078125
1782985776880164400,3.426164306640625,-0.6018218994140625,-0.1204986572265625,-0.1217498779296875
1782985776890238200,3.43623828125,-0.5478515625,-0.1034698486328125,-0.094085693359375
1782985776900312000,3.44631201171875,-0.49322509765625,-0.0980377197265625,-0.0681915283203125
1782985776910385400,3.456385498046875,-0.45660400390625,-0.106170654296875,-0.0490875244140625
1782985776920459300,3.466459228515625,-0.4276275634765625,-0.1176910400390625,-0.0355224609375
1782985776930533400,3.476533447265625,-0.3952178955078125,-0.1277313232421875,-0.05010986328125
1782985776940607200,3.486607177734375,-0.3531341552734375,-0.12567138671875,-0.06646728515625
1782985776950681000,3.49668115234375,-0.3158721923828125,-0.12713623046875,-0.06036376953125
1782985776960755500,3.50675537109375,-0.301513671875,-0.15948486328125,-0.0634307861328125
1782985776970828300,3.516828369140625,-0.3093414306640625,-0.2043609619140625,-0.082183837890625
1782985776980902100,3.526902099609375,-0.322906494140625,-0.2297515869140625,-0.12579345703125
1782985776990976300,3.536976318359375,-0.3321380615234375,-0.2210693359375,-0.1776275634765625
1782985777001050000,3.547050048828125,-0.353607177734375,-0.1918792724609375,-0.217559814453125
1782985777011124500,3.55712451171875,-0.3680572509765625,-0.1732330322265625,-0.2328033447265625
1782985777021197300,3.567197265625,-0.3877105712890625,-0.1784820556640625,-0.22637939453125
1782985777031271200,3.577271240234375,-0.464080810546875,-0.18975830078125,-0.214263916015625
1782985777041345300,3.58734521484375,-0.589813232421875,-0.2057952880859375,-0.2122955322265625
1782985777051419100,3.597419189453125,-0.712860107421875,-0.22491455078125,-0.22509765625
1782985777061493500,3.607493408203125,-0.7923583984375,-0.26458740234375,-0.2607574462890625
1782985777071567400,3.6175673828125,-0.869232177734375,-0.3240203857421875,-0.299896240234375
1782985777081640200,3.62764013671875,-0.94586181640625,-0.371337890625,-0.3134002685546875
1782985777091714300,3.63771435546875,-1.0407562255859375,-0.3621826171875,-0.248077392578125
1782985777101788200,3.6477880859375,-1.250701904296875,-0.318328857421875,-0.055816650390625
1782985777111862300,3.6578623046875,-1.563873291015625,-0.2938232421875,0.1291656494140625
1782985777121936400,3.667936279296875,-1.7444305419921875,-0.274993896484375,0.1507415771484375
1782985777132009200,3.67800927734375,-1.75225830078125,-0.31768798828125,-0.003204345703125
1782985777142083300,3.688083251953125,-1.7654571533203125,-0.5098419189453125,-0.1678924560546875
1782985777152157200,3.6981572265625,-1.8896484375,-0.7081298828125,-0.2472076416015625
1782985777162231300,3.708231201171875,-2.08197021484375,-0.77178955078125,-0.206634521484375
1782985777172305400,3.718305419921875,-2.182281494140625,-0.79071044921875,-0.0997772216796875
1782985777182378200,3.728378173828125,-2.0855712890625,-0.913818359375,-0.0174560546875
1782985777192452000,3.7384521484375,-1.9186553955078125,-1.121337890625,0.068939208984375
1782985777202526000,3.74852587890625,-1.812896728515625,-1.24322509765625,0.0732879638671875
1782985777212600000,3.75860009765625,-1.8253631591796875,-1.1673431396484375,-0.07000732421875
1782985777222674000,3.768673828125,-1.8600616455078125,-0.9679718017578125,-0.2142791748046875
1782985777232747800,3.778747802734375,-1.875518798828125,-0.792388916015625,-0.2713623046875
1782985777242820900,3.78882080078125,-1.8512725830078125,-0.717376708984375,-0.2680511474609375
1782985777252895000,3.79889501953125,-1.789154052734375,-0.7004241943359375,-0.253936767578125
1782985777262968800,3.80896875,-1.695404052734375,-0.6581878662109375,-0.29241943359375
1782985777273043000,3.81904296875,-1.4833831787109375,-0.598876953125,-0.3633575439453125
1782985777283116800,3.82911669921875,-1.184295654296875,-0.5797882080078125,-0.41748046875
1782985777293191000,3.83919091796875,-0.930145263671875,-0.5523529052734375,-0.4037322998046875
1782985777303264000,3.849263916015625,-0.735565185546875,-0.4802398681640625,-0.2913360595703125
1782985777313337900,3.859337890625,-0.63507080078125,-0.3668365478515625,-0.05401611328125
1782985777323412000,3.869411865234375,-0.6655426025390625,-0.248260498046875,0.2298736572265625
1782985777333485800,3.87948583984375,-0.7335662841796875,-0.16748046875,0.4551849365234375
1782985777343560000,3.889559814453125,-0.7649078369140625,-0.1252593994140625,0.5385894775390625
1782985777353633000,3.899633056640625,-0.758514404296875,-0.13665771484375,0.5207977294921875
1782985777363707000,3.909706787109375,-0.7000274658203125,-0.210113525390625,0.442108154296875
1782985777373781000,3.919781005859375,-0.600921630859375,-0.289459228515625,0.3214874267578125
1782985777383854800,3.929854736328125,-0.4608917236328125,-0.343048095703125,0.1739654541015625
1782985777393928700,3.9399287109375,-0.3172454833984375,-0.384552001953125,0.0392303466796875
1782985777404002800,3.9500029296875,-0.19293212890625,-0.4432830810546875,-0.064483642578125
1782985777414076000,3.960075927734375,-0.0645751953125,-0.4782562255859375,-0.141326904296875
1782985777424150000,3.97014990234375,0.029144287109375,-0.4437255859375,-0.18096923828125
1782985777434222800,3.980222900390625,0.0446014404296875,-0.39013671875,-0.1679840087890625
1782985777444297000,3.990296875,0.0389251708984375,-0.393035888671875,-0.115753173828125
1782985777454371000,4.00037109375,0.024017333984375,-0.33734130859375,-0.018035888671875
1782985777464445000,4.01044482421875,-0.0080108642578125,-0.2750091552734375,0.098541259765625
1782985777474518800,4.020518798828125,-0.0536041259765625,-0.2558746337890625,0.1954498291015625
1782985777484591900,4.030591796875,-0.1189117431640625,-0.2671356201171875,0.26483154296875
1782985777494666000,4.040666015625,-0.2883758544921875,-0.285247802734375,0.321746826171875
1782985777504740000,4.050739990234375,-0.322357177734375,-0.2855377197265625,0.1819610595703125
1782985777514814000,4.06081396484375,-0.2940521240234375,-0.2081756591796875,0.0285491943359375
1782985777524887800,4.0708876953125,-0.2493896484375,-0.155548095703125,-0.09576416015625
1782985777534961000,4.0809609375,-0.238677978515625,-0.1471099853515625,-0.1575469970703125
1782985777545035000,4.091034912109375,-0.247344970703125,-0.1541595458984375,-0.1612701416015625
1782985777555108900,4.10110888671875,-0.2619476318359375,-0.15472412109375,-0.1159820556640625
1782985777565183000,4.111182861328125,-0.2733306884765625,-0.14324951171875,-0.0555419921875
1782985777575256800,4.1212568359375,-0.266448974609375,-0.1243743896484375,-0.000518798828125
1782985777585331000,4.1313310546875,-0.24237060546875,-0.1049041748046875,0.019683837890625
1782985777595404000,4.141404052734375,-0.204437255859375,-0.0950927734375,0.0172119140625
1782985777605478000,4.151477783203125,-0.161285400390625,-0.1103668212890625,0.0028076171875
1782985777615552000,4.161552001953125,-0.13177490234375,-0.174835205078125,-0.0161285400390625
1782985777625625900,4.1716259765625,-0.1309051513671875,-0.2694854736328125,-0.0108642578125
1782985777635700000,4.181699951171875,-0.19573974609375,-0.3481903076171875,0.0419464111328125
1782985777645773800,4.19177392578125,-0.36712646484375,-0.4306793212890625,0.11773681640625
1782985777655847000,4.201846923828125,-0.6536712646484375,-0.565093994140625,0.20953369140625
1782985777665921000,4.211921142578125,-1.076141357421875,-0.7441864013671875,0.3224029541015625
1782985777675995000,4.221994873046875,-1.6970672607421875,-0.922149658203125,0.41693115234375
1782985777686068700,4.23206884765625,-2.4977874755859375,-0.971771240234375,0.3541412353515625
1782985777696142800,4.242142822265625,-3.2953033447265625,-0.835968017578125,0.05169677734375
1782985777706216000,4.2522158203125,-3.5991058349609375,-0.608551025390625,-0.2845611572265625
1782985777716290000,4.2622900390625,-3.47265625,-0.5176239013671875,-0.317138671875
1782985777726364000,4.272364013671875,-3.1656646728515625,-0.6518402099609375,-0.0213623046875
1782985777736437800,4.282437744140625,-2.8397064208984375,-0.856903076171875,0.336700439453125
1782985777746512000,4.292511962890625,-2.4987335205078125,-1.048095703125,0.5780792236328125
1782985777756585700,4.302585693359375,-2.1742706298828125,-1.1945343017578125,0.6735382080078125
1782985777766658800,4.312658935546875,-1.9312744140625,-1.2821807861328125,0.6757659912109375
1782985777776733000,4.32273291015625,-1.825653076171875,-1.321868896484375,0.582275390625
1782985777786806800,4.332806884765625,-1.9271697998046875,-1.1918487548828125,0.4050750732421875
1782985777796881000,4.342880859375,-2.1588134765625,-0.8060150146484375,0.1231536865234375
1782985777806954800,4.352954833984375,-2.393402099609375,-0.3453521728515625,-0.2117919921875
1782985777817027800,4.36302783203125,-2.3450927734375,-0.0216064453125,-0.4358978271484375
1782985777827102000,4.37310205078125,-2.004913330078125,0.025543212890625,-0.47149658203125
1782985777837175800,4.38317578125,-1.661865234375,-0.1132354736328125,-0.404449462890625
1782985777847250000,4.39325,-1.3506011962890625,-0.2015838623046875,-0.3847503662109375
1782985777857323800,4.40332373046875,-1.069976806640625,-0.174530029296875,-0.4142303466796875
1782985777867398000,4.41339794921875,-0.8131561279296875,-0.084075927734375,-0.3908538818359375
1782985777877471000,4.423470947265625,-0.62750244140625,0.006805419921875,-0.2220916748046875
1782985777887544800,4.433544921875,-0.5349273681640625,0.016021728515625,0.019073486328125
1782985777897618700,4.44361865234375,-0.517822265625,-0.0232086181640625,0.203857421875
1782985777907692800,4.45369287109375,-0.5075225830078125,-0.030181884765625,0.263519287109375
1782985777917767000,4.463766845703125,-0.4621124267578125,-0.0097808837890625,0.240997314453125
1782985777927841000,4.473841064453125,-0.4139251708984375,-0.030487060546875,0.192718505859375
1782985777937913900,4.483913818359375,-0.3610992431640625,-0.117523193359375,0.1289825439453125
1782985777947987700,4.49398779296875,-0.2922515869140625,-0.20538330078125,0.0574951171875
1782985777958061800,4.504061767578125,-0.2522125244140625,-0.2346954345703125,-0.0033416748046875
1782985777968136000,4.514135986328125,-0.2219696044921875,-0.2293243408203125,-0.0546112060546875
1782985777978210000,4.5242099609375,-0.199127197265625,-0.2079620361328125,-0.0816192626953125
1782985777988283000,4.534282958984375,-0.1748046875,-0.164276123046875,-0.0673828125
1782985777998356700,4.544356689453125,-0.143310546875,-0.111541748046875,-0.007110595703125
1782985778008430800,4.554430908203125,-0.1094512939453125,-0.09381103515625,0.0558929443359375
1782985778018505000,4.5645048828125,-0.0865478515625,-0.115386962890625,0.09576416015625
1782985778028579000,4.5745791015625,-0.0809783935546875,-0.1327972412109375,0.1077117919921875
1782985778038653000,4.58465283203125,-0.08441162109375,-0.117767333984375,0.1125030517578125
1782985778048725800,4.594725830078125,-0.1052093505859375,-0.0893707275390625,0.1158905029296875
1782985778058799900,4.6047998046875,-0.1328277587890625,-0.0482635498046875,0.1347503662109375
1782985778068874000,4.6148740234375,-0.1290130615234375,-0.0252838134765625,0.1787567138671875
1782985778078947800,4.62494775390625,-0.117279052734375,-0.0254058837890625,0.2236175537109375
1782985778089022000,4.63502197265625,-0.102294921875,-0.0024871826171875,0.2204742431640625
1782985778099095800,4.645095703125,-0.10467529296875,0.0308380126953125,0.2154541015625
1782985778109168600,4.655168701171875,-0.0753173828125,0.01409912109375,0.23095703125
1782985778119243000,4.665242919921875,-0.0279388427734375,-0.027099609375,0.2064666748046875
1782985778129316900,4.67531689453125,-0.0111083984375,-0.0123443603515625,0.1879730224609375
1782985778139391000,4.685390869140625,0.0092926025390625,-0.0107574462890625,0.1519317626953125
1782985778149464800,4.69546484375,0.0352783203125,-0.0667724609375,0.08251953125
1782985778159538000,4.705537841796875,0.0518035888671875,-0.0890960693359375,-0.00042724609375
1782985778169612000,4.715612060546875,0.0716705322265625,-0.091583251953125,-0.074737548828125
1782985778179686000,4.725685791015625,0.10357666015625,-0.1045684814453125,-0.138092041015625
1782985778189760000,4.735760009765625,0.1412353515625,-0.1138153076171875,-0.18109130859375
1782985778199833900,4.745833740234375,0.166046142578125,-0.123931884765625,-0.217681884765625
1782985778209908000,4.755907958984375,0.1741485595703125,-0.1268463134765625,-0.269378662109375
1782985778219981000,4.76598095703125,0.1615753173828125,-0.1461334228515625,-0.314971923828125
1782985778230055200,4.77605517578125,0.10565185546875,-0.1879119873046875,-0.3473358154296875
1782985778240129000,4.78612890625,0.0125885009765625,-0.2233734130859375,-0.3494873046875
1782985778250203000,4.796202880859375,-0.112030029296875,-0.2523193359375,-0.3351287841796875
1782985778260277000,4.806277099609375,-0.3912353515625,-0.2841644287109375,-0.29058837890625
1782985778270350800,4.816350830078125,-0.85784912109375,-0.3457489013671875,-0.299652099609375
1782985778280424200,4.826424072265625,-1.1672515869140625,-0.319915771484375,-0.3641204833984375
1782985778290498000,4.836498046875,-1.5240325927734375,-0.2813568115234375,-0.3550262451171875
1782985778300572000,4.846572021484375,-2.0369110107421875,-0.2947845458984375,-0.200439453125
1782985778310646000,4.85664599609375,-2.5938568115234375,-0.329681396484375,0.0587615966796875
1782985778320720000,4.866719970703125,-2.8460235595703125,-0.4253997802734375,0.1976318359375
1782985778330793000,4.87679296875,-2.7924041748046875,-0.5738372802734375,0.0226593017578125
1782985778340867000,4.8868671875,-2.71624755859375,-0.79852294921875,-0.377716064453125
1782985778350941000,4.89694091796875,-2.858062744140625,-0.9456329345703125,-0.7826690673828125
1782985778361015000,4.90701513671875,-3.0712890625,-0.8778533935546875,-0.99700927734375
1782985778371089000,4.9170888671875,-3.0132293701171875,-0.7914886474609375,-0.9484405517578125
1782985778381163000,4.9271630859375,-2.761871337890625,-0.9459381103515625,-0.712127685546875
1782985778391236000,4.937236083984375,-2.4418182373046875,-1.1311798095703125,-0.530853271484375
1782985778401310000,4.94731005859375,-2.1266021728515625,-1.155364990234375,-0.5483856201171875
1782985778411384000,4.957384033203125,-1.985137939453125,-1.0387115478515625,-0.5869293212890625
1782985778421458000,4.9674580078125,-2.12310791015625,-0.8447723388671875,-0.4863128662109375
1782985778431532000,4.977531982421875,-2.3982391357421875,-0.572906494140625,-0.2969970703125
1782985778441606100,4.987606201171875,-2.596435546875,-0.3116302490234375,-0.106353759765625
1782985778451679000,4.997678955078125,-2.5084075927734375,-0.2518768310546875,0.0024566650390625
1782985778461752800,5.0077529296875,-2.2106781005859375,-0.271240234375,0.0377197265625
1782985778471827000,5.017826904296875,-1.84930419921875,-0.3240509033203125,-0.0536956787109375
1782985778481901000,5.027901123046875,-1.5076904296875,-0.4008331298828125,-0.297515869140625
1782985778491975200,5.03797509765625,-1.281036376953125,-0.405120849609375,-0.550567626953125
1782985778502048000,5.048048095703125,-1.17205810546875,-0.37591552734375,-0.7032012939453125
1782985778512121900,5.058121826171875,-1.0734100341796875,-0.3309326171875,-0.7224273681640625
1782985778522196000,5.068196044921875,-0.9541015625,-0.2793426513671875,-0.5771026611328125
1782985778532270000,5.07827001953125,-0.8100433349609375,-0.2614288330078125,-0.3235931396484375
1782985778542344200,5.08834423828125,-0.6748199462890625,-0.245880126953125,-0.0635833740234375
1782985778552418000,5.09841796875,-0.552093505859375,-0.2172698974609375,0.1250457763671875
1782985778562491000,5.108490966796875,-0.4251861572265625,-0.1835784912109375,0.2166290283203125
1782985778572565000,5.11856494140625,-0.3258056640625,-0.16461181640625,0.2452850341796875
1782985778582639000,5.12863916015625,-0.2548065185546875,-0.1856689453125,0.229095458984375
1782985778592713200,5.138713134765625,-0.197235107421875,-0.2044677734375,0.183258056640625
1782985778602787000,5.148787109375,-0.159881591796875,-0.219573974609375,0.1165313720703125
1782985778612861000,5.15886083984375,-0.1378936767578125,-0.22540283203125,0.0318603515625
1782985778622934000,5.16893408203125,-0.109283447265625,-0.17462158203125,-0.0230560302734375
1782985778633008000,5.179008056640625,-0.1003265380859375,-0.096099853515625,-0.025726318359375
1782985778643082000,5.18908203125,-0.1272430419921875,-0.039581298828125,0.015655517578125
1782985778653156000,5.199156005859375,-0.1643524169921875,-0.0149078369140625,0.0797882080078125
1782985778663230000,5.20922998046875,-0.2056427001953125,-0.01690673828125,0.141448974609375
1782985778673304000,5.219303955078125,-0.2641448974609375,-0.008880615234375,0.2003631591796875
1782985778683377200,5.229377197265625,-0.316619873046875,-0.00054931640625,0.23089599609375
1782985778693451000,5.239450927734375,-0.3451995849609375,-0.0328216552734375,0.197113037109375
1782985778703525000,5.249525146484375,-0.359619140625,-0.080108642578125,0.1086578369140625
1782985778713599000,5.259598876953125,-0.416717529296875,-0.089447021484375,0.0076904296875
1782985778723673000,5.269673095703125,-0.5266265869140625,-0.0600128173828125,-0.0918731689453125
1782985778733746200,5.27974609375,-0.5690460205078125,0.0002899169921875,-0.1496734619140625
1782985778743820000,5.289820068359375,-0.5008544921875,0.0597686767578125,-0.158966064453125
1782985778753894100,5.29989404296875,-0.3963470458984375,0.0765380859375,-0.1033172607421875
1782985778763968000,5.309968017578125,-0.2899017333984375,0.044830322265625,0.013671875
1782985778774041900,5.320041748046875,-0.172607421875,0.022857666015625,0.144805908203125
1782985778784116000,5.330115966796875,-0.0894775390625,0.0102996826171875,0.248321533203125
1782985778794189000,5.34018896484375,-0.0497283935546875,-0.008697509765625,0.2950897216796875
1782985778804263200,5.35026318359375,-0.04864501953125,-0.0173797607421875,0.3008880615234375
1782985778814337000,5.3603369140625,-0.0623931884765625,-0.0341949462890625,0.2692718505859375
1782985778824411000,5.370410888671875,-0.087188720703125,-0.0590057373046875,0.2314910888671875
1782985778834485000,5.380485107421875,-0.1434783935546875,-0.0885772705078125,0.2002105712890625
1782985778844558800,5.390558837890625,-0.2489471435546875,-0.121337890625,0.14385986328125
1782985778854632000,5.4006318359375,-0.37945556640625,-0.1492767333984375,0.0906829833984375
1782985778864706000,5.4107060546875,-0.4697113037109375,-0.1541900634765625,0.0457916259765625
1782985778874780000,5.42077978515625,-0.551422119140625,-0.1743927001953125,0.03289794921875
1782985778884854000,5.43085400390625,-0.6849365234375,-0.224853515625,0.0798797607421875
1782985778894928000,5.440927978515625,-0.8885955810546875,-0.3126373291015625,0.2052001953125
1782985778905002200,5.451002197265625,-1.1439666748046875,-0.4161224365234375,0.38702392578125
1782985778915075000,5.461074951171875,-1.389251708984375,-0.4615631103515625,0.5777130126953125
1782985778925149000,5.47114892578125,-1.6253509521484375,-0.485992431640625,0.724029541015625
1782985778935223000,5.48122314453125,-1.890106201171875,-0.60321044921875,0.7847442626953125
1782985778945297000,5.491296875,-2.0855712890625,-0.77215576171875,0.687347412109375
1782985778955371000,5.50137109375,-2.374420166015625,-0.8983001708984375,0.4489593505859375
1782985778965444000,5.511444091796875,-2.8352813720703125,-0.9148712158203125,0.2011871337890625
1782985778975518000,5.52151806640625,-3.1110992431640625,-0.8505401611328125,0.031951904296875
1782985778985592000,5.531592041015625,-3.03717041015625,-0.828948974609375,-0.096221923828125
1782985778995666000,5.541666015625,-2.843414306640625,-0.9501190185546875,-0.1388702392578125
1782985779005740000,5.551739990234375,-2.7368621826171875,-1.0720672607421875,-0.0977020263671875
1782985779015814100,5.561814208984375,-2.7342071533203125,-0.98028564453125,-0.103790283203125
1782985779025887000,5.571886962890625,-2.7179718017578125,-0.731109619140625,-0.118255615234375
1782985779035960800,5.5819609375,-2.639251708984375,-0.550933837890625,-0.065155029296875
1782985779046035000,5.592034912109375,-2.420654296875,-0.49261474609375,-0.0110626220703125
1782985779056109000,5.602109130859375,-2.0605316162109375,-0.4676666259765625,-0.0118408203125
1782985779066183200,5.61218310546875,-1.6828460693359375,-0.4384307861328125,-0.037139892578125
1782985779076257000,5.622257080078125,-1.3674163818359375,-0.4141845703125,-0.0657196044921875
1782985779086329900,5.632329833984375,-1.115814208984375,-0.380096435546875,-0.0959930419921875
1782985779096404000,5.642404052734375,-0.92083740234375,-0.346954345703125,-0.114227294921875
1782985779106478000,5.65247802734375,-0.7640228271484375,-0.3314666748046875,-0.1187591552734375
1782985779116552200,5.66255224609375,-0.63922119140625,-0.3186492919921875,-0.1031494140625
1782985779126626000,5.6726259765625,-0.5465545654296875,-0.3058929443359375,-0.0764923095703125
1782985779136700000,5.682699951171875,-0.460723876953125,-0.279998779296875,-0.0391845703125
1782985779146773000,5.69277294921875,-0.3785400390625,-0.254791259765625,-0.0142669677734375
1782985779156847000,5.70284716796875,-0.307159423828125,-0.2349700927734375,0.019287109375
1782985779166921000,5.7129208984375,-0.233123779296875,-0.229156494140625,0.033050537109375
1782985779176995000,5.7229951171875,-0.1474761962890625,-0.24285888671875,0.015350341796875
1782985779187069000,5.73306884765625,-0.091156005859375,-0.2456207275390625,-0.0008392333984375
1782985779197143000,5.74314306640625,-0.083740234375,-0.218841552734375,-0.0038604736328125
1782985779207216400,5.75321630859375,-0.115814208984375,-0.1882171630859375,0.005584716796875
1782985779217290500,5.76329052734375,-0.159820556640625,-0.177001953125,0.021820068359375
1782985779227364400,5.7733642578125,-0.1994476318359375,-0.1634521484375,0.043365478515625
1782985779237438200,5.783438232421875,-0.23095703125,-0.135284423828125,0.064971923828125
1782985779247512300,5.79351220703125,-0.2551116943359375,-0.0991363525390625,0.08233642578125
1782985779257586200,5.803586181640625,-0.2738189697265625,-0.0714569091796875,0.080535888671875
1782985779267659300,5.8136591796875,-0.2928619384765625,-0.0678558349609375,0.05810546875
1782985779277733400,5.8237333984375,-0.316680908203125,-0.0791778564453125,0.0253753662109375
1782985779287807200,5.83380712890625,-0.344085693359375,-0.0943450927734375,-0.0141448974609375
1782985779297881300,5.84388134765625,-0.3407745361328125,-0.0961456298828125,-0.056121826171875
1782985779307955200,5.853955078125,-0.319305419921875,-0.068878173828125,-0.082427978515625
1782985779318028300,5.8640283203125,-0.29852294921875,-0.0335235595703125,-0.0978240966796875
1782985779328102400,5.874102294921875,-0.2835845947265625,-0.0104827880859375,-0.1066741943359375
1782985779338176300,5.88417626953125,-0.2726593017578125,0,-0.107025146484375
1782985779348250400,5.89425048828125,-0.251220703125,0.01507568359375,-0.0919647216796875
1782985779358324200,5.90432421875,-0.2262725830078125,0.0380706787109375,-0.070648193359375
1782985779368398000,5.914398193359375,-0.189453125,0.045562744140625,-0.0602264404296875
1782985779378471400,5.924471435546875,-0.1431884765625,0.018402099609375,-0.078094482421875
1782985779388545300,5.934545166015625,-0.0917205810546875,-0.00653076171875,-0.0942230224609375
1782985779398619400,5.944619384765625,-0.0501708984375,-0.0269622802734375,-0.1071929931640625
1782985779408693200,5.954693359375,-0.035614013671875,-0.0455169677734375,-0.1266937255859375
1782985779418767000,5.96476708984375,-0.0288238525390625,-0.04443359375,-0.13580322265625
1782985779428841500,5.974841552734375,-0.0438995361328125,-0.0265655517578125,-0.1258544921875
1782985779438914300,5.984914306640625,-0.079437255859375,-0.0361480712890625,-0.154022216796875
1782985779448988200,5.99498828125,-0.18560791015625,-0.075286865234375,-0.1848907470703125
1782985779459062300,6.005062255859375,-0.37518310546875,-0.148345947265625,-0.1725921630859375
1782985779469136100,6.01513623046875,-0.558837890625,-0.2670135498046875,-0.1196136474609375
1782985779479210500,6.02521044921875,-0.6755828857421875,-0.387786865234375,-0.0606689453125
1782985779489284400,6.035284423828125,-0.79583740234375,-0.5130767822265625,0.0152435302734375
1782985779499357200,6.045357177734375,-0.9150390625,-0.6826629638671875,0.0847015380859375
1782985779509431300,6.055431396484375,-1.0850830078125,-0.8979339599609375,0.0517730712890625
1782985779519505200,6.065505126953125,-1.2665252685546875,-1.096405029296875,-0.187225341796875
1782985779529579500,6.07557958984375,-1.4235076904296875,-1.210845947265625,-0.5311737060546875
1782985779539653400,6.0856533203125,-1.721405029296875,-1.19097900390625,-0.735198974609375
1782985779549727200,6.095727294921875,-2.09918212890625,-1.058319091796875,-0.67413330078125
1782985779559800300,6.10580029296875,-2.4070892333984375,-0.91204833984375,-0.421142578125
1782985779569874200,6.115874267578125,-2.370452880859375,-0.7928924560546875,-0.1210479736328125
1782985779579948300,6.1259482421875,-1.9776763916015625,-0.7094573974609375,0.0626983642578125
1782985779590022400,6.1360224609375,-1.554931640625,-0.69549560546875,0.1674652099609375
1782985779600096300,6.14609619140625,-1.51336669921875,-0.690643310546875,0.2178497314453125
1782985779610170400,6.15617041015625,-1.8593902587890625,-0.5150299072265625,0.1125640869140625
1782985779620243200,6.1662431640625,-2.2464447021484375,-0.2364959716796875,-0.113800048828125
1782985779630317300,6.1763173828125,-2.5444488525390625,-0.07861328125,-0.2552337646484375
1782985779640391400,6.186391357421875,-2.6931304931640625,-0.1104583740234375,-0.3035125732421875
1782985779650465300,6.19646533203125,-2.6093597412109375,-0.2243499755859375,-0.353973388671875
1782985779660539400,6.206539306640625,-2.3083953857421875,-0.3349609375,-0.5008697509765625
1782985779670613200,6.21661328125,-1.94940185546875,-0.384613037109375,-0.656005859375
1782985779680686300,6.226686279296875,-1.6267547607421875,-0.3781280517578125,-0.7099609375
1782985779690760400,6.236760498046875,-1.373016357421875,-0.3231964111328125,-0.6396636962890625
1782985779700834300,6.246834228515625,-1.21759033203125,-0.223236083984375,-0.444183349609375
1782985779710908400,6.256908447265625,-1.138946533203125,-0.1519775390625,-0.1625518798828125
1782985779720982300,6.266982177734375,-1.101104736328125,-0.09967041015625,0.1224822998046875
1782985779731055400,6.277055419921875,-1.038421630859375,-0.0351715087890625,0.3383026123046875
1782985779741129500,6.28712939453125,-0.9500579833984375,0.01617431640625,0.4542083740234375
1782985779751203300,6.297203369140625,-0.8485565185546875,0.01837158203125,0.4664764404296875
1782985779761277200,6.307277099609375,-0.73516845703125,-0.0025787353515625,0.4032135009765625
1782985779771351300,6.317351318359375,-0.618499755859375,-0.0238037109375,0.2826080322265625
1782985779781425200,6.327425048828125,-0.53497314453125,-0.048614501953125,0.153106689453125
1782985779791498200,6.337498291015625,-0.4840087890625,-0.0756683349609375,0.055145263671875
1782985779801572400,6.347572265625,-0.457611083984375,-0.0897979736328125,0.00933837890625
1782985779811646200,6.357646240234375,-0.4502105712890625,-0.098358154296875,-0.004547119140625
1782985779821720300,6.36772021484375,-0.4710693359375,-0.0839385986328125,0.0045318603515625
1782985779831794200,6.377794189453125,-0.5070953369140625,-0.05712890625,0.0184783935546875
1782985779841868300,6.387868408203125,-0.538848876953125,-0.0233917236328125,0.028778076171875
1782985779851941400,6.39794140625,-0.5557708740234375,0.004638671875,0.0446624755859375
1782985779862015200,6.40801513671875,-0.5707855224609375,0.0158843994140625,0.0632171630859375
1782985779872089300,6.41808935546875,-0.5540008544921875,0.02081298828125,0.0780487060546875
1782985779882163200,6.4281630859375,-0.5010528564453125,0.00439453125,0.0689239501953125
1782985779892237300,6.4382373046875,-0.4543914794921875,-0.0043792724609375,0.05389404296875
1782985779902311400,6.4483115234375,-0.434112548828125,0.0052642822265625,0.034576416015625
1782985779912384300,6.45838427734375,-0.4286346435546875,0.012176513671875,0.0101470947265625
1782985779922458400,6.468458251953125,-0.4039306640625,0.0159454345703125,-0.027099609375
1782985779932532200,6.4785322265625,-0.38482666015625,0.021331787109375,-0.049652099609375
1782985779942606300,6.4886064453125,-0.3780670166015625,0.0203857421875,-0.038604736328125
1782985779952680400,6.498680419921875,-0.38671875,0.0130767822265625,-0.0117340087890625
1782985779962754300,6.50875439453125,-0.42138671875,-0.0029144287109375,0.02496337890625
1782985779972827100,6.5188271484375,-0.47967529296875,-0.01898193359375,0.0367584228515625
1782985779982901200,6.5289013671875,-0.542266845703125,-0.00115966796875,0.0021514892578125
1782985779992975400,6.538975341796875,-0.52728271484375,0.01971435546875,-0.0661773681640625
1782985780003049500,6.549049560546875,-0.46661376953125,-0.0017547607421875,-0.12255859375
1782985780013123300,6.559123291015625,-0.420135498046875,-0.041778564453125,-0.11480712890625
1782985780023197400,6.569197509765625,-0.45916748046875,-0.0621185302734375,-0.0442047119140625
1782985780033270300,6.579270263671875,-0.595123291015625,-0.0565948486328125,0.058990478515625
1782985780043344400,6.589344482421875,-0.807525634765625,-0.0586090087890625,0.173309326171875
1782985780053418500,6.59941845703125,-0.928253173828125,-0.12158203125,0.2738494873046875
1782985780063492400,6.609492431640625,-0.8977508544921875,-0.317352294921875,0.3276824951171875
1782985780073566200,6.619566162109375,-0.7984619140625,-0.60382080078125,0.3322906494140625
1782985780083639300,6.629639404296875,-0.73529052734375,-0.879913330078125,0.32568359375
1782985780093713400,6.63971337890625,-0.8530120849609375,-1.07550048828125,0.33856201171875
1782985780103787300,6.649787353515625,-1.191741943359375,-1.115264892578125,0.3267974853515625
1782985780113861400,6.659861328125,-1.55352783203125,-1.0304412841796875,0.23199462890625
1782985780123935200,6.669935302734375,-1.7313232421875,-0.9323272705078125,0.169342041015625
1782985780134009300,6.68000927734375,-1.735626220703125,-0.94927978515625,0.2551116943359375
1782985780144083200,6.690083251953125,-1.662872314453125,-1.072357177734375,0.4180145263671875
1782985780154156300,6.70015625,-1.4783172607421875,-1.2189178466796875,0.43597412109375
1782985780164230400,6.71023046875,-1.2079010009765625,-1.3863983154296875,0.3143463134765625
1782985780174304300,6.72030419921875,-0.9990386962890625,-1.5895233154296875,0.1756439208984375
1782985780184378400,6.73037841796875,-0.9309539794921875,-1.733245849609375,0.035552978515625
1782985780194452200,6.7404521484375,-1.009124755859375,-1.66180419921875,-0.1320648193359375
1782985780204525300,6.750525390625,-1.1821746826171875,-1.39300537109375,-0.260986328125
1782985780214598400,6.760598388671875,-1.34808349609375,-1.058135986328125,-0.3448638916015625
1782985780224672300,6.77067236328125,-1.5113525390625,-0.7834014892578125,-0.379974365234375
1782985780234746000,6.78074609375,-1.5909881591796875,-0.600250244140625,-0.37921142578125
1782985780244820500,6.790820556640625,-1.6916351318359375,-0.486480712890625,-0.3332061767578125
1782985780254894300,6.800894287109375,-1.9229278564453125,-0.39739990234375,-0.2659454345703125
1782985780264968400,6.810968505859375,-2.0932159423828125,-0.3082122802734375,-0.215423583984375
1782985780275041300,6.821041259765625,-2.083526611328125,-0.28570556640625,-0.1951904296875
1782985780285115100,6.831115234375,-1.8838653564453125,-0.35504150390625,-0.17572021484375
1782985780295189500,6.841189453125,-1.5770263671875,-0.463958740234375,-0.1739501953125
1782985780305263400,6.851263427734375,-1.2238616943359375,-0.543304443359375,-0.2137298583984375
1782985780315337500,6.86133740234375,-0.8793487548828125,-0.560302734375,-0.271759033203125
1782985780325410300,6.871410400390625,-0.5706787109375,-0.54730224609375,-0.3114166259765625
1782985780335484200,6.881484130859375,-0.3568267822265625,-0.5252685546875,-0.2904510498046875
1782985780345558500,6.89155859375,-0.26007080078125,-0.4744873046875,-0.2086944580078125
1782985780355632400,6.90163232421875,-0.239349365234375,-0.39056396484375,-0.1002349853515625
1782985780365706200,6.911706298828125,-0.23858642578125,-0.2978668212890625,-0.00543212890625
1782985780375780400,6.9217802734375,-0.2386932373046875,-0.2135772705078125,0.05145263671875
1782985780385853200,6.931853271484375,-0.2304840087890625,-0.1527252197265625,0.0766143798828125
1782985780395927300,6.94192724609375,-0.212158203125,-0.1259002685546875,0.078826904296875
1782985780406001400,6.95200146484375,-0.1918487548828125,-0.1182403564453125,0.0732879638671875
1782985780416075300,6.9620751953125,-0.158294677734375,-0.114471435546875,0.07275390625
1782985780426149400,6.9721494140625,-0.12762451171875,-0.1324005126953125,0.0651397705078125
1782985780436223200,6.98222314453125,-0.096405029296875,-0.1646881103515625,0.040191650390625
1782985780446297300,6.99229736328125,-0.0693206787109375,-0.17767333984375,0.018890380859375
1782985780456370400,7.002370361328125,-0.0657196044921875,-0.1681671142578125,0.014739990234375
1782985780466444300,7.0124443359375,-0.07208251953125,-0.15478515625,0.02490234375
1782985780476518400,7.022518310546875,-0.080291748046875,-0.1478118896484375,0.0360565185546875
1782985780486592300,7.03259228515625,-0.091400146484375,-0.14617919921875,0.0260009765625
1782985780496666000,7.042666015625,-0.0982208251953125,-0.1382904052734375,0.000091552734375
1782985780506739500,7.052739501953125,-0.1051025390625,-0.1295166015625,-0.030792236328125
1782985780516813300,7.062813232421875,-0.1353607177734375,-0.1341705322265625,-0.078582763671875
1782985780526887400,7.072887451171875,-0.1444549560546875,-0.1451568603515625,-0.1616668701171875
1782985780536961300,7.082961181640625,-0.1155548095703125,-0.1585235595703125,-0.2156829833984375
1782985780547035100,7.09303515625,-0.1626129150390625,-0.178314208984375,-0.3199920654296875
1782985780557109200,7.103109130859375,-0.24664306640625,-0.157989501953125,-0.433929443359375
1782985780567182300,7.113182373046875,-0.2374420166015625,-0.1017913818359375,-0.4237823486328125
1782985780577256200,7.123256103515625,-0.2050628662109375,-0.069580078125,-0.3383636474609375
1782985780587330300,7.133330322265625,-0.1789398193359375,-0.0773468017578125,-0.2160186767578125
1782985780597404200,7.143404052734375,-0.14678955078125,-0.168853759765625,-0.1136016845703125
1782985780607478300,7.153478271484375,-0.127349853515625,-0.3486328125,-0.067840576171875
1782985780617552400,7.163552490234375,-0.1602325439453125,-0.591552734375,-0.0765380859375
1782985780627625200,7.173625244140625,-0.3726959228515625,-0.84344482421875,-0.0491485595703125
1782985780637699300,7.18369921875,-0.6233062744140625,-0.99688720703125,0.044158935546875
1782985780647773200,7.193773193359375,-0.83038330078125,-1.0083465576171875,0.074249267578125
1782985780657847300,7.203847412109375,-1.0056610107421875,-0.9709930419921875,0.0450286865234375
1782985780667921400,7.21392138671875,-1.0942840576171875,-1.0040435791015625,-0.018707275390625
1782985780677995300,7.223995361328125,-1.17950439453125,-1.114715576171875,-0.080810546875
1782985780688069400,7.2340693359375,-1.355712890625,-1.2688446044921875,-0.0919647216796875
1782985780698142200,7.24414208984375,-1.577789306640625,-1.4629058837890625,-0.0526123046875
1782985780708216000,7.254216064453125,-1.633880615234375,-1.57855224609375,-0.0915985107421875
1782985780718290400,7.26429052734375,-1.5260772705078125,-1.5611724853515625,-0.283447265625
1782985780728364300,7.2743642578125,-1.421966552734375,-1.5173187255859375,-0.4632568359375
1782985780738438400,7.2844384765625,-1.441253662109375,-1.5076751708984375,-0.45977783203125
1782985780748511200,7.29451123046875,-1.5458831787109375,-1.487335205078125,-0.38653564453125
1782985780758585000,7.304585205078125,-1.6118621826171875,-1.3765869140625,-0.3961029052734375
1782985780768659500,7.314659423828125,-1.5669403076171875,-1.215179443359375,-0.449859619140625
1782985780778733300,7.3247333984375,-1.38873291015625,-1.0550689697265625,-0.5160675048828125
1782985780788807400,7.334807373046875,-1.105010986328125,-0.8744964599609375,-0.629180908203125
1782985780798881300,7.34488134765625,-0.8227996826171875,-0.7456207275390625,-0.8097076416015625
1782985780808955100,7.354955078125,-0.852508544921875,-0.70489501953125,-0.8771514892578125
1782985780819028500,7.365028564453125,-1.12054443359375,-0.7221832275390625,-0.8115692138671875
1782985780829102300,7.375102294921875,-1.4669342041015625,-0.7166900634765625,-0.6666717529296875
1782985780839176400,7.385176513671875,-1.777801513671875,-0.6256561279296875,-0.4958953857421875
1782985780849250300,7.395250244140625,-1.9256134033203125,-0.4515838623046875,-0.3118896484375
1782985780859324200,7.40532421875,-1.9053192138671875,-0.2941436767578125,-0.115631103515625
1782985780869398300,7.415398193359375,-1.77740478515625,-0.23626708984375,0.08148193359375
1782985780879471400,7.425471435546875,-1.5573272705078125,-0.294036865234375,0.234710693359375
1782985780889545200,7.435545166015625,-1.2286834716796875,-0.3885955810546875,0.2844085693359375
1782985780899619300,7.445619384765625,-0.861053466796875,-0.45355224609375,0.214935302734375
1782985780909693200,7.455693115234375,-0.5387725830078125,-0.50177001953125,0.0849761962890625
1782985780919767300,7.465767333984375,-0.334503173828125,-0.5618438720703125,-0.01544189453125
1782985780929841200,7.475841064453125,-0.247802734375,-0.60791015625,-0.0497589111328125
1782985780939914200,7.485914306640625,-0.2271270751953125,-0.5644989013671875,-0.0458526611328125
1782985780949988400,7.49598828125,-0.2735443115234375,-0.4696044921875,-0.00189208984375
1782985780960062200,7.506062255859375,-0.3470916748046875,-0.3818359375,0.0388641357421875
1782985780970136300,7.51613623046875,-0.3907928466796875,-0.309844970703125,0.0316619873046875
1782985780980210400,7.52621044921875,-0.4102630615234375,-0.2519683837890625,0.0190582275390625
1782985780990284300,7.5362841796875,-0.39422607421875,-0.2246246337890625,-0.0026092529296875
1782985781000357400,7.546357421875,-0.36126708984375,-0.2132415771484375,-0.0131072998046875
1782985781010431200,7.55643115234375,-0.3251190185546875,-0.2069091796875,-0.017242431640625
1782985781020505000,7.566505126953125,-0.2889404296875,-0.1674957275390625,0.018341064453125
1782985781030579500,7.576579345703125,-0.2743072509765625,-0.1597747802734375,0.0546722412109375
1782985781040653300,7.5866533203125,-0.231536865234375,-0.147064208984375,0.0381622314453125
1782985781050727400,7.5967275390625,-0.21124267578125,-0.1077728271484375,0.0112457275390625
1782985781060800300,7.60680029296875,-0.2103729248046875,-0.119110107421875,-0.0203857421875
1782985781070874000,7.6168740234375,-0.2299957275390625,-0.1211090087890625,-0.0561676025390625
1782985781080948500,7.626948486328125,-0.2529449462890625,-0.1280670166015625,-0.0949554443359375
1782985781091022300,7.637022216796875,-0.2748260498046875,-0.148193359375,-0.121856689453125
1782985781101096400,7.647096435546875,-0.285491943359375,-0.1553955078125,-0.1241302490234375
1782985781111170300,7.65717041015625,-0.2905120849609375,-0.1405487060546875,-0.084442138671875
1782985781121243100,7.6672431640625,-0.3001556396484375,-0.1311798095703125,-0.0172576904296875
1782985781131317500,7.6773173828125,-0.322967529296875,-0.129791259765625,0.04010009765625
1782985781141391400,7.687391357421875,-0.36102294921875,-0.1374359130859375,0.071624755859375
1782985781151465500,7.697465576171875,-0.3956756591796875,-0.157928466796875,0.0809783935546875
1782985781161539300,7.707539306640625,-0.4114227294921875,-0.202362060546875,0.091552734375
1782985781171613200,7.71761328125,-0.4395904541015625,-0.30078125,0.1315460205078125
1782985781181686500,7.7276865234375,-0.5406494140625,-0.47900390625,0.198486328125
1782985781191760400,7.737760498046875,-0.7745819091796875,-0.723876953125,0.2500457763671875
1782985781201835000,7.7478349609375,-1.0477294921875,-0.93829345703125,0.2244873046875
1782985781211909000,7.7579091796875,-1.2059478759765625,-1.0088653564453125,0.1310882568359375
1782985781221983000,7.76798291015625,-1.3562164306640625,-0.992767333984375,0.0352783203125
1782985781232057000,7.77805712890625,-1.5164031982421875,-0.9951629638671875,-0.0020599365234375
1782985781242130000,7.7881298828125,-1.738250732421875,-1.0615997314453125,0.0684356689453125
1782985781252204000,7.7982041015625,-1.9847412109375,-1.163055419921875,0.16802978515625
1782985781262278100,7.808278076171875,-2.0961151123046875,-1.1917572021484375,0.244873046875
1782985781272352000,7.81835205078125,-2.0196685791015625,-1.2268524169921875,0.184356689453125
1782985781282426000,7.828426025390625,-1.818878173828125,-1.323638916015625,-0.0205841064453125
1782985781292500000,7.8385,-1.667266845703125,-1.55145263671875,-0.2064666748046875
1782985781302573000,7.848572998046875,-1.5903167724609375,-1.7714080810546875,-0.3072662353515625
1782985781312647200,7.858647216796875,-1.489501953125,-1.77398681640625,-0.3748779296875
1782985781322721000,7.868720947265625,-1.3171844482421875,-1.60223388671875,-0.4372406005859375
1782985781332795000,7.878794921875,-1.0836029052734375,-1.3807373046875,-0.4708709716796875
1782985781342869000,7.888868896484375,-0.81256103515625,-1.2144012451171875,-0.527923583984375
1782985781352942800,7.89894287109375,-0.6223907470703125,-1.1030426025390625,-0.619720458984375
1782985781363016200,7.90901611328125,-0.6877899169921875,-1.006622314453125,-0.6598663330078125
1782985781373090000,7.919090087890625,-0.930084228515625,-0.8320770263671875,-0.594512939453125
1782985781383164000,7.929163818359375,-1.2756805419921875,-0.6194000244140625,-0.4663848876953125
1782985781393238000,7.939238037109375,-1.607452392578125,-0.4432830810546875,-0.3293914794921875
1782985781403311900,7.949311767578125,-1.7466583251953125,-0.294158935546875,-0.2126007080078125
1782985781413386000,7.959385986328125,-1.6779327392578125,-0.2020416259765625,-0.15478515625
1782985781423459000,7.969458984375,-1.5511932373046875,-0.2236328125,-0.11639404296875
1782985781433533000,7.979532958984375,-1.357757568359375,-0.306365966796875,-0.098175048828125
1782985781443607000,7.98960693359375,-1.1135101318359375,-0.3614044189453125,-0.1412200927734375
1782985781453681000,7.999680908203125,-0.8816375732421875,-0.394256591796875,-0.2121124267578125
1782985781463755000,8.009755126953126,-0.660064697265625,-0.4412689208984375,-0.2791290283203125
1782985781473829000,8.0198291015625,-0.455657958984375,-0.4762420654296875,-0.3005523681640625
1782985781483903000,8.029903076171875,-0.300201416015625,-0.4937286376953125,-0.2802734375
1782985781493976000,8.03997607421875,-0.205047607421875,-0.487945556640625,-0.2517547607421875
1782985781504050000,8.0500498046875,-0.1509246826171875,-0.4608001708984375,-0.2029876708984375
1782985781514124000,8.0601240234375,-0.1250152587890625,-0.3975982666015625,-0.1597137451171875
1782985781524198100,8.0701982421875,-0.111480712890625,-0.325775146484375,-0.1280364990234375
1782985781534272000,8.08027197265625,-0.12384033203125,-0.2694244384765625,-0.0714569091796875
1782985781544346000,8.09034619140625,-0.1517333984375,-0.22021484375,0.0003204345703125
1782985781554419000,8.1004189453125,-0.174285888671875,-0.180023193359375,0.043731689453125
1782985781564493000,8.1104931640625,-0.191436767578125,-0.14971923828125,0.050018310546875
1782985781574567200,8.120567138671875,-0.2040557861328125,-0.1319122314453125,0.03497314453125
1782985781584641000,8.13064111328125,-0.210418701171875,-0.1218109130859375,0.0115966796875
1782985781594715100,8.140715087890625,-0.21478271484375,-0.110748291015625,-0.0020294189453125
1782985781604789000,8.1507890625,-0.23388671875,-0.0975799560546875,-0.0135955810546875
1782985781614862000,8.160862060546876,-0.28692626953125,-0.088226318359375,-0.0374908447265625
1782985781624936200,8.170936279296875,-0.337371826171875,-0.06536865234375,-0.068511962890625
1782985781635010000,8.181010009765625,-0.361785888671875,-0.0290069580078125,-0.0880126953125
1782985781645084000,8.191083984375,-0.33087158203125,-0.0131378173828125,-0.0971527099609375
1782985781655158000,8.201157958984375,-0.2652587890625,-0.0145111083984375,-0.080322265625
1782985781665232000,8.21123193359375,-0.17535400390625,-0.0397491455078125,-0.05511474609375
1782985781675305200,8.22130517578125,-0.0858306884765625,-0.0853118896484375,-0.0444793701171875
1782985781685379000,8.231379150390625,-0.039276123046875,-0.1329803466796875,-0.0614013671875
1782985781695453000,8.241452880859375,-0.0444183349609375,-0.1436309814453125,-0.0723876953125
1782985781705527000,8.251527099609374,-0.064727783203125,-0.1311492919921875,-0.060089111328125
1782985781715601000,8.261600830078125,-0.0720977783203125,-0.1202239990234375,-0.0448455810546875
1782985781725675000,8.271675048828126,-0.058013916015625,-0.1253662109375,-0.0522308349609375
1782985781735748000,8.281748046875,-0.031951904296875,-0.1372222900390625,-0.0400390625
1782985781745822000,8.291822021484375,-0.02392578125,-0.1717071533203125,-0.007232666015625
1782985781755896000,8.30189599609375,-0.066497802734375,-0.254119873046875,0.0119781494140625
1782985781765970000,8.311969970703124,-0.200775146484375,-0.344573974609375,0.059844970703125
1782985781776043800,8.322043701171875,-0.384063720703125,-0.4294891357421875,0.1886138916015625
1782985781786118100,8.3321181640625,-0.582427978515625,-0.5289306640625,0.3158416748046875
1782985781796192000,8.34219189453125,-0.7103729248046875,-0.6189727783203125,0.329864501953125
1782985781806266000,8.35226611328125,-0.766632080078125,-0.7030792236328125,0.27978515625
1782985781816340000,8.362340087890624,-0.8123931884765625,-0.8170623779296875,0.1555328369140625
1782985781826414000,8.3724140625,-0.970672607421875,-0.94903564453125,-0.03167724609375
1782985781836487200,8.382487060546875,-1.22509765625,-1.08551025390625,-0.15234375
1782985781846561000,8.39256103515625,-1.3721923828125,-1.191314697265625,-0.248504638671875
1782985781856635100,8.40263525390625,-1.4164276123046875,-1.230682373046875,-0.3013763427734375
1782985781866709000,8.412708984375,-1.491973876953125,-1.3551483154296875,-0.15435791015625
1782985781876782800,8.422782958984374,-1.6012725830078125,-1.4655609130859375,0.016357421875
1782985781886857000,8.43285693359375,-1.5669403076171875,-1.362335205078125,0.0086669921875
1782985781896930000,8.442929931640625,-1.4491424560546875,-1.2698516845703125,-0.063873291015625
1782985781907004200,8.453004150390624,-1.378814697265625,-1.311553955078125,-0.142822265625
1782985781917078000,8.463078125,-1.53643798828125,-1.3383026123046875,-0.2296905517578125
1782985781927151900,8.47315185546875,-1.8713531494140625,-1.231597900390625,-0.309844970703125
1782985781937226000,8.48322607421875,-2.2276153564453125,-1.0897979736328125,-0.2960205078125
1782985781947299800,8.4932998046875,-2.457794189453125,-1.004364013671875,-0.2834930419921875
1782985781957374200,8.503374267578126,-2.453765869140625,-0.9811859130859375,-0.3087921142578125
1782985781967447000,8.513447021484374,-2.1856689453125,-0.952484130859375,-0.3723602294921875
1782985781977521000,8.52352099609375,-1.7476348876953125,-0.88140869140625,-0.4296112060546875
1782985781987595000,8.533594970703126,-1.2585601806640625,-0.783203125,-0.441864013671875
1782985781997668900,8.5436689453125,-0.86962890625,-0.6924285888671875,-0.420745849609375
1782985782007743200,8.5537431640625,-0.5890045166015625,-0.6533050537109375,-0.3987579345703125
1782985782017817000,8.563817138671874,-0.442047119140625,-0.6378021240234375,-0.30902099609375
1782985782027890000,8.573889892578125,-0.4884490966796875,-0.589111328125,-0.0951385498046875
1782985782037964000,8.583964111328125,-0.679840087890625,-0.4740753173828125,0.1387939453125
1782985782048038000,8.594037841796874,-0.8766937255859375,-0.321258544921875,0.2902374267578125
1782985782058112000,8.604112060546875,-0.989532470703125,-0.203582763671875,0.3775482177734375
1782985782068186000,8.61418603515625,-1.00640869140625,-0.1690521240234375,0.4320831298828125
1782985782078260000,8.624260009765624,-0.939697265625,-0.1799468994140625,0.41815185546875
1782985782088332800,8.634332763671875,-0.8393707275390625,-0.212188720703125,0.299072265625
1782985782098407000,8.644406982421875,-0.7271575927734375,-0.2520599365234375,0.14013671875
1782985782108481000,8.65448095703125,-0.59185791015625,-0.28839111328125,-0.013458251953125
1782985782118555100,8.66455517578125,-0.462310791015625,-0.31591796875,-0.120635986328125
1782985782128629000,8.67462890625,-0.3781585693359375,-0.3165130615234375,-0.1483001708984375
1782985782138703000,8.684703125,-0.332550048828125,-0.2745513916015625,-0.1201019287109375
1782985782148776000,8.69477587890625,-0.2964630126953125,-0.20330810546875,-0.076324462890625
1782985782158850000,8.70485009765625,-0.26446533203125,-0.1582489013671875,-0.024566650390625
1782985782168924200,8.714924072265624,-0.261077880859375,-0.141998291015625,0.0265655517578125
1782985782178998000,8.724998046875,-0.3059234619140625,-0.123321533203125,0.0643768310546875
1782985782189072000,8.73507177734375,-0.355377197265625,-0.113189697265625,0.052947998046875
1782985782199146000,8.74514599609375,-0.3883056640625,-0.1115264892578125,0.006378173828125
1782985782209220000,8.75522021484375,-0.414825439453125,-0.122833251953125,-0.0306549072265625
1782985782219293200,8.765293212890626,-0.450531005859375,-0.1406097412109375,-0.0688323974609375
1782985782229367000,8.775366943359375,-0.5083770751953125,-0.137939453125,-0.1144866943359375
1782985782239441200,8.785441162109375,-0.5800018310546875,-0.1138916015625,-0.1298980712890625
1782985782249515000,8.795514892578124,-0.6346588134765625,-0.0942230224609375,-0.10906982421875
1782985782259589000,8.805589111328125,-0.6190338134765625,-0.10577392578125,-0.0924530029296875
1782985782269663000,8.8156630859375,-0.524658203125,-0.1350555419921875,-0.0968170166015625
1782985782279736000,8.825736083984374,-0.415557861328125,-0.158782958984375,-0.10107421875
1782985782289810200,8.83581005859375,-0.35955810546875,-0.175445556640625,-0.090484619140625
1782985782299884000,8.845884033203125,-0.3573455810546875,-0.178070068359375,-0.0420989990234375
1782985782309958100,8.855958251953124,-0.3877716064453125,-0.1631927490234375,0.0138397216796875
1782985782320032000,8.866031982421875,-0.439239501953125,-0.1502838134765625,0.067657470703125
1782985782330106000,8.876106201171876,-0.50079345703125,-0.1578216552734375,0.1004638671875
1782985782340179200,8.88617919921875,-0.571563720703125,-0.2018890380859375,0.0933685302734375
1782985782350253000,8.896253173828125,-0.6356964111328125,-0.2520904541015625,0.088043212890625
1782985782360327200,8.9063271484375,-0.712615966796875,-0.3064727783203125,0.095977783203125
1782985782370401000,8.916401123046874,-0.8179473876953125,-0.3617706298828125,0.1045074462890625
1782985782380475100,8.92647509765625,-0.966888427734375,-0.4135894775390625,0.116363525390625
1782985782390549200,8.93654931640625,-1.1591644287109375,-0.4862060546875,0.1327972412109375
1782985782400622000,8.9466220703125,-1.32452392578125,-0.5889892578125,0.1751251220703125
1782985782410696000,8.956696044921875,-1.3449554443359375,-0.6980438232421875,0.226837158203125
1782985782420770000,8.96677001953125,-1.212982177734375,-0.790771484375,0.3273468017578125
1782985782430844200,8.97684423828125,-1.091339111328125,-0.8923492431640625,0.482696533203125
1782985782440918300,8.986918212890625,-1.1004791259765625,-1.0184783935546875,0.6581268310546875
1782985782450992000,8.9969921875,-1.3084716796875,-1.1142120361328125,0.763641357421875
1782985782461066200,9.007066162109375,-1.6061248779296875,-1.121368408203125,0.7144317626953125
1782985782471139000,9.01713916015625,-1.8950347900390625,-1.076873779296875,0.576019287109375
1782985782481213200,9.027213134765624,-2.12445068359375,-1.0524139404296875,0.4632110595703125
1782985782491287300,9.037287353515625,-2.3045806884765625,-1.06781005859375,0.3638916015625
1782985782501361200,9.047361083984375,-2.47247314453125,-1.110504150390625,0.248138427734375
1782985782511435000,9.05743505859375,-2.5186767578125,-1.1714935302734375,0.1547088623046875
1782985782521509000,9.067509033203125,-2.3801727294921875,-1.2762298583984375,0.1924591064453125
1782985782531582200,9.077582275390625,-2.08837890625,-1.39801025390625,0.2574920654296875
1782985782541656000,9.087656005859374,-1.6949310302734375,-1.4801025390625,0.2396087646484375
1782985782551730200,9.097730224609375,-1.33001708984375,-1.53131103515625,0.212615966796875
1782985782561804000,9.107803955078126,-1.0863037109375,-1.49871826171875,0.2000732421875
1782985782571878100,9.117878173828124,-0.99005126953125,-1.3672943115234375,0.1898345947265625
1782985782581952000,9.127951904296875,-1.0211639404296875,-1.1521148681640625,0.20098876953125
1782985782592025000,9.138025146484376,-1.1714630126953125,-0.8680572509765625,0.2185516357421875
1782985782602099200,9.14809912109375,-1.385589599609375,-0.618865966796875,0.2237396240234375
1782985782612173000,9.158173095703125,-1.5237579345703125,-0.46380615234375,0.1255950927734375
1782985782622247200,9.1682470703125,-1.5935211181640625,-0.4287567138671875,0.0203094482421875
1782985782632321000,9.178321044921875,-1.5571746826171875,-0.464324951171875,-0.054901123046875
1782985782642395100,9.18839501953125,-1.3369293212890625,-0.5020751953125,-0.160888671875
1782985782652468200,9.19846826171875,-0.9958953857421875,-0.5404815673828125,-0.265106201171875
1782985782662542000,9.2085419921875,-0.6600189208984375,-0.5696258544921875,-0.3280029296875
1782985782672616200,9.2186162109375,-0.406280517578125,-0.550567626953125,-0.3101806640625
1782985782682690000,9.22868994140625,-0.276123046875,-0.4523162841796875,-0.2133026123046875
1782985782692764200,9.23876416015625,-0.2624664306640625,-0.2901153564453125,-0.0926666259765625
1782985782702838300,9.24883837890625,-0.246429443359375,-0.1537933349609375,0.05517578125
1782985782712912100,9.258912109375,-0.187957763671875,-0.086334228515625,0.1846771240234375
1782985782722985000,9.26898486328125,-0.1175079345703125,-0.0822601318359375,0.2796173095703125
1782985782733059000,9.27905908203125,-0.053436279296875,-0.12481689453125,0.3339691162109375
1782985782743133200,9.28913330078125,-0.0355377197265625,-0.168060302734375,0.326416015625
1782985782753207300,9.299207275390625,-0.050262451171875,-0.176910400390625,0.2458038330078125
1782985782763281200,9.30928125,-0.0753326416015625,-0.1903228759765625,0.235870361328125
1782985782773355300,9.319355224609374,-0.102447509765625,-0.2111358642578125,0.2154998779296875
1782985782783428000,9.329427978515625,-0.1299285888671875,-0.209716796875,0.0902252197265625
1782985782793502200,9.339502197265626,-0.1734466552734375,-0.1759796142578125,-0.0343475341796875
1782985782803576300,9.349576416015625,-0.185028076171875,-0.15924072265625,-0.0985870361328125
1782985782813650200,9.359650146484375,-0.1578216552734375,-0.1656036376953125,-0.10546875
1782985782823724000,9.36972412109375,-0.109619140625,-0.18194580078125,-0.08087158203125
1782985782833798100,9.379798095703125,-0.0624542236328125,-0.18878173828125,-0.044036865234375
1782985782843871200,9.389871337890625,-0.0687713623046875,-0.1788787841796875,0.0163116455078125
1782985782853945000,9.399945068359376,-0.124725341796875,-0.1576995849609375,0.0422515869140625
1782985782864019200,9.410019287109375,-0.18878173828125,-0.13616943359375,0.011444091796875
1782985782874093000,9.420093017578125,-0.229248046875,-0.1320037841796875,-0.0394439697265625
1782985782884167200,9.430167236328124,-0.2644195556640625,-0.14642333984375,-0.08905029296875
1782985782894241000,9.440240966796875,-0.2675018310546875,-0.1582183837890625,-0.1303863525390625
1782985782904314000,9.450314208984375,-0.3254852294921875,-0.17059326171875,-0.1783447265625
1782985782914388200,9.46038818359375,-0.4189300537109375,-0.1717987060546875,-0.172882080078125
1782985782924462000,9.470462158203125,-0.447906494140625,-0.1553192138671875,-0.10809326171875
1782985782934536200,9.4805361328125,-0.3858184814453125,-0.1439056396484375,-0.0442962646484375
1782985782944610000,9.490610107421874,-0.3113555908203125,-0.1651458740234375,0.04693603515625
1782985782954684000,9.500683837890625,-0.2849884033203125,-0.2177734375,0.2037200927734375
1782985782964758300,9.51075830078125,-0.3052978515625,-0.253387451171875,0.390533447265625
1782985782974831000,9.5208310546875,-0.38433837890625,-0.3088836669921875,0.618988037109375
1782985782984905200,9.5309052734375,-0.4979705810546875,-0.4160614013671875,0.7726593017578125
1782985782994979000,9.54097900390625,-0.629913330078125,-0.546539306640625,0.78369140625
1782985783005053000,9.551052978515624,-0.7344970703125,-0.74609375,0.7736358642578125
1782985783015127300,9.561127197265625,-0.8369293212890625,-0.970123291015625,0.790985107421875
1782985783025201200,9.571201171875,-1.1024932861328125,-1.0845794677734375,0.7460174560546875
1782985783035274000,9.58127392578125,-1.5292205810546875,-1.1307220458984375,0.680267333984375
1782985783045348000,9.59134814453125,-1.822296142578125,-1.143341064453125,0.612823486328125
1782985783055422000,9.601421875,-1.7690582275390625,-1.2147674560546875,0.634002685546875
1782985783065496300,9.611496337890625,-1.4347076416015625,-1.3765716552734375,0.7247161865234375
1782985783075570200,9.621570068359375,-0.9770965576171875,-1.49884033203125,0.6385955810546875
1782985783085644300,9.631644287109374,-0.7033233642578125,-1.61236572265625,0.59228515625
1782985783095718100,9.64171826171875,-0.791290283203125,-1.5646209716796875,0.6017303466796875
1782985783105791000,9.651791015625,-1.1031341552734375,-1.3258819580078125,0.61834716796875
1782985783115865300,9.661865234375,-1.4224853515625,-1.04876708984375,0.61798095703125
1782985783125939200,9.671939208984375,-1.582489013671875,-0.744384765625,0.5249176025390625
1782985783136013000,9.682012939453125,-1.5577392578125,-0.4968414306640625,0.393707275390625
1782985783146087200,9.692087158203124,-1.3936004638671875,-0.4297332763671875,0.136444091796875
1782985783156161000,9.7021611328125,-1.1209259033203125,-0.4923095703125,-0.264984130859375
1782985783166234000,9.712234130859375,-0.8536376953125,-0.6192474365234375,-0.646484375
1782985783176308200,9.72230810546875,-0.7155303955078125,-0.7433929443359375,-0.789764404296875
1782985783186382000,9.732382080078125,-0.781341552734375,-0.7579193115234375,-0.66204833984375
1782985783196456200,9.742456298828126,-0.962371826171875,-0.624420166015625,-0.392303466796875
1782985783206530300,9.7525302734375,-1.1019439697265625,-0.4120635986328125,-0.1856842041015625
1782985783216604400,9.7626044921875,-1.232757568359375,-0.233154296875,-0.052215576171875
1782985783226677500,9.772677490234376,-1.384307861328125,-0.122650146484375,0.093841552734375
1782985783236751400,9.78275146484375,-1.4829864501953125,-0.06414794921875,0.2123260498046875
1782985783246825500,9.792825439453125,-1.4268035888671875,-0.0661163330078125,0.2505340576171875
1782985783256899300,9.8028994140625,-1.21649169921875,-0.1428070068359375,0.1921539306640625
1782985783266973400,9.812973388671875,-0.9467926025390625,-0.266357421875,0.069488525390625
1782985783277047300,9.82304736328125,-0.7409515380859375,-0.3748779296875,-0.0449371337890625
1782985783287121400,9.833121337890624,-0.643096923828125,-0.411895751953125,-0.14227294921875
1782985783297194500,9.843194580078125,-0.5745849609375,-0.374786376953125,-0.2038726806640625
1782985783307268400,9.853268310546875,-0.5386505126953125,-0.323455810546875,-0.1954498291015625
1782985783317342500,9.863342529296874,-0.5499420166015625,-0.282470703125,-0.1364898681640625
1782985783327416300,9.873416259765625,-0.5928955078125,-0.2390899658203125,-0.07525634765625
1782985783337490400,9.883490478515625,-0.608612060546875,-0.2037506103515625,-0.0598602294921875
1782985783347564500,9.893564453125,-0.5809326171875,-0.2071533203125,-0.0727996826171875
1782985783357637400,9.903637451171875,-0.5319671630859375,-0.241790771484375,-0.1053466796875
1782985783367711500,9.91371142578125,-0.4649658203125,-0.2831573486328125,-0.1578216552734375
1782985783377785300,9.923785400390624,-0.41455078125,-0.298858642578125,-0.197723388671875
1782985783387859500,9.933859375,-0.397247314453125,-0.28790283203125,-0.194366455078125
1782985783397933600,9.94393359375,-0.40081787109375,-0.270782470703125,-0.176513671875
1782985783408007400,9.95400732421875,-0.4194183349609375,-0.2418212890625,-0.1728057861328125
1782985783418080300,9.964080322265625,-0.446929931640625,-0.1967620849609375,-0.1561431884765625
1782985783428154400,9.974154296875,-0.450714111328125,-0.172027587890625,-0.135650634765625
1782985783438228500,9.984228515625,-0.42822265625,-0.1472320556640625,-0.1144561767578125
1782985783448302600,9.994302490234375,-0.3996734619140625,-0.1291351318359375,-0.096710205078125
1782985783458376400,10.00437646484375,-0.393280029296875,-0.1363372802734375,-0.0684814453125
1782985783468450300,10.0144501953125,-0.4085235595703125,-0.1542816162109375,-0.0496978759765625
1782985783478524400,10.0245244140625,-0.39996337890625,-0.1757965087890625,-0.0421142578125
1782985783488597500,10.034597412109376,-0.356719970703125,-0.2050628662109375,-0.036285400390625
1782985783498671600,10.044671630859375,-0.3455657958984375,-0.240570068359375,-0.0081787109375
1782985783508745500,10.054745361328125,-0.4345245361328125,-0.2422027587890625,0.050323486328125
1782985783518819300,10.0648193359375,-0.5944366455078125,-0.2141876220703125,0.1305999755859375
1782985783528893400,10.0748935546875,-0.675445556640625,-0.218597412109375,0.2154693603515625
1782985783538967300,10.08496728515625,-0.6838836669921875,-0.28656005859375,0.3365020751953125
1782985783549040400,10.095040283203126,-0.6251983642578125,-0.3863372802734375,0.453369140625
1782985783559114500,10.105114501953125,-0.5540618896484375,-0.517730712890625,0.456298828125
1782985783569188400,10.115188232421875,-0.551666259765625,-0.6251068115234375,0.320281982421875
1782985783579262500,10.125262451171874,-0.6391754150390625,-0.7400970458984375,0.1750030517578125
1782985783589336300,10.13533642578125,-0.78497314453125,-0.8530426025390625,0.1072235107421875
1782985783599410400,10.145410400390626,-0.9277191162109375,-0.9093017578125,0.139801025390625
