time,seconds_elapsed,z,y,x
1782985773528103200,0.074103271484375,-2.6984219228625297,-7.0152499337106935,2.531564596493542
1782985773538177000,0.084177001953125,-3.2954455667257307,-4.398344849061965,1.2023927990064025
1782985773548251000,0.0942509765625,-2.8647768526673314,-2.4981132855296133,0.18077548668216914
1782985773558324200,0.10432421875,-2.016394183191657,-1.0750988367408514,-0.4530236806642264
1782985773568398000,0.114398193359375,-1.07849549344182,-0.1240624329984188,-0.8147360551353543
1782985773578472000,0.124471923828125,-0.35441315737366674,0.3511123622626066,-0.7705578907128423
1782985773588546000,0.134546142578125,-0.5875824463009834,0.26049977892339227,-0.34812804922219365
1782985773598620000,0.144619873046875,-2.047371505257487,0.09023965837359428,0.40076073825713243
1782985773608693200,0.154693359375,-3.809226279234886,0.24199615398347377,1.1068565685946494
1782985773618767000,0.16476708984375,-4.778617254835367,0.45057343796789645,1.3166975158393381
1782985773628841000,0.174841064453125,-4.639292955297232,0.5378828881084918,1.0692837207213044
1782985773638915000,0.1849150390625,-3.5344857935130594,0.5872340712547302,0.8294457676850259
1782985773648989000,0.194989013671875,-1.9516531232118606,0.6877446560129523,0.7650860351730138
1782985773659062000,0.20506201171875,-0.08041442992985248,1.0086129789203404,0.5654244635719806
1782985773669136100,0.21513623046875,1.8276345293551681,1.2851210588365793,0.27226050547435876
1782985773679210000,0.2252099609375,3.44645621240437,1.3024743446975946,0.03641381403133273
1782985773689284000,0.2352841796875,4.535186099612712,1.2586018852233887,-0.014491758950054645
1782985773699358000,0.24535791015625,5.270527496320009,1.4762795905083417,0.05197488271333277
1782985773709431000,0.25543115234375,5.804053942784667,1.7527800716400146,0.030761048966646193
1782985773719505200,0.265505126953125,6.164559571814537,2.0385779579490424,0.14064210413843392
1782985773729579000,0.2755791015625,6.3600231072038405,2.2765058395802975,0.2780954221729189
1782985773739653000,0.285653076171875,6.48904579295814,2.4391209983348845,0.3364372095696628
1782985773749727000,0.29572705078125,6.673840050294995,2.5960493436247107,0.4254639484895393
1782985773759800000,0.305800048828125,6.864629748654365,2.6841210103094575,0.4333975910330191
1782985773769874200,0.315874267578125,7.156635841953754,2.684948693305254,0.4121253781626001
1782985773779948000,0.325947998046875,7.076325456920266,2.7470260870337486,0.5376144464306533
1782985773790022000,0.33602197265625,6.882650558513403,2.8850498253673313,0.6725080700449645
1782985773800096000,0.346095947265625,6.791873724523186,2.9989509298354387,0.7055227431572973
1782985773810169000,0.356169189453125,6.6633630799442525,3.038395051473379,0.7237292117815465
1782985773820243200,0.3662431640625,6.644036448183655,3.0305151118785143,0.5594199624601751
1782985773830317000,0.376317138671875,6.600414748600125,2.9693226842910048,0.1969416451178491
1782985773840391000,0.386390869140625,6.195764272895455,2.6672721668392416,-0.4180940773086622
1782985773850465000,0.396465087890625,5.349195374843478,2.320563007971644,-1.1719746451932935
1782985773860538000,0.4065380859375,4.391709941092134,2.0128204163581134,-2.1622132515765724
1782985773870612000,0.416612060546875,3.7037346911936995,1.8607067778736353,-3.1818703332111236
1782985773880686000,0.42668603515625,2.794931163024902,1.6943080089271068,-3.7671871726676818
1782985773890760000,0.436760009765625,1.6663351293742656,1.6022551636517046,-3.4430911198854446
1782985773900834000,0.446833984375,0.9861696764439344,1.176094866928458,-2.0345359890818595
1782985773910908000,0.456907958984375,0.4117535857081413,-0.17183014634549618,-0.21904376947376875
1782985773920981000,0.46698095703125,-0.3482008587300777,-2.243500226557255,1.7248918016307055
1782985773931055000,0.47705517578125,-1.6423767461597918,-4.528738823169469,3.0958190664380787
1782985773941129000,0.48712890625,-3.848274095031619,-6.096150052455068,1.746600213961303
1782985773951203000,0.497203125,-6.975548622441291,-6.190910987645387,-2.088087692657858
1782985773961277000,0.50727685546875,-9.800857388073206,-5.88208060079515,-5.609550776860117
1782985773971350000,0.51735009765625,-11.317557251775265,-5.869862339735031,-7.4928937494337555
1782985773981424000,0.527424072265625,-12.218953134036063,-6.547656387358903,-7.267234982267022
1782985773991498000,0.537498046875,-12.040600307923555,-7.52307962886095,-5.58808128785193
1782985774001571800,0.54757177734375,-9.914578459799289,-8.033275468620657,-4.310611912812292
1782985774011646000,0.55764599609375,-7.927858699381351,-8.19468534323871,-3.524915124352276
1782985774021719000,0.567718994140625,-6.975987013858556,-6.834990397194027,-2.8396891731619833
1782985774031793200,0.577793212890625,-6.713603905406594,-4.1754099539011715,-2.090745221429318
1782985774041867000,0.587866943359375,-6.62341860756874,-2.3427988051772117,-1.254673313602805
1782985774051940900,0.59794091796875,-5.766006243941187,-0.8795242421925067,-1.1358468815617262
1782985774062015000,0.608014892578125,-4.638056691500545,0.30460546263158317,-1.845022302007675
1782985774072088000,0.618088134765625,-3.761758425617218,0.8731769189924001,-2.510805301581323
1782985774082162000,0.628161865234375,-2.5564012238472698,1.3289829969167708,-2.6838512534573673
1782985774092236000,0.638236083984375,-1.2044044310897588,1.1329244182437657,-2.5724206307560205
1782985774102310000,0.648309814453125,-0.15540332767963408,0.1763075840204954,-2.35695227208361
1782985774112384000,0.658384033203125,0.1821025340348482,-0.8611182324081659,-1.8909236369609832
1782985774122457000,0.66845703125,0.09772329212725162,-1.5275886297240853,-1.3628151238918305
1782985774132531000,0.678531005859375,1.0646224509119986,-1.4316767709329723,-0.5077952814240009
1782985774142605000,0.68860498046875,2.4749849233984946,-1.2739251265615223,0.944885991353914
1782985774152679000,0.698678955078125,4.067922223606706,-1.2387106053173542,2.3488658501312134
1782985774162753000,0.7087529296875,5.6669104944169515,-0.9126783237755298,3.1195798812538382
1782985774172827000,0.718826904296875,6.8265715284168715,-0.42646950880289075,2.8626564995124935
1782985774182900000,0.72889990234375,7.375842656502127,-0.15829904912114143,1.7626444630503653
1782985774192974000,0.73897412109375,7.935321290346979,0.0625517332419753,1.92152964149639
1782985774203048000,0.7490478515625,8.113108883792162,-0.004247136050462723,2.0099369698762892
1782985774213121800,0.759121826171875,8.109505890864133,0.07363923670649528,2.2276725428283215
1782985774223196000,0.76919580078125,7.9539891659379,0.4925394792988896,2.688663329914212
1782985774233269000,0.77926904296875,6.12665566535592,1.2524398554623126,3.5409517746567722
1782985774243342800,0.7893427734375,3.4281226833343506,1.4159262440934777,3.3641081840634346
1782985774253416700,0.799416748046875,1.8665233551979064,2.079699949671328,2.93537014580667
1782985774263490800,0.80949072265625,1.2027934887617826,2.895505752930045,2.203433296845853
1782985774273565000,0.81956494140625,0.5204302335262299,2.899979975734651,1.5509531386986375
1782985774283638000,0.829637939453125,0.24275018722116945,2.5606337468504905,1.312319885277003
1782985774293712000,0.8397119140625,0.6463584603965282,2.3513114897176624,1.3369181738302112
1782985774303785700,0.84978564453125,1.210599778598547,2.151305342462659,1.420163881663233
1782985774313859800,0.85985986328125,1.6271674865901469,2.0668252705290913,1.5289847602576017
1782985774323934000,0.869933837890625,1.593910529154539,2.2922864692971108,1.4365033143065868
1782985774334006800,0.8800068359375,0.7512912455111742,2.600521520602703,0.8578338769752532
1782985774344081000,0.890080810546875,0.4331225369513035,2.7671383162140843,-0.07050523126339539
1782985774354154800,0.90015478515625,0.4272416622191667,2.667584886050224,-1.2482403579458594
1782985774364228900,0.910228759765625,0.6839326965093613,2.365046877342462,-2.278890396629274
1782985774374303000,0.920302978515625,0.861455501538515,2.1904764923781155,-2.650762930586934
1782985774384375800,0.930375732421875,1.0070645804345608,1.9373592249214648,-2.105946736083925
1782985774394450000,0.940449951171875,1.031632035458088,1.576634984704852,-0.6284057473376393
1782985774404523800,0.950523681640625,0.671357292574644,1.1902554942280053,1.1980668255660682
1782985774414598000,0.960597900390625,-0.09548924946486949,0.30822365312874317,2.8516952527761457
1782985774424672000,0.970672119140625,-1.8027865038245916,-1.068617073506117,3.9202690716624256
1782985774434744800,0.980744873046875,-5.239561864691972,-1.706103660660982,4.689043074633181
1782985774444819000,0.99081884765625,-9.386877358487247,-1.2371154450803994,4.223628041364252
1782985774454892800,1.000892822265625,-11.393279724496603,0.10353402423262595,2.7192373318761587
1782985774464966700,1.010966552734375,-10.504978301608562,1.150773963189125,2.023485456626862
1782985774475041000,1.021041015625,-8.090692469322681,0.02845627915561199,3.0760844383984804
1782985774485115000,1.031114990234375,-5.243753471162915,-2.3956834231466053,4.620028867378831
1782985774495188000,1.04118798828125,-3.3452041616290806,-4.805114216616749,5.07993945801258
1782985774505261800,1.05126171875,-2.3299323093414306,-6.255070448344946,5.3128217466920615
1782985774515335700,1.061335693359375,-1.4157038335144518,-7.095625200673937,6.142102240812778
1782985774525410000,1.07141015625,-0.9813310042411089,-7.653876923072338,7.167335515144467
1782985774535484000,1.08148388671875,-1.666129377669096,-7.54046214081645,7.883208241271972
1782985774545556700,1.091556640625,-2.4043051210194823,-6.518219864994287,7.040903430405259
1782985774555630800,1.101630859375,-3.1657688009768723,-4.920608727756142,5.19586826891601
1782985774565704700,1.11170458984375,-4.804080781915784,-2.808693730917573,3.0560552113264796
1782985774575779000,1.121779052734375,-5.961131925678253,-0.4572925170898437,0.6247440099596977
1782985774585853000,1.13185302734375,-5.885949551182985,1.2063134795814752,-1.646336735831946
1782985774595925800,1.14192578125,-4.6663744389683,1.782440465888381,-2.8192817604273555
1782985774605999900,1.151999755859375,-3.419665236112475,1.4916493013367056,-2.4210280000224706
1782985774616073700,1.16207373046875,-2.720103593316674,0.9058934859409927,-0.9691349550127982
1782985774626148000,1.172148193359375,-1.6384645411521195,0.543030187869072,0.38133521269932386
1782985774636222000,1.182221923828125,-0.1977741504192352,0.7123050967738032,1.2753966604188083
1782985774646295800,1.1922958984375,0.9200976601213217,0.9770148946076631,1.5611027767911552
1782985774656369000,1.202368896484375,1.9884943688750265,1.1956059153452514,1.3775430296853184
1782985774666442800,1.21244287109375,3.0821172888219355,1.4585697462946177,0.9956111662670969
1782985774676516900,1.222516845703125,3.8539217455297705,1.4787088634818792,0.5984651113757863
1782985774686591000,1.232591064453125,4.814492285814881,1.2797750216335058,0.09066058719940483
1782985774696664800,1.242664794921875,5.829845386645197,1.094695225353539,-0.6091233200449496
1782985774706738000,1.252738037109375,6.704782885569333,1.1876634319081902,-1.0356591720823198
1782985774716811800,1.262811767578125,7.383812612468004,1.6195272009700536,-1.015116223334521
1782985774726886000,1.272885986328125,7.43591046397388,2.060425048097968,-0.5751640595588833
1782985774736960000,1.2829599609375,6.837850462800264,2.349021625214815,0.12256737213507293
1782985774747033900,1.293033935546875,6.06921411473453,2.5815976244241,0.6210996621079743
1782985774757106700,1.303106689453125,5.408512071686983,2.9759058620736,0.6167710583191365
1782985774767180800,1.313180908203125,5.197909419354796,3.56253466091156,0.3374856226440519
1782985774777255000,1.3232548828125,5.393475246074796,4.112662990348041,0.0813921158555895
1782985774787329000,1.3333291015625,5.677238996207714,4.2118318051084875,-0.02369980534352362
1782985774797403000,1.34340283203125,5.9068771883994335,3.867803848148882,-0.32225137476362287
1782985774807475700,1.353475830078125,6.052866206523776,3.3755905320644377,-0.9330315221048892
1782985774817549800,1.3635498046875,6.284502294534445,2.9859453177899122,-1.7929872866049408
1782985774827624000,1.3736240234375,6.5537810077190395,2.990447013123333,-2.465928048978746
1782985774837698000,1.383697998046875,6.567576893359423,3.116363257294893,-2.8851109079048034
1782985774847772000,1.39377197265625,6.198267195627093,3.1380697699293494,-3.0860373848751186
1782985774857844700,1.4038447265625,5.642707196530699,3.028780835431814,-3.203220872014761
1782985774867918800,1.4139189453125,5.35424564397037,3.0847844622045755,-3.228255944550037
1782985774877993000,1.423992919921875,5.363127454084157,3.3315508993297813,-3.0456618276059624
1782985774888066800,1.43406689453125,5.528686265075207,3.518455280688405,-2.7171152251556516
1782985774898141000,1.444140869140625,5.694430954027175,3.287476195281744,-2.3294386806055902
1782985774908214800,1.45421484375,5.7584302557289595,2.605381235593557,-2.2041864533007143
1782985774918288000,1.464287841796875,5.619041658782959,1.4114111047565936,-2.376773993884772
1782985774928362000,1.474362060546875,5.117597865277529,-0.3330032895982265,-2.438531654139608
1782985774938435800,1.484435791015625,3.7284950384408235,-2.797385570439696,-2.14965319134146
1782985774948510000,1.494510009765625,0.18060674251914025,-5.550782361549139,-1.3003439085401594
1782985774958583800,1.504583740234375,-5.582635297405719,-7.183982698562741,-0.2886868126835674
1782985774968657000,1.514656982421875,-13.06436701683402,-7.0159069363147015,-0.05912906531691551
1782985774978731000,1.52473095703125,-19.126694879186154,-5.257559293675422,-1.77440387442708
1782985774988804900,1.534804931640625,-19.808481211316586,-2.5823651016652582,-4.460964679104089
1782985774998879000,1.54487890625,-17.176233011585474,-1.8378765219062565,-6.632710167527199
1782985775008952800,1.554952880859375,-13.601258555817603,-3.854909587523341,-7.030124262237549
1782985775019027000,1.56502685546875,-9.563406476303934,-6.9992340339332815,-5.983907236588001
1782985775029100000,1.57510009765625,-6.430379084455967,-9.827877496945858,-4.410290430660545
1782985775039174000,1.585173828125,-4.379479989594221,-11.354393821263313,-3.033018619132042
1782985775049248000,1.595248046875,-3.350794528982043,-10.656451304101944,-1.925709995920956
1782985775059321900,1.60532177734375,-3.526282028791308,-9.25971871303916,-0.6160318573243916
1782985775069395700,1.615395751953125,-4.24633934712708,-8.491403852012754,1.2788633136160672
1782985775079469000,1.625468994140625,-5.183961558023094,-7.775286211213469,3.528391860552132
1782985775089543000,1.63554296875,-5.928446630650758,-6.54378392983973,4.4567923618555065
1782985775099616800,1.64561669921875,-5.77868510825038,-4.797319032695889,3.2920904110789295
1782985775109691000,1.65569091796875,-5.222583841884136,-3.2581343654632566,1.4348314355716107
1782985775119764700,1.6657646484375,-4.109644227048754,-2.3530080645024776,-0.2258461064323783
1782985775129838000,1.675838134765625,-2.268209135878086,-2.436190205579996,-2.266684556659311
1782985775139912000,1.685911865234375,-0.2577665545672178,-3.0151766729712484,-4.570949779172241
1782985775149985800,1.69598583984375,1.7605659032106398,-3.6231168476462363,-6.605324732473492
1782985775160060000,1.706059814453125,3.1969904531925915,-3.2863317014217377,-7.324189041632414
1782985775170133800,1.7161337890625,3.837464531725645,-1.6707383327692746,-6.329021819740533
1782985775180206800,1.726206787109375,4.005198348668217,0.061414545905590055,-4.136711097672581
1782985775190281000,1.736281005859375,4.272434742370248,1.4912503651469946,-1.9000019925601779
1782985775200355300,1.746355224609375,4.730640867173672,2.4938088663339615,-0.06372121541276574
1782985775210429200,1.75642919921875,5.2016328237920995,3.048402650746703,1.2421271357625723
1782985775220503300,1.76650341796875,5.612047854372858,3.110757107850909,1.8879297158420085
1782985775230577200,1.7765771484375,6.0589890733182425,2.6898770896181463,1.8454715070798993
1782985775240650200,1.786650146484375,6.484935435029864,2.1174980576679108,1.4233958493217824
1782985775250724400,1.796724365234375,6.660577248618006,1.6494947614714501,0.7350859606415033
1782985775260798200,1.806798095703125,6.769796917271614,1.4691960619881748,-0.2519663438558578
1782985775270872300,1.816872314453125,6.824399445074796,1.4307456275627015,-1.4813392119854687
1782985775280946200,1.8269462890625,6.6891790737241505,1.384360600745678,-2.6860604539394375
1782985775291019300,1.837019287109375,6.123626672923565,1.6305106595382093,-3.4109231267303226
1782985775301093400,1.84709326171875,5.251962496581673,2.167778338357806,-4.00260979347974
1782985775311167200,1.857167236328125,4.435037041643262,2.9593922419071195,-4.376745596194267
1782985775321241300,1.867241455078125,4.029467697528005,3.799659409466386,-4.485214446480572
1782985775331315200,1.877315185546875,4.085613947641849,4.242061815938353,-4.32923741056621
1782985775341388300,1.88738818359375,4.176453909996152,4.108497102840245,-3.8042645651742815
1782985775351462400,1.89746240234375,4.105333962634205,3.659326225146651,-3.1055574933812022
1782985775361536300,1.907536376953125,3.857532921764254,3.3782290638744827,-2.480538173611462
1782985775371610000,1.917610107421875,3.6803403716027736,3.460169972719252,-1.9994135300353169
1782985775381684200,1.927684326171875,3.8605852950721977,3.7665152647554874,-1.6986261643871663
1782985775391757300,1.93775732421875,4.4451901868671175,4.136019316016137,-1.6472446444571016
1782985775401831200,1.9478310546875,5.274737222969532,4.266563512249291,-1.8544906798377632
1782985775411905300,1.9579052734375,5.952534777724742,3.859146786701679,-2.33440010240525
1782985775421979100,1.967979248046875,6.112488023793697,3.2343145139366385,-2.862845300082862
1782985775432053200,1.97805322265625,5.771970705303549,2.7834982071235777,-3.2201816514268518
1782985775442127000,1.988127197265625,4.927348849666118,2.7412057103171943,-3.05769537974894
1782985775452200200,1.9982001953125,4.129280655410885,3.0200241130024192,-2.2177304100066424
1782985775462274300,2.0082744140625,3.6391882770031687,3.114109925410151,-0.7460738031238318
1782985775472348200,2.01834814453125,3.022960166454315,3.1449300110876557,1.1549524179175494
1782985775482422300,2.02842236328125,2.1077409260243174,3.0922973220527172,3.0466072917625304
1782985775492496100,2.03849609375,-0.05119651875197887,2.969054388743639,4.845926119476556
1782985775502569200,2.0485693359375,-4.145856527158617,2.4618834497630595,5.813624904206395
1782985775512643300,2.058643310546875,-7.721120321261882,1.691829051592946,5.550614603766799
1782985775522717200,2.06871728515625,-9.573568973878025,0.8784130660802125,4.329636639016867
1782985775532791300,2.078791259765625,-9.972628497707843,-0.870075445845723,3.397591643731296
1782985775542865200,2.088865234375,-9.5994825828135,-3.9564077220141884,3.77283277733922
1782985775552938200,2.098938232421875,-10.401779792940616,-7.529650239422917,5.2352206206172704
1782985775563012400,2.109012451171875,-11.818794124531745,-10.162291822385788,6.655771894162893
1782985775573086200,2.119086181640625,-11.460241383135319,-9.723739077079296,6.388415088951588
1782985775583160000,2.12916015625,-10.666785651111603,-7.665773697093129,5.235309467944503
1782985775593234200,2.139234130859375,-12.287248671627044,-6.466185726374388,4.357402013298869
1782985775603308300,2.149308349609375,-14.278420150756835,-5.19571980035603,2.3337078823573885
1782985775613381000,2.159381103515625,-14.32964063490629,-3.3744296715915203,0.04144048308692872
1782985775623455200,2.169455322265625,-12.20472704028487,-1.6341116066396235,-1.166199495857954
1782985775633529000,2.179529052734375,-8.697793270564079,-0.0933276875168085,-1.5061130032360552
1782985775643603200,2.189603271484375,-5.003182381546497,1.0286427905142306,-1.5861450097195804
1782985775653677300,2.19967724609375,-1.517484292078018,1.3568886564522982,-1.6896037767589092
1782985775663750100,2.209750244140625,1.332554425662756,0.8982248510092496,-1.940497815208137
1782985775673824300,2.21982421875,3.185440885174274,0.03137421242892742,-2.37559778971225
1782985775683898000,2.229898193359375,3.917675548037886,-0.8023825503230094,-2.42533826443702
1782985775693972200,2.23997216796875,3.6261826649576423,-1.105236200851202,-1.919332715974003
1782985775704046300,2.25004638671875,2.7282354618459936,-0.7200842063426971,-1.0026355119459331
1782985775714119200,2.260119140625,1.9120085105657576,0.24466449640989302,-0.4053243563782423
1782985775724193300,2.270193359375,1.356935418203473,1.4193483274966479,-0.24206826937161385
1782985775734267100,2.28026708984375,0.8854559703290462,2.320431490546465,-0.3241155612003058
1782985775744341200,2.29034130859375,0.8415121991842984,2.7637562725603577,-0.45110257640853524
1782985775754415400,2.300415283203125,1.3778075258404017,2.8283529556334015,-0.38806072156205773
1782985775764489200,2.3104892578125,2.0348247428953647,2.7216040610074996,-0.37708756519220765
1782985775774562300,2.320562255859375,2.7127491389006373,2.4587875295743347,-0.3757052439883351
1782985775784636200,2.33063623046875,3.3222365430176257,2.078431537170708,-0.23317520721144974
1782985775794710300,2.340710205078125,3.668994217202067,1.8584741965159772,0.014096969212498514
1782985775804784400,2.350784423828125,3.811750829276442,1.8893077261969446,0.1342019698220305
1782985775814858200,2.360858154296875,3.9016953040957447,2.1206100522086024,-0.007675685727037489
1782985775824931000,2.37093115234375,4.0668683306396005,2.4780641847133635,-0.3134635265436023
1782985775835005200,2.381005126953125,4.365135822421312,2.8277988288819786,-0.5580531676189974
1782985775845079300,2.391079345703125,4.701466210615635,3.0591555154293775,-0.6295876505985856
1782985775855153400,2.4011533203125,5.0616807477444405,3.100993838727474,-0.5917800075886771
1782985775865227300,2.411227294921875,5.512549369266629,3.0009704529643058,-0.546093886288628
1782985775875301400,2.42130126953125,5.938340832677484,2.8004660007983446,-0.4700861668851226
1782985775885374200,2.431374267578125,6.344076765531301,2.4923367479547855,-0.5469966803472489
1782985775895448300,2.4414482421875,6.594889263176918,2.287215449643135,-0.6386538773685694
1782985775905522400,2.4515224609375,6.7298816709905855,2.3414207948222754,-0.6995571858163923
1782985775915596300,2.46159619140625,6.737230864709615,2.62039906424433,-0.7081794682111591
1782985775925670100,2.471670166015625,6.764055743271112,2.9928035131216046,-0.6561974981699138
1782985775935743200,2.4817431640625,6.833627292147279,3.368258289480209,-0.6372463486582041
1782985775945817300,2.4918173828125,6.801482679867744,3.679774554413557,-0.5889879291847347
1782985775955891500,2.501891357421875,6.406410179847478,3.723523679769039,-0.751372274858132
1782985775965965300,2.51196533203125,5.4501569182395935,3.413915878805518,-1.2769891903072594
1782985775976039200,2.5220390625,4.4303217035591596,3.064042410688102,-1.81153621199131
1782985775986112300,2.5321123046875,3.8272114332586527,2.7376243446990847,-2.092504778447747
1782985775996186400,2.542186279296875,3.436109005913138,2.183353508630395,-2.312773669269681
1782985776006260200,2.55226025390625,2.760454892927408,0.9964099154293536,-2.4939894835978746
1782985776016334300,2.562334228515625,1.4764695601224898,-0.8766770360678434,-2.962317189443111
1782985776026408200,2.572408203125,-0.18527181172072887,-2.6638819398790594,-3.3656390468925235
1782985776036482300,2.582482421875,-2.644159002277255,-3.195550191256404,-3.3638068630293008
1782985776046555400,2.592555419921875,-6.321068814909458,-2.9339205315202475,-3.1692443681329485
1782985776056629200,2.602629150390625,-10.045752186107634,-2.725891236807406,-3.0336884812176224
1782985776066703400,2.612703369140625,-11.569122613614796,-2.8693481061056256,-3.17855843218416
1782985776076777200,2.622777099609375,-11.064410173702239,-3.8076387177824973,-4.073544739663601
1782985776086851300,2.632851318359375,-9.749945531481504,-5.954939500778913,-5.30010488846004
1782985776096924400,2.64292431640625,-8.264265659943222,-9.07983736218512,-5.863266010209918
1782985776106998300,2.652998291015625,-7.057742921525239,-11.920648232853411,-5.285943092116713
1782985776117072400,2.663072265625,-5.29230912001729,-12.708082220369576,-3.688961484953761
1782985776127146200,2.673146240234375,-3.5524124953478573,-11.079953779792785,-2.026918207554519
1782985776137220000,2.68322021484375,-2.671768893736601,-8.264134142518044,-0.9791675425969064
1782985776147293400,2.69329345703125,-3.536040621739626,-5.156239438360929,0.0003740209441632032
1782985776157367300,2.7033671875,-6.115972943300008,-2.4683228351607918,0.5894052047487348
1782985776167441400,2.71344140625,-8.795717638221383,-0.5098538944542408,0.4576918916709721
1782985776177515300,2.723515380859375,-10.002593427860736,0.4539993207633495,-0.2879686544768512
1782985776187589000,2.733589111328125,-9.90756419712305,0.11915274138599634,-1.5495023553684353
1782985776197663200,2.743663330078125,-8.71828719253838,-1.3618047778055071,-2.969546556174755
1782985776207736300,2.753736328125,-5.899158576846123,-3.281986950215697,-4.375318486000597
1782985776217810400,2.763810546875,-2.0118594623714685,-4.584554818415642,-5.617224964749813
1782985776227884300,2.77388427734375,1.4285510401278734,-4.850545303709804,-6.268252001479268
1782985776237958100,2.783958251953125,3.457781908538937,-4.439379162500798,-5.718118119084835
1782985776248032300,2.7940322265625,3.9377719951272008,-3.355222574557364,-3.896931450694799
1782985776258105300,2.804105224609375,3.620281916481256,-2.0118569781534372,-1.3273064420066774
1782985776268179500,2.814179443359375,3.0362551168352363,-0.8650307296767831,1.3781895108953117
1782985776278253300,2.82425341796875,2.6263264084666966,0.0396263463370502,3.5742283135756847
1782985776288327200,2.8343271484375,2.554576931029558,0.6249065070450306,4.904991471907496
1782985776298401300,2.8444013671875,2.752541635584831,0.8724873292930424,5.173234412303566
1782985776308475100,2.85447509765625,3.144319770234823,0.8234181779585779,4.473170957465469
1782985776318548200,2.86454833984375,3.585785772639513,0.5566432642884552,2.9842747542291876
1782985776328622300,2.874622314453125,4.223474604368209,0.3340886006169021,1.267265230280906
1782985776338696200,2.8846962890625,4.91417957149148,0.27608415541574355,-0.0970015537239611
1782985776348770300,2.894770263671875,4.998604406106471,0.3005143939256668,-0.8703231369964778
1782985776358844200,2.90484423828125,4.942851539224386,0.5095755159042775,-1.1771029479924588
1782985776368917200,2.914917236328125,4.45426898085773,0.9668323771588504,-1.159660741738975
1782985776378991400,2.924991455078125,4.221281478238105,1.5988754580855369,-0.9871197437103837
1782985776389065200,2.935065185546875,4.473694396817684,2.299583348307013,-0.6077637951947749
1782985776399139300,2.945139404296875,4.834639586308598,2.8091014349356294,0.01515486250128597
1782985776409213200,2.955213134765625,5.268717232027649,3.128186966079473,0.7224003743305802
1782985776419286300,2.965286376953125,5.818031030210852,3.340102454575896,1.21668801247105
1782985776429360400,2.9753603515625,6.260355695271492,3.552135431972146,1.5316779448643325
1782985776439434200,2.985434326171875,6.575573737332224,3.7642093259006737,1.707965801271051
1782985776449508000,2.995508056640625,6.833287100407481,3.932471258370578,1.655105002568662
1782985776459582200,3.005582275390625,7.019917925521731,4.053899543473125,1.5682199153199792
1782985776469656300,3.01565625,7.077018115359544,4.233768911628425,1.4695948520474136
1782985776479729400,3.0257294921875,6.810301361617445,4.390235192364454,1.226709494139254
1782985776489803300,3.03580322265625,6.155668409350514,4.529523251545429,0.8689237185273319
1782985776499877000,3.045877197265625,5.577352388566732,4.645981054759026,0.5959621155789122
1782985776509951200,3.055951171875,4.90830512650013,4.786241758364438,0.37684155454188584
1782985776520025300,3.066025390625,4.199422697651386,4.864525606006383,0.055043522169487547
1782985776530098200,3.07609814453125,3.7972669613718986,4.809660043352842,-0.09813831180208361
1782985776540172300,3.08617236328125,3.4447967547595497,4.390846017739176,0.05836395356277935
1782985776550246100,3.09624609375,2.5349171217918394,3.348541781619191,0.7145497338954359
1782985776560320300,3.1063203125,0.856552531927824,1.7841332412809132,1.691333815421909
1782985776570394400,3.116394287109375,-1.315340256011486,-0.07788052753806114,2.8813208679720756
1782985776580468500,3.126468505859375,-4.235407618746161,-1.8516233077079056,4.390499396258592
1782985776590541300,3.136541259765625,-7.27344903447628,-2.8239614426761865,4.850689680616557
1782985776600615200,3.146615234375,-9.085596071842312,-2.045145061379671,3.4341146172255277
1782985776610689300,3.156689208984375,-9.820277543336152,-0.8009229991644621,2.10738685188964
1782985776620763400,3.166763427734375,-9.798159235030413,-1.5406278517782688,2.8241125415846704
1782985776630837200,3.176837158203125,-10.00790088661909,-4.117755052790045,5.3532595555424685
1782985776640910300,3.186910400390625,-9.515047226804494,-6.2447168121129275,7.331742233490943
1782985776650984200,3.196984130859375,-8.539399528896809,-6.738849405822157,6.756043117207288
1782985776661058300,3.207058349609375,-9.151664581033588,-6.618001258695125,4.700466970445215
1782985776671132400,3.21713232421875,-11.375113953208922,-6.017934593874216,2.4004097210161386
1782985776681206300,3.227206298828125,-12.980797922265529,-4.0756536946415896,-0.41719782258868215
1782985776691279400,3.237279296875,-13.353526488530635,-1.4501985160514712,-2.4602441581234333
1782985776701353200,3.247353271484375,-11.009004512822628,0.3757008600741625,-2.6779461210668085
1782985776711427300,3.25742724609375,-6.820955442100763,0.7300009124621748,-1.401864254862815
1782985776721501400,3.26750146484375,-2.8092338291436434,0.04414104728251696,0.49887218945175404
1782985776731575300,3.2775751953125,-0.17745675405561923,-0.8192986138105391,1.8413497509747743
1782985776741649400,3.2876494140625,0.9887117621421814,-1.4618381004408,2.488675887359679
1782985776751722200,3.29772216796875,1.3043880693644285,-1.7919427459880708,2.317594805815816
1782985776761796400,3.30779638671875,1.0602104796886442,-1.936933692985773,1.123455455891788
1782985776771870500,3.317870361328125,0.6108873340427875,-1.7296709987312555,-0.16832359952926634
1782985776781944300,3.3279443359375,0.4534627296686172,-1.2227049346730112,-1.1013770412050188
1782985776792018400,3.338018310546875,0.533688359028101,-0.5268181809976696,-1.4881770951814948
1782985776802091300,3.34809130859375,1.204945113837719,0.14985183103233574,-1.0747503155641258
1782985776812165400,3.358165283203125,1.3680144461005925,0.5883996079027652,-0.2308607197239995
1782985776822239500,3.368239501953125,1.1056529649585485,0.8094935513719916,0.135815085840784
1782985776832313300,3.378313232421875,1.4939572860181332,1.0080316719010471,0.13638901327122002
1782985776842387200,3.38838720703125,2.3097318173557517,1.1491133365005255,-0.1533667072854936
1782985776852461300,3.39846142578125,2.9894822597444057,1.1297329287260771,-0.5367596196996047
1782985776862534400,3.408534423828125,3.076372023168206,1.059873210558295,-0.8955614770188927
1782985776872608300,3.418608154296875,3.1115532266646624,1.0674152965009212,-0.9955019337389618
1782985776882682400,3.428682373046875,3.3246032721489667,1.3662030127644538,-0.8932365412026643
1782985776892756200,3.438756103515625,3.750314656060934,1.6904346746250987,-0.6303399302706122
1782985776902830300,3.448830322265625,4.293395697334408,1.8578826603636145,-0.3427553797405213
1782985776912903400,3.4589033203125,4.727799506267905,1.9074243976458907,-0.10388773304112255
1782985776922977300,3.468977294921875,4.991510648453235,1.8621517159849403,0.07119272033721208
1782985776933051400,3.479051513671875,5.2750189625203605,1.8105486622586846,0.07746336157191544
1782985776943125200,3.489125244140625,5.623799082443118,1.8179115922421216,-0.1816252719119191
1782985776953199400,3.499199462890625,6.0277697591900825,1.9247431967154145,-0.22766382337883115
1782985776963273200,3.509273193359375,6.26753830025196,1.819020722527802,-0.1797767945010215
1782985776973346300,3.51934619140625,6.274534442749619,1.4446584175810218,-0.2873171317655593
1782985776983420400,3.52942041015625,6.124843647497892,1.1197490025892853,-0.6069132793126627
1782985776993494300,3.539494384765625,6.020415889295935,1.0570745197504758,-1.1623135212700813
1782985777003568400,3.549568359375,5.844267879751325,1.3256515144065022,-1.708044419465214
1782985777013642200,3.559642333984375,5.659783419016003,1.6172689006492496,-2.1086384593859315
1782985777023715300,3.56971533203125,5.517781424701213,1.7022464007109404,-2.258596965663135
1782985777033789400,3.57978955078125,5.108069573953747,1.6213491557002067,-2.2584015892215072
1782985777043863300,3.58986328125,4.03475469802022,1.527035379755497,-2.2860095809847114
1782985777053937200,3.599937255859375,2.7276971171855924,1.3944003487229346,-2.4367272350661455
1782985777064011300,3.61001123046875,1.7101888841480015,1.1832874087810517,-2.782786843983829
1782985777074085000,3.620085205078125,0.9689935007154941,0.7068325105816126,-3.347467722646892
1782985777084158500,3.630158447265625,0.18102292210459708,0.13343757958710192,-3.7996728534698483
1782985777094232300,3.640232421875,-0.573306668189168,-0.121016489431262,-3.797884801009297
1782985777104306200,3.65030615234375,-1.9339836110085247,0.16260960579663514,-2.582635735300183
1782985777114380300,3.66038037109375,-4.695868828999996,0.4883583942219615,-0.5700213629081845
1782985777124454100,3.6704541015625,-7.374287243753671,0.6670631025120616,0.5411890900470316
1782985777134527200,3.68052734375,-8.169898692506552,0.7814221798807383,-0.20556305072978137
1782985777144601300,3.690601318359375,-8.071706613823771,-0.29772300964146853,-1.8618498104289174
1782985777154675200,3.70067529296875,-8.737061451113224,-2.3583345202222463,-2.958423689135909
1782985777164749300,3.710749267578125,-10.495878464829921,-3.5386785690277813,-3.0455127745240924
1782985777174823200,3.7208232421875,-12.216135738527774,-3.5541689836263655,-2.0092213689528404
1782985777184896300,3.730896240234375,-12.262238149011134,-4.010757736361026,-0.8943610151879489
1782985777194970400,3.740970458984375,-10.812656595814227,-5.667742853587866,0.1606244598614052
1782985777205043700,3.751043701171875,-9.341059025642275,-7.502242592537403,1.0444221781220286
1782985777215117800,3.761117919921875,-8.90540258629918,-7.823227527561784,0.5388497238466515
1782985777225192000,3.77119189453125,-9.187854669311642,-6.447993067079782,-0.8670724646374582
1782985777235266000,3.78126611328125,-9.354128350573777,-4.7079991195157165,-1.6656690666809677
1782985777245339000,3.7913388671875,-9.22582871839702,-3.767090142033994,-1.7431930358663201
1782985777255412700,3.801412841796875,-8.655421863302587,-3.7703088118195534,-1.4631483062565327
1782985777265486800,3.81148681640625,-7.8699027694970365,-3.823935480327904,-1.5008663347542286
1782985777275561000,3.82156103515625,-6.3871227110534905,-3.4815789637118577,-2.0587956933304667
1782985777285635000,3.831635009765625,-3.6723376824110745,-3.2816470507368445,-2.707452201536298
1782985777295709000,3.841708984375,-0.8284756074786186,-3.265785756999254,-2.9135674793213604
1782985777305781800,3.85178173828125,1.3532213661164045,-2.8861566175654527,-2.313412843956053
1782985777315856000,3.86185595703125,2.9296733954697847,-2.0179200775846837,-0.5233854300700128
1782985777325930000,3.871929931640625,3.2132009987592696,-0.8424950727418065,2.2026507681660354
1782985777336003800,3.88200390625,2.5914263599991796,0.14826616927608846,4.8621445560887455
1782985777346078000,3.892077880859375,2.0850123768657443,0.7690677252203225,6.407043217054009
1782985777356150800,3.90215087890625,1.9219190792053937,1.0073705776438115,6.710635703250765
1782985777366224600,3.912224609375,2.20589208817482,0.6479433915004134,6.270132992920279
1782985777376299000,3.922299072265625,2.9341742140203713,-0.04742679095491767,5.381465074807405
1782985777386372900,3.932372802734375,4.045414039200544,-0.534428656001389,4.153098168849945
1782985777396447000,3.942447021484375,5.437511956200003,-0.7835308425977826,2.8610043483912944
1782985777406520800,3.952520751953125,6.630246992284059,-1.0709446396708489,1.836089784619957
1782985777416593700,3.96259375,7.777938187026977,-1.3992813987627624,1.0299417442835868
1782985777426668000,3.97266796875,8.876263001054525,-1.2732590638682246,0.4753717791378498
1782985777436742000,3.982741943359375,9.318179669836162,-0.40454906115680933,0.32007395765930413
1782985777446816000,3.99281591796875,9.259412423568964,-0.16897241882681846,0.6426290646098554
1782985777456888800,4.002888916015625,9.117008278194069,0.16582973688691854,1.347449066325277
1782985777466962700,4.012962646484375,8.849932628011702,0.9473951246306299,2.4958447560757397
1782985777477037000,4.023037109375,8.418714463376999,1.430336169978976,3.627919279491901
1782985777487111000,4.03311083984375,7.886613665801287,1.4657625804081558,4.504177213364839
1782985777497185000,4.04318505859375,6.652113956177234,1.398118492463231,5.29079754641056
1782985777507257900,4.0532578125,5.453198770153522,1.188318388685584,4.83798275925666
1782985777517331700,4.063331787109375,5.544261435347795,1.7192159479513764,3.1760558017134666
1782985777527406000,4.073406005859375,5.962484509330988,2.5202377313151954,1.6651916584275661
1782985777537480000,4.08347998046875,6.239201848083734,2.8533471116364,0.6577310644127428
1782985777547553800,4.0935537109375,6.208168996438384,2.8737402035847306,0.24926132268086074
1782985777557628000,4.1036279296875,6.0886623270481826,2.8876936178743837,0.3665940090328455
1782985777567700700,4.11370068359375,5.9223874767422675,3.007565613445639,0.8067555047102272
1782985777577775000,4.123775146484375,5.870509405466914,3.2447312785327433,1.2964881098948418
1782985777587849000,4.133848876953125,5.993721359115838,3.5387653705283997,1.5577591654516756
1782985777597922800,4.1439228515625,6.281437646266817,3.7818694857537745,1.4955191285073757
1782985777607997000,4.153996826171875,6.675027214252949,3.8755145686566825,1.2493167550057171
1782985777618070800,4.16407080078125,7.007112219962477,3.5720506772756573,0.8769511768341064
1782985777628143900,4.174143798828125,7.2094064781546585,2.775253818130493,0.5682909589190036
1782985777638218000,4.184218017578125,6.936214975440501,1.9039216502219438,0.6797973502703011
1782985777648291800,4.194291748046875,5.834169095063209,1.191236906480789,1.202834259163588
1782985777658366000,4.204365966796875,3.61579863358736,0.09850655145943164,1.9616887795358895
1782985777668439800,4.214439697265625,0.25496494114995,-1.5503040271401405,2.9832568093582985
1782985777678513000,4.224512939453125,-4.764198268860579,-3.53562210406661,4.201903993073105
1782985777688587000,4.2345869140625,-11.709385655307768,-4.941361008405685,4.6527089017093175
1782985777698660900,4.244660888671875,-20.034878229629992,-4.560362626445293,2.7613790220350025
1782985777708735000,4.25473486328125,-25.815175449252127,-2.577539288944006,-0.9319024450097233
1782985777718808800,4.264808837890625,-26.319809563231466,-0.6993316334322095,-3.242689835833013
1782985777728882700,4.274882568359375,-23.99667875059843,-0.9254328836694359,-1.8708330350905655
1782985777738956000,4.2849560546875,-20.851212148416042,-2.658084651777148,1.514340879485756
1782985777749030000,4.29502978515625,-17.70475887328386,-4.5018926095589995,4.547399684497714
1782985777759103700,4.305103759765625,-14.401555532038211,-6.080635087937116,6.147354754513501
1782985777769177900,4.315177734375,-11.575562875795363,-7.180009118756652,6.743597477132082
1782985777779251700,4.325251708984375,-9.75394424572885,-7.8931655716627835,6.469634990045428
1782985777789325000,4.335324951171875,-9.576883212992549,-7.8808134550899265,5.375969984522461
1782985777799399000,4.34539892578125,-11.258099685156346,-5.580767749968171,3.3187060308039187
1782985777809472800,4.35547265625,-13.553236575448512,-1.4831336941868065,0.20773199226669967
1782985777819547000,4.365546875,-12.415817768394946,4.128101382498443,-4.020878732880949
1782985777829620700,4.375620849609375,-8.762095354604721,3.06214446811229,-3.738743460732698
1782985777839695000,4.385695068359375,-5.474563045221567,1.5013874360188841,-3.269897576232254
1782985777849769000,4.39576904296875,-2.538222593078017,1.100133617015183,-3.4511084221243857
1782985777859842800,4.4058427734375,0.15734861652851104,1.642689757631719,-3.6741011849522587
1782985777869917000,4.4159169921875,2.409883797934651,2.5650626692086456,-2.7681919169202445
1782985777879989800,4.42598974609375,3.8025592225611207,3.014896394725144,-0.6592393500838428
1782985777890064100,4.436064208984375,4.328834090462327,2.6469690912619233,1.5289453050300479
1782985777900138000,4.446137939453125,4.388795514950156,2.2167145109623667,2.618335701973736
1782985777910211800,4.4562119140625,4.7243479045093055,2.230580100838095,2.615284497709572
1782985777920286000,4.466285888671875,5.239433269876241,2.1967567416913805,2.1085246237479147
1782985777930358800,4.47635888671875,5.724515711167454,1.5827829859405755,1.5076210697114467
1782985777940433000,4.486432861328125,6.34199060690701,0.580919481280446,0.7519204833254217
1782985777950507000,4.496507080078125,6.917332580316066,0.015033172350376843,0.15772926814286037
1782985777960580900,4.506580810546875,7.206074703383445,0.018817513194680214,-0.3451017967361957
1782985777970655000,4.516655029296875,7.4428902398586265,0.23832769460380077,-0.6390979678742588
1782985777980728800,4.526728759765625,7.6343024540305136,0.6700222445785999,-0.6443140950873494
1782985777990802000,4.536802001953125,7.885416564971208,1.2619473962590098,-0.18384579750560223
1782985778000876000,4.5468759765625,8.193489995974302,1.7460381961643694,0.5035104071790352
1782985778010950000,4.556949951171875,8.485843295276165,1.7199240962207316,1.0211085225518792
1782985778021024000,4.56702392578125,8.600786017751693,1.4891700517416,1.2199091664746402
1782985778031097900,4.577097900390625,8.613332780113815,1.479386324352026,1.2114095606114714
1782985778041171000,4.5871708984375,8.523688165023922,1.692032172949612,1.147232052798569
1782985778051245000,4.5972451171875,8.248104214215278,1.9964438665747641,1.1258297107424586
1782985778061319000,4.60731884765625,8.118383609324693,2.3443390203565357,1.3384789934061467
1782985778071392800,4.617392822265625,8.22201057253778,2.39574947412014,1.7813383498653768
1782985778081467000,4.627466796875,8.353890985810756,2.5048341182172296,1.9685189178168772
1782985778091540700,4.637540771484375,8.428685237771273,2.866949228270352,1.814517419759184
1782985778101614000,4.647614013671875,8.423269057941436,3.11037278470844,1.9963572112046182
1782985778111688000,4.65768798828125,8.909726294717192,2.767465356211364,1.968237762787938
1782985778121761800,4.66776171875,9.158233438029885,2.7243451764091846,1.7847016888186336
1782985778131836000,4.6778359375,9.299000922113656,3.0433152644798156,1.6276273591868577
1782985778141909800,4.68790966796875,9.493680029127,2.8274150902613995,1.1663383928719908
1782985778151983900,4.69798388671875,9.674123690038918,2.467667293861508,0.4600784214813262
1782985778162057000,4.708056884765625,9.77632325079739,2.548530344341695,-0.2346844792632386
1782985778172130800,4.718130859375,9.994074605840444,2.5835753542378543,-0.843696484420821
1782985778182205000,4.728204833984375,10.291147334879636,2.590659175018966,-1.2903357247449456
1782985778192278800,4.73827880859375,10.576357776689528,2.6008055982410907,-1.5843858910925686
1782985778202353000,4.748352783203125,10.696413896656036,2.618482709228992,-1.957572722519189
1782985778212426000,4.758426025390625,10.668017823255061,2.605687525063753,-2.415131050938368
1782985778222500000,4.7685,10.340056619477272,2.289879992677271,-2.754944020551443
1782985778232574000,4.778573974609375,9.61147638746798,1.8456588463455437,-2.910392064155638
1782985778242648000,4.78864794921875,8.560666773331166,1.471771173173189,-2.7748411456763744
1782985778252722000,4.798721923828125,7.07993487958908,1.0693927340537308,-2.516269704467058
1782985778262796000,4.808796142578125,2.831443907386064,0.42209085532724855,-2.067749107375741
1782985778272869000,4.818869140625,-0.8534498897373676,0.02653261761665344,-2.7344883847609163
1782985778282943000,4.82894287109375,-3.78228858794868,0.4080070926561951,-3.226609638647735
1782985778293016800,4.839016845703125,-7.9990458667606115,0.35847909163832664,-2.5865681063130497
1782985778303091000,4.849091064453125,-13.582825073504447,0.11984510756433009,-0.4614247215237468
1782985778313165000,4.8591650390625,-17.879897998046875,-0.47320992492884395,1.7874381280452012
1782985778323239200,4.8692392578125,-18.63963383129835,-1.5152821058586239,1.7939535012885928
1782985778333312000,4.87931201171875,-17.68042055084109,-3.209676916286349,-1.1710269160144031
1782985778343385900,4.8893857421875,-17.922158930671213,-5.171514164382219,-5.1793210387408735
1782985778353460000,4.8994599609375,-20.230382097029686,-5.440151072531938,-8.328502862054108
1782985778363534000,4.9095341796875,-21.17251681691408,-4.184764349962771,-9.155310828581452
1782985778373608200,4.919608154296875,-19.44621324878931,-4.418282890719175,-7.652551811948419
1782985778383682000,4.92968212890625,-16.539708547461032,-6.537177078920602,-5.4411424216568465
1782985778393755000,4.9397548828125,-13.258880704152583,-7.6494474161922925,-4.776955751363933
1782985778403829000,4.9498291015625,-10.715230825328826,-7.297185883894563,-5.455995707395672
1782985778413903000,4.959903076171875,-10.648377887761592,-5.919738423538208,-5.195480146381259
1782985778423977000,4.96997705078125,-12.78843878263235,-4.059390834365785,-3.7322380243614313
1782985778434051000,4.980051025390625,-15.300986251705885,-1.5173115658596157,-1.8306714128330348
1782985778444124000,4.9901240234375,-15.853878492897747,-0.30733211111649866,-0.48375133881792426
1782985778454198000,5.000197998046875,-13.671008383870124,-0.6412517849072814,0.11828054339503868
1782985778464272100,5.010272216796875,-10.279601858514546,-1.1455134123124182,-0.05984360679443925
1782985778474346000,5.020345947265625,-6.706608931952714,-2.013544054457545,-1.6587275769799947
1782985778484420000,5.030420166015625,-3.804181855326891,-2.4932412955790757,-4.075414040666819
1782985778494494000,5.040493896484375,-2.278321364569664,-2.2819394089363514,-5.839849478787183
1782985778504566800,5.05056689453125,-1.3708885402321815,-1.9613833668485283,-6.530281474187969
1782985778514641200,5.06064111328125,-0.31443244464099407,-1.4271959722571075,-5.796538160327077
1782985778524715000,5.070715087890625,0.9873252762198448,-1.1052366392426192,-3.725746616515517
1782985778534789000,5.0807890625,2.4214240136027336,-1.0185212094724179,-1.1607789321139454
1782985778544863000,5.090863037109375,3.663752224895358,-0.8289040620237589,0.9839740660957992
1782985778554937000,5.10093701171875,4.902055418455601,-0.5359216710381209,2.2497275766395033
1782985778565010200,5.11101025390625,6.064730831840634,-0.19447320917770267,2.6796318821966647
1782985778575084000,5.121083984375,6.8418883400142185,-0.1935987644307315,2.757772521975636
1782985778585158100,5.131158203125,7.487710209316015,-0.3668184654384851,2.4532766571983693
1782985778595232000,5.14123193359375,7.922379391187429,-0.40824367789104576,2.011640558923781
1782985778605305900,5.151305908203125,8.188405824577808,-0.4788922083489597,1.3230968614876268
1782985778615379200,5.161379150390625,8.397683950307965,-0.21258739640861748,0.6448675642516464
1782985778625453000,5.171453125,8.631761001729965,0.5221218398749828,0.3250198165636509
1782985778635527000,5.18152685546875,8.529460903206466,1.2105705525040626,0.45929048597402866
1782985778645601000,5.19160107421875,8.205594859787821,1.5384962465770542,0.9035532064251601
1782985778655675000,5.2016748046875,7.852658789229393,1.5539141804613172,1.4227069902747869
1782985778665749000,5.2117490234375,7.385603003016114,1.4563326348923147,1.918504740717262
1782985778675822000,5.221822021484375,6.7935963105320925,1.5420584691032766,2.359899869842827
1782985778685896000,5.23189599609375,6.42131022733748,1.4072851108677684,2.381513735757768
1782985778695970000,5.241969970703125,6.23191695177257,0.9495008647382259,1.7853129525847733
1782985778706044000,5.2520439453125,5.976036649343371,0.6539022999048233,0.874563843306154
1782985778716118000,5.262117919921875,5.040218857520818,0.8330423308722674,-0.09668547351211308
1782985778726191900,5.27219189453125,4.138184677356481,1.3725449291370808,-0.9445189116071909
1782985778736265000,5.282264892578125,4.289889735040068,2.144914910773188,-1.3863412531688808
1782985778746339000,5.292339111328125,5.204824313309788,2.721842545938492,-1.3115864564359188
1782985778756413000,5.302412841796875,6.180910987156629,2.7954116400182247,-0.5747412310369312
1782985778766487000,5.312487060546875,7.247180036231875,2.662833015348017,0.5712853184293956
1782985778776561000,5.322560791015625,8.229894603785873,2.7635312316328284,1.6925316469043492
1782985778786635000,5.332635009765625,8.77006004987359,2.7903672161102295,2.383897123762965
1782985778796708000,5.3427080078125,8.878378385773301,2.8515184349045155,2.6221710423529148
1782985778806782000,5.352781982421875,8.744673679682611,2.922826598314941,2.5265938223436475
1782985778816855800,5.362855712890625,8.511088795691728,2.8721994038835166,2.1397890921920535
1782985778826930000,5.372929931640625,8.083391206398606,2.750647200140357,1.8747101687848566
1782985778837004000,5.383004150390625,7.270307229319214,2.5552137676283717,1.4730015917509793
1782985778847078100,5.393078125,5.99047258645296,2.3217340975776315,0.8790493181571364
1782985778857151000,5.40315087890625,4.817067104738951,2.269677162604034,0.3782997174609452
1782985778867224800,5.413224853515625,4.050100735712051,2.2704300267979503,-0.026549130360037088
1782985778877299000,5.423298828125,3.012580226737261,1.9781936318740247,0.04372402744684368
1782985778887373000,5.433373046875,1.338089263436198,1.3564043800666927,0.8508915104914456
1782985778897447200,5.443447265625,-0.9627718497216701,0.35377339816540476,2.386147533038258
1782985778907520000,5.45352001953125,-3.511121869060397,-0.45871027493327854,4.326566145530343
1782985778917593900,5.46359375,-5.723109936022758,-0.6541428306624293,6.0857806341320275
1782985778927668000,5.47366796875,-8.287275364130736,-1.3325383513107896,7.237672787696122
1782985778937742000,5.4837421875,-10.518350993400812,-2.916769782494008,7.208067338505387
1782985778947816000,5.49381591796875,-12.561174333834648,-4.495191650615633,5.577941586631536
1782985778957890000,5.50389013671875,-16.398638865560294,-5.335735004767775,3.123630910210311
1782985778967963000,5.513962890625,-20.551950969421863,-5.012150116378069,1.2069002664934843
1782985778978037000,5.524037109375,-21.362479416799545,-4.386696789105236,-0.13949021242326123
1782985778988111000,5.534111083984375,-19.77803697321415,-4.847665656620264,-0.9648645842172204
1782985778998185000,5.54418505859375,-18.1200266045928,-6.356375106090307,-0.7405488291572779
1782985779008259000,5.554259033203125,-17.694069136965275,-6.722464088210463,-0.3640429363105446
1782985779018333000,5.5643330078125,-17.66057837077379,-4.8938233044222,-0.573369065900892
1782985779028406000,5.574406005859375,-17.203627214467524,-2.7036969406560063,-0.3249415636956692
1782985779038480100,5.584480224609375,-15.817033740103243,-1.7011469150364398,0.36733854378983377
1782985779048554000,5.594553955078125,-12.87249653750062,-1.4299550617069006,0.7098417754001916
1782985779058628000,5.604628173828125,-9.110115596070886,-1.136062716269493,0.6359335855592042
1782985779068702000,5.614701904296875,-5.730992798227072,-0.7940314860850572,0.502095973803848
1782985779078776000,5.624776123046875,-2.991504705482721,-0.4284527915745973,0.3032328591041267
1782985779088849200,5.63484912109375,-0.8648433904111384,0.022928747905790803,0.10706921262145042
1782985779098923000,5.644923095703125,0.830738876235485,0.2916214778959751,-0.060651964035257695
1782985779108997000,5.6549970703125,2.2284406045913694,0.43915100346058605,-0.10993534264229238
1782985779119071000,5.665071044921875,3.288707198381424,0.5529837188675999,-0.0506674533765763
1782985779129144800,5.675144775390625,4.1415801650136705,0.7308356097206473,0.14473127314820886
1782985779139218200,5.68521826171875,4.991355165630579,1.0218585372015834,0.3087115097109228
1782985779149292000,5.6952919921875,5.727842225241661,1.2671172001123427,0.4798138897711411
1782985779159366000,5.705365966796875,6.403970970001817,1.4685235695540904,0.693255382258445
1782985779169440000,5.71543994140625,7.199212416398525,1.4507278006225823,0.6055345748379826
1782985779179513900,5.725513916015625,7.914740274611115,1.3907985248386858,0.4003746615489945
1782985779189588000,5.735587890625,8.217269515490532,1.5524311022967099,0.3075702672539279
1782985779199661300,5.745661376953125,8.056178205302357,1.8844538564249873,0.33550394730754196
1782985779209735400,5.7557353515625,7.667365934720635,2.0690496685802935,0.46237957456316797
1782985779219809300,5.765809326171875,7.264367902398109,2.1180065917119384,0.6254492356196045
1782985779229883100,5.775883056640625,6.9407812604427335,2.2606401619285346,0.8061934138480573
1782985779239957200,5.785957275390625,6.701157680809497,2.5134008710324762,0.9793172532659024
1782985779250031400,5.79603125,6.530903405478596,2.790006273843348,1.0589807917632161
1782985779260104400,5.8061044921875,6.369978099507093,2.887763760501146,0.9110999685429036
1782985779270178300,5.81617822265625,6.184292446288466,2.7900428064614533,0.6513385868966579
1782985779280252200,5.826252197265625,5.906010926958918,2.62494956715554,0.3123907096803188
1782985779290326300,5.836326171875,5.764767642056942,2.521528647908568,-0.08613759334962814
1782985779300400400,5.846400390625,5.909603983014821,2.6828976059943437,-0.4261806453915313
1782985779310474500,5.856474609375,6.101988257089257,3.0650995185256003,-0.6099169181080535
1782985779320547300,5.86654736328125,6.271508372926712,3.418319374461472,-0.7354113201383501
1782985779330621200,5.87662109375,6.346537602686881,3.6589065384298562,-0.8236287519693374
1782985779340695300,5.8866953125,6.460636275553703,3.863687645001709,-0.7813658465836196
1782985779350769400,5.896769287109375,6.644629153379798,4.172128155751526,-0.6403088049687444
1782985779360843500,5.906843505859375,6.8811594431728125,4.498086495274305,-0.5157596113666891
1782985779370917400,5.91691748046875,7.230837973240018,4.506102628469467,-0.5995610533863306
1782985779380990200,5.926990234375,7.65083273307085,4.358600575433671,-0.8566336343400179
1782985779391064300,5.937064208984375,8.083633782982826,4.274829236291349,-1.0217091918587684
1782985779401138400,5.947138427734375,8.274311253139377,4.203812164781987,-1.2124887341503052
1782985779411212300,5.95721240234375,8.327069029858707,4.188595598688721,-1.4415340019501746
1782985779421286400,5.967286376953125,8.250550438323616,4.402894475190341,-1.424447842592746
1782985779431360300,5.9773603515625,8.004844908428192,4.532778161688149,-1.5397244731977582
1782985779441433000,5.98743310546875,7.348168467634916,4.287904698702692,-1.9628439409203826
1782985779451507500,5.997507568359375,5.868765776669979,3.7659757510513066,-2.155273369310796
1782985779461581300,6.007581298828125,3.9064071350485086,2.753002531094849,-1.873595047149807
1782985779471655400,6.017655517578125,2.4867998643547296,1.4824506803587079,-1.3902258395172655
1782985779481729300,6.027729248046875,1.4352613514214754,0.25227877080589534,-0.8190128556717187
1782985779491802000,6.037802001953125,0.27837270474433895,-1.254287529155612,-0.07214118016846477
1782985779501876500,6.04787646484375,-0.9769745625972748,-3.288943052963912,0.31580749585386364
1782985779511950300,6.057950439453125,-2.8081477874726057,-5.533703216454386,-0.8779107425812631
1782985779522024400,6.0680244140625,-4.240401189249754,-7.282314477977156,-3.8373572719588873
1782985779532098300,6.078098388671875,-6.260735634499788,-7.963204153528809,-6.604025340312719
1782985779542172200,6.088172119140625,-9.679877138999103,-7.301886024409532,-7.182011690750718
1782985779552245500,6.09824560546875,-13.233629358518122,-6.026378597092628,-5.407725889745354
1782985779562319400,6.1083193359375,-14.754908366703987,-4.863412384067476,-2.5104411444440484
1782985779572393500,6.1183935546875,-12.419462846899032,-3.9692946761161085,-0.12174052025633864
1782985779582467300,6.12846728515625,-7.773846533799171,-3.6220755218997596,1.1475802086491138
1782985779592541200,6.138541259765625,-5.09377801375091,-3.983145799075067,2.045525000607967
1782985779602615300,6.148615234375,-6.801261730593443,-3.6258112012967465,2.0735906730107962
1782985779612688400,6.1586884765625,-10.648153431355952,-1.5992765862323344,0.3551028201382607
1782985779622762200,6.16876220703125,-13.947251090848445,0.2527003572188318,-1.4754557069048284
1782985779632836400,6.17883642578125,-16.194433805310727,0.35535511439889667,-2.2159052404060957
1782985779642910200,6.18891015625,-16.56843429120779,-0.8783544677607714,-2.4683736885651943
1782985779652984300,6.198984375,-14.504637136328219,-2.285537141167372,-3.344118119958043
1782985779663058200,6.20905810546875,-11.119926893740892,-3.2642315132945776,-4.939973353439569
1782985779673131300,6.21913134765625,-7.693125229877233,-3.4613828556403514,-5.912186400723457
1782985779683205400,6.229205322265625,-4.857054831734299,-3.180532654866576,-5.777846319338679
1782985779693279200,6.239279296875,-2.8432863208711145,-2.296332675947994,-4.424761146822571
1782985779703353300,6.249353271484375,-1.7348966244250534,-1.365590726085007,-2.0451001993246374
1782985779713427200,6.25942724609375,-1.221491174969077,-0.7868362408187239,0.7645032668489963
1782985779723501300,6.269501220703125,-0.7798813801795244,-0.1821389935877174,3.182265177747607
1782985779733574400,6.279574462890625,-0.0034989480316638946,0.46845947899874296,4.7258033640146255
1782985779743648300,6.289648193359375,0.9426830014169215,0.7955386757776141,5.236791230934858
1782985779753722000,6.29972216796875,1.9772037440538406,0.6886934081051498,4.862693129882216
1782985779763796200,6.309796142578125,3.164198190659284,0.543352186365053,3.8674209863111373
1782985779773870300,6.319870361328125,4.155425735014677,0.3835340379178524,2.5318571496993303
1782985779783944400,6.3299443359375,4.804541969686746,0.16704291206896305,1.3458862009227275
1782985779794017300,6.340017333984375,5.174221085253357,0.0010123919129371643,0.6252079742096364
1782985779804091100,6.350091064453125,5.341964254546165,-0.0797259362090379,0.3484936311315745
1782985779814165200,6.360165283203125,5.271559761977195,-0.06650558543428778,0.29542872469183057
1782985779824239400,6.3702392578125,4.982485045954585,0.16504859644658862,0.40095227877385914
1782985779834313500,6.3803134765625,4.616849652820825,0.45286615201495584,0.42418969077002255
1782985779844386300,6.39038623046875,4.395341575592756,0.8045744343440979,0.4829598231140524
1782985779854460200,6.400460205078125,4.229189474883675,1.003898736814782,0.5543284845400601
1782985779864534300,6.4105341796875,4.194151479250192,1.1553966545537113,0.6599508593540638
1782985779874608400,6.4206083984375,4.554939432352781,1.1877934149634093,0.5906213756054639
1782985779884682500,6.4306826171875,5.076920402452349,1.1491902011290192,0.3902751827411353
1782985779894756400,6.44075634765625,5.3952773270606995,1.323721715387702,0.18872260976172983
1782985779904829200,6.4508291015625,5.4457788492858406,1.5787981540881095,-0.04931408427255228
1782985779914903300,6.4609033203125,5.563398097494244,1.8108618198610842,-0.3573395662143826
1782985779924977400,6.470977294921875,5.769081413602828,2.0580920751057565,-0.7563038860414176
1782985779935051300,6.48105126953125,5.838323292133212,2.2876675773248074,-0.8091031638149172
1782985779945125400,6.49112548828125,5.804933648228645,2.4737603500396013,-0.6497893846932798
1782985779955199200,6.50119921875,5.535310651651025,2.595196526187658,-0.32251850126720966
1782985779965272000,6.51127197265625,5.014577635785937,2.6363398529589173,-0.057012219293415545
1782985779975346400,6.521346435546875,4.255422232770919,2.8778578680366276,-0.13613244469426572
1782985779985420300,6.531420166015625,3.890880480092764,3.406463224712014,-0.6950855933602899
1782985779995494400,6.541494384765625,4.225471331143379,3.7142160454586146,-1.387637868850678
1782985780005568300,6.551568359375,4.735597028276324,3.639646834425628,-1.69051621542871
1782985780015642400,6.561642333984375,4.681736843273043,3.5626445510268208,-1.282954528452456
1782985780025715500,6.571715576171875,3.747369250258803,3.7774882019296285,-0.40089360738918184
1782985780035789300,6.581789306640625,1.7671832755237817,4.08865229242444,0.7408383866883814
1782985780045863400,6.591863525390625,-0.21589315995573996,4.109321570965648,1.8508881253011524
1782985780055937300,6.601937255859375,-0.7466600785791874,3.1591338930070396,2.6658833428293467
1782985780066011100,6.61201123046875,-0.1506967574238777,0.9023480684190988,2.9257717118561266
1782985780076085200,6.622085205078125,0.6667442458212375,-1.7559937729895114,2.8765342182174325
1782985780086158300,6.632158447265625,0.4674105910003185,-4.010673565208911,2.965876343229413
1782985780096232400,6.642232421875,-1.9213865797638892,-5.143666372513771,3.1895752085000275
1782985780106306300,6.652306396484375,-5.7707964008271695,-4.717823471176624,2.731651992291212
1782985780116380200,6.662380126953125,-8.591433667516707,-3.5694098073780536,1.8184315244629978
1782985780126454300,6.672454345703125,-9.463638526606559,-2.97033916785717,1.898760906457901
1782985780136528100,6.682528076171875,-9.144721045506,-3.6371202385574577,3.3755592601433393
1782985780146601200,6.692601318359375,-8.068801540032029,-4.906844406297803,4.48322181135863
1782985780156675300,6.70267529296875,-5.792328433677554,-6.284404094856977,3.8815450809925793
1782985780166749200,6.712749267578125,-3.3402567683547733,-8.048852392458915,2.6173300320625303
1782985780176823300,6.7228232421875,-1.988470987999439,-9.934884750247,1.4610983879894017
1782985780186897200,6.732897216796875,-1.9924200178861617,-10.460984846103191,0.09115480045713484
1782985780196971500,6.742971435546875,-3.288133782407641,-8.791088224855065,-1.2525140897423028
1782985780207043300,6.753043212890625,-4.805550854468345,-5.870989882460236,-2.171236369857192
1782985780217117200,6.7631171875,-6.274907367715239,-3.0316648664355275,-2.62500509673506
1782985780227191300,6.77319140625,-7.303382984969019,-1.1256640718519686,-2.7238199834913015
1782985780237265400,6.783265380859375,-7.724795794904232,-0.0068085109710693354,-2.4208587809354065
1782985780247339300,6.79333935546875,-9.270361103084683,0.5990297229886055,-1.7344762070558963
1782985780257413400,6.803413330078125,-11.365927607190608,1.2698708827346563,-0.9884488734222948
1782985780267486200,6.813486328125,-12.138603586035966,1.7208438414141536,-0.5752138169847428
1782985780277560300,6.823560302734375,-11.029481483662128,1.3851032358065247,-0.3087552757874131
1782985780287634400,6.833634521484375,-8.442107029402255,0.4392822286248207,-0.09279007350876926
1782985780297708300,6.843708251953125,-5.216090972733498,-0.49408670874089,-0.23167276675924658
1782985780307782400,6.853782470703125,-1.819900720232725,-0.8124111923843622,-0.7110832998938859
1782985780317856300,6.863856201171875,1.3308166420847176,-0.6190186180502176,-1.228717911352217
1782985780327929300,6.873929443359375,3.873716579324007,-0.2914642415076494,-1.3358905843481421
1782985780338003500,6.88400341796875,5.296081624293327,0.16853695001900196,-0.8416524844378233
1782985780348077300,6.894077392578125,5.745253963291645,0.958971288394928,0.09139028971344232
1782985780358151200,6.904151123046875,5.7618099612951275,1.9419401229709385,1.0417704215042292
1782985780368225300,6.914225341796875,5.740348655593395,2.889478163203597,1.7001976514875887
1782985780378299100,6.924299072265625,5.741144189885258,3.6700937028765677,1.9722921527452766
1782985780388372200,6.934372314453125,5.855894020137191,4.166061110797524,2.0096245429262516
1782985780398446300,6.9444462890625,5.999625030201673,4.370618053224683,1.8574644349515437
1782985780408520200,6.954520263671875,6.23158202072978,4.5060880154222245,1.7599132845208048
1782985780418594300,6.96459423828125,6.515090334796905,4.543524304369091,1.6879669693373143
1782985780428668200,6.974668212890625,6.749341573742032,4.32151704544723,1.4570692786037922
1782985780438742300,6.9847421875,7.031563355129957,4.131270952445268,1.1567715961687266
1782985780448815400,6.9948154296875,7.170401332455873,4.157392066651583,0.9621087827030569
1782985780458889200,7.00488916015625,7.122239651355147,4.3128304656445975,0.9495326481159776
1782985780468963300,7.01496337890625,7.056478600677847,4.42521064415574,1.0309810972686857
1782985780479037200,7.025037109375,6.963656524595618,4.455156869608164,1.0153127688199282
1782985780489111300,7.035111328125,6.8677171932756895,4.496185630089045,0.7882529026836156
1782985780499185400,7.045185302734375,6.820628694364428,4.608809554228186,0.5246819726865738
1782985780509258200,7.05525830078125,6.632723611530661,4.646733334431052,0.16891111709363757
1782985780519332400,7.065332275390625,6.3129305166393515,4.588347780957818,-0.4626729680191725
1782985780529406200,7.07540625,6.459601671808958,4.5094116068869825,-1.2046540950018911
1782985780539480300,7.085480224609375,6.477630664974451,4.385211811244488,-1.788186316064
1782985780549554400,7.095554443359375,5.561576727285981,4.356481975844503,-3.170068251736462
1782985780559628300,7.105628173828125,5.154683441090583,4.872766780129075,-3.7038115558221936
1782985780569701000,7.115701171875,5.411965427011251,5.406569705447554,-3.254860458359122
1782985780579775200,7.125775146484375,5.612800718566775,5.637775000825524,-2.2693194352075454
1782985780589849300,7.135849365234375,5.870382564216852,5.272948001465201,-1.2074486941564828
1782985780599923500,7.14592333984375,6.055750237527489,3.9849294676214453,-0.5409189313361421
1782985780609997300,7.155997314453125,6.102007546311617,1.9453268427997827,-0.43034730008430777
1782985780620071400,7.166071533203125,4.900329909837246,-0.5599123490869998,-0.5262720183569938
1782985780630144300,7.176144287109375,2.3460148446142672,-2.6635908479779955,0.2725941944081336
1782985780640218400,7.18621826171875,0.17513211050033567,-3.4586189438849684,0.9985608098529278
1782985780650292500,7.19629248046875,-1.7799883965611456,-3.147736885201931,1.0104035155989228
1782985780660366300,7.206366455078125,-3.04592778506577,-3.0712913589030504,0.5648186796985566
1782985780670440200,7.216440185546875,-3.6988650393307205,-3.8637820452868934,-0.09650792498812079
1782985780680514300,7.226514404296875,-4.908953361275792,-5.218747040200233,-0.45219077350404113
1782985780690587400,7.23658740234375,-6.974315865775942,-7.044792839059233,-0.2515525388905778
1782985780700661200,7.2466611328125,-8.522773972788453,-8.803268491992354,-0.016074717292562126
1782985780710735400,7.2567353515625,-8.03877114342749,-9.290870222628117,-1.1430930532976984
1782985780720809200,7.266809326171875,-6.72996642666459,-8.925941516458987,-3.2001126768663526
1782985780730883300,7.27688330078125,-6.188880943122506,-8.753467226991058,-3.98161990468204
1782985780740957200,7.286957275390625,-6.843771085020899,-8.854220096072554,-3.224612035089731
1782985780751030300,7.2970302734375,-7.712064908146858,-8.407547757196426,-2.6833120320141313
1782985780761104400,7.3071044921875,-7.759603488913178,-7.142994270092249,-3.0057533033266663
1782985780771178200,7.31717822265625,-6.585307780361175,-5.704155644705891,-3.4366958658903837
1782985780781252400,7.32725244140625,-4.184504529982805,-4.176480213481187,-4.210997400110959
1782985780791326200,7.337326171875,-1.0451280613690614,-2.6540537888258693,-5.692216785109043
1782985780801400000,7.347400146484375,0.5331354013204574,-1.9644389550268648,-7.074231699511408
1782985780811473400,7.357473388671875,-1.1711200011253355,-2.081727071584761,-6.893608590379357
1782985780821547300,7.36754736328125,-4.151136513388157,-2.427413901667297,-5.679229293242097
1782985780831621400,7.377621337890625,-7.563709745413065,-2.2248981096789238,-3.945854763817787
1782985780841695200,7.3876953125,-9.718093180146813,-1.0379852038770914,-2.118556480679661
1782985780851769000,7.39776904296875,-10.29733040742874,0.5136944955304265,-0.23115429584309458
1782985780861843500,7.407843505859375,-9.32667218837142,1.5216837895944713,1.6391056155346333
1782985780871916300,7.417916259765625,-7.647880313006043,1.349669226592779,3.2768782288998364
1782985780881990100,7.427990234375,-4.833034489199519,0.4564890917524695,4.1293998978763815
1782985780892064300,7.438064208984375,-1.301063893377781,-0.3492740409195423,3.7706305911198257
1782985780902138000,7.44813818359375,2.191751334619522,-0.791583216150105,2.4930124552592634
1782985780912212500,7.45821240234375,4.807711247372627,-1.205077215784788,1.0640038075570017
1782985780922286300,7.468286376953125,6.1238242413222785,-1.701916730365157,0.37577282933183015
1782985780932359200,7.478359130859375,6.572309767100214,-1.6445277867138386,0.21175196849778294
1782985780942433300,7.488433349609375,6.407625985378027,-0.793423875580728,0.4776995644982904
1782985780952507100,7.498507080078125,5.710358006477356,0.2004500916302204,1.0079486697927116
1782985780962581500,7.50858154296875,5.069467163836956,0.9787862881943583,1.1455321900781243
1782985780972655400,7.5186552734375,4.794111761087179,1.6454399331226943,0.9562073035743087
1782985780982729200,7.528729248046875,4.776147649851441,2.0439839086458087,0.7075635282699019
1782985780992802300,7.53880224609375,5.08016449894011,2.1891753466516732,0.41423411394488063
1782985781002876200,7.548876220703125,5.412193975070118,2.2712258533507583,0.25652009817007926
1782985781012950500,7.558950439453125,5.793149686932564,2.401574234750867,0.1783065027527511
1782985781023024400,7.5690244140625,6.020936113777756,2.9324820231497286,0.6789897602144629
1782985781033098200,7.57909814453125,6.244613351738453,2.7873861544728276,0.5666109699428081
1782985781043172400,7.58917236328125,6.586258212953806,3.3474753214314577,0.3339659240853041
1782985781053245200,7.5992451171875,6.614118864303827,3.4969115574002263,-0.011380371764139271
1782985781063319300,7.6093193359375,6.487461738637089,3.4933082722112534,-0.34766163728684185
1782985781073393400,7.619393310546875,6.195909234324097,3.562554242394864,-0.7332291537936776
1782985781083467300,7.62946728515625,5.937226149433851,3.4929900000423193,-1.0938551943328232
1782985781093541400,7.639541259765625,5.715442177873849,3.40538887347877,-1.2579209172219037
1782985781103615200,7.649615234375,5.600169785052538,3.555141043528914,-1.1030885943632571
1782985781113688300,7.659688232421875,5.472852734172344,3.8018063583672044,-0.5227536715051159
1782985781123762400,7.669762451171875,5.266450456139445,3.9659477037757633,0.09425705905510112
1782985781133836300,7.679836181640625,4.853708443915844,4.07341556032598,0.5265617220185697
1782985781143910400,7.689910400390625,4.390162127128243,4.088678011387587,0.673474138598144
1782985781153984300,7.699984375,4.013184086725116,3.957683148777485,0.7040946100503206
1782985781164058000,7.71005810546875,3.760948278278112,3.456708726349473,0.9171770964995026
1782985781174131500,7.72013134765625,3.0842525472849607,2.2680606673181054,1.4837569406516848
1782985781184205300,7.730205322265625,1.3832324734985828,0.27899171342551704,2.182520126546174
1782985781194279200,7.740279052734375,-1.4966782354146242,-2.023820533800125,2.4663971277952195
1782985781204354000,7.75035400390625,-3.6769057209789753,-3.3767344414025544,1.910662941175699
1782985781214428000,7.760427978515625,-5.143945773977041,-3.379083050355315,1.035779802787304
1782985781224502000,7.770501953125,-6.779281953975558,-3.1522207526177164,0.3672024597873911
1782985781234576000,7.780575927734375,-8.606166541746259,-3.3540076458096504,0.6361800346009433
1782985781244649000,7.79064892578125,-11.21629584864974,-4.268296327391266,1.6388263602018356
1782985781254723000,7.80072314453125,-13.143872515225409,-4.845779404482245,2.6579645325288177
1782985781264797000,7.810796875,-13.408251765930652,-4.976190914246439,3.089467067062855
1782985781274871000,7.82087109375,-11.95175882591009,-5.508121031430363,1.7917071836665273
1782985781284945000,7.83094482421875,-10.105504351758956,-7.008087786996364,-0.03652048927620053
1782985781295019000,7.84101904296875,-9.15276055957675,-9.566737666553259,-1.1921589897617697
1782985781305092000,7.851092041015625,-8.417942894482612,-10.747031154215335,-1.6733213349997997
1782985781315166000,7.861166015625,-7.121369298261404,-9.83365257321596,-2.122718276534229
1782985781325239800,7.87123974609375,-5.079817877459526,-7.783347937116027,-2.4380633059754966
1782985781335314000,7.88131396484375,-2.5241736094594,-5.911487897065282,-2.6556948340311646
1782985781345388000,7.891387939453125,0.10171382306814193,-4.687566864600777,-3.4482904420942067
1782985781355462100,7.901462158203125,0.9440344160258769,-3.9517958443045615,-4.186045329684019
1782985781365535000,7.911534912109375,-0.5406424159497022,-2.901265047109127,-4.080018027330935
1782985781375608800,7.92160888671875,-3.236145236495137,-1.165986729890108,-3.0359687011092897
1782985781385683000,7.931682861328125,-6.5446414234519,0.4634013553589582,-1.6771519992038606
1782985781395757000,7.941757080078125,-8.816865640190244,1.7177806544512508,-0.3810214705750346
1782985781405831200,7.9518310546875,-8.825141885626316,2.7593536536872385,0.42991365790739655
1782985781415905000,7.961905029296875,-7.608717930918932,2.8926524093255397,0.7459653743132948
1782985781425977900,7.971977783203125,-5.987189911520481,2.122727775014937,1.0013009023413062
1782985781436052000,7.982052001953125,-5.930509992921352,2.04995859914124,0.9319108475118875
1782985781446126000,7.9921259765625,-3.7066315816789865,1.3013313121423125,0.7591511652313172
1782985781456199000,8.002198974609374,-1.331155080258846,1.013847372442484,0.09692629653066397
1782985781466273000,8.01227294921875,0.8016361158698797,0.7239721536919475,-0.6846241859048604
1782985781476347000,8.022346923828126,2.850603365886211,0.44663492947518824,-1.2101966046251356
1782985781486421000,8.0324208984375,4.568237305343151,0.3402314872860908,-1.2193458335034548
1782985781496495000,8.0424951171875,5.691314867833256,0.4232470396250486,-1.0453104321986437
1782985781506569000,8.05256884765625,6.35961335735917,0.7162894902348518,-0.7589078579947351
1782985781516642000,8.06264208984375,6.661380966216325,1.235807285091281,-0.38840456656366584
1782985781526716000,8.0727158203125,6.848543121728301,2.028626472777128,-0.18667466425597667
1782985781536790000,8.0827900390625,6.864817380180955,2.6846032408684493,0.047483343447744845
1782985781546864000,8.092864013671875,6.650493661499023,3.2097341994315385,0.5914716357592493
1782985781556938000,8.10293798828125,6.4129363667458295,3.644021688508987,1.0379390997130422
1782985781567012000,8.11301220703125,6.251146552899479,3.9678362940013407,1.120251106892526
1782985781577086000,8.1230859375,6.113306938961148,4.187857932063937,0.9263670957796275
1782985781587159000,8.133158935546875,6.045160454452038,4.298097006893157,0.6071629432247951
1782985781597233200,8.143233154296874,6.002673896378278,4.387712980410456,0.3153608480649069
1782985781607307000,8.15330712890625,5.933193532916903,4.518184111407399,0.13131350010521708
1782985781617381000,8.163381103515626,5.570201932290196,4.637438851863146,-0.119548754966259
1782985781627455000,8.173455078125,4.987689044338464,4.7831139817327255,-0.48460660394039
1782985781637528000,8.183528076171875,4.563170669603347,5.150853069147467,-0.8519416771315038
1782985781647602200,8.193602294921876,4.545166226357221,5.497333095434308,-1.1388232670240104
1782985781657676000,8.203676025390624,4.998647660726308,5.6204941956788295,-1.2475338171117007
1782985781667750100,8.213750244140625,5.67547315557897,5.605732095354795,-1.1797200716882943
1782985781677824000,8.223823974609376,6.53815147691071,5.332535331943631,-1.0949630094442515
1782985781687897900,8.23389794921875,7.158048631361127,4.927808868393302,-1.251517772181332
1782985781697972000,8.243971923828125,7.2618626415789125,4.7069478568971155,-1.548707551728934
1782985781708045000,8.254045166015626,6.996427744340896,4.838536009225249,-1.6326643304407595
1782985781718119000,8.264118896484375,6.795193808856606,5.035943079897761,-1.5744870128907262
1782985781728193000,8.274193115234375,6.744862382501363,5.114249723893404,-1.653730499345064
1782985781738267000,8.284266845703126,6.945828606960177,5.042057763385772,-1.8190854583270846
1782985781748341000,8.294341064453125,7.111094572484493,4.850768298810721,-1.668797720095515
1782985781758415000,8.3044150390625,7.0164622321099035,4.258048489621282,-1.507303674325347
1782985781768488000,8.314488037109374,6.175846104982495,3.2968262074291705,-1.3539175316870211
1782985781778562000,8.32456201171875,4.577317852899432,2.4250696766287088,-0.47346039255857464
1782985781788636000,8.334635986328125,2.6958447658509015,1.4875228690564632,0.983302012053132
1782985781798710000,8.3447099609375,1.0287748924612998,0.5039975696414709,1.789254091425985
1782985781808784100,8.3547841796875,0.20837036323547362,-0.3139659961730242,1.6398244313284753
1782985781818858000,8.36485791015625,-0.14722352835536,-1.2782196088850497,1.0058756629109382
1782985781828932000,8.37493212890625,-0.921154475697875,-2.566293087786436,-0.48725927387364204
1782985781839005000,8.3850048828125,-3.107239455118775,-3.922034912291169,-1.953345606343448
1782985781849078800,8.395078857421876,-5.214114119702577,-5.287582091495395,-2.7964392295002938
1782985781859153200,8.405153076171874,-5.9389370450049634,-5.9336471219033,-3.688806878913939
1782985781869227000,8.41522705078125,-6.318503348335623,-6.6993398177325725,-3.243243962584436
1782985781879301000,8.425301025390626,-7.372955118367075,-8.242019925865531,-1.2282339272275566
1782985781889375000,8.435375,-7.782264233532548,-8.364089723742008,-0.4001007765110582
1782985781899447800,8.44544775390625,-6.799078541335463,-7.100788282525539,-0.8875359914734959
1782985781909522200,8.455522216796876,-5.538017572522163,-7.126975447705387,-1.4938656622119246
1782985781919596000,8.465595947265625,-5.662473388752341,-7.936272891983389,-2.065508634972572
1782985781929670100,8.475670166015625,-8.085194456428288,-7.861818831762671,-2.790319285315275
1782985781939744000,8.485743896484376,-11.48576862310171,-6.768337950634956,-2.8668673952057957
1782985781949817900,8.49581787109375,-14.436573069405554,-5.843676928120852,-2.405973784884065
1782985781959892000,8.50589208984375,-15.557856734216212,-5.474506931120157,-2.2686180089399217
1782985781969965000,8.515965087890624,-14.222154073655604,-5.341335308992862,-2.543679397179186
1782985781980039200,8.5260390625,-10.624461590123175,-4.7511502789780495,-3.0526354660108685
1782985781990113000,8.536113037109375,-6.017825288280845,-3.798537127438187,-3.2969621087685224
1782985782000187000,8.546186767578124,-1.6201701750487087,-2.670994694493711,-3.12852832686305
1782985782010261000,8.556260986328125,1.547984644281864,-1.9688710922554133,-2.825170818465948
1782985782020334800,8.5663349609375,3.7648043691843744,-1.7873793835952876,-2.3943317162767053
1782985782030408000,8.576407958984374,4.318773884218931,-1.6376894651263951,-0.8336876430384814
1782985782040482000,8.58648193359375,3.0945401325434445,-0.9819956056296825,1.533149624852091
1782985782050556000,8.596555908203126,1.0979185713142157,0.2335983279943466,3.4429885362938046
1782985782060630000,8.606630126953124,-0.3770861769527197,1.5154931182608007,4.434989110848307
1782985782070703900,8.616703857421875,-0.9567202945977449,2.1310984207361936,4.9935231573194265
1782985782080778200,8.6267783203125,-0.6203226863861083,2.136805984728038,5.165267963469028
1782985782090851000,8.63685107421875,0.2532014386087656,1.9103119357809424,4.40781235010922
1782985782100925000,8.646925048828125,1.2660130382627248,1.6058768612802028,2.967180996087193
1782985782110999000,8.6569990234375,2.4215391644150017,1.3510796779125929,1.3963658035770057
1782985782121073000,8.667072998046875,3.7227035955578085,1.1526061470523477,0.07684899253323674
1782985782131147000,8.67714697265625,4.729102405560016,1.135603866586089,-0.6087695381712168
1782985782141221000,8.68722119140625,5.28550119356811,1.430851426024735,-0.5738689782470464
1782985782151294000,8.6972939453125,5.613288794344664,2.125725787787139,-0.25007848428264257
1782985782161367800,8.707367919921875,5.9438090349555015,2.7764038649484513,0.1316970195300877
1782985782171442000,8.71744189453125,6.174704533731937,3.0405510604634878,0.5801432362109422
1782985782181516000,8.72751611328125,5.966085748693347,3.180178434601426,0.9738577457509935
1782985782191590100,8.737590087890625,5.4761985374689095,3.3119787683755155,1.0620743738643825
1782985782201664300,8.747664306640624,5.083049114465713,3.3174308963015675,0.6704011608935893
1782985782211738000,8.757738037109375,4.817237785130739,3.2559526375100014,0.16809256725236774
1782985782221811000,8.76781103515625,4.556934405562282,3.066802523051202,-0.18284133317079393
1782985782231885300,8.77788525390625,4.1065024218916895,2.9739284245207904,-0.6526181783784181
1782985782241959200,8.787959228515625,3.43409123634994,3.1274355631902813,-1.013513318182528
1782985782252033300,8.798033203125,2.730857627043128,3.4454704162374137,-0.995413305607438
1782985782262107100,8.808107177734374,2.4555180063843727,3.562116143238544,-0.8335532760690897
1782985782272181000,8.818180908203125,2.9882027413278816,3.403163598644733,-0.8778338048875332
1782985782282254300,8.82825439453125,4.053357691681385,3.211127991877496,-1.0684394519168883
1782985782292328200,8.838328125,4.878283497723936,3.0556644584432244,-1.175410026469454
1782985782302402000,8.848402099609375,5.1019209881961345,3.0041119658604263,-0.9825263515055179
1782985782312476200,8.85847607421875,4.9174412036359305,3.1340161106243727,-0.5369037408780306
1782985782322550000,8.868550048828125,4.456964795812964,3.342765536305308,-0.08011376648284495
1782985782332624100,8.8786240234375,3.8627404272794723,3.4654110882431266,0.2870215098198503
1782985782342697200,8.888697265625,3.136341046440601,3.278061885726452,0.33634989661239084
1782985782352771000,8.89877099609375,2.430895021781325,2.8733839374929664,0.16614508644640444
1782985782362845200,8.90884521484375,1.6868179454326628,2.4583470923304556,0.14721446826606988
1782985782372919000,8.9189189453125,0.7803998510956763,1.9971774415463208,0.17655841697640717
1782985782382993200,8.9289931640625,-0.5451408964127302,1.555515624308586,0.2174414123110473
1782985782393067000,8.93906689453125,-2.279101116770506,1.0966472362041473,0.2628101016923785
1782985782403140000,8.94914013671875,-4.297060065060854,0.32044132966697214,0.45088666863553223
1782985782413214200,8.959214111328125,-5.447790773630142,-0.6010603520333767,0.7872733901269734
1782985782423288000,8.9692880859375,-4.889344989964366,-1.438070563623309,1.3736555207274854
1782985782433362200,8.979362060546874,-3.5569793648719785,-2.1929121950924397,2.6193866723313928
1782985782443436000,8.98943603515625,-2.9695734441816803,-3.2279251051604745,4.332231331685185
1782985782453510100,8.99951025390625,-4.072923392894864,-4.3607291118949645,5.914837792015075
1782985782463584300,9.009584228515624,-6.761048962670564,-4.88594190352261,6.2830585254669185
1782985782473657000,9.019656982421875,-9.661911858719586,-4.616119000458717,5.261851437911391
1782985782483731000,9.02973095703125,-12.204639362001418,-4.2830654419779774,4.029267206519842
1782985782493805000,9.03980517578125,-14.086783480179308,-4.286867756870389,3.115927496226132
1782985782503879200,9.049879150390625,-15.78259371036291,-4.645620404753089,2.1300584101639686
1782985782513953300,9.059953369140626,-17.018319746911526,-5.144648953810334,1.0139897035226226
1782985782524027100,9.070027099609375,-16.535490637505053,-5.904367835927009,0.7058433534137905
1782985782534100000,9.080099853515625,-14.45424667326212,-7.047435462522507,1.5043885175310074
1782985782544174000,9.090174072265626,-11.007672971957922,-7.992434339666366,1.7805773023650049
1782985782554248200,9.100248291015625,-7.159545007398724,-8.60055103995204,1.5461781793817877
1782985782564322300,9.110322265625,-4.115071512794494,-8.77537393837273,1.459108090955019
1782985782574396200,9.120396240234374,-2.4058161101043223,-7.977681007170677,1.4360840659812093
1782985782584470000,9.130469970703125,-2.0051982509166,-6.419167370089888,1.498519187106192
1782985782594543000,9.140543212890625,-2.7548165947794914,-4.074573498189449,1.725063504935801
1782985782604617200,9.1506171875,-4.547763257113099,-1.5517273379415273,1.9693395865499972
1782985782614691000,9.160691162109375,-6.222336638000607,0.2668038475036621,1.5613552902474999
1782985782624765200,9.17076513671875,-7.0856690393269055,1.0153922637969255,0.37259478381760414
1782985782634839000,9.180839111328124,-7.319286656543612,0.8041407921671867,-0.4849203460646793
1782985782644913200,9.1909130859375,-6.062698449230194,0.3832055366158485,-1.3830029025264083
1782985782654986200,9.200986328125,-3.171811588272452,0.04889993224740028,-2.575411044743657
1782985782665060000,9.21106005859375,0.25067747308909893,-0.28463059609532354,-3.4706238544553516
1782985782675134200,9.22113427734375,3.179762255015969,-0.3613900106489658,-3.8850717938140034
1782985782685208000,9.2312080078125,5.111846169883012,0.17374796266555786,-3.3811014044404026
1782985782695282200,9.2412822265625,5.71120731678307,1.4849451275229453,-2.5078765546530484
1782985782705356000,9.25135595703125,5.748409212452173,2.9996424192309377,-1.3955012957021593
1782985782715430100,9.26143017578125,6.128383512061834,3.9248125603109596,-0.2474989891834557
1782985782725503200,9.271503173828124,6.775407158368825,4.2265696477741,0.6047628598131239
1782985782735577000,9.2815771484375,7.450895267137884,3.9469478197515007,1.1412974020525812
1782985782745651200,9.291651123046876,7.861084087747335,3.4570331359982487,1.299109690570086
1782985782755725000,9.30172509765625,7.807572277790308,3.206903944441676,0.6967470237664878
1782985782765799200,9.311799072265625,7.57729520317316,3.187160548573732,0.1407781516082585
1782985782775873300,9.321873291015624,7.297617261049151,3.0452216826230285,0.2640807061500847
1782985782785946000,9.331946044921875,7.025749700415134,2.956427546882629,-0.428056193472445
1782985782796020000,9.34202001953125,6.650079820001125,3.2107617889136075,-1.7863126311466098
1782985782806094000,9.352093994140626,6.305840850639343,3.518300382387638,-2.7005913758561015
1782985782816168200,9.362168212890625,6.40458004181087,3.557743334981799,-3.084755236110091
1782985782826242300,9.3722421875,6.785685975798964,3.4040222613006828,-2.966248683673143
1782985782836316200,9.382316162109374,7.330167531520128,3.2267069615423676,-2.7567151218771935
1782985782846389000,9.392388916015625,7.581414913451671,3.181134712412953,-2.262850823715329
1782985782856463000,9.402463134765625,7.29081050364375,3.3044173932105303,-1.7769573583021758
1782985782866537200,9.412537109375,6.629837826961278,3.481057570186257,-1.8500798776581882
1782985782876611300,9.422611328125,6.154805655041336,3.623475159564614,-2.291998153875023
1782985782886685200,9.432685302734376,5.7518771808236835,3.557933889117837,-2.8183050243496894
1782985782896759000,9.442759033203124,5.575725079625845,3.4542437975406646,-3.2215508939534425
1782985782906832100,9.45283203125,5.3672237834870815,3.3776731835573908,-3.6764521319925785
1782985782916906200,9.46290625,4.460146348458529,3.316366189679503,-3.9543580960080025
1782985782926980000,9.47297998046875,3.7037960659921167,3.4945839912354946,-3.578192833292484
1782985782937054200,9.48305419921875,3.8485418060570953,3.7587551521480083,-2.9572794875368476
1782985782947128000,9.493128173828126,4.567425988960266,3.825231657618284,-2.3410145521089434
1782985782957202200,9.5032021484375,5.000068048918247,3.514070197471976,-1.108440257589519
1782985782967276000,9.513276123046875,4.988184718900919,3.156686499854922,0.6125106974609196
1782985782977349000,9.52334912109375,4.427123784300685,2.8915000244200226,2.7961504756867885
1782985782987423200,9.53342333984375,3.474187099894881,2.1625515436202285,4.972902394095063
1782985782997497000,9.5434970703125,2.16012460873425,1.0684335336327553,5.895818034246563
1782985783007571200,9.5535712890625,0.9696768068045377,-0.38690146852433677,5.880452122810483
1782985783017645000,9.56364501953125,0.08655658594667912,-2.6111212405502795,6.191813489443064
1782985783027719000,9.573718994140625,-1.5299842926889657,-4.295957656776904,6.33637568963468
1782985783037792300,9.583792236328126,-5.122826998102664,-4.943800802773237,5.901209079635143
1782985783047866000,9.5938662109375,-9.172029908192156,-5.095418182173371,5.4535863081663845
1782985783057940200,9.603940185546875,-10.451412715637684,-5.21554386024475,5.108331439760327
1782985783068014000,9.61401416015625,-8.512273037040233,-6.417126804172993,6.112999480447173
1782985783078088000,9.624087890625,-4.3356998845785855,-7.767982610201835,6.253884453430771
1782985783088162300,9.634162353515626,-0.3709340840637684,-9.001869740885496,5.451206135031581
1782985783098236200,9.644236083984374,0.6675953096926212,-9.643363225594163,5.564511611694098
1782985783108309000,9.65430908203125,-1.4658534735620021,-8.2042527975291,5.774820249515772
1782985783118383000,9.664383056640625,-4.680072124931216,-5.737077671098708,6.1442538658887145
1782985783128457000,9.67445703125,-7.065869529357552,-3.031571342933178,5.714764717003702
1782985783138531300,9.68453125,-7.577612014037371,-0.2381605213433504,4.661908691731095
1782985783148605200,9.694605224609376,-6.580842617645859,1.2502975827366114,2.979414454716444
1782985783158679300,9.70467919921875,-4.27990902377367,1.0556085388511418,-0.31099085281975564
1782985783168752000,9.714752197265625,-1.386746034577489,-0.03074234426617622,-4.3583208817094565
1782985783178826000,9.724825927734376,0.8479448625802993,-1.5816788240909576,-7.028147409206628
1782985783188900400,9.734900390625,1.3563117333471775,-2.5923475664973257,-6.936697790521383
1782985783198974200,9.74497412109375,0.06968085446953773,-2.2548747302696106,-4.684399925002455
1782985783209048600,9.755048583984374,-1.4716636211454868,-0.699142248339951,-2.114139833281189
1782985783219122400,9.765122314453125,-2.51882114251554,1.0510790787279605,-0.571418552887626
1782985783229195300,9.7751953125,-3.8522640414506193,2.200579660980403,0.7699215655706823
1782985783239269400,9.785269287109376,-5.1255035238355395,2.825573554047942,2.1351190545544028
1782985783249343500,9.795343505859375,-5.366522941741347,3.0330320631355043,2.8895699331402778
1782985783259417600,9.80541748046875,-3.974525562506914,2.612992295119166,2.7646839087992907
1782985783269491500,9.815491455078124,-1.4796072736263275,1.5872607158765195,1.7836518875047565
1782985783279565300,9.8255654296875,0.973803531345725,0.40958413271456956,0.5792125677647069
1782985783289639400,9.835639404296876,2.3891069673657417,-0.29192104536443947,-0.445723367588222
1782985783299712500,9.84571240234375,3.0994039391875265,-0.1842816316395998,-1.335486825852841
1782985783309786400,9.855786376953125,3.649255497509241,0.36861528572738167,-1.629970561312139
1782985783319860500,9.865860595703126,3.741778298383951,0.8538330438360572,-1.3273248544462024
1782985783329934300,9.875934326171874,3.4138556730508802,1.2768252319172024,-0.7220216041460633
1782985783340008400,9.886008544921875,3.051752545696497,1.740602727112174,-0.4204616832228377
1782985783350082300,9.896082275390626,3.1079455575615165,1.9563707993835209,-0.5491507896412163
1782985783360155400,9.9061552734375,3.4786487554788588,1.8081883628681301,-0.8751086177073418
1782985783370229500,9.9162294921875,4.041808708184957,1.450372411313653,-1.4061210355244576
1782985783380303400,9.926303466796876,4.618694988426566,1.220059096339345,-1.9997567905150353
1782985783390377500,9.93637744140625,4.922838094243407,1.2966557215467094,-2.2807259414933623
1782985783400451300,9.946451416015625,4.928755209332704,1.5200430366501212,-2.2053598809942603
1782985783410525400,9.956525390625,4.784193009141087,1.7887863277837632,-2.2015506979696453
1782985783420598500,9.9665986328125,4.496046513879299,2.2583535122960803,-2.2585876133129
1782985783430672400,9.97667236328125,4.243050826975703,2.6820903812646866,-2.2058809822589156
1782985783440746200,9.986746337890626,4.3211394443064925,2.9477625943899155,-2.189159272299707
1782985783450820400,9.9968203125,4.535327553910017,3.265069717684388,-2.183862334935367
1782985783460894500,10.00689453125,4.686484914582968,3.388943057851493,-2.128482100757956
1782985783470968600,10.016968505859374,4.5210289794445035,3.3352427395850417,-2.0261122979991137
1782985783481042400,10.02704248046875,4.356512955504655,3.2386268241778016,-2.041538999711722
1782985783491115300,10.037115234375,4.564510393774509,3.094886754024029,-2.1328020097836853
1782985783501189400,10.047189453125,4.836458033907413,2.852942622488737,-2.1011722151584924
1782985783511263500,10.057263427734375,4.452486189094185,2.7187597774922847,-1.8031411624811589
1782985783521337600,10.067337646484376,2.965599864375591,3.006859511002898,-1.1550262138061225
1782985783531411500,10.077411376953124,1.491997384122014,3.4033968228787184,-0.5191070220984518
1782985783541485300,10.0874853515625,1.0370873782545327,3.119276514393091,0.39122298498526215
1782985783551558400,10.097558349609375,1.1116881534695624,2.485224577862024,1.6667346500858664
1782985783561632500,10.107632568359374,1.86235746769011,1.3695248506635427,2.3910464109957217
1782985783571706600,10.11770654296875,2.198483857744932,0.2668833424806595,1.7795609649293123
1782985783581780500,10.127780517578126,1.8484324027121066,-0.7637409772396088,0.3261348651334643
1782985783591854300,10.137854248046875,0.6441887151420116,-1.9538421576887368,-0.5830915646225213
1782985783601928400,10.147928466796875,-0.739321990776062,-2.874990788167715,-0.6536233368329704
