time,seconds_elapsed,z,y,x
1782987979789022500,0.0420224609375,-0.6572723388671875,-0.619720458984375,0.1710662841796875
1782987979799097600,0.05209765625,-0.66375732421875,-0.59417724609375,0.1721038818359375
1782987979809172700,0.0621728515625,-0.6474151611328125,-0.5889129638671875,0.1793365478515625
1782987979819246600,0.07224658203125,-0.6356048583984375,-0.5971221923828125,0.1910400390625
1782987979829321700,0.08232177734375,-0.6229705810546875,-0.6020355224609375,0.2075653076171875
1782987979839395600,0.0923955078125,-0.622711181640625,-0.6097412109375,0.2305908203125
1782987979849470700,0.102470703125,-0.6362762451171875,-0.623779296875,0.2561492919921875
1782987979859544600,0.112544677734375,-0.653289794921875,-0.6291046142578125,0.265838623046875
1782987979869619700,0.12261962890625,-0.675445556640625,-0.615692138671875,0.2634429931640625
1782987979879693600,0.132693603515625,-0.688934326171875,-0.60107421875,0.2495574951171875
1782987979889768700,0.142768798828125,-0.6920623779296875,-0.57830810546875,0.24322509765625
1782987979899843300,0.15284326171875,-0.692901611328125,-0.56988525390625,0.2397918701171875
1782987979909917700,0.162917724609375,-0.6999664306640625,-0.56243896484375,0.232635498046875
1782987979919992300,0.172992431640625,-0.7103424072265625,-0.5477752685546875,0.2196044921875
1782987979930066700,0.183066650390625,-0.7442626953125,-0.5464019775390625,0.203948974609375
1782987979940141300,0.193141357421875,-0.7900848388671875,-0.55047607421875,0.1856689453125
1782987979950215700,0.203215576171875,-0.8242340087890625,-0.55242919921875,0.1656036376953125
1782987979960290600,0.21329052734375,-0.860107421875,-0.5552520751953125,0.15570068359375
1782987979970365400,0.223365478515625,-0.88800048828125,-0.5548248291015625,0.150909423828125
1782987979980439600,0.233439453125,-0.8838958740234375,-0.54669189453125,0.1429901123046875
1782987979990514400,0.243514404296875,-0.8695526123046875,-0.5460052490234375,0.1200103759765625
1782987980000588500,0.253588623046875,-0.8644866943359375,-0.548187255859375,0.1015625
1782987980010663400,0.263663330078125,-0.8616943359375,-0.5555267333984375,0.07916259765625
1782987980020737500,0.273737548828125,-0.870147705078125,-0.5615386962890625,0.0676727294921875
1782987980030812400,0.2838125,-0.916656494140625,-0.5745849609375,0.04217529296875
1782987980040886500,0.293886474609375,-0.983154296875,-0.6276702880859375,0.114837646484375
1782987980050961400,0.30396142578125,-0.97833251953125,-0.7753753662109375,0.132781982421875
1782987980061036500,0.31403662109375,-0.8911590576171875,-0.8226165771484375,0.22711181640625
1782987980071110400,0.3241103515625,-0.826324462890625,-0.7113189697265625,0.19952392578125
1782987980081185500,0.334185546875,-0.8004150390625,-0.73712158203125,0.1266937255859375
1782987980091259400,0.34425927734375,-0.7673187255859375,-0.7285919189453125,0.1788482666015625
1782987980101334500,0.35433447265625,-0.710418701171875,-0.7248077392578125,0.22406005859375
1782987980111408400,0.364408447265625,-0.6891937255859375,-0.735382080078125,0.2603759765625
1782987980121483500,0.3744833984375,-0.71185302734375,-0.713470458984375,0.302642822265625
1782987980131557400,0.384557373046875,-0.7628936767578125,-0.6613311767578125,0.2843475341796875
1782987980141632500,0.394632568359375,-0.834228515625,-0.6085052490234375,0.238037109375
1782987980151707600,0.404707763671875,-0.919586181640625,-0.56463623046875,0.200592041015625
1782987980161781500,0.414781494140625,-1.0135345458984375,-0.527191162109375,0.17767333984375
1782987980171856600,0.424856689453125,-1.1161651611328125,-0.5026702880859375,0.1666412353515625
1782987980181930500,0.434930419921875,-1.219757080078125,-0.481292724609375,0.151458740234375
1782987980192005400,0.44500537109375,-1.28082275390625,-0.453948974609375,0.13433837890625
1782987980202079200,0.455079345703125,-1.2675628662109375,-0.43341064453125,0.126556396484375
1782987980212154400,0.465154296875,-1.18988037109375,-0.4300537109375,0.131103515625
1782987980222229200,0.475229248046875,-1.0744781494140625,-0.440765380859375,0.146331787109375
1782987980232303400,0.485303466796875,-0.964019775390625,-0.4569854736328125,0.1553497314453125
1782987980242378200,0.495378173828125,-0.8823394775390625,-0.47308349609375,0.144866943359375
1782987980252452400,0.505452392578125,-0.8353424072265625,-0.4862213134765625,0.11016845703125
1782987980262527200,0.51552734375,-0.836029052734375,-0.4954833984375,0.0588226318359375
1782987980272601300,0.525601318359375,-0.861572265625,-0.5091552734375,0.0003204345703125
1782987980282676200,0.53567626953125,-0.8939056396484375,-0.516387939453125,-0.0429534912109375
1782987980292750300,0.545750244140625,-0.908966064453125,-0.51348876953125,-0.068084716796875
1782987980302825200,0.5558251953125,-0.8971710205078125,-0.4969329833984375,-0.0613861083984375
1782987980312900400,0.565900390625,-0.8720550537109375,-0.4701080322265625,-0.0163726806640625
1782987980322974200,0.57597412109375,-0.8402252197265625,-0.4485015869140625,0.058074951171875
1782987980333049300,0.58604931640625,-0.799896240234375,-0.4330902099609375,0.1368255615234375
1782987980343123200,0.596123291015625,-0.759765625,-0.4417572021484375,0.201629638671875
1782987980353198300,0.6061982421875,-0.7060546875,-0.4288482666015625,0.25177001953125
1782987980363272200,0.616272216796875,-0.6530609130859375,-0.4151763916015625,0.256591796875
1782987980373347300,0.626347412109375,-0.60333251953125,-0.4380035400390625,0.28045654296875
1782987980383421400,0.63642138671875,-0.5599365234375,-0.46856689453125,0.29217529296875
1782987980393496300,0.646496337890625,-0.5306549072265625,-0.4936676025390625,0.2706451416015625
1782987980403571500,0.656571533203125,-0.514404296875,-0.515533447265625,0.240142822265625
1782987980413645300,0.666645263671875,-0.5218658447265625,-0.5322723388671875,0.2155914306640625
1782987980423720400,0.676720458984375,-0.5589599609375,-0.5409088134765625,0.1949462890625
1782987980433794300,0.686794189453125,-0.6183624267578125,-0.5391082763671875,0.1763153076171875
1782987980443869400,0.696869384765625,-0.674407958984375,-0.5301361083984375,0.1573486328125
1782987980453943300,0.706943359375,-0.7158203125,-0.529937744140625,0.140228271484375
1782987980464018400,0.717018310546875,-0.7434539794921875,-0.5326690673828125,0.14093017578125
1782987980474093300,0.72709326171875,-0.75372314453125,-0.536529541015625,0.1536407470703125
1782987980484167400,0.73716748046875,-0.760498046875,-0.5414581298828125,0.1606292724609375
1782987980494242300,0.7472421875,-0.76641845703125,-0.5478668212890625,0.170379638671875
1782987980504316400,0.75731640625,-0.7545166015625,-0.56036376953125,0.1748809814453125
1782987980514391300,0.767391357421875,-0.7164764404296875,-0.5760040283203125,0.177032470703125
1782987980524465400,0.77746533203125,-0.6804046630859375,-0.5954132080078125,0.177001953125
1782987980534540300,0.787540283203125,-0.6539306640625,-0.616363525390625,0.1822967529296875
1782987980544614400,0.797614501953125,-0.6417999267578125,-0.634613037109375,0.194915771484375
1782987980554689300,0.807689208984375,-0.6704254150390625,-0.597869873046875,0.177734375
1782987980564764200,0.81776416015625,-0.734832763671875,-0.5996551513671875,0.19671630859375
1782987980574838300,0.82783837890625,-0.782318115234375,-0.6183013916015625,0.22454833984375
1782987980584913200,0.8379130859375,-0.8141937255859375,-0.632171630859375,0.228485107421875
1782987980594987500,0.847987548828125,-0.83013916015625,-0.6323394775390625,0.2255096435546875
1782987980605062100,0.858062255859375,-0.8306121826171875,-0.61444091796875,0.2136077880859375
1782987980615136500,0.868136474609375,-0.7992706298828125,-0.6270294189453125,0.232330322265625
1782987980625211100,0.878211181640625,-0.746124267578125,-0.64404296875,0.2563629150390625
1782987980635286300,0.888286376953125,-0.69940185546875,-0.6700592041015625,0.2689056396484375
1782987980645360000,0.898360107421875,-0.6691741943359375,-0.6773529052734375,0.271087646484375
1782987980655435300,0.908435302734375,-0.685699462890625,-0.6459197998046875,0.2557373046875
1782987980665509000,0.918509033203125,-0.738525390625,-0.6520538330078125,0.2857818603515625
1782987980675584300,0.928584228515625,-0.793365478515625,-0.6532135009765625,0.3081512451171875
1782987980685658000,0.938658203125,-0.830780029296875,-0.6348724365234375,0.2971038818359375
1782987980695733200,0.948733154296875,-0.8448638916015625,-0.6436920166015625,0.290069580078125
1782987980705807000,0.95880712890625,-0.8133544921875,-0.6820220947265625,0.3135528564453125
1782987980715882200,0.96888232421875,-0.7544097900390625,-0.697052001953125,0.3364105224609375
1782987980725957400,0.978957275390625,-0.712432861328125,-0.720489501953125,0.3463897705078125
1782987980736031200,0.98903125,-0.690032958984375,-0.730010986328125,0.3444671630859375
1782987980746106400,0.9991064453125,-0.7015533447265625,-0.664581298828125,0.300994873046875
1782987980756180200,1.00918017578125,-0.75311279296875,-0.6759033203125,0.338287353515625
1782987980766255400,1.01925537109375,-0.8139495849609375,-0.6710662841796875,0.375335693359375
1782987980776329200,1.0293291015625,-0.8822174072265625,-0.6179351806640625,0.3579864501953125
1782987980786404400,1.039404296875,-0.9376983642578125,-0.53350830078125,0.317413330078125
1782987980796478200,1.049478271484375,-0.963653564453125,-0.504730224609375,0.333953857421875
1782987980806553300,1.05955322265625,-0.939788818359375,-0.51824951171875,0.386199951171875
1782987980816628200,1.069628173828125,-0.879669189453125,-0.5396575927734375,0.4008026123046875
1782987980826702300,1.079702392578125,-0.8134002685546875,-0.5531463623046875,0.398406982421875
1782987980836777200,1.089777099609375,-0.7664794921875,-0.5083465576171875,0.3531951904296875
1782987980846851300,1.099851318359375,-0.74530029296875,-0.5373992919921875,0.375823974609375
1782987980856926200,1.10992626953125,-0.68365478515625,-0.5542755126953125,0.41717529296875
1782987980867000300,1.120000244140625,-0.63470458984375,-0.5080718994140625,0.39837646484375
1782987980877075200,1.1300751953125,-0.6333160400390625,-0.5275726318359375,0.4133758544921875
1782987980887149300,1.1401494140625,-0.661651611328125,-0.5374908447265625,0.4217071533203125
1782987980897224400,1.150224365234375,-0.730926513671875,-0.5283203125,0.3624725341796875
1782987980907299300,1.16029931640625,-0.828857421875,-0.5377655029296875,0.3107757568359375
1782987980917373400,1.17037353515625,-0.9287261962890625,-0.5711822509765625,0.2784423828125
1782987980927448300,1.1804482421875,-0.947723388671875,-0.562744140625,0.2272796630859375
1782987980937522400,1.1905224609375,-0.8764801025390625,-0.5137939453125,0.206817626953125
1782987980947597300,1.200597412109375,-0.7812652587890625,-0.485992431640625,0.2524261474609375
1782987980957671400,1.21067138671875,-0.7084503173828125,-0.481170654296875,0.3134002685546875
1782987980967746300,1.220746337890625,-0.7003631591796875,-0.4795074462890625,0.3391876220703125
1782987980977821400,1.230821533203125,-0.7458038330078125,-0.466400146484375,0.3111724853515625
1782987980987895300,1.240895263671875,-0.8065032958984375,-0.44940185546875,0.256561279296875
1782987980997970400,1.250970458984375,-0.8463134765625,-0.4437103271484375,0.2147674560546875
1782987981008044300,1.261044189453125,-0.8633270263671875,-0.4609375,0.201995849609375
1782987981018119400,1.271119384765625,-0.85418701171875,-0.4789886474609375,0.19293212890625
1782987981028193300,1.281193359375,-0.8244476318359375,-0.488983154296875,0.180999755859375
1782987981038268400,1.291268310546875,-0.7799530029296875,-0.49591064453125,0.1756744384765625
1782987981048342300,1.30134228515625,-0.728302001953125,-0.5054168701171875,0.1764068603515625
1782987981058417400,1.31141748046875,-0.6807403564453125,-0.5142822265625,0.1793670654296875
1782987981068492300,1.3214921875,-0.6477203369140625,-0.5212249755859375,0.180755615234375
1782987981078566400,1.33156640625,-0.6352386474609375,-0.5217437744140625,0.1843719482421875
1782987981088641300,1.341641357421875,-0.631439208984375,-0.517425537109375,0.1891021728515625
1782987981098715400,1.35171533203125,-0.6421966552734375,-0.5157470703125,0.1919097900390625
1782987981108790300,1.361790283203125,-0.6681671142578125,-0.5223846435546875,0.19866943359375
1782987981118864400,1.371864501953125,-0.701507568359375,-0.5362548828125,0.1981201171875
1782987981128939300,1.381939208984375,-0.7425994873046875,-0.554595947265625,0.190826416015625
1782987981139014100,1.39201416015625,-0.772674560546875,-0.5678253173828125,0.1842041015625
1782987981149088300,1.402088134765625,-0.7834014892578125,-0.5764312744140625,0.1853485107421875
1782987981159163100,1.4121630859375,-0.796600341796875,-0.587066650390625,0.192169189453125
1782987981169237200,1.4222373046875,-0.811065673828125,-0.5930023193359375,0.1957550048828125
1782987981179312000,1.43231201171875,-0.819061279296875,-0.5951995849609375,0.1977691650390625
1782987981189386200,1.44238623046875,-0.822845458984375,-0.5995025634765625,0.198883056640625
1782987981199461400,1.45246142578125,-0.8275604248046875,-0.60321044921875,0.2059173583984375
1782987981209535500,1.462535400390625,-0.8359222412109375,-0.6082000732421875,0.2055511474609375
1782987981219610400,1.4726103515625,-0.8508758544921875,-0.6152801513671875,0.1931915283203125
1782987981229685500,1.482685546875,-0.8647003173828125,-0.6192474365234375,0.1757659912109375
1782987981239759400,1.49275927734375,-0.87103271484375,-0.620147705078125,0.15887451171875
1782987981249834500,1.50283447265625,-0.87664794921875,-0.61566162109375,0.1460113525390625
1782987981259908400,1.512908447265625,-0.8827056884765625,-0.6057586669921875,0.1403961181640625
1782987981269983500,1.5229833984375,-0.89178466796875,-0.5970916748046875,0.1442413330078125
1782987981280057300,1.533057373046875,-0.902862548828125,-0.5879974365234375,0.1581573486328125
1782987981290132500,1.543132568359375,-0.9129180908203125,-0.59442138671875,0.18890380859375
1782987981300206300,1.553206298828125,-0.915496826171875,-0.6110382080078125,0.223907470703125
1782987981310281500,1.563281494140625,-0.88519287109375,-0.61480712890625,0.2532958984375
1782987981320356400,1.5733564453125,-0.8462677001953125,-0.6095733642578125,0.2622528076171875
1782987981330430500,1.583430419921875,-0.8258819580078125,-0.6046142578125,0.24652099609375
1782987981340505300,1.59350537109375,-0.84521484375,-0.6006927490234375,0.2205963134765625
1782987981350579500,1.603579345703125,-0.900909423828125,-0.584320068359375,0.1806793212890625
1782987981360654300,1.613654296875,-0.970733642578125,-0.547210693359375,0.1274871826171875
1782987981370728400,1.623728515625,-1.0237884521484375,-0.4987640380859375,0.0808258056640625
1782987981380803300,1.63380322265625,-1.0449066162109375,-0.4499359130859375,0.061004638671875
1782987981390877400,1.64387744140625,-1.02630615234375,-0.420562744140625,0.0771331787109375
1782987981400952300,1.653952392578125,-0.9814605712890625,-0.422271728515625,0.1229095458984375
1782987981411027500,1.66402734375,-0.9206085205078125,-0.441162109375,0.1671295166015625
1782987981421101300,1.674101318359375,-0.871124267578125,-0.4662017822265625,0.18463134765625
1782987981431176400,1.684176513671875,-0.8607330322265625,-0.48114013671875,0.1881256103515625
1782987981441250300,1.694250244140625,-0.8819427490234375,-0.4803314208984375,0.17303466796875
1782987981451325400,1.704325439453125,-0.9020843505859375,-0.4702301025390625,0.137237548828125
1782987981461399300,1.7143994140625,-0.906951904296875,-0.464874267578125,0.10089111328125
1782987981471474400,1.724474365234375,-0.894927978515625,-0.4701385498046875,0.0714111328125
1782987981481548500,1.734548583984375,-0.869415283203125,-0.4818878173828125,0.041229248046875
1782987981491623400,1.74462353515625,-0.82891845703125,-0.498260498046875,0.0127410888671875
1782987981501698600,1.754698486328125,-0.777862548828125,-0.5189971923828125,-0.0073089599609375
1782987981511772400,1.7647724609375,-0.7292633056640625,-0.5380401611328125,-0.00885009765625
1782987981521847600,1.77484765625,-0.6976318359375,-0.552337646484375,0.0018310546875
1782987981531921400,1.78492138671875,-0.658477783203125,-0.55877685546875,0.0184783935546875
1782987981541996500,1.79499658203125,-0.6113128662109375,-0.566009521484375,0.04083251953125
1782987981552070400,1.8050703125,-0.5723724365234375,-0.5742034912109375,0.0701446533203125
1782987981562145500,1.8151455078125,-0.5505218505859375,-0.584503173828125,0.104827880859375
1782987981572219400,1.825219482421875,-0.5519256591796875,-0.5909423828125,0.1315765380859375
1782987981582294500,1.83529443359375,-0.567169189453125,-0.59161376953125,0.147003173828125
1782987981592369400,1.845369384765625,-0.589263916015625,-0.5825347900390625,0.1470794677734375
1782987981602443500,1.855443603515625,-0.6071929931640625,-0.569915771484375,0.1353759765625
1782987981612518700,1.8655185546875,-0.6254119873046875,-0.563232421875,0.124664306640625
1782987981622592500,1.875592529296875,-0.648162841796875,-0.5592041015625,0.1164398193359375
1782987981632667600,1.885667724609375,-0.6685333251953125,-0.5531005859375,0.10498046875
1782987981642741500,1.895741455078125,-0.7069549560546875,-0.556640625,0.1026153564453125
1782987981652816600,1.905816650390625,-0.7541351318359375,-0.5637664794921875,0.0984649658203125
1782987981662891300,1.915891357421875,-0.792327880859375,-0.55560302734375,0.0834808349609375
1782987981672965600,1.925965576171875,-0.8119964599609375,-0.5473480224609375,0.0660400390625
1782987981683040300,1.936040283203125,-0.81231689453125,-0.5465240478515625,0.0574188232421875
1782987981693114600,1.946114501953125,-0.796234130859375,-0.5572357177734375,0.06390380859375
1782987981703189200,1.956189208984375,-0.7737274169921875,-0.574981689453125,0.0759735107421875
1782987981713263600,1.966263671875,-0.7640533447265625,-0.598968505859375,0.0853424072265625
1782987981723338200,1.976338134765625,-0.766571044921875,-0.6209716796875,0.0872802734375
1782987981733412600,1.98641259765625,-0.776611328125,-0.628387451171875,0.0807647705078125
1782987981743487200,1.9964873046875,-0.781494140625,-0.636077880859375,0.074188232421875
1782987981753561600,2.0065615234375,-0.783416748046875,-0.6418914794921875,0.0729827880859375
1782987981763636200,2.01663623046875,-0.779815673828125,-0.6496124267578125,0.0813751220703125
1782987981773711400,2.02671142578125,-0.7780609130859375,-0.6562042236328125,0.0929718017578125
1782987981783785200,2.03678515625,-0.7748565673828125,-0.6649017333984375,0.1061248779296875
1782987981793860400,2.0468603515625,-0.7725372314453125,-0.6735382080078125,0.1296539306640625
1782987981803934200,2.056934326171875,-0.7697601318359375,-0.681060791015625,0.1465301513671875
1782987981814009300,2.06700927734375,-0.7742462158203125,-0.6861419677734375,0.154571533203125
1782987981824083500,2.07708349609375,-0.7972564697265625,-0.6935272216796875,0.154022216796875
1782987981834158300,2.087158447265625,-0.821197509765625,-0.690704345703125,0.14239501953125
1782987981844233500,2.0972333984375,-0.83990478515625,-0.68450927734375,0.1290130615234375
1782987981854307300,2.107307373046875,-0.8486328125,-0.6906890869140625,0.1298828125
1782987981864382500,2.117382568359375,-0.82623291015625,-0.719085693359375,0.1645660400390625
1782987981874456300,2.127456298828125,-0.7645416259765625,-0.7411651611328125,0.2097015380859375
1782987981884531500,2.137531494140625,-0.7127532958984375,-0.7627105712890625,0.2363739013671875
1782987981894605300,2.147605224609375,-0.709747314453125,-0.77764892578125,0.241607666015625
1782987981904680400,2.157680419921875,-0.779266357421875,-0.7726593017578125,0.216796875
1782987981914754300,2.16775439453125,-0.9243621826171875,-0.7399139404296875,0.1539459228515625
1782987981924829400,2.177829345703125,-1.095855712890625,-0.678375244140625,0.0700531005859375
1782987981934904300,2.187904296875,-1.24273681640625,-0.6048126220703125,0.002532958984375
1782987981944978400,2.197978515625,-1.3111419677734375,-0.5333709716796875,-0.0409393310546875
1782987981955053300,2.20805322265625,-1.2837371826171875,-0.46923828125,-0.0420989990234375
1782987981965127400,2.21812744140625,-1.1772308349609375,-0.4320831298828125,0.004150390625
1782987981975202300,2.228202392578125,-1.031463623046875,-0.4406280517578125,0.091339111328125
1782987981985276400,2.2382763671875,-0.8957672119140625,-0.4751739501953125,0.172882080078125
1782987981995351300,2.248351318359375,-0.794647216796875,-0.5126800537109375,0.2260589599609375
1782987982005425400,2.25842529296875,-0.73089599609375,-0.5302581787109375,0.2452239990234375
1782987982015500500,2.26850048828125,-0.7024383544921875,-0.5262603759765625,0.229583740234375
1782987982025575400,2.278575439453125,-0.7055511474609375,-0.51165771484375,0.1950836181640625
1782987982035649500,2.2886494140625,-0.7343902587890625,-0.48486328125,0.16424560546875
1782987982045724400,2.298724365234375,-0.7698516845703125,-0.458709716796875,0.1338653564453125
1782987982055798500,2.308798583984375,-0.808807373046875,-0.4473114013671875,0.1068572998046875
1782987982065873400,2.318873291015625,-0.8516693115234375,-0.4337005615234375,0.0773468017578125
1782987982075947500,2.328947509765625,-0.8762054443359375,-0.4210052490234375,0.0526580810546875
1782987982086022400,2.3390224609375,-0.8672637939453125,-0.4175872802734375,0.0386199951171875
1782987982096096500,2.349096435546875,-0.83502197265625,-0.417999267578125,0.0376434326171875
1782987982106171400,2.35917138671875,-0.80609130859375,-0.423919677734375,0.0547332763671875
1782987982116245500,2.36924560546875,-0.7850189208984375,-0.4212799072265625,0.07818603515625
1782987982126320400,2.3793203125,-0.768218994140625,-0.4073333740234375,0.090972900390625
1782987982136395500,2.3893955078125,-0.755859375,-0.394989013671875,0.091949462890625
1782987982146469400,2.399469482421875,-0.74908447265625,-0.38507080078125,0.088348388671875
1782987982156544500,2.40954443359375,-0.739593505859375,-0.3806610107421875,0.0814056396484375
1782987982166618400,2.419618408203125,-0.724273681640625,-0.3727569580078125,0.0727691650390625
1782987982176693500,2.429693603515625,-0.7037200927734375,-0.3694000244140625,0.06378173828125
1782987982186767400,2.439767333984375,-0.700714111328125,-0.38262939453125,0.068328857421875
1782987982196842000,2.449842041015625,-0.721588134765625,-0.398284912109375,0.0708465576171875
1782987982206917000,2.459917236328125,-0.748504638671875,-0.397491455078125,0.0608062744140625
1782987982216991000,2.469990966796875,-0.7614288330078125,-0.38897705078125,0.039398193359375
1782987982227066000,2.480066162109375,-0.7546844482421875,-0.398529052734375,0.021728515625
1782987982237140000,2.490139892578125,-0.7385101318359375,-0.4225311279296875,0.01910400390625
1782987982247215000,2.500215087890625,-0.7137451171875,-0.4494476318359375,0.0185546875
1782987982257289000,2.5102890625,-0.6915435791015625,-0.468231201171875,0.0243988037109375
1782987982267364000,2.520364013671875,-0.6838226318359375,-0.48089599609375,0.0367584228515625
1782987982277438000,2.53043798828125,-0.685150146484375,-0.4908599853515625,0.047210693359375
1782987982287513000,2.54051318359375,-0.6997222900390625,-0.502593994140625,0.05322265625
1782987982297588200,2.550588134765625,-0.7226715087890625,-0.5171356201171875,0.049957275390625
1782987982307662000,2.560662109375,-0.754791259765625,-0.5355987548828125,0.044036865234375
1782987982317737200,2.5707373046875,-0.7922821044921875,-0.553619384765625,0.037750244140625
1782987982327811000,2.58081103515625,-0.8334197998046875,-0.55865478515625,0.0297088623046875
1782987982337886200,2.59088623046875,-0.8671112060546875,-0.558502197265625,0.026641845703125
1782987982347960000,2.6009599609375,-0.881195068359375,-0.563629150390625,0.02984619140625
1782987982358035200,2.61103515625,-0.89068603515625,-0.5764007568359375,0.0410003662109375
1782987982368109000,2.621109130859375,-0.9073638916015625,-0.5919036865234375,0.05322265625
1782987982378184200,2.63118408203125,-0.928619384765625,-0.60211181640625,0.0593109130859375
1782987982388258000,2.641258056640625,-0.9459686279296875,-0.6016693115234375,0.0621337890625
1782987982398333200,2.651333251953125,-0.953094482421875,-0.5961456298828125,0.0645904541015625
1782987982408407800,2.66140771484375,-0.9511260986328125,-0.5936279296875,0.0712127685546875
1782987982418482200,2.671482177734375,-0.944915771484375,-0.593841552734375,0.0772857666015625
1782987982428556800,2.681556884765625,-0.933502197265625,-0.6091766357421875,0.08587646484375
1782987982438631200,2.691631103515625,-0.914825439453125,-0.6317596435546875,0.1052398681640625
1782987982448705800,2.701705810546875,-0.898101806640625,-0.64178466796875,0.10357666015625
1782987982458780200,2.7117802734375,-0.8833770751953125,-0.6312255859375,0.0741424560546875
1782987982468854800,2.721854736328125,-0.8804473876953125,-0.615325927734375,0.027984619140625
1782987982478929200,2.73192919921875,-0.898284912109375,-0.6142730712890625,-0.0104217529296875
1782987982489003800,2.742003662109375,-0.9210205078125,-0.6074371337890625,-0.0331878662109375
1782987982499079000,2.752078857421875,-0.952545166015625,-0.593658447265625,-0.0640869140625
1782987982509153000,2.762153076171875,-1.0021209716796875,-0.5626983642578125,-0.1156158447265625
1782987982519228000,2.772227783203125,-1.0565338134765625,-0.5106048583984375,-0.1661834716796875
1782987982529302000,2.782302001953125,-1.109130859375,-0.4502105712890625,-0.19195556640625
1782987982539377000,2.792376953125,-1.1420745849609375,-0.3973541259765625,-0.178131103515625
1782987982549451000,2.802450927734375,-1.1240234375,-0.3547210693359375,-0.12384033203125
1782987982559526000,2.81252587890625,-1.0499114990234375,-0.33489990234375,-0.0455169677734375
1782987982569600000,2.82260009765625,-0.9536895751953125,-0.3425140380859375,0.0286102294921875
1782987982579675000,2.8326748046875,-0.887298583984375,-0.35986328125,0.09722900390625
1782987982589750000,2.84275,-0.872955322265625,-0.376007080078125,0.156829833984375
1782987982599824000,2.852823974609375,-0.893402099609375,-0.37506103515625,0.182037353515625
1782987982609899000,2.86289892578125,-0.9281463623046875,-0.3646392822265625,0.159820556640625
1782987982619972900,2.872972900390625,-0.9676971435546875,-0.3583221435546875,0.102935791015625
1782987982630048000,2.883048095703125,-0.994842529296875,-0.364776611328125,0.033477783203125
1782987982640121900,2.893121826171875,-1.014556884765625,-0.3814849853515625,-0.0383148193359375
1782987982650197000,2.903197021484375,-1.0213165283203125,-0.3956298828125,-0.11346435546875
1782987982660270800,2.913270751953125,-1.0012664794921875,-0.4051971435546875,-0.1771087646484375
1782987982670346000,2.923345947265625,-0.9601898193359375,-0.4184112548828125,-0.2153778076171875
1782987982680421000,2.933421142578125,-0.9148101806640625,-0.4344482421875,-0.22076416015625
1782987982690495000,2.943494873046875,-0.8751068115234375,-0.4440765380859375,-0.20196533203125
1782987982700570000,2.953570068359375,-0.835968017578125,-0.4425201416015625,-0.17034912109375
1782987982710644000,2.96364404296875,-0.8055267333984375,-0.43389892578125,-0.133819580078125
1782987982720719000,2.973718994140625,-0.79327392578125,-0.4211883544921875,-0.102081298828125
1782987982730793000,2.98379296875,-0.7983551025390625,-0.4095001220703125,-0.081329345703125
1782987982740868000,2.9938681640625,-0.81292724609375,-0.4038543701171875,-0.06732177734375
1782987982750942000,3.00394189453125,-0.8251495361328125,-0.4058380126953125,-0.0562591552734375
1782987982761017000,3.01401708984375,-0.8304901123046875,-0.4129791259765625,-0.047698974609375
1782987982771092000,3.024092041015625,-0.8230133056640625,-0.4170379638671875,-0.040618896484375
1782987982781166000,3.034166015625,-0.8102569580078125,-0.4222869873046875,-0.0352020263671875
1782987982791241000,3.044240966796875,-0.8027191162109375,-0.429931640625,-0.0348358154296875
1782987982801315000,3.054315185546875,-0.80194091796875,-0.438079833984375,-0.0380401611328125
1782987982811390000,3.064389892578125,-0.8133087158203125,-0.4514312744140625,-0.039703369140625
1782987982821464000,3.074464111328125,-0.8214111328125,-0.4647216796875,-0.044677734375
1782987982831539000,3.0845390625,-0.81353759765625,-0.4739227294921875,-0.05517578125
1782987982841613000,3.094613037109375,-0.8019866943359375,-0.4872589111328125,-0.06011962890625
1782987982851688000,3.10468798828125,-0.80426025390625,-0.5043487548828125,-0.0597381591796875
1782987982861763000,3.11476318359375,-0.8037261962890625,-0.5145111083984375,-0.0506134033203125
1782987982871837000,3.1248369140625,-0.7906494140625,-0.51898193359375,-0.0377349853515625
1782987982881912000,3.134912109375,-0.7660980224609375,-0.518890380859375,-0.008575439453125
1782987982891986200,3.144986083984375,-0.7434539794921875,-0.5218505859375,0.034454345703125
1782987982902061000,3.15506103515625,-0.73492431640625,-0.530670166015625,0.0733642578125
1782987982912135200,3.16513525390625,-0.74072265625,-0.53631591796875,0.0980072021484375
1782987982922210000,3.1752099609375,-0.74273681640625,-0.5399627685546875,0.1069183349609375
1782987982932284200,3.1852841796875,-0.743499755859375,-0.5482177734375,0.108245849609375
1782987982942359000,3.195359130859375,-0.750152587890625,-0.5596923828125,0.12054443359375
1782987982952433200,3.20543310546875,-0.7680511474609375,-0.571014404296875,0.1318511962890625
1782987982962508000,3.215508056640625,-0.800384521484375,-0.5785980224609375,0.1358795166015625
1782987982972583200,3.225583251953125,-0.8500518798828125,-0.5726318359375,0.1332855224609375
1782987982982657000,3.235656982421875,-0.9074554443359375,-0.5522308349609375,0.1279449462890625
1782987982992732200,3.245732177734375,-0.9661102294921875,-0.5355987548828125,0.127044677734375
1782987983002806000,3.255805908203125,-1.029541015625,-0.5225372314453125,0.14349365234375
1782987983012881200,3.265881103515625,-1.0865325927734375,-0.5162353515625,0.171783447265625
1782987983022955000,3.275955078125,-1.1163330078125,-0.505096435546875,0.209686279296875
1782987983033030100,3.286030029296875,-1.123992919921875,-0.500244140625,0.2600250244140625
1782987983043104000,3.29610400390625,-1.1219482421875,-0.5094146728515625,0.3163909912109375
1782987983053179100,3.30617919921875,-1.10333251953125,-0.5255584716796875,0.364654541015625
1782987983063254000,3.31625390625,-1.0576934814453125,-0.5371551513671875,0.3975067138671875
1782987983073328000,3.326328125,-0.998199462890625,-0.5461578369140625,0.392333984375
1782987983083403000,3.336403076171875,-0.9486846923828125,-0.54620361328125,0.3476715087890625
1782987983093477000,3.34647705078125,-0.9596710205078125,-0.5440673828125,0.2546234130859375
1782987983103552000,3.356552001953125,-1.0441436767578125,-0.536224365234375,0.1432037353515625
1782987983113626000,3.366626220703125,-1.1595306396484375,-0.5039825439453125,0.03631591796875
1782987983123701000,3.376700927734375,-1.2399749755859375,-0.4374847412109375,-0.04583740234375
1782987983133775000,3.386775146484375,-1.2475433349609375,-0.3642120361328125,-0.061187744140625
1782987983143850000,3.39685009765625,-1.1930389404296875,-0.3326873779296875,-0.0163726806640625
1782987983153924900,3.4069248046875,-1.085235595703125,-0.3388214111328125,0.072296142578125
1782987983163999000,3.4169990234375,-0.971405029296875,-0.3509063720703125,0.1553192138671875
1782987983174073900,3.427073974609375,-0.8974151611328125,-0.363800048828125,0.199859619140625
1782987983184148000,3.43714794921875,-0.883056640625,-0.373870849609375,0.208099365234375
1782987983194222800,3.447222900390625,-0.910888671875,-0.36212158203125,0.172332763671875
1782987983204296700,3.457296630859375,-0.95953369140625,-0.3421783447265625,0.1066131591796875
1782987983214371800,3.467371826171875,-1.0067291259765625,-0.3178558349609375,0.04730224609375
1782987983224445700,3.47744580078125,-1.036346435546875,-0.291748046875,0.0019378662109375
1782987983234520800,3.487520751953125,-1.0373382568359375,-0.26239013671875,-0.0252685546875
1782987983244594700,3.4975947265625,-1.0055694580078125,-0.2357940673828125,-0.01409912109375
1782987983254669800,3.507669921875,-0.9553070068359375,-0.2271270751953125,0.0341796875
1782987983264745000,3.517744873046875,-0.8936614990234375,-0.233551025390625,0.0890655517578125
1782987983274818800,3.52781884765625,-0.8273773193359375,-0.2380828857421875,0.1224822998046875
1782987983284894000,3.53789404296875,-0.76312255859375,-0.245880126953125,0.1369476318359375
1782987983294967800,3.5479677734375,-0.71063232421875,-0.25384521484375,0.152130126953125
1782987983305043000,3.55804296875,-0.6728973388671875,-0.2627410888671875,0.1637420654296875
1782987983315116800,3.56811669921875,-0.651580810546875,-0.2696533203125,0.16851806640625
1782987983325192000,3.57819189453125,-0.6383209228515625,-0.2765960693359375,0.1682281494140625
1782987983335265800,3.588265869140625,-0.64459228515625,-0.2814483642578125,0.164947509765625
1782987983345341000,3.5983408203125,-0.655853271484375,-0.2878265380859375,0.1676483154296875
1782987983355415800,3.608415771484375,-0.6656036376953125,-0.294952392578125,0.1739959716796875
1782987983365490000,3.618489990234375,-0.6826324462890625,-0.303497314453125,0.1876220703125
1782987983375564800,3.628564697265625,-0.72003173828125,-0.3140716552734375,0.203369140625
1782987983385639000,3.638638916015625,-0.780609130859375,-0.3248748779296875,0.205078125
1782987983395713800,3.6487138671875,-0.83306884765625,-0.3312530517578125,0.1952056884765625
1782987983405788000,3.658787841796875,-0.857147216796875,-0.3419036865234375,0.186431884765625
1782987983415862800,3.66886279296875,-0.86285400390625,-0.3598480224609375,0.1804962158203125
1782987983425937000,3.67893701171875,-0.8577728271484375,-0.380096435546875,0.1814117431640625
1782987983436011800,3.68901171875,-0.8502655029296875,-0.400390625,0.17755126953125
1782987983446087000,3.6990869140625,-0.8445281982421875,-0.4146728515625,0.1740570068359375
1782987983456160800,3.709160888671875,-0.8383636474609375,-0.4241180419921875,0.166015625
1782987983466236000,3.71923583984375,-0.8431243896484375,-0.4343719482421875,0.1570892333984375
1782987983476309800,3.729309814453125,-0.8519744873046875,-0.4345855712890625,0.1410369873046875
1782987983486385000,3.739385009765625,-0.8720550537109375,-0.46142578125,0.128753662109375
1782987983496459000,3.749458984375,-0.895233154296875,-0.4929046630859375,0.1405792236328125
1782987983506534000,3.759533935546875,-0.9130859375,-0.4958038330078125,0.1318817138671875
1782987983516608000,3.76960791015625,-0.9275054931640625,-0.5029754638671875,0.126495361328125
1782987983526683000,3.779682861328125,-0.93536376953125,-0.5235443115234375,0.131561279296875
1782987983536757000,3.789757080078125,-0.93768310546875,-0.5454864501953125,0.135894775390625
1782987983546832000,3.799831787109375,-0.9403228759765625,-0.56829833984375,0.129302978515625
1782987983556907000,3.809906982421875,-0.94281005859375,-0.585296630859375,0.1082000732421875
1782987983566980900,3.81998095703125,-0.9443817138671875,-0.589324951171875,0.078460693359375
1782987983577056000,3.830055908203125,-0.9481964111328125,-0.5880584716796875,0.049957275390625
1782987983587129900,3.8401298828125,-0.959808349609375,-0.5825958251953125,0.036224365234375
1782987983597205000,3.850205078125,-0.963958740234375,-0.5721893310546875,0.038116455078125
1782987983607278800,3.86027880859375,-0.95343017578125,-0.5707550048828125,0.0558929443359375
1782987983617354000,3.87035400390625,-0.911041259765625,-0.593048095703125,0.10186767578125
1782987983627427800,3.880427734375,-0.8571319580078125,-0.6180572509765625,0.14483642578125
1782987983637503000,3.8905029296875,-0.8204345703125,-0.638946533203125,0.160614013671875
1782987983647578000,3.900578125,-0.8173370361328125,-0.64141845703125,0.13531494140625
1782987983657652000,3.91065185546875,-0.8531951904296875,-0.6294403076171875,0.0824432373046875
1782987983667727000,3.92072705078125,-0.90899658203125,-0.609649658203125,0.0263519287109375
1782987983677801000,3.930801025390625,-0.9601287841796875,-0.58843994140625,-0.003631591796875
1782987983687876000,3.9408759765625,-0.98876953125,-0.566009521484375,-0.0092010498046875
1782987983697950000,3.950949951171875,-0.9898834228515625,-0.5456695556640625,0.0026092529296875
1782987983708025000,3.961025146484375,-0.970458984375,-0.5327301025390625,0.0339202880859375
1782987983718099000,3.971098876953125,-0.9598236083984375,-0.5231475830078125,0.0601806640625
1782987983728174000,3.981174072265625,-0.948455810546875,-0.509063720703125,0.0664520263671875
1782987983738248700,3.991248779296875,-0.9488372802734375,-0.4953155517578125,0.0590362548828125
1782987983748323000,4.001322998046875,-0.976409912109375,-0.478759765625,0.0312347412109375
1782987983758397700,4.011397705078125,-1.006561279296875,-0.46258544921875,-0.0052337646484375
1782987983768472000,4.02147216796875,-1.0249481201171875,-0.4557952880859375,-0.0380706787109375
1782987983778546700,4.031546630859375,-1.0234222412109375,-0.4477386474609375,-0.0587615966796875
1782987983788621000,4.04162109375,-0.9965057373046875,-0.4412841796875,-0.0656890869140625
1782987983798695700,4.05169580078125,-0.9528961181640625,-0.43994140625,-0.0553741455078125
1782987983808770000,4.06177001953125,-0.8889312744140625,-0.4459686279296875,-0.0230712890625
1782987983818844700,4.0718447265625,-0.8269500732421875,-0.449920654296875,0.014404296875
1782987983828919000,4.0819189453125,-0.7765045166015625,-0.4510955810546875,0.042236328125
1782987983838993700,4.09199365234375,-0.734710693359375,-0.4488677978515625,0.0595550537109375
1782987983849068800,4.10206884765625,-0.691375732421875,-0.4527435302734375,0.072509765625
1782987983859142700,4.112142578125,-0.655059814453125,-0.463348388671875,0.0861053466796875
1782987983869217800,4.1222177734375,-0.6303863525390625,-0.4705047607421875,0.097991943359375
1782987983879291600,4.132291748046875,-0.6079864501953125,-0.475982666015625,0.1074066162109375
1782987983889366800,4.14236669921875,-0.5775604248046875,-0.4875335693359375,0.11761474609375
1782987983899441000,4.15244091796875,-0.54852294921875,-0.5041961669921875,0.139862060546875
1782987983909515800,4.162515869140625,-0.5411376953125,-0.5220794677734375,0.1661376953125
1782987983919590000,4.17258984375,-0.551971435546875,-0.5316162109375,0.181243896484375
1782987983929664800,4.182664794921875,-0.5693817138671875,-0.53253173828125,0.1837158203125
1782987983939740000,4.192739990234375,-0.5852813720703125,-0.532073974609375,0.1795196533203125
1782987983949813800,4.202813720703125,-0.6016693115234375,-0.5400543212890625,0.172943115234375
1782987983959889000,4.212888916015625,-0.6457977294921875,-0.5478057861328125,0.1591644287109375
1782987983969962800,4.222962646484375,-0.7009124755859375,-0.545135498046875,0.1429290771484375
1782987983980038000,4.233037841796875,-0.7586212158203125,-0.5426177978515625,0.1265106201171875
1782987983990111700,4.24311181640625,-0.815582275390625,-0.5461578369140625,0.102813720703125
1782987984000187000,4.253186767578125,-0.85772705078125,-0.5439300537109375,0.085174560546875
1782987984010260700,4.2632607421875,-0.88751220703125,-0.544830322265625,0.0777130126953125
1782987984020335900,4.2733359375,-0.8968658447265625,-0.5431365966796875,0.078765869140625
1782987984030409700,4.28340966796875,-0.8876800537109375,-0.549041748046875,0.0909423828125
1782987984040484900,4.29348486328125,-0.8683013916015625,-0.5545501708984375,0.11077880859375
1782987984050560000,4.30356005859375,-0.86248779296875,-0.532440185546875,0.1213226318359375
1782987984060633900,4.3136337890625,-0.8714599609375,-0.519134521484375,0.1523284912109375
1782987984070709000,4.323708984375,-0.879302978515625,-0.507904052734375,0.189697265625
1782987984080782800,4.333782958984375,-0.8740997314453125,-0.5028839111328125,0.208892822265625
1782987984090858000,4.34385791015625,-0.8586273193359375,-0.4999542236328125,0.2150421142578125
1782987984100931800,4.353931884765625,-0.849945068359375,-0.4992218017578125,0.2151336669921875
1782987984111007000,4.364007080078125,-0.8448486328125,-0.505767822265625,0.2187957763671875
1782987984121080800,4.374080810546875,-0.840301513671875,-0.5138702392578125,0.2259979248046875
1782987984131156000,4.384156005859375,-0.8372955322265625,-0.5198211669921875,0.2270965576171875
1782987984141230800,4.39423095703125,-0.835479736328125,-0.524993896484375,0.2282257080078125
1782987984151305000,4.404304931640625,-0.8303375244140625,-0.53228759765625,0.2257843017578125
1782987984161379800,4.4143798828125,-0.8231658935546875,-0.54827880859375,0.22149658203125
1782987984171454000,4.424453857421875,-0.81976318359375,-0.5643768310546875,0.2167510986328125
1782987984181528800,4.43452880859375,-0.8238677978515625,-0.575286865234375,0.20526123046875
1782987984191603000,4.44460302734375,-0.834197998046875,-0.5786590576171875,0.1894378662109375
1782987984201677800,4.454677734375,-0.8503265380859375,-0.5804901123046875,0.1829376220703125
1782987984211751700,4.464751708984375,-0.8615570068359375,-0.5969390869140625,0.1974334716796875
1782987984221826800,4.474826904296875,-0.855133056640625,-0.622314453125,0.2353973388671875
1782987984231900700,4.484900634765625,-0.83740234375,-0.6384735107421875,0.2751617431640625
1782987984241975800,4.494975830078125,-0.84503173828125,-0.6426239013671875,0.292266845703125
1782987984252051000,4.505051025390625,-0.885833740234375,-0.630523681640625,0.286651611328125
1782987984262124800,4.515124755859375,-0.9422607421875,-0.6066741943359375,0.265899658203125
1782987984272200000,4.525199951171875,-1.0009765625,-0.5816802978515625,0.2466278076171875
1782987984282273800,4.535273681640625,-1.053924560546875,-0.5493927001953125,0.2223052978515625
1782987984292349000,4.545348876953125,-1.0858306884765625,-0.508148193359375,0.188385009765625
1782987984302422800,4.5554228515625,-1.093963623046875,-0.4617462158203125,0.16314697265625
1782987984312498000,4.565497802734375,-1.058441162109375,-0.4264984130859375,0.1649627685546875
1782987984322571800,4.57557177734375,-0.9667205810546875,-0.4215087890625,0.2004852294921875
1782987984332647000,4.58564697265625,-0.8485870361328125,-0.4447479248046875,0.2569122314453125
1782987984342721800,4.5957216796875,-0.7428131103515625,-0.48358154296875,0.30694580078125
1782987984352796000,4.6057958984375,-0.669097900390625,-0.503814697265625,0.33245849609375
1782987984362870800,4.615870849609375,-0.6343841552734375,-0.5135955810546875,0.3277435302734375
1782987984372945000,4.62594482421875,-0.6465911865234375,-0.512908935546875,0.3060455322265625
1782987984383020000,4.63602001953125,-0.7070465087890625,-0.4997100830078125,0.2710418701171875
1782987984393094000,4.646093994140625,-0.797149658203125,-0.47265625,0.2327423095703125
1782987984403169000,4.6561689453125,-0.88409423828125,-0.4482269287109375,0.2017822265625
1782987984413243000,4.666242919921875,-0.9522857666015625,-0.421630859375,0.180816650390625
1782987984423318000,4.676318115234375,-0.986724853515625,-0.3965911865234375,0.1745147705078125
1782987984433391900,4.686391845703125,-0.994873046875,-0.3794097900390625,0.1837005615234375
1782987984443467000,4.696467041015625,-0.9883880615234375,-0.36962890625,0.202789306640625
1782987984453541600,4.706541748046875,-0.980194091796875,-0.3606109619140625,0.22235107421875
1782987984463616000,4.716615966796875,-0.982177734375,-0.350738525390625,0.2303619384765625
1782987984473690600,4.726690673828125,-0.9795684814453125,-0.337005615234375,0.2232666015625
1782987984483765000,4.736764892578125,-0.9567108154296875,-0.3294219970703125,0.2144927978515625
1782987984493839600,4.746839599609375,-0.92462158203125,-0.3336334228515625,0.2109375
1782987984503914000,4.7569140625,-0.8931121826171875,-0.3442535400390625,0.2015380859375
1782987984513988600,4.766988525390625,-0.855072021484375,-0.3465728759765625,0.1956329345703125
1782987984524063000,4.77706298828125,-0.81109619140625,-0.347076416015625,0.20269775390625
1782987984534137600,4.7871376953125,-0.769866943359375,-0.35260009765625,0.219818115234375
1782987984544212000,4.7972119140625,-0.744232177734375,-0.360931396484375,0.2374725341796875
1782987984554286600,4.80728662109375,-0.7449798583984375,-0.365966796875,0.2370758056640625
1782987984564361700,4.81736181640625,-0.76605224609375,-0.3714752197265625,0.2194061279296875
1782987984574435600,4.827435546875,-0.7884368896484375,-0.38531494140625,0.203369140625
1782987984584510700,4.8375107421875,-0.7945098876953125,-0.406707763671875,0.1925811767578125
1782987984594584600,4.84758447265625,-0.78912353515625,-0.4270782470703125,0.190887451171875
1782987984604659700,4.85765966796875,-0.786529541015625,-0.445953369140625,0.19195556640625
1782987984614733600,4.867733642578125,-0.791351318359375,-0.4638824462890625,0.1832122802734375
1782987984624808700,4.87780859375,-0.8018798828125,-0.47900390625,0.170684814453125
1782987984634882800,4.8878828125,-0.8063812255859375,-0.4965057373046875,0.1636962890625
1782987984644957700,4.897957763671875,-0.8092803955078125,-0.5179290771484375,0.1623687744140625
1782987984655032800,4.90803271484375,-0.82086181640625,-0.531890869140625,0.1658782958984375
1782987984665106700,4.918106689453125,-0.8398590087890625,-0.5358123779296875,0.1664276123046875
1782987984675181800,4.928181884765625,-0.8564910888671875,-0.534454345703125,0.162750244140625
1782987984685255700,4.938255615234375,-0.8662261962890625,-0.5378875732421875,0.1632080078125
1782987984695330800,4.948330810546875,-0.8779296875,-0.541351318359375,0.1635284423828125
1782987984705404700,4.95840478515625,-0.888763427734375,-0.5433807373046875,0.163238525390625
1782987984715479800,4.968479736328125,-0.887908935546875,-0.549896240234375,0.172210693359375
1782987984725553700,4.9785537109375,-0.87255859375,-0.5596771240234375,0.1915435791015625
1782987984735628800,4.98862890625,-0.8554229736328125,-0.565704345703125,0.2137908935546875
1782987984745702700,4.99870263671875,-0.8486175537109375,-0.57550048828125,0.2310333251953125
1782987984755777800,5.00877783203125,-0.845458984375,-0.5858612060546875,0.239349365234375
1782987984765852700,5.018852783203125,-0.8447113037109375,-0.598358154296875,0.2381134033203125
1782987984775926800,5.0289267578125,-0.850128173828125,-0.611083984375,0.2305755615234375
1782987984786002000,5.039001953125,-0.8589019775390625,-0.6166839599609375,0.218780517578125
1782987984796075800,5.04907568359375,-0.87261962890625,-0.6168670654296875,0.205780029296875
1782987984806151000,5.05915087890625,-0.878204345703125,-0.617279052734375,0.197296142578125
1782987984816224800,5.069224853515625,-0.8812713623046875,-0.6134185791015625,0.1949310302734375
1782987984826300000,5.0792998046875,-0.888702392578125,-0.6019134521484375,0.202728271484375
1782987984836373800,5.089373779296875,-0.8804931640625,-0.6068267822265625,0.2248687744140625
1782987984846449000,5.099448974609375,-0.8466033935546875,-0.6221771240234375,0.254638671875
1782987984856522800,5.109522705078125,-0.7998504638671875,-0.64404296875,0.27947998046875
1782987984866598000,5.119597900390625,-0.7709808349609375,-0.666900634765625,0.28155517578125
1782987984876672800,5.1296728515625,-0.77825927734375,-0.67724609375,0.243927001953125
1782987984886747000,5.139746826171875,-0.8367462158203125,-0.6688995361328125,0.1729888916015625
1782987984896821800,5.14982177734375,-0.899749755859375,-0.64508056640625,0.0977935791015625
1782987984906896000,5.159895751953125,-0.951416015625,-0.620697021484375,0.051513671875
1782987984916970800,5.169970703125,-0.9947052001953125,-0.58685302734375,0.0356597900390625
1782987984927044900,5.180044921875,-1.0313568115234375,-0.5457916259765625,0.0421142578125
1782987984937119700,5.19011962890625,-1.0484466552734375,-0.50701904296875,0.0631866455078125
1782987984947192800,5.20019287109375,-1.044586181640625,-0.474365234375,0.093109130859375
1782987984957267700,5.210267822265625,-1.0312652587890625,-0.4559173583984375,0.13311767578125
1782987984967342800,5.2203427734375,-1.024261474609375,-0.43646240234375,0.1705322265625
1782987984977416700,5.230416748046875,-1.0206146240234375,-0.41375732421875,0.1983795166015625
1782987984987491800,5.240491943359375,-1.003021240234375,-0.393707275390625,0.2087554931640625
1782987984997565700,5.250565673828125,-0.9771728515625,-0.3860931396484375,0.211517333984375
1782987985007640800,5.260640869140625,-0.94390869140625,-0.3931427001953125,0.202239990234375
1782987985017714700,5.270714599609375,-0.9073638916015625,-0.4075927734375,0.1763916015625
1782987985027789800,5.280789794921875,-0.8715667724609375,-0.4306182861328125,0.1398468017578125
1782987985037863700,5.29086376953125,-0.8418731689453125,-0.4545440673828125,0.1017303466796875
1782987985047938800,5.300938720703125,-0.8177490234375,-0.4759521484375,0.0691070556640625
1782987985058014000,5.311013916015625,-0.803924560546875,-0.49072265625,0.0482940673828125
1782987985068087800,5.321087890625,-0.790191650390625,-0.4983978271484375,0.0374298095703125
1782987985078163000,5.331162841796875,-0.7856903076171875,-0.499603271484375,0.0441741943359375
1782987985088236800,5.34123681640625,-0.7933349609375,-0.49114990234375,0.0576324462890625
1782987985098312000,5.35131201171875,-0.8079986572265625,-0.4751434326171875,0.07916259765625
1782987985108385800,5.3613857421875,-0.8128814697265625,-0.4569854736328125,0.10418701171875
1782987985118461000,5.3714609375,-0.808563232421875,-0.4465179443359375,0.1287384033203125
1782987985128534800,5.38153466796875,-0.8004608154296875,-0.4384613037109375,0.1489410400390625
1782987985138610000,5.39160986328125,-0.78350830078125,-0.4378509521484375,0.16156005859375
1782987985148683800,5.401683837890625,-0.7528839111328125,-0.4434814453125,0.168548583984375
1782987985158759000,5.411759033203125,-0.7169342041015625,-0.4569244384765625,0.173370361328125
1782987985168833800,5.421833740234375,-0.6851806640625,-0.47161865234375,0.1721038818359375
1782987985178908000,5.431907958984375,-0.668212890625,-0.4820556640625,0.1629180908203125
1782987985188982800,5.441982666015625,-0.6761474609375,-0.492279052734375,0.153289794921875
1782987985199057400,5.452057373046875,-0.70367431640625,-0.4951171875,0.1398468017578125
1782987985209132300,5.46213232421875,-0.7248687744140625,-0.49261474609375,0.13360595703125
1782987985219206400,5.472206298828125,-0.7377166748046875,-0.496307373046875,0.1344451904296875
1782987985229281300,5.48228125,-0.7409515380859375,-0.5011138916015625,0.1389312744140625
1782987985239355400,5.49235546875,-0.7366180419921875,-0.5047607421875,0.1403656005859375
1782987985249430300,5.50243017578125,-0.72332763671875,-0.516265869140625,0.1378173828125
1782987985259504400,5.51250439453125,-0.7164764404296875,-0.5400238037109375,0.130828857421875
1782987985269579300,5.522579345703125,-0.7253875732421875,-0.572235107421875,0.1103668212890625
1782987985279654100,5.532654052734375,-0.7572784423828125,-0.600616455078125,0.0777740478515625
1782987985289728300,5.542728271484375,-0.793548583984375,-0.6258087158203125,0.03936767578125
1782987985299803100,5.55280322265625,-0.8212432861328125,-0.6536712646484375,0.0093841552734375
1782987985309877200,5.562877197265625,-0.8444671630859375,-0.67816162109375,-0.01116943359375
1782987985319952100,5.5729521484375,-0.874603271484375,-0.6974029541015625,-0.02093505859375
1782987985330026200,5.583026123046875,-0.889068603515625,-0.6991729736328125,-0.01861572265625
1782987985340101000,5.59310107421875,-0.8857269287109375,-0.69989013671875,-0.0054779052734375
1782987985350175500,5.603175537109375,-0.8677215576171875,-0.6974945068359375,0.019927978515625
1782987985360250000,5.61325,-0.84405517578125,-0.6887969970703125,0.0484161376953125
1782987985370325200,5.6233251953125,-0.8227996826171875,-0.677703857421875,0.0715484619140625
1782987985380399000,5.633399169921875,-0.807281494140625,-0.6631317138671875,0.0938873291015625
1782987985390474200,5.64347412109375,-0.8044891357421875,-0.6428985595703125,0.11077880859375
1782987985400548000,5.653548095703125,-0.8059539794921875,-0.6182403564453125,0.123443603515625
1782987985410623200,5.663623291015625,-0.8109283447265625,-0.5929718017578125,0.137786865234375
1782987985420697000,5.673697021484375,-0.81182861328125,-0.5673980712890625,0.1577606201171875
1782987985430772200,5.683772216796875,-0.7943572998046875,-0.55169677734375,0.1836395263671875
1782987985440846000,5.69384619140625,-0.7471160888671875,-0.542999267578125,0.2230682373046875
1782987985450921200,5.703921142578125,-0.6809234619140625,-0.541107177734375,0.2723541259765625
1782987985460995000,5.7139951171875,-0.6177215576171875,-0.5466766357421875,0.3248138427734375
1782987985471070200,5.7240703125,-0.57958984375,-0.5663909912109375,0.378875732421875
1782987985481145300,5.734145263671875,-0.5634613037109375,-0.5977325439453125,0.424041748046875
1782987985491219200,5.74421923828125,-0.530120849609375,-0.6116943359375,0.4405364990234375
1782987985501294300,5.75429443359375,-0.4855804443359375,-0.6092681884765625,0.4016876220703125
1782987985511368200,5.7643681640625,-0.464996337890625,-0.6264801025390625,0.3328857421875
1782987985521443300,5.774443359375,-0.5082855224609375,-0.6538848876953125,0.26409912109375
1782987985531517200,5.78451708984375,-0.61358642578125,-0.64886474609375,0.1976470947265625
1782987985541592300,5.79459228515625,-0.764556884765625,-0.607025146484375,0.126983642578125
1782987985551666200,5.804666259765625,-0.88818359375,-0.55389404296875,0.065582275390625
1782987985561741300,5.8147412109375,-0.9620208740234375,-0.5029754638671875,0.0254364013671875
1782987985571815200,5.824815185546875,-0.9755096435546875,-0.4766845703125,0.0324859619140625
1782987985581890300,5.834890380859375,-0.9296722412109375,-0.4838409423828125,0.0884552001953125
1782987985591965200,5.844965087890625,-0.8489837646484375,-0.5211334228515625,0.1725006103515625
1782987985602039300,5.855039306640625,-0.7751007080078125,-0.5576019287109375,0.23809814453125
1782987985612114200,5.8651142578125,-0.7399444580078125,-0.5738372802734375,0.2546234130859375
1782987985622188300,5.875188232421875,-0.754150390625,-0.5756378173828125,0.22100830078125
1782987985632263200,5.88526318359375,-0.809783935546875,-0.56549072265625,0.1487274169921875
1782987985642337300,5.895337158203125,-0.9015960693359375,-0.5404205322265625,0.0733795166015625
1782987985652412200,5.905412109375,-0.9999542236328125,-0.5065765380859375,0.0010833740234375
1782987985662486300,5.915486328125,-1.0796966552734375,-0.4727325439453125,-0.0565948486328125
1782987985672561200,5.92556103515625,-1.1183929443359375,-0.4497222900390625,-0.09539794921875
1782987985682636300,5.93563623046875,-1.0980987548828125,-0.440765380859375,-0.121429443359375
1782987985692710100,5.945710205078125,-1.0205078125,-0.446258544921875,-0.125732421875
1782987985702785300,5.955785400390625,-0.9125213623046875,-0.460113525390625,-0.1002044677734375
1782987985712859100,5.965859130859375,-0.817352294921875,-0.46929931640625,-0.055999755859375
1782987985722934300,5.975934326171875,-0.7511138916015625,-0.4655609130859375,-0.012969970703125
1782987985733008400,5.98600830078125,-0.71697998046875,-0.454132080078125,0.01617431640625
1782987985743083300,5.996083251953125,-0.713714599609375,-0.44580078125,0.02569580078125
1782987985753157400,6.006157470703125,-0.735595703125,-0.4355926513671875,0.022216796875
1782987985763232300,6.016232177734375,-0.756378173828125,-0.423797607421875,0.015838623046875
1782987985773306400,6.026306396484375,-0.767730712890625,-0.418701171875,0.012847900390625
1782987985783381200,6.03638134765625,-0.7616729736328125,-0.4196319580078125,0.0246734619140625
1782987985793456400,6.046456298828125,-0.74591064453125,-0.4232177734375,0.0453033447265625
1782987985803530200,6.0565302734375,-0.7271881103515625,-0.4344024658203125,0.0595855712890625
1782987985813605400,6.06660546875,-0.7118072509765625,-0.4505767822265625,0.06890869140625
1782987985823679200,6.07667919921875,-0.706878662109375,-0.4705810546875,0.08447265625
1782987985833754400,6.08675439453125,-0.7159271240234375,-0.4842681884765625,0.095672607421875
1782987985843828200,6.096828125,-0.7406158447265625,-0.4909515380859375,0.1042327880859375
1782987985853903400,6.1069033203125,-0.7761077880859375,-0.494537353515625,0.1025390625
1782987985863977200,6.116977294921875,-0.8115081787109375,-0.4951324462890625,0.1002349853515625
1782987985874052400,6.12705224609375,-0.8477325439453125,-0.5008392333984375,0.0988311767578125
1782987985884126200,6.137126220703125,-0.87274169921875,-0.5139923095703125,0.091705322265625
1782987985894201300,6.147201416015625,-0.881072998046875,-0.533172607421875,0.0782318115234375
1782987985904276500,6.1572763671875,-0.88507080078125,-0.555023193359375,0.0542755126953125
1782987985914350300,6.167350341796875,-0.8931427001953125,-0.5822601318359375,0.019775390625
1782987985924425500,6.177425537109375,-0.9024200439453125,-0.6123199462890625,-0.0171661376953125
1782987985934499300,6.187499267578125,-0.90936279296875,-0.6427001953125,-0.0554046630859375
1782987985944574500,6.197574462890625,-0.9014739990234375,-0.66217041015625,-0.076171875
1782987985954648300,6.2076484375,-0.888671875,-0.676788330078125,-0.0840301513671875
1782987985964723500,6.217723388671875,-0.896087646484375,-0.69049072265625,-0.0712432861328125
1782987985974797300,6.22779736328125,-0.9439697265625,-0.6909942626953125,-0.0438385009765625
1782987985984872400,6.23787255859375,-1.0141754150390625,-0.6725006103515625,-0.031402587890625
1782987985994947000,6.247947021484375,-1.0740966796875,-0.651824951171875,-0.032806396484375
1782987986005021400,6.258021484375,-1.09716796875,-0.6467742919921875,-0.0333099365234375
1782987986015096000,6.268095947265625,-1.0840911865234375,-0.6600494384765625,-0.03717041015625
1782987986025170400,6.27817041015625,-1.0345458984375,-0.681549072265625,-0.042236328125
1782987986035245000,6.2882451171875,-0.9629974365234375,-0.6984100341796875,-0.0409393310546875
1782987986045319400,6.2983193359375,-0.9004974365234375,-0.697509765625,-0.0221710205078125
1782987986055394000,6.30839404296875,-0.8524627685546875,-0.681793212890625,0.007843017578125
1782987986065468400,6.318468505859375,-0.829376220703125,-0.6738128662109375,0.0514068603515625
1782987986075543000,6.32854296875,-0.797027587890625,-0.6920928955078125,0.1031494140625
1782987986085617400,6.338617431640625,-0.74383544921875,-0.6923370361328125,0.1531829833984375
1782987986095692000,6.348692138671875,-0.7095794677734375,-0.700927734375,0.19732666015625
1782987986105767200,6.35876708984375,-0.7287750244140625,-0.702728271484375,0.212249755859375
1782987986115841000,6.368841064453125,-0.814697265625,-0.6631011962890625,0.1652679443359375
1782987986125916200,6.378916259765625,-0.9285888671875,-0.601776123046875,0.0934600830078125
1782987986135990300,6.388990234375,-1.036163330078125,-0.5621337890625,0.04486083984375
1782987986146065200,6.399065185546875,-1.124053955078125,-0.52557373046875,0.0174713134765625
1782987986156139300,6.40913916015625,-1.16888427734375,-0.479339599609375,-0.0050048828125
1782987986166214100,6.419214111328125,-1.1717529296875,-0.4361419677734375,-0.018218994140625
1782987986176288300,6.429288330078125,-1.1290130615234375,-0.4105224609375,-0.0158538818359375
1782987986186363100,6.439363037109375,-1.0514984130859375,-0.4128570556640625,0.0079498291015625
1782987986196437200,6.449437255859375,-0.9614715576171875,-0.433319091796875,0.0308990478515625
1782987986206513000,6.459512939453125,-0.881011962890625,-0.446044921875,0.042816162109375
1782987986216587800,6.469587890625,-0.8304290771484375,-0.447906494140625,0.043731689453125
1782987986226662000,6.479661865234375,-0.8220672607421875,-0.439910888671875,0.0425262451171875
1782987986236736800,6.48973681640625,-0.86199951171875,-0.4308929443359375,0.036956787109375
1782987986246811000,6.499810791015625,-0.9243011474609375,-0.4246063232421875,0.017791748046875
1782987986256886000,6.509885986328125,-0.9688873291015625,-0.4218597412109375,-0.0142364501953125
1782987986266960000,6.5199599609375,-0.9851837158203125,-0.41363525390625,-0.042938232421875
1782987986277035000,6.530034912109375,-0.966217041015625,-0.403564453125,-0.0546417236328125
1782987986287108900,6.54010888671875,-0.91387939453125,-0.3928985595703125,-0.04010009765625
1782987986297184000,6.55018408203125,-0.8422393798828125,-0.393280029296875,-0.0090789794921875
1782987986307259000,6.5602587890625,-0.7672271728515625,-0.4015350341796875,0.03125
1782987986317333000,6.5703330078125,-0.7032318115234375,-0.4110260009765625,0.071990966796875
1782987986327407900,6.580407958984375,-0.65380859375,-0.4182891845703125,0.100738525390625
1782987986337482000,6.59048193359375,-0.6139068603515625,-0.4276123046875,0.1241607666015625
1782987986347556900,6.600556884765625,-0.5872802734375,-0.4417724609375,0.1417083740234375
1782987986357631000,6.610630859375,-0.5729217529296875,-0.455780029296875,0.1566619873046875
1782987986367705900,6.620705810546875,-0.5726165771484375,-0.466796875,0.15985107421875
1782987986377780000,6.630780029296875,-0.5879058837890625,-0.4749755859375,0.1519012451171875
1782987986387854800,6.640854736328125,-0.6211395263671875,-0.4788055419921875,0.136077880859375
1782987986397929000,6.650928955078125,-0.66595458984375,-0.473663330078125,0.1201324462890625
1782987986408003800,6.66100390625,-0.721893310546875,-0.4691619873046875,0.099334716796875
1782987986418079000,6.671078857421875,-0.7696685791015625,-0.4639129638671875,0.0834197998046875
1782987986428152800,6.68115283203125,-0.7928924560546875,-0.4647674560546875,0.0749053955078125
1782987986438228000,6.69122802734375,-0.796417236328125,-0.4752655029296875,0.07470703125
1782987986448301800,6.7013017578125,-0.78759765625,-0.4859161376953125,0.0851898193359375
1782987986458377000,6.711376953125,-0.776702880859375,-0.4905242919921875,0.0984649658203125
1782987986468450800,6.721450927734375,-0.770233154296875,-0.4918212890625,0.10992431640625
1782987986478526000,6.73152587890625,-0.7635345458984375,-0.4958648681640625,0.124114990234375
1782987986488599800,6.741599853515625,-0.7511749267578125,-0.50872802734375,0.1369476318359375
1782987986498675000,6.751675048828125,-0.739837646484375,-0.532440185546875,0.160125732421875
1782987986508749000,6.7617490234375,-0.7344818115234375,-0.5624847412109375,0.1808319091796875
1782987986518824000,6.771823974609375,-0.732879638671875,-0.58160400390625,0.18487548828125
1782987986528899000,6.781899169921875,-0.7423248291015625,-0.5907440185546875,0.1779327392578125
1782987986538973000,6.791972900390625,-0.7596435546875,-0.59881591796875,0.1660919189453125
1782987986549048000,6.802048095703125,-0.7813873291015625,-0.6033172607421875,0.14959716796875
1782987986559122000,6.812121826171875,-0.8089599609375,-0.6069183349609375,0.1360626220703125
1782987986569197000,6.822197021484375,-0.8394012451171875,-0.6082305908203125,0.1337432861328125
1782987986579271000,6.83227099609375,-0.8643951416015625,-0.6077728271484375,0.1409759521484375
1782987986589346000,6.842345947265625,-0.8729248046875,-0.60821533203125,0.162872314453125
1782987986599420000,6.852419921875,-0.8760528564453125,-0.6096038818359375,0.191864013671875
1782987986609495000,6.8624951171875,-0.8756103515625,-0.60986328125,0.2089996337890625
1782987986619569700,6.872569580078125,-0.8757171630859375,-0.6075286865234375,0.215850830078125
1782987986629644000,6.88264404296875,-0.8858795166015625,-0.6021728515625,0.21014404296875
1782987986639719000,6.892718994140625,-0.89935302734375,-0.601959228515625,0.2127227783203125
1782987986649793000,6.90279296875,-0.883697509765625,-0.632904052734375,0.2472686767578125
1782987986659868000,6.912867919921875,-0.8405609130859375,-0.660888671875,0.280548095703125
1782987986669942000,6.92294189453125,-0.8246307373046875,-0.6677703857421875,0.267974853515625
1782987986680017000,6.933016845703125,-0.8589630126953125,-0.6498870849609375,0.2143096923828125
1782987986690091000,6.943091064453125,-0.9486846923828125,-0.6264801025390625,0.1569061279296875
1782987986700166000,6.953165771484375,-1.056610107421875,-0.6183319091796875,0.1273040771484375
1782987986710240000,6.963239990234375,-1.14093017578125,-0.600494384765625,0.1085662841796875
1782987986720315000,6.97331494140625,-1.18145751953125,-0.5687713623046875,0.090911865234375
1782987986730389800,6.9833896484375,-1.178741455078125,-0.5336761474609375,0.0765380859375
1782987986740463900,6.9934638671875,-1.126220703125,-0.5002593994140625,0.083648681640625
1782987986750538800,7.003538818359375,-1.042694091796875,-0.4860382080078125,0.11651611328125
1782987986760612900,7.01361279296875,-0.956085205078125,-0.483642578125,0.1515655517578125
1782987986770687700,7.023687744140625,-0.8792877197265625,-0.4711151123046875,0.17095947265625
1782987986780761900,7.033761962890625,-0.8213958740234375,-0.4488983154296875,0.1715240478515625
1782987986790836700,7.043836669921875,-0.783477783203125,-0.4286041259765625,0.1649932861328125
1782987986800910800,7.053910888671875,-0.759857177734375,-0.409149169921875,0.1575927734375
1782987986810985700,7.06398583984375,-0.74700927734375,-0.3945465087890625,0.1498870849609375
1782987986821059800,7.074059814453125,-0.7457733154296875,-0.3828887939453125,0.1469879150390625
1782987986831134700,7.084134765625,-0.7465667724609375,-0.3785400390625,0.1503448486328125
1782987986841209900,7.0942099609375,-0.7430572509765625,-0.3822784423828125,0.1505279541015625
1782987986851283700,7.10428369140625,-0.746826171875,-0.3922271728515625,0.1479339599609375
1782987986861358800,7.11435888671875,-0.766204833984375,-0.4001312255859375,0.1337738037109375
1782987986871432700,7.1244326171875,-0.7941131591796875,-0.4053955078125,0.108612060546875
1782987986881507800,7.1345078125,-0.8154449462890625,-0.4029693603515625,0.079193115234375
1782987986891581700,7.144581787109375,-0.8319854736328125,-0.4016571044921875,0.0536041259765625
1782987986901656800,7.15465673828125,-0.852294921875,-0.404296875,0.0345916748046875
1782987986911731000,7.16473095703125,-0.8693389892578125,-0.40472412109375,0.0160064697265625
1782987986921805800,7.174805908203125,-0.8683013916015625,-0.4037933349609375,-0.0017547607421875
1782987986931880000,7.1848798828125,-0.8506317138671875,-0.4088897705078125,-0.0146636962890625
1782987986941954800,7.194954833984375,-0.8180999755859375,-0.42327880859375,-0.01483154296875
1782987986952030000,7.205030029296875,-0.778717041015625,-0.4432220458984375,0.0030364990234375
1782987986962103800,7.215103759765625,-0.7392730712890625,-0.4622650146484375,0.02471923828125
1782987986972179000,7.225178955078125,-0.70849609375,-0.474273681640625,0.0405120849609375
1782987986982252800,7.235252685546875,-0.6857147216796875,-0.48291015625,0.0464630126953125
1782987986992328000,7.245327880859375,-0.6691131591796875,-0.4937896728515625,0.0500640869140625
1782987987002401800,7.25540185546875,-0.6599578857421875,-0.50836181640625,0.0581817626953125
1782987987012477000,7.265476806640625,-0.6622772216796875,-0.519744873046875,0.067108154296875
1782987987022550800,7.27555078125,-0.672332763671875,-0.5318450927734375,0.0652618408203125
1782987987032626000,7.2856259765625,-0.69580078125,-0.5392608642578125,0.0592041015625
1782987987042699800,7.29569970703125,-0.724884033203125,-0.544647216796875,0.0505218505859375
1782987987052775000,7.30577490234375,-0.747650146484375,-0.5470123291015625,0.0353240966796875
1782987987062850000,7.31585009765625,-0.7608489990234375,-0.5487518310546875,0.0249786376953125
1782987987072924000,7.325923828125,-0.7663726806640625,-0.557861328125,0.027679443359375
1782987987082999000,7.3359990234375,-0.7751922607421875,-0.570159912109375,0.0384063720703125
1782987987093073000,7.346072998046875,-0.7862548828125,-0.57379150390625,0.0520172119140625
1782987987103148000,7.35614794921875,-0.814208984375,-0.5730438232421875,0.0609130859375
1782987987113222000,7.366221923828125,-0.844818115234375,-0.5645294189453125,0.069580078125
1782987987123297000,7.376297119140625,-0.8659515380859375,-0.5619964599609375,0.07989501953125
1782987987133371000,7.386370849609375,-0.882415771484375,-0.572967529296875,0.0891571044921875
1782987987143446000,7.396446044921875,-0.896453857421875,-0.589569091796875,0.0983123779296875
1782987987153519900,7.406519775390625,-0.9070281982421875,-0.6053466796875,0.0978546142578125
1782987987163595000,7.416594970703125,-0.9144439697265625,-0.62109375,0.0909576416015625
1782987987173670000,7.426669921875,-0.9221954345703125,-0.6336822509765625,0.0812225341796875
1782987987183744000,7.436743896484375,-0.9290924072265625,-0.644012451171875,0.0730743408203125
1782987987193819000,7.44681884765625,-0.94451904296875,-0.6462249755859375,0.0628204345703125
1782987987203892200,7.456892333984375,-0.9656219482421875,-0.6410675048828125,0.0499420166015625
1782987987213967400,7.46696728515625,-0.97900390625,-0.6362457275390625,0.0347442626953125
1782987987224041200,7.477041259765625,-0.987274169921875,-0.6479339599609375,0.0287933349609375
1782987987234116400,7.487116455078125,-0.961822509765625,-0.6921234130859375,0.0510101318359375
1782987987244190200,7.497190185546875,-0.9044189453125,-0.7327728271484375,0.0737457275390625
1782987987254265300,7.507265380859375,-0.8614044189453125,-0.7630615234375,0.072998046875
1782987987264340200,7.51734033203125,-0.85107421875,-0.7512359619140625,0.0494842529296875
1782987987274414300,7.527414306640625,-0.89715576171875,-0.6966400146484375,0.010284423828125
1782987987284489200,7.5374892578125,-0.9832611083984375,-0.6274261474609375,-0.0177459716796875
1782987987294563300,7.547563232421875,-1.0517730712890625,-0.57159423828125,-0.017608642578125
1782987987304638200,7.55763818359375,-1.0882720947265625,-0.5171356201171875,-0.000274658203125
1782987987314712300,7.56771240234375,-1.1033782958984375,-0.4555206298828125,0.0182647705078125
1782987987324787500,7.577787353515625,-1.08428955078125,-0.38848876953125,0.0364227294921875
1782987987334861300,7.587861328125,-1.0397186279296875,-0.334747314453125,0.0612945556640625
1782987987344936400,7.5979365234375,-0.981658935546875,-0.3077239990234375,0.0894775390625
1782987987355010300,7.60801025390625,-0.9283447265625,-0.3065185546875,0.1038665771484375
1782987987365085400,7.61808544921875,-0.8858184814453125,-0.326141357421875,0.086029052734375
1782987987375160300,7.628160400390625,-0.8649444580078125,-0.34954833984375,0.041900634765625
1782987987385234400,7.638234375,-0.8815155029296875,-0.3817596435546875,0.0037689208984375
1782987987395309300,7.648309326171875,-0.916748046875,-0.4107818603515625,-0.0208740234375
1782987987405383400,7.658383544921875,-0.9403839111328125,-0.41986083984375,-0.0487213134765625
1782987987415458300,7.668458251953125,-0.9365997314453125,-0.4193267822265625,-0.0833740234375
1782987987425532400,7.678532470703125,-0.9139556884765625,-0.4210357666015625,-0.1085205078125
1782987987435607300,7.688607177734375,-0.893798828125,-0.429290771484375,-0.1080780029296875
1782987987445681400,7.698681396484375,-0.8643341064453125,-0.4382781982421875,-0.083831787109375
1782987987455756300,7.70875634765625,-0.818878173828125,-0.4373779296875,-0.03814697265625
1782987987465830400,7.718830322265625,-0.7677459716796875,-0.433319091796875,0.0169219970703125
1782987987475905300,7.7289052734375,-0.7204437255859375,-0.4296875,0.0672607421875
1782987987485980200,7.738980224609375,-0.673431396484375,-0.42950439453125,0.11322021484375
1782987987496054300,7.74905419921875,-0.6354522705078125,-0.4385528564453125,0.1508636474609375
1782987987506129200,7.759129150390625,-0.6129302978515625,-0.4571075439453125,0.177978515625
1782987987516203300,7.769203369140625,-0.607574462890625,-0.474365234375,0.1937103271484375
1782987987526278100,7.779278076171875,-0.616119384765625,-0.4853515625,0.202972412109375
1782987987536352300,7.789352294921875,-0.6393585205078125,-0.48980712890625,0.1999053955078125
1782987987546427100,7.79942724609375,-0.6864776611328125,-0.4973602294921875,0.186309814453125
1782987987556501200,7.809501220703125,-0.742431640625,-0.5034332275390625,0.1688385009765625
1782987987566576000,7.819576171875,-0.7893829345703125,-0.507843017578125,0.1490478515625
1782987987576650500,7.829650390625,-0.8194732666015625,-0.5170135498046875,0.1419677734375
1782987987586725000,7.83972509765625,-0.8449859619140625,-0.5269012451171875,0.144561767578125
1782987987596800300,7.84980029296875,-0.860687255859375,-0.532012939453125,0.1500091552734375
1782987987606874000,7.8598740234375,-0.86688232421875,-0.5366668701171875,0.149444580078125
1782987987616949200,7.86994921875,-0.862518310546875,-0.5418548583984375,0.1511688232421875
1782987987627023000,7.880023193359375,-0.8560333251953125,-0.547698974609375,0.1576080322265625
1782987987637098200,7.89009814453125,-0.8440399169921875,-0.5566253662109375,0.1606903076171875
1782987987647172000,7.900172119140625,-0.8253936767578125,-0.5662078857421875,0.159027099609375
1782987987657247200,7.910247314453125,-0.802093505859375,-0.58123779296875,0.1548919677734375
1782987987667321000,7.920321044921875,-0.78887939453125,-0.5983428955078125,0.14923095703125
1782987987677396200,7.930396240234375,-0.781768798828125,-0.6138916015625,0.139190673828125
1782987987687470000,7.940469970703125,-0.779388427734375,-0.6241912841796875,0.1302337646484375
1782987987697545200,7.950545166015625,-0.7838287353515625,-0.6317291259765625,0.1266937255859375
1782987987707620400,7.960620361328125,-0.7994384765625,-0.636199951171875,0.1185760498046875
1782987987717694200,7.970694091796875,-0.81884765625,-0.636199951171875,0.11029052734375
1782987987727769300,7.980769287109375,-0.8367462158203125,-0.6379547119140625,0.1019439697265625
1782987987737843200,7.99084326171875,-0.8535919189453125,-0.64556884765625,0.099334716796875
1782987987747918300,8.00091845703125,-0.86651611328125,-0.653106689453125,0.1019134521484375
1782987987757992200,8.0109921875,-0.874603271484375,-0.656951904296875,0.1131439208984375
1782987987768067300,8.0210673828125,-0.87493896484375,-0.657257080078125,0.122161865234375
1782987987778141200,8.03114111328125,-0.877044677734375,-0.6565704345703125,0.120086669921875
1782987987788216300,8.04121630859375,-0.882659912109375,-0.6494293212890625,0.107452392578125
1782987987798290200,8.051290283203125,-0.90185546875,-0.6412506103515625,0.0892333984375
1782987987808365300,8.061365234375,-0.9326324462890625,-0.6308746337890625,0.07916259765625
1782987987818440200,8.071440185546875,-0.9508819580078125,-0.64898681640625,0.0960693359375
1782987987828514300,8.081514404296875,-0.9332122802734375,-0.6775970458984375,0.1326751708984375
1782987987838589200,8.091589111328124,-0.9200286865234375,-0.687042236328125,0.144805908203125
1782987987848663300,8.101663330078125,-0.9423065185546875,-0.6706695556640625,0.1287078857421875
1782987987858738200,8.11173828125,-0.9936065673828125,-0.6334686279296875,0.1045684814453125
1782987987868812300,8.121812255859375,-1.0450592041015625,-0.6078033447265625,0.09893798828125
1782987987878887200,8.13188720703125,-1.079071044921875,-0.5863037109375,0.10296630859375
1782987987888961300,8.141961181640625,-1.0975494384765625,-0.5436859130859375,0.081329345703125
1782987987899036200,8.1520361328125,-1.0959014892578125,-0.4840545654296875,0.0498046875
1782987987909110300,8.1621103515625,-1.0713348388671875,-0.4311370849609375,0.036712646484375
1782987987919185200,8.17218505859375,-1.0084991455078125,-0.40899658203125,0.0591278076171875
1782987987929260300,8.18226025390625,-0.91204833984375,-0.40838623046875,0.0986328125
1782987987939334100,8.192334228515625,-0.7964019775390625,-0.413543701171875,0.1391754150390625
1782987987949409300,8.2024091796875,-0.6845245361328125,-0.4199981689453125,0.1750335693359375
1782987987959483100,8.212483154296875,-0.5958709716796875,-0.4326629638671875,0.2004547119140625
1782987987969558300,8.222558349609375,-0.5467987060546875,-0.440185546875,0.21795654296875
1782987987979632400,8.23263232421875,-0.5396728515625,-0.4413909912109375,0.22052001953125
1782987987989707300,8.242707275390625,-0.5808258056640625,-0.432830810546875,0.206085205078125
1782987987999781400,8.252781494140624,-0.6592864990234375,-0.42193603515625,0.170928955078125
1782987988009856300,8.262856201171875,-0.74700927734375,-0.41583251953125,0.122650146484375
1782987988019930400,8.272930419921876,-0.8278656005859375,-0.41729736328125,0.07525634765625
1782987988030005200,8.283005126953125,-0.9051666259765625,-0.41796875,0.0308990478515625
1782987988040080400,8.293080322265626,-0.975494384765625,-0.41351318359375,-0.010986328125
1782987988050154200,8.303154296875,-1.025970458984375,-0.413177490234375,-0.0444488525390625
1782987988060229400,8.3132294921875,-1.042877197265625,-0.4180908203125,-0.0679931640625
1782987988070303200,8.32330322265625,-1.01641845703125,-0.424163818359375,-0.0835113525390625
1782987988080378400,8.33337841796875,-0.9545440673828125,-0.4332275390625,-0.086517333984375
1782987988090452200,8.3434521484375,-0.8721466064453125,-0.45111083984375,-0.07275390625
1782987988100527400,8.35352734375,-0.793243408203125,-0.4715576171875,-0.0494232177734375
1782987988110601200,8.363601318359375,-0.7337646484375,-0.4914093017578125,-0.0239410400390625
1782987988120676400,8.37367626953125,-0.6972503662109375,-0.5034942626953125,0.0006103515625
1782987988130750200,8.383750244140625,-0.675872802734375,-0.510101318359375,0.02203369140625
1782987988140825300,8.393825439453124,-0.6685791015625,-0.5112457275390625,0.03778076171875
1782987988150899200,8.403899169921875,-0.6767120361328125,-0.511688232421875,0.0467071533203125
1782987988160974300,8.413974365234376,-0.6910247802734375,-0.5074005126953125,0.0499725341796875
1782987988171049500,8.424049560546875,-0.699462890625,-0.5024261474609375,0.0518035888671875
1782987988181123300,8.434123291015625,-0.7050018310546875,-0.503143310546875,0.0524749755859375
1782987988191198500,8.444198486328125,-0.7036590576171875,-0.508636474609375,0.062896728515625
1782987988201273000,8.454273193359375,-0.6979827880859375,-0.51666259765625,0.0792236328125
1782987988211348200,8.46434814453125,-0.693359375,-0.5214080810546875,0.0901641845703125
1782987988221422000,8.474422119140625,-0.6934661865234375,-0.5254974365234375,0.0959930419921875
1782987988231497200,8.484497314453124,-0.701934814453125,-0.5349578857421875,0.0924072265625
1782987988241571300,8.4945712890625,-0.722625732421875,-0.547515869140625,0.0855865478515625
1782987988251646200,8.504646240234376,-0.7537078857421875,-0.5576934814453125,0.072845458984375
1782987988261721300,8.514721435546875,-0.784637451171875,-0.563629150390625,0.07025146484375
1782987988271795200,8.524795166015625,-0.8137664794921875,-0.5657958984375,0.0709228515625
1782987988281870300,8.534870361328124,-0.8453826904296875,-0.568756103515625,0.0739593505859375
1782987988291944200,8.544944091796875,-0.8866424560546875,-0.566619873046875,0.07818603515625
1782987988302019300,8.555019287109374,-0.916748046875,-0.5662384033203125,0.0817108154296875
1782987988312093200,8.56509326171875,-0.9339141845703125,-0.5713043212890625,0.0902862548828125
1782987988322168300,8.575168212890626,-0.9455718994140625,-0.5758056640625,0.09814453125
1782987988332242200,8.5852421875,-0.9469757080078125,-0.57110595703125,0.0900421142578125
1782987988342317300,8.5953173828125,-0.94024658203125,-0.556854248046875,0.061553955078125
1782987988352391200,8.60539111328125,-0.9204864501953125,-0.542144775390625,0.0243988037109375
1782987988362466300,8.61546630859375,-0.8919677734375,-0.5395050048828125,-0.0114288330078125
1782987988372541200,8.625541259765624,-0.8584136962890625,-0.54095458984375,-0.048675537109375
1782987988382615300,8.635615234375,-0.828765869140625,-0.5461883544921875,-0.07562255859375
1782987988392690400,8.6456904296875,-0.805145263671875,-0.5572662353515625,-0.0796356201171875
1782987988402764300,8.655764404296875,-0.7798309326171875,-0.5712127685546875,-0.069061279296875
1782987988412839400,8.66583935546875,-0.7532806396484375,-0.587005615234375,-0.0597991943359375
1782987988422913300,8.675913330078124,-0.738128662109375,-0.5951995849609375,-0.069580078125
1782987988432988400,8.685988525390625,-0.736602783203125,-0.5958099365234375,-0.099884033203125
1782987988443062300,8.696062255859376,-0.7585601806640625,-0.593780517578125,-0.128753662109375
1782987988453137400,8.706137451171875,-0.80133056640625,-0.59051513671875,-0.1466064453125
1782987988463211300,8.716211181640626,-0.8460235595703125,-0.577392578125,-0.15655517578125
1782987988473286400,8.726286376953125,-0.8959503173828125,-0.5527801513671875,-0.1586761474609375
1782987988483360300,8.7363603515625,-0.9469451904296875,-0.5173492431640625,-0.159393310546875
1782987988493435400,8.746435302734374,-0.9808502197265625,-0.4730987548828125,-0.1584014892578125
1782987988503510300,8.75651025390625,-0.990753173828125,-0.4344024658203125,-0.1490325927734375
1782987988513584400,8.76658447265625,-0.9640045166015625,-0.418487548828125,-0.1214447021484375
1782987988523659300,8.7766591796875,-0.897186279296875,-0.4335479736328125,-0.0780029296875
1782987988533733400,8.7867333984375,-0.8226776123046875,-0.4642791748046875,-0.029388427734375
1782987988543808300,8.796808349609375,-0.7641143798828125,-0.5037689208984375,0.00579833984375
1782987988553882400,8.80688232421875,-0.7296600341796875,-0.5440673828125,0.0099334716796875
1782987988563957200,8.816957275390624,-0.7238616943359375,-0.5879364013671875,-0.0149688720703125
1782987988574031400,8.82703125,-0.73583984375,-0.6310577392578125,-0.056365966796875
1782987988584106200,8.837106201171874,-0.76129150390625,-0.665863037109375,-0.1006927490234375
1782987988594180400,8.847180419921875,-0.795440673828125,-0.6906280517578125,-0.135498046875
1782987988604255200,8.857255126953126,-0.8384246826171875,-0.7034149169921875,-0.1529693603515625
1782987988614330400,8.867330322265625,-0.87890625,-0.71063232421875,-0.1532440185546875
1782987988624404200,8.877404296875,-0.9146575927734375,-0.7148284912109375,-0.139892578125
1782987988634479400,8.887479248046875,-0.9259796142578125,-0.7205352783203125,-0.1163787841796875
1782987988644553500,8.897553466796875,-0.90740966796875,-0.730987548828125,-0.08697509765625
1782987988654628400,8.90762841796875,-0.8733367919921875,-0.7353057861328125,-0.049957275390625
1782987988664702500,8.917702392578125,-0.8340911865234375,-0.71551513671875,-0.0139312744140625
1782987988674777300,8.92777734375,-0.7993316650390625,-0.6743316650390625,0.0318450927734375
1782987988684851500,8.9378515625,-0.7736663818359375,-0.6308746337890625,0.0970458984375
1782987988694926300,8.94792626953125,-0.7543487548828125,-0.5924530029296875,0.1715545654296875
1782987988705000400,8.95800048828125,-0.740875244140625,-0.5600128173828125,0.2297821044921875
1782987988715075300,8.968075439453125,-0.7287139892578125,-0.5239715576171875,0.270294189453125
1782987988725150500,8.978150390625,-0.71563720703125,-0.494659423828125,0.304779052734375
1782987988735224300,8.988224365234375,-0.710601806640625,-0.4817047119140625,0.3372039794921875
1782987988745299500,8.998299560546876,-0.72430419921875,-0.481109619140625,0.3627471923828125
1782987988755373300,9.008373291015625,-0.7380523681640625,-0.4821319580078125,0.3747100830078125
1782987988765448400,9.018448486328126,-0.7460479736328125,-0.489288330078125,0.3658599853515625
1782987988775522300,9.028522216796874,-0.752960205078125,-0.5035552978515625,0.3494720458984375
1782987988785597400,9.038597412109375,-0.7635040283203125,-0.52264404296875,0.3288421630859375
1782987988795671300,9.04867138671875,-0.7710723876953125,-0.539337158203125,0.3062896728515625
1782987988805746400,9.058746337890625,-0.775482177734375,-0.5518035888671875,0.2839813232421875
1782987988815820300,9.0688203125,-0.7725067138671875,-0.563934326171875,0.272613525390625
1782987988825895400,9.0788955078125,-0.7779083251953125,-0.57012939453125,0.2670745849609375
1782987988835970300,9.08897021484375,-0.7907562255859375,-0.562774658203125,0.2658233642578125
1782987988846044400,9.09904443359375,-0.8110504150390625,-0.5486297607421875,0.266998291015625
1782987988856119300,9.109119384765625,-0.841796875,-0.5339813232421875,0.2709197998046875
1782987988866193400,9.119193359375,-0.8725128173828125,-0.5236968994140625,0.274444580078125
1782987988876268300,9.129268310546875,-0.8941192626953125,-0.5208282470703125,0.283294677734375
1782987988886342400,9.13934228515625,-0.9008331298828125,-0.52496337890625,0.29412841796875
1782987988896417300,9.149417236328125,-0.8905029296875,-0.5344390869140625,0.30767822265625
1782987988906491400,9.159491455078125,-0.8676300048828125,-0.5479888916015625,0.3174591064453125
1782987988916566300,9.169566162109374,-0.8442535400390625,-0.564544677734375,0.319854736328125
1782987988926640400,9.179640380859375,-0.831512451171875,-0.578857421875,0.312957763671875
1782987988936715300,9.18971533203125,-0.8346710205078125,-0.5841522216796875,0.2935638427734375
1782987988946790100,9.1997900390625,-0.845062255859375,-0.58050537109375,0.275909423828125
1782987988956864300,9.2098642578125,-0.855743408203125,-0.5985565185546875,0.290252685546875
1782987988966939100,9.219939208984375,-0.8605804443359375,-0.61968994140625,0.31304931640625
1782987988977013200,9.23001318359375,-0.882293701171875,-0.608612060546875,0.3025665283203125
1782987988987088100,9.240088134765625,-0.9612579345703125,-0.5830078125,0.258758544921875
1782987988997162200,9.250162353515625,-1.07501220703125,-0.552825927734375,0.1957855224609375
1782987989007237000,9.260237060546874,-1.1695098876953125,-0.5211181640625,0.1466217041015625
1782987989017311200,9.270311279296875,-1.221771240234375,-0.4888458251953125,0.11431884765625
1782987989027386000,9.28038623046875,-1.2213134765625,-0.458221435546875,0.083831787109375
1782987989037460200,9.290460205078125,-1.183746337890625,-0.4230194091796875,0.05072021484375
1782987989047535400,9.300535400390626,-1.1419525146484375,-0.394073486328125,0.023101806640625
1782987989057609200,9.310609130859374,-1.09991455078125,-0.3802490234375,0.02203369140625
1782987989067684400,9.320684326171875,-1.037811279296875,-0.3806610107421875,0.052825927734375
1782987989077759200,9.33075927734375,-0.946075439453125,-0.3932647705078125,0.1042327880859375
1782987989087833300,9.340833251953125,-0.8445892333984375,-0.4099578857421875,0.157684326171875
1782987989097908200,9.350908203125,-0.7544708251953125,-0.4340362548828125,0.20660400390625
1782987989107982300,9.360982421875,-0.6896820068359375,-0.4546356201171875,0.244354248046875
1782987989118057200,9.37105712890625,-0.6635894775390625,-0.471710205078125,0.24993896484375
1782987989128131300,9.38113134765625,-0.6799774169921875,-0.4755706787109375,0.217315673828125
1782987989138206200,9.391206298828125,-0.74359130859375,-0.4712982177734375,0.1551513671875
1782987989148280300,9.4012802734375,-0.81793212890625,-0.4693603515625,0.0942535400390625
1782987989158355200,9.411355224609375,-0.88653564453125,-0.4650726318359375,0.0451202392578125
1782987989168429300,9.42142919921875,-0.9518890380859375,-0.4420623779296875,0.0088043212890625
1782987989178504200,9.431504150390625,-0.9929962158203125,-0.4191741943359375,-0.006439208984375
1782987989188579300,9.441579345703126,-0.9990081787109375,-0.405120849609375,-0.005950927734375
1782987989198653200,9.451653076171874,-0.9684295654296875,-0.400146484375,0.0167083740234375
1782987989208727000,9.46172705078125,-0.924072265625,-0.4055938720703125,0.05303955078125
1782987989218801000,9.47180078125,-0.8793792724609375,-0.408599853515625,0.0919036865234375
1782987989228876000,9.4818759765625,-0.833099365234375,-0.4046478271484375,0.115753173828125
1782987989238950100,9.4919501953125,-0.792724609375,-0.4060516357421875,0.1231842041015625
1782987989249025000,9.50202490234375,-0.7551422119140625,-0.416015625,0.12127685546875
1782987989259099100,9.51209912109375,-0.727752685546875,-0.4237518310546875,0.1162109375
1782987989269174000,9.522174072265624,-0.705596923828125,-0.43133544921875,0.11053466796875
1782987989279248100,9.532248046875,-0.6962738037109375,-0.4372100830078125,0.1057281494140625
1782987989289323000,9.542322998046876,-0.7009735107421875,-0.44525146484375,0.104705810546875
1782987989299398100,9.552398193359375,-0.7128143310546875,-0.4555206298828125,0.10589599609375
1782987989309472000,9.562471923828125,-0.7383575439453125,-0.4630279541015625,0.1082763671875
1782987989319547100,9.572547119140625,-0.764862060546875,-0.4689178466796875,0.1022491455078125
1782987989329621000,9.58262109375,-0.785247802734375,-0.471649169921875,0.10479736328125
1782987989339696000,9.592696044921874,-0.801513671875,-0.4815216064453125,0.1201324462890625
1782987989349770000,9.60277001953125,-0.8151702880859375,-0.4908294677734375,0.1328582763671875
1782987989359845000,9.61284521484375,-0.82177734375,-0.4990997314453125,0.1393585205078125
1782987989369919000,9.6229189453125,-0.816375732421875,-0.5098114013671875,0.1433868408203125
1782987989379994000,9.632994140625,-0.8098297119140625,-0.5241546630859375,0.146759033203125
1782987989390068000,9.64306787109375,-0.8125457763671875,-0.5404205322265625,0.1443634033203125
1782987989400143000,9.65314306640625,-0.8292236328125,-0.555908203125,0.134429931640625
1782987989410218200,9.66321826171875,-0.8606414794921875,-0.5683746337890625,0.1218719482421875
1782987989420292000,9.6732919921875,-0.8972320556640625,-0.57598876953125,0.11285400390625
1782987989430367200,9.6833671875,-0.9296417236328125,-0.5752105712890625,0.110260009765625
1782987989440441000,9.693441162109375,-0.94989013671875,-0.56793212890625,0.115478515625
1782987989450516200,9.70351611328125,-0.9604034423828125,-0.55767822265625,0.12127685546875
1782987989460590000,9.713590087890625,-0.966949462890625,-0.5493927001953125,0.1253814697265625
1782987989470665200,9.723665283203125,-0.9574432373046875,-0.539154052734375,0.1279449462890625
1782987989480739000,9.733739013671874,-0.9388580322265625,-0.5264129638671875,0.1313018798828125
1782987989490814200,9.743814208984375,-0.9261627197265625,-0.5207977294921875,0.136322021484375
1782987989500888000,9.75388818359375,-0.9138031005859375,-0.5266265869140625,0.14422607421875
1782987989510963200,9.763963134765625,-0.8814239501953125,-0.5570526123046875,0.164764404296875
1782987989521037000,9.774037109375,-0.8291473388671875,-0.5919647216796875,0.190582275390625
1782987989531112200,9.7841123046875,-0.7788543701171875,-0.602783203125,0.200531005859375
1782987989541187000,9.79418701171875,-0.75860595703125,-0.585235595703125,0.15216064453125
1782987989551261200,9.80426123046875,-0.79595947265625,-0.558807373046875,0.0728607177734375
1782987989561336000,9.814336181640625,-0.8851165771484375,-0.53204345703125,0.009002685546875
1782987989571410200,9.82441015625,-0.9941558837890625,-0.4986114501953125,-0.0172119140625
1782987989581485000,9.834485107421875,-1.071624755859375,-0.4679412841796875,-0.00732421875
1782987989591559200,9.84455908203125,-1.0927581787109375,-0.4455413818359375,0.0297088623046875
1782987989601634000,9.854634033203125,-1.0606231689453125,-0.4280853271484375,0.08807373046875
1782987989611708200,9.864708251953125,-1.0009307861328125,-0.4253692626953125,0.1508331298828125
1782987989621783300,9.874783203125,-0.948150634765625,-0.429290771484375,0.2057647705078125
1782987989631857200,9.884857177734375,-0.9374542236328125,-0.433502197265625,0.23883056640625
1782987989641932300,9.894932373046874,-0.9632110595703125,-0.43255615234375,0.2337493896484375
1782987989652007200,9.905007080078125,-1.0058441162109375,-0.420013427734375,0.193817138671875
1782987989662081300,9.915081298828126,-1.0424041748046875,-0.4087677001953125,0.1375274658203125
1782987989672156200,9.92515625,-1.0621337890625,-0.398468017578125,0.091461181640625
1782987989682230300,9.935230224609375,-1.0699462890625,-0.3891448974609375,0.0628814697265625
1782987989692305200,9.94530517578125,-1.055328369140625,-0.3735198974609375,0.0539398193359375
1782987989702379300,9.955379150390625,-1.0236053466796875,-0.3610992431640625,0.06988525390625
1782987989712454100,9.9654541015625,-0.9706573486328125,-0.3578643798828125,0.1065216064453125
1782987989722528300,9.9755283203125,-0.901458740234375,-0.3670654296875,0.14288330078125
1782987989732603100,9.98560302734375,-0.8297882080078125,-0.3868255615234375,0.1655731201171875
1782987989742677200,9.99567724609375,-0.7529144287109375,-0.4133148193359375,0.1797943115234375
1782987989752752000,10.005752197265625,-0.687835693359375,-0.4450225830078125,0.190948486328125
1782987989762827300,10.0158271484375,-0.6363983154296875,-0.4798583984375,0.19122314453125
1782987989772901000,10.025901123046875,-0.60760498046875,-0.514862060546875,0.1848297119140625
1782987989782976300,10.035976318359374,-0.604736328125,-0.5381317138671875,0.18048095703125
1782987989793050000,10.046050048828125,-0.6376495361328125,-0.544952392578125,0.180206298828125
1782987989803125200,10.056125244140626,-0.681182861328125,-0.5341339111328125,0.1814117431640625
1782987989813199000,10.06619921875,-0.716278076171875,-0.516571044921875,0.18829345703125
1782987989823274200,10.076274169921875,-0.75067138671875,-0.5078125,0.2021484375
1782987989833348000,10.08634814453125,-0.7910308837890625,-0.4986572265625,0.216888427734375
1782987989843423200,10.09642333984375,-0.83056640625,-0.48358154296875,0.2228851318359375
1782987989853497000,10.1064970703125,-0.8628997802734375,-0.466644287109375,0.2205047607421875
1782987989863572200,10.116572265625,-0.87689208984375,-0.4544525146484375,0.2145538330078125
1782987989873646300,10.126646240234376,-0.8764190673828125,-0.4526824951171875,0.2131805419921875
1782987989883721200,10.13672119140625,-0.8643646240234375,-0.4596099853515625,0.20513916015625
1782987989893796000,10.146796142578125,-0.8425750732421875,-0.457794189453125,0.1964874267578125
1782987989903870200,10.1568701171875,-0.8283233642578125,-0.4393157958984375,0.2039794921875
1782987989913945000,10.166945068359375,-0.8370513916015625,-0.4127197265625,0.2127227783203125
1782987989924019200,10.177019287109376,-0.8830108642578125,-0.3837432861328125,0.238189697265625
1782987989934094000,10.187093994140625,-0.951171875,-0.357177734375,0.2626495361328125
1782987989944168200,10.197168212890626,-1.0199432373046875,-0.3346099853515625,0.27117919921875
1782987989954243000,10.2072431640625,-1.0864105224609375,-0.31005859375,0.2677001953125
1782987989964317200,10.217317138671875,-1.1331634521484375,-0.2927703857421875,0.2583465576171875
1782987989974392000,10.22739208984375,-1.1524810791015625,-0.292633056640625,0.2300872802734375
1782987989984466200,10.237466064453125,-1.1339569091796875,-0.3008270263671875,0.195465087890625
1782987989994541000,10.247541015625,-1.1012420654296875,-0.317626953125,0.1652679443359375
1782987990004616000,10.257615966796875,-1.067840576171875,-0.3333282470703125,0.147918701171875
1782987990014690000,10.26768994140625,-1.038787841796875,-0.3383331298828125,0.150848388671875
1782987990024765200,10.27776513671875,-1.0135650634765625,-0.338958740234375,0.1566619873046875
1782987990034839000,10.287839111328125,-0.9900360107421875,-0.34173583984375,0.1595458984375
1782987990044914200,10.2979140625,-0.9750823974609375,-0.3515472412109375,0.1639404296875
1782987990054988000,10.307988037109375,-0.9632720947265625,-0.37030029296875,0.175872802734375
1782987990065063200,10.318063232421874,-0.9524993896484375,-0.4063720703125,0.1978912353515625
1782987990075137000,10.328136962890625,-0.9438934326171875,-0.44635009765625,0.22161865234375
1782987990085212200,10.338212158203126,-0.9466094970703125,-0.464202880859375,0.222686767578125
1782987990095286000,10.3482861328125,-0.96844482421875,-0.461334228515625,0.185546875
1782987990105361200,10.358361083984375,-1.0309600830078125,-0.44049072265625,0.1286773681640625
1782987990115435000,10.36843505859375,-1.115814208984375,-0.3972625732421875,0.0868377685546875
1782987990125510100,10.37851025390625,-1.1895294189453125,-0.3411407470703125,0.078277587890625
1782987990135585000,10.3885849609375,-1.2139739990234375,-0.2919464111328125,0.09521484375
1782987990145659100,10.3986591796875,-1.1639404296875,-0.25213623046875,0.129913330078125
1782987990155734000,10.408734130859376,-1.064727783203125,-0.2363433837890625,0.1839447021484375
1782987990165808000,10.41880810546875,-0.9422454833984375,-0.239898681640625,0.2326812744140625
1782987990175883000,10.428883056640625,-0.8328857421875,-0.2672119140625,0.2846527099609375
1782987990185957000,10.43895703125,-0.763580322265625,-0.311126708984375,0.3183441162109375
1782987990196032000,10.449031982421875,-0.720367431640625,-0.346038818359375,0.313720703125
1782987990206106400,10.4591064453125,-0.6876678466796875,-0.3733062744140625,0.286468505859375
1782987990216181500,10.469181396484375,-0.6603546142578125,-0.3951873779296875,0.2532501220703125
1782987990226255400,10.47925537109375,-0.6543426513671875,-0.4090118408203125,0.217498779296875
1782987990236330500,10.48933056640625,-0.677093505859375,-0.41259765625,0.1688690185546875
1782987990246405400,10.4994052734375,-0.74102783203125,-0.4109344482421875,0.1277008056640625
1782987990256479500,10.5094794921875,-0.8458099365234375,-0.4015045166015625,0.102569580078125
1782987990266554400,10.519554443359375,-0.9660186767578125,-0.3690338134765625,0.087615966796875
1782987990276628500,10.52962841796875,-1.070648193359375,-0.330413818359375,0.083343505859375
1782987990286703400,10.539703369140625,-1.1312103271484375,-0.296722412109375,0.0963897705078125
1782987990296777500,10.549777587890626,-1.1292266845703125,-0.273590087890625,0.1251373291015625
1782987990306852400,10.559852294921875,-1.0951080322265625,-0.28216552734375,0.156524658203125
1782987990316926500,10.569926513671875,-1.037200927734375,-0.30731201171875,0.1642608642578125
1782987990327001300,10.58000146484375,-0.9654083251953125,-0.3388519287109375,0.1501922607421875
1782987990337075500,10.590075439453125,-0.904449462890625,-0.376678466796875,0.130706787109375
1782987990347150300,10.600150390625,-0.8504791259765625,-0.412811279296875,0.113983154296875
1782987990357224400,10.610224365234375,-0.81573486328125,-0.43609619140625,0.102447509765625
1782987990367299300,10.62029931640625,-0.8031768798828125,-0.44317626953125,0.0937957763671875
1782987990377374500,10.63037451171875,-0.8076171875,-0.439727783203125,0.0968017578125
1782987990387448600,10.640448486328125,-0.814208984375,-0.4309539794921875,0.124786376953125
1782987990397523500,10.6505234375,-0.8357391357421875,-0.4276885986328125,0.167236328125
1782987990407597600,10.66059765625,-0.85321044921875,-0.4525604248046875,0.193603515625
1782987990417672400,10.67067236328125,-0.8503570556640625,-0.44964599609375,0.1971893310546875
1782987990427746600,10.68074658203125,-0.831573486328125,-0.440765380859375,0.17852783203125
1782987990437821400,10.690821533203126,-0.7991943359375,-0.4656982421875,0.1399993896484375
1782987990447895600,10.7008955078125,-0.7726593017578125,-0.5096893310546875,0.1041412353515625
1782987990457970400,10.710970458984375,-0.75732421875,-0.5412445068359375,0.0706787109375
1782987990468044500,10.72104443359375,-0.74871826171875,-0.568115234375,0.0575408935546875
