time,seconds_elapsed,z,y,x
1782987979789022500,0.0420224609375,0.3532496690750122,-0.4283177852630615,0.8192964792251587
1782987979799097600,0.05209765625,0.31574809551239014,-0.009301356039941311,0.5832895040512085
1782987979809172700,0.0621728515625,0.2994205355644226,0.34168994426727295,0.32682234048843384
1782987979819246600,0.07224658203125,0.29050213098526,0.5876456499099731,0.10390083491802216
1782987979829321700,0.08232177734375,0.25899773836135864,0.6639377474784851,-0.06892979890108109
1782987979839395600,0.0923955078125,0.22275690734386444,0.5452292561531067,-0.16818873584270477
1782987979849470700,0.102470703125,0.18662980198860168,0.3411853015422821,-0.19097581505775452
1782987979859544600,0.112544677734375,0.15295812487602234,0.1339372992515564,-0.14403733611106873
1782987979869619700,0.12261962890625,0.12898167967796326,-0.047267645597457886,-0.06381333619356155
1782987979879693600,0.132693603515625,0.11586534976959229,-0.18588411808013916,0.014474280178546906
1782987979889768700,0.142768798828125,0.12468733638525009,-0.27460360527038574,0.053396113216876984
1782987979899843300,0.15284326171875,0.15773209929466248,-0.2606494426727295,0.01846529357135296
1782987979909917700,0.162917724609375,0.21785642206668854,-0.2032516598701477,-0.05483129248023033
1782987979919992300,0.172992431640625,0.2862951457500458,-0.13638180494308472,-0.16781270503997803
1782987979930066700,0.183066650390625,0.352813184261322,-0.04613899812102318,-0.2498263418674469
1782987979940141300,0.193141357421875,0.39939719438552856,0.05482729524374008,-0.27963483333587646
1782987979950215700,0.203215576171875,0.4212835729122162,0.09901978820562363,-0.2717673182487488
1782987979960290600,0.21329052734375,0.4420703649520874,0.15456721186637878,-0.23325616121292114
1782987979970365400,0.223365478515625,0.4668060541152954,0.2226860672235489,-0.17929944396018982
1782987979980439600,0.233439453125,0.4800257384777069,0.331442654132843,-0.13736185431480408
1782987979990514400,0.243514404296875,0.4742613136768341,0.42823123931884766,-0.11923930794000626
1782987980000588500,0.253588623046875,0.4427550435066223,0.5308883786201477,-0.11322242766618729
1782987980010663400,0.263663330078125,0.36441949009895325,0.5859665274620056,-0.09730498492717743
1782987980020737500,0.273737548828125,0.20747995376586914,0.5582669973373413,-0.02905775047838688
1782987980030812400,0.2838125,0.03946138918399811,0.5588257312774658,0.1401057094335556
1782987980040886500,0.293886474609375,-0.07748280465602875,0.547835111618042,0.3539378345012665
1782987980050961400,0.30396142578125,-0.2230147123336792,0.44298434257507324,0.5376197695732117
1782987980061036500,0.31403662109375,-0.3304396867752075,0.11028362810611725,0.5959784388542175
1782987980071110400,0.3241103515625,-0.42435315251350403,-0.13396579027175903,0.5171107649803162
1782987980081185500,0.334185546875,-0.5138041973114014,-0.10590219497680664,0.4326941668987274
1782987980091259400,0.34425927734375,-0.6032919883728027,-0.21818053722381592,0.25091904401779175
1782987980101334500,0.35433447265625,-0.647942304611206,-0.4169415533542633,-0.05654450133442879
1782987980111408400,0.364408447265625,-0.5944311618804932,-0.5271553993225098,-0.40271151065826416
1782987980121483500,0.3744833984375,-0.4766333997249603,-0.6003055572509766,-0.7765133380889893
1782987980131557400,0.384557373046875,-0.36612099409103394,-0.6266724467277527,-1.1350680589675903
1782987980141632500,0.394632568359375,-0.28165191411972046,-0.5469557642936707,-1.42597496509552
1782987980151707600,0.404707763671875,-0.20994551479816437,-0.4171953797340393,-1.6066709756851196
1782987980161781500,0.414781494140625,-0.14752288162708282,-0.3111504316329956,-1.6391253471374512
1782987980171856600,0.424856689453125,-0.09196268022060394,-0.1919175088405609,-1.469251275062561
1782987980181930500,0.434930419921875,-0.05315296724438667,-0.031269773840904236,-1.099482536315918
1782987980192005400,0.44500537109375,-0.04405613988637924,0.13380226492881775,-0.5822668671607971
1782987980202079200,0.455079345703125,-0.05409013107419014,0.23704290390014648,-0.03357074409723282
1782987980212154400,0.465154296875,-0.060027118772268295,0.2274496704339981,0.4284168481826782
1782987980222229200,0.475229248046875,-0.04085955023765564,0.0998736023902893,0.72484290599823
1782987980232303400,0.485303466796875,0.009613212198019028,-0.062368035316467285,0.8733471632003784
1782987980242378200,0.495378173828125,0.043663591146469116,-0.2445431649684906,0.9028770923614502
1782987980252452400,0.505452392578125,0.03713991120457649,-0.43688464164733887,0.838783860206604
1782987980262527200,0.51552734375,-0.03266580030322075,-0.5510836839675903,0.75389564037323
1782987980272601300,0.525601318359375,-0.17343702912330627,-0.5559660196304321,0.6612533330917358
1782987980282676200,0.53567626953125,-0.36346980929374695,-0.45463940501213074,0.592211902141571
1782987980292750300,0.545750244140625,-0.5689423084259033,-0.24900315701961517,0.5268941521644592
1782987980302825200,0.5558251953125,-0.7269114255905151,-0.023126358166337013,0.4598914384841919
1782987980312900400,0.565900390625,-0.8034221529960632,0.1867712140083313,0.40662795305252075
1782987980322974200,0.57597412109375,-0.7926451563835144,0.3173886239528656,0.3736201822757721
1782987980333049300,0.58604931640625,-0.7168707847595215,0.3380933701992035,0.37403592467308044
1782987980343123200,0.596123291015625,-0.5857729315757751,0.36488714814186096,0.40405985713005066
1782987980353198300,0.6061982421875,-0.4377190172672272,0.32763671875,0.40514615178108215
1782987980363272200,0.616272216796875,-0.2892232835292816,0.2734816074371338,0.3715727627277374
1782987980373347300,0.626347412109375,-0.14221146702766418,0.21910704672336578,0.31645438075065613
1782987980383421400,0.63642138671875,-0.02647182159125805,0.11941001564264297,0.23014850914478302
1782987980393496300,0.646496337890625,0.04509131237864494,0.011095527559518814,0.12355389446020126
1782987980403571500,0.656571533203125,0.07434533536434174,-0.09878809750080109,-0.007934356108307838
1782987980413645300,0.666645263671875,0.08244800567626953,-0.2185927927494049,-0.1361093670129776
1782987980423720400,0.676720458984375,0.09390705078840256,-0.27761322259902954,-0.23259969055652618
1782987980433794300,0.686794189453125,0.11443337053060532,-0.24740126729011536,-0.284864217042923
1782987980443869400,0.696869384765625,0.12471210211515427,-0.15584658086299896,-0.29805538058280945
1782987980453943300,0.706943359375,0.12589934468269348,-0.021086908876895905,-0.28889891505241394
1782987980464018400,0.717018310546875,0.12713344395160675,0.11640996485948563,-0.2597178518772125
1782987980474093300,0.72709326171875,0.13292129337787628,0.2209683358669281,-0.20452651381492615
1782987980484167400,0.73716748046875,0.1485239565372467,0.3064155876636505,-0.13361558318138123
1782987980494242300,0.7472421875,0.1640709638595581,0.3885003328323364,-0.04416240006685257
1782987980504316400,0.75731640625,0.16735170781612396,0.415692001581192,0.04366732016205788
1782987980514391300,0.767391357421875,0.14877136051654816,0.38646194338798523,0.10767293721437454
1782987980524465400,0.77746533203125,0.10891902446746826,0.3358837366104126,0.14182743430137634
1782987980534540300,0.787540283203125,0.06695852428674698,0.2870197892189026,0.15415601432323456
1782987980544614400,0.797614501953125,0.02593253180384636,0.20733587443828583,0.1328754872083664
1782987980554689300,0.807689208984375,-0.014824219979345798,0.1900317221879959,0.14451830089092255
1782987980564764200,0.81776416015625,-0.005480252671986818,0.30571863055229187,0.21306008100509644
1782987980574838300,0.82783837890625,0.0033545177429914474,0.40482738614082336,0.2987382411956787
1782987980584913200,0.8379130859375,-0.004030161537230015,0.49306243658065796,0.3860901892185211
1782987980594987500,0.847987548828125,-0.020954549312591553,0.5426960587501526,0.47842836380004883
1782987980605062100,0.858062255859375,-0.020831512287259102,0.6180903911590576,0.5713119506835938
1782987980615136500,0.868136474609375,-0.00341550400480628,0.6286876201629639,0.6256774663925171
1782987980625211100,0.878211181640625,0.01266812440007925,0.5620290040969849,0.611781120300293
1782987980635286300,0.888286376953125,0.015124624595046043,0.47464853525161743,0.547380805015564
1782987980645360000,0.898360107421875,0.006928213406354189,0.3336021900177002,0.435115784406662
1782987980655435300,0.908435302734375,0.008235027082264423,0.27762070298194885,0.3341287076473236
1782987980665509000,0.918509033203125,0.06305406987667084,0.28844910860061646,0.28572043776512146
1782987980675584300,0.928584228515625,0.12003133445978165,0.3724539875984192,0.2693771421909332
1782987980685658000,0.938658203125,0.15291790664196014,0.580774188041687,0.2568160891532898
1782987980695733200,0.948733154296875,0.15794436633586884,0.9084753394126892,0.25095072388648987
1782987980705807000,0.95880712890625,0.15003396570682526,1.053349494934082,0.19837486743927002
1782987980715882200,0.96888232421875,0.14627012610435486,0.9999322891235352,0.09164869040250778
1782987980725957400,0.978957275390625,0.12837554514408112,0.8020586371421814,-0.0377148874104023
1782987980736031200,0.98903125,0.0844632163643837,0.5049100518226624,-0.19091428816318512
1782987980746106400,0.9991064453125,0.028140557929873466,0.2793616056442261,-0.35084882378578186
1782987980756180200,1.00918017578125,0.03470764681696892,0.1890258491039276,-0.45522984862327576
1782987980766255400,1.01925537109375,0.050220292061567307,0.12007873505353928,-0.505605936050415
1782987980776329200,1.0293291015625,0.06982169300317764,0.21559780836105347,-0.47801849246025085
1782987980786404400,1.039404296875,0.09507058560848236,0.3795478641986847,-0.38721776008605957
1782987980796478200,1.049478271484375,0.17010781168937683,0.5811116099357605,-0.2532002925872803
1782987980806553300,1.05955322265625,0.26742851734161377,0.6959971785545349,-0.12117595970630646
1782987980816628200,1.069628173828125,0.32833901047706604,0.6684683561325073,-0.001841842196881771
1782987980826702300,1.079702392578125,0.35864710807800293,0.5568307638168335,0.08097900450229645
1782987980836777200,1.089777099609375,0.3727954030036926,0.45532065629959106,0.11743474751710892
1782987980846851300,1.099851318359375,0.4161846935749054,0.44611090421676636,0.1415211707353592
1782987980856926200,1.10992626953125,0.45128703117370605,0.2641810476779938,0.10158441215753555
1782987980867000300,1.120000244140625,0.4644816517829895,0.0021140172611922026,-0.027816982939839363
1782987980877075200,1.1300751953125,0.544547975063324,-0.1235155463218689,-0.15716911852359772
1782987980887149300,1.1401494140625,0.6201330423355103,-0.25216326117515564,-0.29810839891433716
1782987980897224400,1.150224365234375,0.6436823010444641,-0.29342254996299744,-0.3967825174331665
1782987980907299300,1.16029931640625,0.6162171363830566,-0.25006815791130066,-0.4080332815647125
1782987980917373400,1.17037353515625,0.520941972732544,-0.08062054216861725,-0.3216153085231781
1782987980927448300,1.1804482421875,0.3710249364376068,0.06554917991161346,-0.2428709715604782
1782987980937522400,1.1905224609375,0.2867007553577423,0.06787198781967163,-0.22147247195243835
1782987980947597300,1.200597412109375,0.32741060853004456,-0.03749384731054306,-0.2712877094745636
1782987980957671400,1.21067138671875,0.4699070453643799,-0.20603466033935547,-0.359354168176651
1782987980967746300,1.220746337890625,0.6396383047103882,-0.3419402837753296,-0.4168672561645508
1782987980977821400,1.230821533203125,0.7589465975761414,-0.3769243657588959,-0.3964783847332001
1782987980987895300,1.240895263671875,0.8228491544723511,-0.33158165216445923,-0.3002530336380005
1782987980997970400,1.250970458984375,0.8287280797958374,-0.25883981585502625,-0.18107818067073822
1782987981008044300,1.261044189453125,0.8054932951927185,-0.17536543309688568,-0.06010701134800911
1782987981018119400,1.271119384765625,0.7653213739395142,-0.09446685016155243,0.034987546503543854
1782987981028193300,1.281193359375,0.7046593427658081,-0.044923000037670135,0.09358853846788406
1782987981038268400,1.291268310546875,0.6334059834480286,-0.017356086522340775,0.10417141020298004
1782987981048342300,1.30134228515625,0.5603549480438232,-0.02401665225625038,0.07441191375255585
1782987981058417400,1.31141748046875,0.48504072427749634,-0.045644983649253845,0.0023763386998325586
1782987981068492300,1.3214921875,0.4206468164920807,-0.03953782096505165,-0.09749539941549301
1782987981078566400,1.33156640625,0.3750329911708832,-0.0049092709086835384,-0.21748864650726318
1782987981088641300,1.341641357421875,0.35515037178993225,0.03509993106126785,-0.3348267376422882
1782987981098715400,1.35171533203125,0.355317085981369,0.08136995881795883,-0.4247526228427887
1782987981108790300,1.361790283203125,0.355243057012558,0.11192387342453003,-0.46318069100379944
1782987981118864400,1.371864501953125,0.34134480357170105,0.11665577441453934,-0.45774972438812256
1782987981128939300,1.381939208984375,0.3117227256298065,0.1286807507276535,-0.4068780243396759
1782987981139014100,1.39201416015625,0.2707151174545288,0.1182323694229126,-0.3368491232395172
1782987981149088300,1.402088134765625,0.22588986158370972,0.07274957001209259,-0.2641568183898926
1782987981159163100,1.4121630859375,0.1965908259153366,0.03008386678993702,-0.19639959931373596
1782987981169237200,1.4222373046875,0.1842244267463684,-0.011522699147462845,-0.13845402002334595
1782987981179312000,1.43231201171875,0.17248842120170593,-0.06237948685884476,-0.10381454229354858
1782987981189386200,1.44238623046875,0.1604141741991043,-0.1264151930809021,-0.08223921060562134
1782987981199461400,1.45246142578125,0.15698908269405365,-0.17255951464176178,-0.07603377848863602
1782987981209535500,1.462535400390625,0.15469025075435638,-0.20574836432933807,-0.08576523512601852
1782987981219610400,1.4726103515625,0.1411494016647339,-0.21066749095916748,-0.10014338046312332
1782987981229685500,1.482685546875,0.11351484060287476,-0.19196650385856628,-0.12485352158546448
1782987981239759400,1.49275927734375,0.07523909211158752,-0.1572580635547638,-0.15539491176605225
1782987981249834500,1.50283447265625,0.04062385857105255,-0.1071658656001091,-0.1839788854122162
1782987981259908400,1.512908447265625,0.011445201002061367,-0.07680769264698029,-0.1903105527162552
1782987981269983500,1.5229833984375,-0.007345797028392553,-0.050392601639032364,-0.1703978329896927
1782987981280057300,1.533057373046875,-0.010817494243383408,-0.013177321292459965,-0.12389025092124939
1782987981290132500,1.543132568359375,0.006740993354469538,0.08962975442409515,-0.0492253378033638
1782987981300206300,1.553206298828125,0.037084516137838364,0.14801369607448578,0.047529436647892
1782987981310281500,1.563281494140625,0.05993736907839775,0.0117914117872715,0.11583711951971054
1782987981320356400,1.5733564453125,0.06364715099334717,-0.33289405703544617,0.11611701548099518
1782987981330430500,1.583430419921875,0.06586769968271255,-0.746576189994812,0.06517873704433441
1782987981340505300,1.59350537109375,0.05772747844457626,-1.029742956161499,-0.008899485692381859
1782987981350579500,1.603579345703125,0.03248177841305733,-1.0961893796920776,-0.07936113327741623
1782987981360654300,1.613654296875,0.01149686612188816,-0.9479900002479553,-0.11684779077768326
1782987981370728400,1.623728515625,0.0014016216155141592,-0.6000173687934875,-0.12423673272132874
1782987981380803300,1.63380322265625,0.01811322383582592,-0.14810077846050262,-0.11352842301130295
1782987981390877400,1.64387744140625,0.08391939848661423,0.25470712780952454,-0.10089891403913498
1782987981400952300,1.653952392578125,0.19927261769771576,0.4951458275318146,-0.0995689332485199
1782987981411027500,1.66402734375,0.3213322162628174,0.4875374436378479,-0.1143694519996643
1782987981421101300,1.674101318359375,0.4202271103858948,0.2646777331829071,-0.11984384804964066
1782987981431176400,1.684176513671875,0.5074467062950134,0.00945129245519638,-0.0810258761048317
1782987981441250300,1.694250244140625,0.5853308439254761,-0.15059269964694977,-0.0057798586785793304
1782987981451325400,1.704325439453125,0.65205979347229,-0.21839278936386108,0.0695178285241127
1782987981461399300,1.7143994140625,0.7024502754211426,-0.19305893778800964,0.11859828233718872
1782987981471474400,1.724474365234375,0.7458483576774597,-0.05764438584446907,0.15369822084903717
1782987981481548500,1.734548583984375,0.7585667967796326,0.1047530472278595,0.16147997975349426
1782987981491623400,1.74462353515625,0.7271298170089722,0.26672065258026123,0.1474677473306656
1782987981501698600,1.754698486328125,0.650191605091095,0.40862345695495605,0.11568798124790192
1782987981511772400,1.7647724609375,0.5521414875984192,0.48777657747268677,0.09356483817100525
1782987981521847600,1.77484765625,0.45325082540512085,0.5548126101493835,0.09182365983724594
1782987981531921400,1.78492138671875,0.36202478408813477,0.5708293914794922,0.09790818393230438
1782987981541996500,1.79499658203125,0.27195507287979126,0.48824265599250793,0.09377629309892654
1782987981552070400,1.8050703125,0.19366081058979034,0.32857975363731384,0.07368194311857224
1782987981562145500,1.8151455078125,0.13036812841892242,0.13027091324329376,0.0478210523724556
1782987981572219400,1.825219482421875,0.08679109066724777,-0.05758420005440712,0.018881546333432198
1782987981582294500,1.83529443359375,0.05270954966545105,-0.21069546043872833,-0.0028826056513935328
1782987981592369400,1.845369384765625,0.02533092349767685,-0.3110702633857727,-0.033184319734573364
1782987981602443500,1.855443603515625,0.006617955397814512,-0.36076590418815613,-0.07877896726131439
1782987981612518700,1.8655185546875,0.0003299656673334539,-0.3615499436855316,-0.12883014976978302
1782987981622592500,1.875592529296875,-0.002010952914133668,-0.34606367349624634,-0.18917392194271088
1782987981632667600,1.885667724609375,-0.006481867749243975,-0.35424676537513733,-0.23909807205200195
1782987981642741500,1.895741455078125,-0.0027688886038959026,-0.3043428659439087,-0.24775494635105133
1782987981652816600,1.905816650390625,0.01410703081637621,-0.22462165355682373,-0.2071276158094406
1782987981662891300,1.915891357421875,0.03273078054189682,-0.13604411482810974,-0.135871022939682
1782987981672965600,1.925965576171875,0.05367867276072502,-0.04621117189526558,-0.04534617438912392
1782987981683040300,1.936040283203125,0.07781623303890228,0.041971683502197266,0.04670092463493347
1782987981693114600,1.946114501953125,0.11174144595861435,0.08688696473836899,0.11701929569244385
1782987981703189200,1.956189208984375,0.13265977799892426,0.06787092983722687,0.16954322159290314
1782987981713263600,1.966263671875,0.14317819476127625,0.01943761296570301,0.20837052166461945
1782987981723338200,1.976338134765625,0.1373370885848999,-0.005628590937703848,0.24882793426513672
1782987981733412600,1.98641259765625,0.12092935293912888,-0.0017422399250790477,0.287517786026001
1782987981743487200,1.9964873046875,0.0910276472568512,0.03418406844139099,0.3098726272583008
1782987981753561600,2.0065615234375,0.06458564847707748,0.10480204969644547,0.3054206371307373
1782987981763636200,2.01663623046875,0.04662742465734482,0.18319325149059296,0.2761612832546234
1782987981773711400,2.02671142578125,0.03491750359535217,0.28024205565452576,0.22562779486179352
1782987981783785200,2.03678515625,0.03326847404241562,0.3725876808166504,0.1602535843849182
1782987981793860400,2.0468603515625,0.05476391315460205,0.45337679982185364,0.09208039194345474
1782987981803934200,2.056934326171875,0.09074721485376358,0.46767187118530273,0.025021729990839958
1782987981814009300,2.06700927734375,0.12071549892425537,0.4345639646053314,-0.032524652779102325
1782987981824083500,2.07708349609375,0.14074645936489105,0.41658684611320496,-0.05697700008749962
1782987981834158300,2.087158447265625,0.14790557324886322,0.4137614965438843,-0.04854995757341385
1782987981844233500,2.0972333984375,0.13468004763126373,0.4478374421596527,-0.03859053552150726
1782987981854307300,2.107307373046875,0.11840680241584778,0.6556598544120789,-0.0410371832549572
1782987981864382500,2.117382568359375,0.11988752335309982,0.8379918336868286,-0.09133417159318924
1782987981874456300,2.127456298828125,0.13351598381996155,0.7782164216041565,-0.2291727364063263
1782987981884531500,2.137531494140625,0.15010614693164825,0.4251251816749573,-0.4475002884864807
1782987981894605300,2.147605224609375,0.15751665830612183,-0.16187624633312225,-0.6919140219688416
1782987981904680400,2.157680419921875,0.14482882618904114,-0.6859295964241028,-0.8683047294616699
1782987981914754300,2.16775439453125,0.09038795530796051,-0.9253323674201965,-0.9309061169624329
1782987981924829400,2.177829345703125,0.00013502225920092314,-0.8618500828742981,-0.8565708994865417
1782987981934904300,2.187904296875,-0.09707994759082794,-0.4864008128643036,-0.6568180918693542
1782987981944978400,2.197978515625,-0.16288745403289795,0.11797244101762772,-0.38014572858810425
1782987981955053300,2.20805322265625,-0.18060652911663055,0.7237222790718079,-0.09705384820699692
1782987981965127400,2.21812744140625,-0.13603799045085907,1.0688791275024414,0.11688720434904099
1782987981975202300,2.228202392578125,-0.038174282759428024,1.1274065971374512,0.24459350109100342
1782987981985276400,2.2382763671875,0.0697452574968338,0.9529615640640259,0.2842319905757904
1782987981995351300,2.248351318359375,0.149414524435997,0.6529434323310852,0.2627975344657898
1782987982005425400,2.25842529296875,0.18017616868019104,0.3289200961589813,0.2125290483236313
1782987982015500500,2.26850048828125,0.15506388247013092,0.04621569812297821,0.13529443740844727
1782987982025575400,2.278575439453125,0.13308215141296387,-0.13321664929389954,0.03738598898053169
1782987982035649500,2.2886494140625,0.1440940648317337,-0.21485291421413422,-0.06145084276795387
1782987982045724400,2.298724365234375,0.16349491477012634,-0.22966888546943665,-0.15670892596244812
1782987982055798500,2.308798583984375,0.18483643233776093,-0.16476577520370483,-0.2227204293012619
1782987982065873400,2.318873291015625,0.19044265151023865,-0.03050384670495987,-0.23523995280265808
1782987982075947500,2.328947509765625,0.17379602789878845,0.13670457899570465,-0.21707266569137573
1782987982086022400,2.3390224609375,0.14698491990566254,0.2860426604747772,-0.19837114214897156
1782987982096096500,2.349096435546875,0.1126628965139389,0.34770524501800537,-0.19612503051757812
1782987982106171400,2.35917138671875,0.09439680725336075,0.31360507011413574,-0.19812986254692078
1782987982116245500,2.36924560546875,0.08964519947767258,0.23259276151657104,-0.18820905685424805
1782987982126320400,2.3793203125,0.1077919751405716,0.11629331856966019,-0.16022136807441711
1782987982136395500,2.3893955078125,0.13703322410583496,-0.0028037759475409985,-0.13693974912166595
1782987982146469400,2.399469482421875,0.16606061160564423,-0.08662650734186172,-0.10809691250324249
1782987982156544500,2.40954443359375,0.19726859033107758,-0.12955452501773834,-0.0776471272110939
1782987982166618400,2.419618408203125,0.2214176058769226,-0.1380191147327423,-0.06024949252605438
1782987982176693500,2.429693603515625,0.231345072388649,-0.18938137590885162,-0.06968001276254654
1782987982186767400,2.439767333984375,0.23142710328102112,-0.2646031677722931,-0.07923649996519089
1782987982196842000,2.449842041015625,0.2371872514486313,-0.2864496111869812,-0.055505868047475815
1782987982206917000,2.459917236328125,0.23944641649723053,-0.2818697690963745,0.015481221489608288
1782987982216991000,2.469990966796875,0.22275584936141968,-0.25779905915260315,0.08299102634191513
1782987982227066000,2.480066162109375,0.18357355892658234,-0.2388429343700409,0.1380380243062973
1782987982237140000,2.490139892578125,0.13338708877563477,-0.2270701676607132,0.14867070317268372
1782987982247215000,2.500215087890625,0.0662035197019577,-0.24133086204528809,0.12339304387569427
1782987982257289000,2.5102890625,-0.011303254403173923,-0.27223604917526245,0.04576961696147919
1782987982267364000,2.520364013671875,-0.06805521994829178,-0.30104559659957886,-0.047933172434568405
1782987982277438000,2.53043798828125,-0.09659471362829208,-0.32443106174468994,-0.14904087781906128
1782987982287513000,2.54051318359375,-0.1225442886352539,-0.3285214304924011,-0.24540017545223236
1782987982297588200,2.550588134765625,-0.15402232110500336,-0.3400510549545288,-0.3241136372089386
1782987982307662000,2.560662109375,-0.20572839677333832,-0.3267616033554077,-0.38499560952186584
1782987982317737200,2.5707373046875,-0.26973000168800354,-0.2930598258972168,-0.40875208377838135
1782987982327811000,2.58081103515625,-0.3416558802127838,-0.23582451045513153,-0.3990057110786438
1782987982337886200,2.59088623046875,-0.4071318209171295,-0.17388391494750977,-0.3610961437225342
1782987982347960000,2.6009599609375,-0.4631154537200928,-0.17014244198799133,-0.314898282289505
1782987982358035200,2.61103515625,-0.5118811130523682,-0.23305562138557434,-0.27396735548973083
1782987982368109000,2.621109130859375,-0.5490684509277344,-0.32046324014663696,-0.22271722555160522
1782987982378184200,2.63118408203125,-0.5773882269859314,-0.4065895974636078,-0.16078275442123413
1782987982388258000,2.641258056640625,-0.5967230200767517,-0.48067501187324524,-0.09183351695537567
1782987982398333200,2.651333251953125,-0.6045599579811096,-0.5556440353393555,-0.03074859082698822
1782987982408407800,2.66140771484375,-0.596462607383728,-0.6143092513084412,0.019517242908477783
1782987982418482200,2.671482177734375,-0.579958438873291,-0.6159007549285889,0.04801732674241066
1782987982428556800,2.681556884765625,-0.5677361488342285,-0.526378333568573,0.05812562257051468
1782987982438631200,2.691631103515625,-0.5537889003753662,-0.5103729963302612,0.03283970430493355
1782987982448705800,2.701705810546875,-0.5470385551452637,-0.6247091293334961,-0.009003615006804466
1782987982458780200,2.7117802734375,-0.5592659711837769,-0.8298191428184509,-0.07408061623573303
1782987982468854800,2.721854736328125,-0.59632807970047,-1.0332415103912354,-0.16394099593162537
1782987982478929200,2.73192919921875,-0.6606418490409851,-1.1814799308776855,-0.266705185174942
1782987982489003800,2.742003662109375,-0.7301511764526367,-1.3057968616485596,-0.3837239742279053
1782987982499079000,2.752078857421875,-0.8174506425857544,-1.406189203262329,-0.5026543140411377
1782987982509153000,2.762153076171875,-0.9383980631828308,-1.426416277885437,-0.6132181286811829
1782987982519228000,2.772227783203125,-1.0764172077178955,-1.2537922859191895,-0.6849905848503113
1782987982529302000,2.782302001953125,-1.1925305128097534,-0.872923731803894,-0.6883251667022705
1782987982539377000,2.792376953125,-1.2512062788009644,-0.3305014967918396,-0.6174152493476868
1782987982549451000,2.802450927734375,-1.2169513702392578,0.18733474612236023,-0.5209816694259644
1782987982559526000,2.81252587890625,-1.1079349517822266,0.454653263092041,-0.45963895320892334
1782987982569600000,2.82260009765625,-0.9602530598640442,0.42790552973747253,-0.4446229934692383
1782987982579675000,2.8326748046875,-0.7878807783126831,0.21062195301055908,-0.4351930022239685
1782987982589750000,2.84275,-0.6002695560455322,-0.05714983865618706,-0.3776860535144806
1782987982599824000,2.852823974609375,-0.399994820356369,-0.29471686482429504,-0.2759391665458679
1782987982609899000,2.86289892578125,-0.21708224713802338,-0.5071343183517456,-0.148331418633461
1782987982619972900,2.872972900390625,-0.050465039908885956,-0.649074912071228,-0.017978467047214508
1782987982630048000,2.883048095703125,0.06553400307893753,-0.6790602803230286,0.10557755827903748
1782987982640121900,2.893121826171875,0.11658573150634766,-0.605880856513977,0.2081257700920105
1782987982650197000,2.903197021484375,0.09446471929550171,-0.45687487721443176,0.27890247106552124
1782987982660270800,2.913270751953125,0.011932292953133583,-0.28902167081832886,0.3040187358856201
1782987982670346000,2.923345947265625,-0.11853836476802826,-0.13836079835891724,0.2908608615398407
1782987982680421000,2.933421142578125,-0.26612648367881775,-0.039812393486499786,0.2546469271183014
1782987982690495000,2.943494873046875,-0.39707306027412415,-0.026607908308506012,0.21948015689849854
1782987982700570000,2.953570068359375,-0.4968728721141815,-0.09847117960453033,0.16822682321071625
1782987982710644000,2.96364404296875,-0.559701144695282,-0.21725136041641235,0.10563161969184875
1782987982720719000,2.973718994140625,-0.5793909430503845,-0.31645357608795166,0.026318157091736794
1782987982730793000,2.98379296875,-0.5779544115066528,-0.34158289432525635,-0.04950789734721184
1782987982740868000,2.9938681640625,-0.556492269039154,-0.31638938188552856,-0.12228889763355255
1782987982750942000,3.00394189453125,-0.5345968008041382,-0.26454296708106995,-0.18362708389759064
1782987982761017000,3.01401708984375,-0.507858157157898,-0.22260351479053497,-0.2327277809381485
1782987982771092000,3.024092041015625,-0.4772997200489044,-0.21992729604244232,-0.2635922133922577
1782987982781166000,3.034166015625,-0.44117873907089233,-0.2558898329734802,-0.28321173787117004
1782987982791241000,3.044240966796875,-0.4122354984283447,-0.2829592525959015,-0.2908557951450348
1782987982801315000,3.054315185546875,-0.38891658186912537,-0.3080052435398102,-0.26145318150520325
1782987982811390000,3.064389892578125,-0.38050737977027893,-0.2948779761791229,-0.20386125147342682
1782987982821464000,3.074464111328125,-0.39539846777915955,-0.24048690497875214,-0.1160280704498291
1782987982831539000,3.0845390625,-0.4313684403896332,-0.1988864690065384,-0.036068789660930634
1782987982841613000,3.094613037109375,-0.49243950843811035,-0.18455760180950165,0.042760513722896576
1782987982851688000,3.10468798828125,-0.5694085955619812,-0.1449204385280609,0.1312674731016159
1782987982861763000,3.11476318359375,-0.642419159412384,-0.061112623661756516,0.2273186445236206
1782987982871837000,3.1248369140625,-0.6986967921257019,-0.02281237207353115,0.31057649850845337
1782987982881912000,3.134912109375,-0.7257620096206665,-0.09034641087055206,0.3538592755794525
1782987982891986200,3.144986083984375,-0.7248831391334534,-0.19497615098953247,0.36420485377311707
1782987982902061000,3.15506103515625,-0.7113697528839111,-0.2639506757259369,0.341495543718338
1782987982912135200,3.16513525390625,-0.6919249296188354,-0.25469326972961426,0.30441609025001526
1782987982922210000,3.1752099609375,-0.6776295900344849,-0.18848416209220886,0.2315373569726944
1782987982932284200,3.1852841796875,-0.6643721461296082,-0.14914846420288086,0.12499652802944183
1782987982942359000,3.195359130859375,-0.647949755191803,-0.13942579925060272,0.005126318894326687
1782987982952433200,3.20543310546875,-0.6325726509094238,-0.18223026394844055,-0.11141733825206757
1782987982962508000,3.215508056640625,-0.6273784041404724,-0.26159539818763733,-0.21637357771396637
1782987982972583200,3.225583251953125,-0.6331548094749451,-0.2936795651912689,-0.2880192697048187
1782987982982657000,3.235656982421875,-0.6383205652236938,-0.277951717376709,-0.3309805989265442
1782987982992732200,3.245732177734375,-0.6338991522789001,-0.20936520397663116,-0.3508243262767792
1782987983002806000,3.255805908203125,-0.6095600128173828,-0.04415148124098778,-0.3206917345523834
1782987983012881200,3.265881103515625,-0.5747019052505493,0.22757190465927124,-0.22627654671669006
1782987983022955000,3.275955078125,-0.5084861516952515,0.4604911804199219,-0.08820762485265732
1782987983033030100,3.286030029296875,-0.41169941425323486,0.5792524218559265,0.0743783637881279
1782987983043104000,3.29610400390625,-0.2656165063381195,0.6358947157859802,0.24859251081943512
1782987983053179100,3.30617919921875,-0.0936383381485939,0.6141899228096008,0.3983977138996124
1782987983063254000,3.31625390625,0.07154049724340439,0.4658864736557007,0.4662976562976837
1782987983073328000,3.326328125,0.20929330587387085,0.13553306460380554,0.43280228972435
1782987983083403000,3.336403076171875,0.30787554383277893,-0.4103100299835205,0.2944593131542206
1782987983093477000,3.34647705078125,0.3404691517353058,-0.8887096047401428,0.10968948155641556
1782987983103552000,3.356552001953125,0.30681851506233215,-1.0370285511016846,-0.014737134799361229
1782987983113626000,3.366626220703125,0.2199547290802002,-0.7953730225563049,-0.028680114075541496
1782987983123701000,3.376700927734375,0.10115671157836914,-0.34597712755203247,0.04544364660978317
1782987983133775000,3.386775146484375,0.007773767225444317,0.08864358067512512,0.17203594744205475
1782987983143850000,3.39685009765625,-0.034278612583875656,0.4088388979434967,0.2921495735645294
1782987983153924900,3.4069248046875,-0.007690410129725933,0.4550388753414154,0.3581418991088867
1782987983163999000,3.4169990234375,0.06343090534210205,0.1929289698600769,0.34335389733314514
1782987983174073900,3.427073974609375,0.14368154108524323,-0.16671042144298553,0.27848169207572937
1782987983184148000,3.43714794921875,0.204294815659523,-0.4662662446498871,0.20616568624973297
1782987983194222800,3.447222900390625,0.22705206274986267,-0.6718167066574097,0.13484783470630646
1782987983204296700,3.457296630859375,0.20414088666439056,-0.7309913635253906,0.06814656406641006
1782987983214371800,3.467371826171875,0.15388223528862,-0.5896733999252319,0.02461373433470726
1782987983224445700,3.47744580078125,0.0986006110906601,-0.27810218930244446,-0.002344380598515272
1782987983234520800,3.487520751953125,0.06087879836559296,0.07074953615665436,-0.006959904916584492
1782987983244594700,3.4975947265625,0.04879869893193245,0.3160887360572815,0.0049279131926596165
1782987983254669800,3.507669921875,0.07416584342718124,0.4729694128036499,0.044020455330610275
1782987983264745000,3.517744873046875,0.134566068649292,0.5641304850578308,0.09589696675539017
1782987983274818800,3.52781884765625,0.18741969764232635,0.5743756890296936,0.1369463950395584
1782987983284894000,3.53789404296875,0.22275638580322266,0.5179307460784912,0.1643093079328537
1782987983294967800,3.5479677734375,0.2538706362247467,0.4343019127845764,0.17413504421710968
1782987983305043000,3.55804296875,0.2718360424041748,0.354721337556839,0.17093846201896667
1782987983315116800,3.56811669921875,0.28602802753448486,0.28769996762275696,0.1470208764076233
1782987983325192000,3.57819189453125,0.29000332951545715,0.24071380496025085,0.09748953580856323
1782987983335265800,3.588265869140625,0.30069592595100403,0.23933401703834534,0.037930604070425034
1782987983345341000,3.5983408203125,0.31811484694480896,0.26339247822761536,-0.030240459367632866
1782987983355415800,3.608415771484375,0.3508749306201935,0.2557244598865509,-0.1100093275308609
1782987983365490000,3.618489990234375,0.3991636335849762,0.2183975875377655,-0.17926402390003204
1782987983375564800,3.628564697265625,0.46712005138397217,0.18968550860881805,-0.2113868147134781
1782987983385639000,3.638638916015625,0.5374554395675659,0.21095804870128632,-0.18129362165927887
1782987983395713800,3.6487138671875,0.5967763066291809,0.24975736439228058,-0.0986514762043953
1782987983405788000,3.658787841796875,0.6389282941818237,0.2687760591506958,-0.0009305084822699428
1782987983415862800,3.66886279296875,0.6658943891525269,0.2791498899459839,0.083385169506073
1782987983425937000,3.67893701171875,0.6896705627441406,0.2529957890510559,0.14237338304519653
1782987983436011800,3.68901171875,0.7111939787864685,0.198428675532341,0.1747387796640396
1782987983446087000,3.6990869140625,0.7287130355834961,0.16536365449428558,0.1877954602241516
1782987983456160800,3.709160888671875,0.7453609704971313,0.1344078779220581,0.18268033862113953
1782987983466236000,3.71923583984375,0.7693448662757874,0.12149287760257721,0.15527960658073425
1782987983476309800,3.729309814453125,0.7829731106758118,0.09575635194778442,0.12065345048904419
1782987983486385000,3.739385009765625,0.7914922833442688,0.17369988560676575,0.09937798231840134
1782987983496459000,3.749458984375,0.8057771921157837,0.25082075595855713,0.08520890027284622
1782987983506534000,3.759533935546875,0.813295841217041,0.31899476051330566,0.08348450809717178
1782987983516608000,3.76960791015625,0.8377793431282043,0.4029327929019928,0.0860198363661766
1782987983526683000,3.779682861328125,0.8729903101921082,0.4599415063858032,0.11065088212490082
1782987983536757000,3.789757080078125,0.8980189561843872,0.46564438939094543,0.1241520419716835
1782987983546832000,3.799831787109375,0.8960509300231934,0.43760955333709717,0.1419408917427063
1782987983556907000,3.809906982421875,0.8554105162620544,0.40363508462905884,0.17251531779766083
1782987983566980900,3.81998095703125,0.7754136919975281,0.3343934416770935,0.20689140260219574
1782987983577056000,3.830055908203125,0.6873248815536499,0.25906750559806824,0.25418567657470703
1782987983587129900,3.8401298828125,0.6141454577445984,0.26488733291625977,0.31849461793899536
1782987983597205000,3.850205078125,0.56365966796875,0.4123832881450653,0.38714879751205444
1782987983607278800,3.86027880859375,0.5405287742614746,0.6498360633850098,0.44493699073791504
1782987983617354000,3.87035400390625,0.5574914813041687,0.7350322008132935,0.4530433714389801
1782987983627427800,3.880427734375,0.5920377373695374,0.629950225353241,0.39690420031547546
1782987983637503000,3.8905029296875,0.6183825135231018,0.4325471520423889,0.30299368500709534
1782987983647578000,3.900578125,0.6172677278518677,0.21663883328437805,0.20820273458957672
1782987983657652000,3.91065185546875,0.5769796967506409,0.07122278213500977,0.14001862704753876
1782987983667727000,3.92072705078125,0.505909264087677,0.04060468450188637,0.11368182301521301
1782987983677801000,3.930801025390625,0.43328776955604553,0.11400433629751205,0.14259709417819977
1782987983687876000,3.9408759765625,0.3756242096424103,0.23840510845184326,0.2010098099708557
1782987983697950000,3.950949951171875,0.3491542637348175,0.3388984203338623,0.2696993947029114
1782987983708025000,3.961025146484375,0.35557594895362854,0.35732802748680115,0.326031893491745
1782987983718099000,3.971098876953125,0.3977811932563782,0.2963981032371521,0.3724558651447296
1782987983728174000,3.981174072265625,0.4587177634239197,0.16483528912067413,0.39570924639701843
1782987983738248700,3.991248779296875,0.5108792185783386,0.014564828015863895,0.4012680649757385
1782987983748323000,4.001322998046875,0.5613815784454346,-0.05356389284133911,0.3899717330932617
1782987983758397700,4.011397705078125,0.5945518016815186,-0.02497619017958641,0.36509034037590027
1782987983768472000,4.02147216796875,0.5928281545639038,0.11042823642492294,0.34528762102127075
1782987983778546700,4.031546630859375,0.5822535753250122,0.3242238759994507,0.3358272612094879
1782987983788621000,4.04162109375,0.5568898916244507,0.5283663868904114,0.3263903558254242
1782987983798695700,4.05169580078125,0.5308982133865356,0.6641579866409302,0.33789387345314026
1782987983808770000,4.06177001953125,0.5093130469322205,0.7246717214584351,0.34831351041793823
1782987983818844700,4.0718447265625,0.5062599778175354,0.7101984620094299,0.3641369342803955
1782987983828919000,4.0819189453125,0.5182783007621765,0.6775081753730774,0.3776543438434601
1782987983838993700,4.09199365234375,0.5334658026695251,0.6377884745597839,0.3889876902103424
1782987983849068800,4.10206884765625,0.5404794812202454,0.5785994529724121,0.38374847173690796
1782987983859142700,4.112142578125,0.5395015478134155,0.5361313223838806,0.3642788827419281
1782987983869217800,4.1222177734375,0.5386840105056763,0.5301474928855896,0.33878231048583984
1782987983879291600,4.132291748046875,0.5344215631484985,0.5648106336593628,0.2973480522632599
1782987983889366800,4.14236669921875,0.5327222347259521,0.5514615774154663,0.21821995079517365
1782987983899441000,4.15244091796875,0.5356035232543945,0.4854910671710968,0.11600836366415024
1782987983909515800,4.162515869140625,0.5496881604194641,0.408215194940567,0.001987517112866044
1782987983919590000,4.17258984375,0.5803685784339905,0.3629092276096344,-0.10233569145202637
1782987983929664800,4.182664794921875,0.6186866760253906,0.34293898940086365,-0.2001059353351593
1782987983939740000,4.192739990234375,0.6497175693511963,0.29817524552345276,-0.3032509684562683
1782987983949813800,4.202813720703125,0.6760780811309814,0.26778510212898254,-0.4066242277622223
1782987983959889000,4.212888916015625,0.6985716223716736,0.27728673815727234,-0.4856194257736206
1782987983969962800,4.222962646484375,0.7139554023742676,0.3308490216732025,-0.5429799556732178
1782987983980038000,4.233037841796875,0.7225086688995361,0.4196595847606659,-0.5762750506401062
1782987983990111700,4.24311181640625,0.720198929309845,0.5379174947738647,-0.572414755821228
1782987984000187000,4.253186767578125,0.6921401023864746,0.6648584008216858,-0.5461746454238892
1782987984010260700,4.2632607421875,0.6561195254325867,0.7760714888572693,-0.49555301666259766
1782987984020335900,4.2733359375,0.6150946021080017,0.8536658883094788,-0.43032076954841614
1782987984030409700,4.28340966796875,0.5780055522918701,0.8761773109436035,-0.3785230815410614
1782987984040484900,4.29348486328125,0.5536046028137207,0.834374725818634,-0.3440932035446167
1782987984050560000,4.30356005859375,0.5308883786201477,0.7706711292266846,-0.3181862235069275
1782987984060633900,4.3136337890625,0.5592710375785828,0.7767711281776428,-0.2684178650379181
1782987984070709000,4.323708984375,0.64040207862854,0.8076342344284058,-0.20565009117126465
1782987984080782800,4.333782958984375,0.7343360185623169,0.8295432329177856,-0.1573222428560257
1782987984090858000,4.34385791015625,0.8155629634857178,0.8281512260437012,-0.1248396709561348
1782987984100931800,4.353931884765625,0.8879849910736084,0.8338210582733154,-0.10072847455739975
1782987984111007000,4.364007080078125,0.9518496990203857,0.8410904407501221,-0.0858941376209259
1782987984121080800,4.374080810546875,1.0111668109893799,0.8554052114486694,-0.07973131537437439
1782987984131156000,4.384156005859375,1.064721941947937,0.8589224219322205,-0.08111775666475296
1782987984141230800,4.39423095703125,1.1120949983596802,0.8628234267234802,-0.08890031278133392
1782987984151305000,4.404304931640625,1.143706202507019,0.8440662622451782,-0.09518404304981232
1782987984161379800,4.4143798828125,1.1603968143463135,0.8053644299507141,-0.10287179052829742
1782987984171454000,4.424453857421875,1.1609294414520264,0.7724764943122864,-0.11084369570016861
1782987984181528800,4.43452880859375,1.1374536752700806,0.7601974606513977,-0.12646393477916718
1782987984191603000,4.44460302734375,1.0934388637542725,0.7724853157997131,-0.14265169203281403
1782987984201677800,4.454677734375,1.049194097518921,0.8635936379432678,-0.149661123752594
1782987984211751700,4.464751708984375,1.0054450035095215,1.0190383195877075,-0.1655500829219818
1782987984221826800,4.474826904296875,0.9897840619087219,1.0543673038482666,-0.20971807837486267
1782987984231900700,4.484900634765625,0.9910455942153931,0.9398114085197449,-0.29288992285728455
1782987984241975800,4.494975830078125,1.0007307529449463,0.7738171219825745,-0.37068644165992737
1782987984252051000,4.505051025390625,1.0029118061065674,0.63099604845047,-0.41881829500198364
1782987984262124800,4.515124755859375,1.003243088722229,0.5334700345993042,-0.4342481195926666
1782987984272200000,4.525199951171875,0.9996238946914673,0.4872998893260956,-0.41368743777275085
1782987984282273800,4.535273681640625,0.9970411658287048,0.520859956741333,-0.3493824899196625
1782987984292349000,4.545348876953125,0.9895792603492737,0.669462263584137,-0.2399766445159912
1782987984302422800,4.5554228515625,0.9733453989028931,0.9262878894805908,-0.08590319007635117
1782987984312498000,4.565497802734375,0.9704103469848633,1.21990168094635,0.05716395378112793
1782987984322571800,4.57557177734375,0.9993807673454285,1.3846876621246338,0.15774568915367126
1782987984332647000,4.58564697265625,1.049242615699768,1.3733298778533936,0.20538564026355743
1782987984342721800,4.5957216796875,1.1027348041534424,1.1966387033462524,0.2145833969116211
1782987984352796000,4.6057958984375,1.1376813650131226,0.8433232307434082,0.1791127622127533
1782987984362870800,4.615870849609375,1.1298969984054565,0.42468762397766113,0.10560259222984314
1782987984372945000,4.62594482421875,1.080999732017517,0.057024404406547546,0.01678670383989811
1782987984383020000,4.63602001953125,1.0327544212341309,-0.16749419271945953,-0.055568188428878784
1782987984393094000,4.646093994140625,0.9820651412010193,-0.23698218166828156,-0.09491665661334991
1782987984403169000,4.6561689453125,0.9306735992431641,-0.15135623514652252,-0.1071123406291008
1782987984413243000,4.666242919921875,0.896979808807373,0.034995269030332565,-0.10557383298873901
1782987984423318000,4.676318115234375,0.8913158178329468,0.2495270073413849,-0.1074361801147461
1782987984433391900,4.686391845703125,0.9223360419273376,0.4377078413963318,-0.12284016609191895
1782987984443467000,4.696467041015625,0.9761942028999329,0.5595541000366211,-0.13647103309631348
1782987984453541600,4.706541748046875,1.0474680662155151,0.6238385438919067,-0.11903104931116104
1782987984463616000,4.716615966796875,1.1100572347640991,0.6878026127815247,-0.048172589391469955
1782987984473690600,4.726690673828125,1.1615062952041626,0.7649219036102295,0.05492077395319939
1782987984483765000,4.736764892578125,1.1955337524414062,0.7879343032836914,0.15477359294891357
1782987984493839600,4.746839599609375,1.2086598873138428,0.7671595215797424,0.24409602582454681
1782987984503914000,4.7569140625,1.1989412307739258,0.771087646484375,0.3171313405036926
1782987984513988600,4.766988525390625,1.1794158220291138,0.7625205516815186,0.3534161150455475
1782987984524063000,4.77706298828125,1.1665571928024292,0.7252727746963501,0.3468136191368103
1782987984534137600,4.7871376953125,1.181370496749878,0.6713983416557312,0.2882765233516693
1782987984544212000,4.7972119140625,1.211383581161499,0.6367631554603577,0.19628216326236725
1782987984554286600,4.80728662109375,1.2450120449066162,0.6213160157203674,0.0979049950838089
1782987984564361700,4.81736181640625,1.2581102848052979,0.6552206873893738,0.029207153245806694
1782987984574435600,4.827435546875,1.2448266744613647,0.698532223701477,-0.004908738657832146
1782987984584510700,4.8375107421875,1.2115081548690796,0.7068668603897095,-0.028476914390921593
1782987984594584600,4.84758447265625,1.1719450950622559,0.676646888256073,-0.05158143490552902
1782987984604659700,4.85765966796875,1.128990650177002,0.6168946027755737,-0.07162012159824371
1782987984614733600,4.867733642578125,1.081831455230713,0.5687159299850464,-0.08349409699440002
1782987984624808700,4.87780859375,1.0223145484924316,0.5249809622764587,-0.08819617331027985
1782987984634882800,4.8878828125,0.9446205496788025,0.47395798563957214,-0.09998385608196259
1782987984644957700,4.897957763671875,0.8649161458015442,0.419316828250885,-0.12572650611400604
1782987984655032800,4.90803271484375,0.7924334406852722,0.3808131217956543,-0.15032212436199188
1782987984665106700,4.918106689453125,0.7328619956970215,0.38473382592201233,-0.17143140733242035
1782987984675181800,4.928181884765625,0.6823306083679199,0.41508081555366516,-0.1913587749004364
1782987984685255700,4.938255615234375,0.6318110227584839,0.4791410267353058,-0.2110898643732071
1782987984695330800,4.948330810546875,0.5916710495948792,0.5545918345451355,-0.22124290466308594
1782987984705404700,4.95840478515625,0.5529324412345886,0.6306024789810181,-0.2031259536743164
1782987984715479800,4.968479736328125,0.5122491717338562,0.6816744208335876,-0.16398493945598602
1782987984725553700,4.9785537109375,0.48975878953933716,0.6758860349655151,-0.11860281229019165
1782987984735628800,4.98862890625,0.49849820137023926,0.6266492605209351,-0.08574606478214264
1782987984745702700,4.99870263671875,0.5190325379371643,0.5835787653923035,-0.05524035170674324
1782987984755777800,5.00877783203125,0.5378573536872864,0.5277466177940369,-0.03461763262748718
1782987984765852700,5.018852783203125,0.5416499376296997,0.47358059883117676,-0.033180322498083115
1782987984775926800,5.0289267578125,0.5398967862129211,0.4556436836719513,-0.040916807949543
1782987984786002000,5.039001953125,0.5269104242324829,0.4637026786804199,-0.03711594268679619
1782987984796075800,5.04907568359375,0.5045182704925537,0.49834346771240234,-0.031128890812397003
1782987984806151000,5.05915087890625,0.47043222188949585,0.5273476839065552,-0.014486264437437057
1782987984816224800,5.069224853515625,0.45357123017311096,0.5499337315559387,0.006030461750924587
1782987984826300000,5.0792998046875,0.45927757024765015,0.6820366382598877,0.048044756054878235
1782987984836373800,5.089373779296875,0.47701528668403625,0.8259128332138062,0.0872291773557663
1782987984846449000,5.099448974609375,0.5042842030525208,0.8685633540153503,0.07938244193792343
1782987984856522800,5.109522705078125,0.5535904765129089,0.8089905977249146,0.01612011343240738
1782987984866598000,5.119597900390625,0.5904382467269897,0.6042946577072144,-0.0895455926656723
1782987984876672800,5.1296728515625,0.5816165208816528,0.37496110796928406,-0.18793900310993195
1782987984886747000,5.139746826171875,0.5241774916648865,0.26724740862846375,-0.2517472803592682
1782987984896821800,5.14982177734375,0.4268684983253479,0.21690168976783752,-0.2936728894710541
1782987984906896000,5.159895751953125,0.3245447874069214,0.22185836732387543,-0.315495103597641
1782987984916970800,5.169970703125,0.2372594177722931,0.3104785084724426,-0.30130472779273987
1782987984927044900,5.180044921875,0.18896672129631042,0.44872158765792847,-0.24981330335140228
1782987984937119700,5.19011962890625,0.18880054354667664,0.5885330438613892,-0.18888336420059204
1782987984947192800,5.20019287109375,0.2289639413356781,0.6998198628425598,-0.12701547145843506
1782987984957267700,5.210267822265625,0.30627790093421936,0.7590693235397339,-0.06687623262405396
1782987984967342800,5.2203427734375,0.4171615540981293,0.8006002902984619,0.017290839925408363
1782987984977416700,5.230416748046875,0.5593416094779968,0.8140039443969727,0.1347769945859909
1782987984987491800,5.240491943359375,0.7178582549095154,0.7863528728485107,0.2535449266433716
1782987984997565700,5.250565673828125,0.8700509667396545,0.7345941066741943,0.3599637746810913
1782987985007640800,5.260640869140625,0.9984316229820251,0.6664150357246399,0.43221932649612427
1782987985017714700,5.270714599609375,1.0827611684799194,0.5946207642555237,0.46369868516921997
1782987985027789800,5.280789794921875,1.1192896366119385,0.5426267981529236,0.4506843388080597
1782987985037863700,5.29086376953125,1.10491144657135,0.5169949531555176,0.39816707372665405
1782987985047938800,5.300938720703125,1.0555592775344849,0.5282728672027588,0.32030797004699707
1782987985058014000,5.311013916015625,0.980370044708252,0.5698408484458923,0.22535988688468933
1782987985068087800,5.321087890625,0.8972535729408264,0.6137496829032898,0.12260128557682037
1782987985078163000,5.331162841796875,0.818669855594635,0.6329010128974915,0.030973628163337708
1782987985088236800,5.34123681640625,0.7655152678489685,0.6653069257736206,-0.029624205082654953
1782987985098312000,5.35131201171875,0.7448038458824158,0.6978733539581299,-0.045646049082279205
1782987985108385800,5.3613857421875,0.7525150179862976,0.7027368545532227,-0.03858254477381706
1782987985118461000,5.3714609375,0.784386396408081,0.6975948214530945,-0.014198643155395985
1782987985128534800,5.38153466796875,0.8302830457687378,0.7047592401504517,0.022065887227654457
1782987985138610000,5.39160986328125,0.86612468957901,0.7086865901947021,0.058999136090278625
1782987985148683800,5.401683837890625,0.8987042307853699,0.6813969016075134,0.0797097459435463
1782987985158759000,5.411759033203125,0.926346480846405,0.6146423816680908,0.06727491319179535
1782987985168833800,5.421833740234375,0.9469396471977234,0.5330953598022461,0.020329507067799568
1782987985178908000,5.431907958984375,0.9636145234107971,0.4380851984024048,-0.05150500312447548
1782987985188982800,5.441982666015625,0.971851110458374,0.39546024799346924,-0.1188422292470932
1782987985199057400,5.452057373046875,0.9802384972572327,0.42239224910736084,-0.16606087982654572
1782987985209132300,5.46213232421875,0.9883544445037842,0.45473235845565796,-0.20223379135131836
1782987985219206400,5.472206298828125,1.0087963342666626,0.4829559922218323,-0.21295727789402008
1782987985229281300,5.48228125,1.0459355115890503,0.4852340817451477,-0.20178824663162231
1782987985239355400,5.49235546875,1.0905476808547974,0.4430046081542969,-0.18639038503170013
1782987985249430300,5.50243017578125,1.1451818943023682,0.3543540835380554,-0.17363490164279938
1782987985259504400,5.51250439453125,1.1857972145080566,0.2441980242729187,-0.17145217955112457
1782987985269579300,5.522579345703125,1.1995255947113037,0.16358520090579987,-0.16150474548339844
1782987985279654100,5.532654052734375,1.1791739463806152,0.10561005026102066,-0.12370835989713669
1782987985289728300,5.542728271484375,1.1263266801834106,0.06816893070936203,-0.05663584917783737
1782987985299803100,5.55280322265625,1.0349022150039673,0.040775660425424576,0.02816292829811573
1782987985309877200,5.562877197265625,0.9146789312362671,0.025054220110177994,0.12077035754919052
1782987985319952100,5.5729521484375,0.7757026553153992,0.04529903829097748,0.21896536648273468
1782987985330026200,5.583026123046875,0.6431919932365417,0.10006188601255417,0.29642847180366516
1782987985340101000,5.59310107421875,0.5313038229942322,0.1844116598367691,0.3195588290691376
1782987985350175500,5.603175537109375,0.45609164237976074,0.29331204295158386,0.28606292605400085
1782987985360250000,5.61325,0.41695886850357056,0.4198702573776245,0.2061947137117386
1782987985370325200,5.6233251953125,0.3894071578979492,0.5434014797210693,0.11197952926158905
1782987985380399000,5.633399169921875,0.37115463614463806,0.6389128565788269,0.03615933656692505
1782987985390474200,5.64347412109375,0.3613065481185913,0.7412842512130737,-0.0036724992096424103
1782987985400548000,5.653548095703125,0.35638076066970825,0.859409511089325,0.002231728984043002
1782987985410623200,5.663623291015625,0.3708542287349701,1.0195696353912354,0.05447815731167793
1782987985420697000,5.673697021484375,0.39581844210624695,1.2410210371017456,0.1494121253490448
1782987985430772200,5.683772216796875,0.4287462830543518,1.4748636484146118,0.24390719830989838
1782987985440846000,5.69384619140625,0.4773516356945038,1.6381494998931885,0.3059122562408447
1782987985450921200,5.703921142578125,0.5473267436027527,1.6747159957885742,0.31345006823539734
1782987985460995000,5.7139951171875,0.6639481782913208,1.6491864919662476,0.2759285271167755
1782987985471070200,5.7240703125,0.818523108959198,1.6870238780975342,0.21520045399665833
1782987985481145300,5.734145263671875,0.9883549809455872,1.7646539211273193,0.1491713672876358
1782987985491219200,5.74421923828125,1.1424164772033691,1.6661182641983032,0.05379638448357582
1782987985501294300,5.75429443359375,1.2555009126663208,1.254874587059021,-0.11973865330219269
1782987985511368200,5.7643681640625,1.3025693893432617,0.6205929517745972,-0.3674856126308441
1782987985521443300,5.774443359375,1.255628228187561,0.0733834058046341,-0.5968178510665894
1782987985531517200,5.78451708984375,1.1568588018417358,-0.24181529879570007,-0.7355318069458008
1782987985541592300,5.79459228515625,1.0458166599273682,-0.2559415102005005,-0.7546581029891968
1782987985551666200,5.804666259765625,0.9221136569976807,-0.012753878720104694,-0.6775600910186768
1782987985561741300,5.8147412109375,0.8037524223327637,0.37370726466178894,-0.541109561920166
1782987985571815200,5.824815185546875,0.7286674976348877,0.7289974689483643,-0.4040180444717407
1782987985581890300,5.834890380859375,0.7096163034439087,0.8728225231170654,-0.3189055621623993
1782987985591965200,5.844965087890625,0.745384156703949,0.7525624632835388,-0.2961863875389099
1782987985602039300,5.855039306640625,0.8185076117515564,0.3885703682899475,-0.3341526687145233
1782987985612114200,5.8651142578125,0.8968237638473511,-0.10511203855276108,-0.40599730610847473
1782987985622188300,5.875188232421875,0.9384793043136597,-0.5891999006271362,-0.483417272567749
1782987985632263200,5.88526318359375,0.9271954894065857,-0.9250167608261108,-0.5382043719291687
1782987985642337300,5.895337158203125,0.8972205519676208,-0.9879419207572937,-0.5659763216972351
1782987985652412200,5.905412109375,0.882704496383667,-0.8315203785896301,-0.5357835292816162
1782987985662486300,5.915486328125,0.8667808771133423,-0.4896370768547058,-0.4427627921104431
1782987985672561200,5.92556103515625,0.8285307288169861,-0.0458548404276371,-0.2957988977432251
1782987985682636300,5.93563623046875,0.749348521232605,0.33892160654067993,-0.1312379091978073
1782987985692710100,5.945710205078125,0.6235791444778442,0.5094161033630371,-0.00884781964123249
1782987985702785300,5.955785400390625,0.5063968896865845,0.45231208205223083,0.04904157668352127
1782987985712859100,5.965859130859375,0.42607566714286804,0.23225800693035126,0.05321235582232475
1782987985722934300,5.975934326171875,0.37147343158721924,-0.015300659462809563,0.022651515901088715
1782987985733008400,5.98600830078125,0.34281834959983826,-0.22116513550281525,-0.013513145968317986
1782987985743083300,5.996083251953125,0.3190597593784332,-0.3521873354911804,-0.05361023172736168
1782987985753157400,6.006157470703125,0.28589940071105957,-0.35802364349365234,-0.06855296343564987
1782987985763232300,6.016232177734375,0.2530820667743683,-0.25628477334976196,-0.07099827378988266
1782987985773306400,6.026306396484375,0.21776029467582703,-0.10899652540683746,-0.08553780615329742
1782987985783381200,6.03638134765625,0.20231768488883972,0.028203941881656647,-0.13059502840042114
1782987985793456400,6.046456298828125,0.20646768808364868,0.15583619475364685,-0.2138771265745163
1782987985803530200,6.0565302734375,0.22312097251415253,0.24747051298618317,-0.3261221945285797
1782987985813605400,6.06660546875,0.24005067348480225,0.31211715936660767,-0.4567750096321106
1782987985823679200,6.07667919921875,0.2698573172092438,0.3050541877746582,-0.5727847218513489
1782987985833754400,6.08675439453125,0.3009886145591736,0.2497296780347824,-0.654605507850647
1782987985843828200,6.096828125,0.33849015831947327,0.16336096823215485,-0.699053168296814
1782987985853903400,6.1069033203125,0.3865967094898224,0.06220345199108124,-0.6917459964752197
1782987985863977200,6.116977294921875,0.4425622522830963,-0.027538949623703957,-0.6483399271965027
1782987985874052400,6.12705224609375,0.5061619877815247,-0.11067857593297958,-0.5760478377342224
1782987985884126200,6.137126220703125,0.5685505270957947,-0.180011585354805,-0.4992891848087311
1782987985894201300,6.147201416015625,0.6217972636222839,-0.23849911987781525,-0.44042399525642395
1782987985904276500,6.1572763671875,0.6440732479095459,-0.2564038336277008,-0.4058396518230438
1782987985914350300,6.167350341796875,0.6225706338882446,-0.23484446108341217,-0.3961782455444336
1782987985924425500,6.177425537109375,0.5575340986251831,-0.1571773737668991,-0.4063698947429657
1782987985934499300,6.187499267578125,0.4600837230682373,-0.033910829573869705,-0.439526230096817
1782987985944574500,6.197574462890625,0.3382992148399353,0.05617991462349892,-0.5060980916023254
1782987985954648300,6.2076484375,0.21183395385742188,0.05522703751921654,-0.595054566860199
1782987985964723500,6.217723388671875,0.09880460798740387,-0.023506658151745796,-0.6646046042442322
1782987985974797300,6.22779736328125,0.05095798894762993,-0.04527373984456062,-0.6593328714370728
1782987985984872400,6.23787255859375,0.055461395531892776,0.0049287122674286366,-0.5618111491203308
1782987985994947000,6.247947021484375,0.06639367341995239,0.1176115870475769,-0.39892661571502686
1782987986005021400,6.258021484375,0.0676962211728096,0.28683575987815857,-0.20212966203689575
1782987986015096000,6.268095947265625,0.02629525400698185,0.44754260778427124,-0.012389292009174824
1782987986025170400,6.27817041015625,-0.06635957956314087,0.5707572102546692,0.10291706025600433
1782987986035245000,6.2882451171875,-0.17672017216682434,0.6303030848503113,0.14550259709358215
1782987986045319400,6.2983193359375,-0.27522197365760803,0.6484736204147339,0.12728525698184967
1782987986055394000,6.30839404296875,-0.3397895395755768,0.6961691975593567,0.0887189507484436
1782987986065468400,6.318468505859375,-0.37723249197006226,0.9454472064971924,0.03744164854288101
1782987986075543000,6.32854296875,-0.37257489562034607,1.0699836015701294,-0.0367625430226326
1782987986085617400,6.338617431640625,-0.3193625509738922,0.8713604807853699,-0.14858362078666687
1782987986095692000,6.348692138671875,-0.21945911645889282,0.404780775308609,-0.2575729489326477
1782987986105767200,6.35876708984375,-0.11661715805530548,-0.14703072607517242,-0.328305184841156
1782987986115841000,6.368841064453125,-0.05441503971815109,-0.5501824617385864,-0.3136577904224396
1782987986125916200,6.378916259765625,-0.04887113720178604,-0.7522287368774414,-0.2251574844121933
1782987986135990300,6.388990234375,-0.06887733191251755,-0.7616576552391052,-0.07746922224760056
1782987986146065200,6.399065185546875,-0.09879954904317856,-0.6417818665504456,0.1361069679260254
1782987986156139300,6.40913916015625,-0.13163578510284424,-0.41597217321395874,0.3638083040714264
1782987986166214100,6.419214111328125,-0.1636246144771576,-0.12053733319044113,0.5580992102622986
1782987986176288300,6.429288330078125,-0.17865416407585144,0.1304118037223816,0.6632536053657532
1782987986186363100,6.439363037109375,-0.16867423057556152,0.2928435802459717,0.6731802821159363
1782987986196437200,6.449437255859375,-0.13692615926265717,0.3795590400695801,0.5892046689987183
1782987986206513000,6.459512939453125,-0.1017836183309555,0.37288063764572144,0.4414077699184418
1782987986216587800,6.469587890625,-0.07654990255832672,0.2220865935087204,0.253099650144577
1782987986226662000,6.479661865234375,-0.023747939616441727,0.018037855625152588,0.09436511993408203
1782987986236736800,6.48973681640625,0.046248987317085266,-0.10381215065717697,0.022324213758111
1782987986246811000,6.499810791015625,0.08707684278488159,-0.11512073129415512,0.03479126840829849
1782987986256886000,6.509885986328125,0.06929465383291245,-0.014621286652982235,0.10854379087686539
1782987986266960000,6.5199599609375,0.016810938715934753,0.1630008965730667,0.21067042648792267
1782987986277035000,6.530034912109375,-0.040997765958309174,0.3488229811191559,0.3133043944835663
1782987986287108900,6.54010888671875,-0.07897098362445831,0.49314817786216736,0.3871607780456543
1782987986297184000,6.55018408203125,-0.0832701250910759,0.5774052739143372,0.4220026433467865
1782987986307259000,6.5602587890625,-0.06542108207941055,0.5975302457809448,0.42293766140937805
1782987986317333000,6.5703330078125,-0.02967187575995922,0.5809991955757141,0.4060042202472687
1782987986327407900,6.580407958984375,0.00971441250294447,0.5314353704452515,0.3743075430393219
1782987986337482000,6.59048193359375,0.050390470772981644,0.44760388135910034,0.32919520139694214
1782987986347556900,6.600556884765625,0.08907048404216766,0.33507758378982544,0.25998416543006897
1782987986357631000,6.610630859375,0.1319902539253235,0.2103511095046997,0.17001913487911224
1782987986367705900,6.620705810546875,0.16546565294265747,0.08899538964033127,0.07076338678598404
1782987986377780000,6.630780029296875,0.18238365650177002,-0.0075516593642532825,-0.027898209169507027
1782987986387854800,6.640854736328125,0.1956145018339157,-0.05681374669075012,-0.1217741072177887
1782987986397929000,6.650928955078125,0.2111993283033371,-0.03280694782733917,-0.18291975557804108
1782987986408003800,6.66100390625,0.23839552700519562,0.04258927330374718,-0.20132538676261902
1782987986418079000,6.671078857421875,0.25187990069389343,0.146501824259758,-0.17358963191509247
1782987986428152800,6.68115283203125,0.24818503856658936,0.24194446206092834,-0.11882199347019196
1782987986438228000,6.69122802734375,0.23910152912139893,0.31344473361968994,-0.05408640578389168
1782987986448301800,6.7013017578125,0.24477246403694153,0.37726739048957825,-0.004252535756677389
1782987986458377000,6.711376953125,0.26651743054389954,0.4416690170764923,0.04421459883451462
1782987986468450800,6.721450927734375,0.30133986473083496,0.5375281572341919,0.08020962029695511
1782987986478526000,6.73152587890625,0.3412849009037018,0.6057141423225403,0.10122115910053253
1782987986488599800,6.741599853515625,0.36515453457832336,0.6326344609260559,0.11128338426351547
1782987986498675000,6.751675048828125,0.39002713561058044,0.6080300211906433,0.10344090312719345
1782987986508749000,6.7617490234375,0.39823365211486816,0.5457006096839905,0.08118726313114166
1782987986518824000,6.771823974609375,0.4010094702243805,0.4985658526420593,0.044736310839653015
1782987986528899000,6.781899169921875,0.38407495617866516,0.4516526758670807,0.0037236318457871675
1782987986538973000,6.791972900390625,0.3580588102340698,0.412479430437088,-0.047585628926754
1782987986549048000,6.802048095703125,0.3254622519016266,0.3859437108039856,-0.09705384820699692
1782987986559122000,6.812121826171875,0.2902142405509949,0.419607937335968,-0.14485040307044983
1782987986569197000,6.822197021484375,0.25649943947792053,0.5018900036811829,-0.16359558701515198
1782987986579271000,6.83227099609375,0.23113654553890228,0.5742201209068298,-0.1611366868019104
1782987986589346000,6.842345947265625,0.23524127900600433,0.6087823510169983,-0.14605867862701416
1782987986599420000,6.852419921875,0.26105502247810364,0.6075794100761414,-0.11540967971086502
1782987986609495000,6.8624951171875,0.30354684591293335,0.5695620179176331,-0.07261507958173752
1782987986619569700,6.872569580078125,0.3413189649581909,0.5044631361961365,-0.028799956664443016
1782987986629644000,6.88264404296875,0.3738771975040436,0.4683254063129425,0.015657523646950722
1782987986639719000,6.892718994140625,0.40458422899246216,0.6184616088867188,0.05516258627176285
1782987986649793000,6.90279296875,0.4447958469390869,0.6682922840118408,0.05546565726399422
1782987986659868000,6.912867919921875,0.5020665526390076,0.518753170967102,-0.020197946578264236
1782987986669942000,6.92294189453125,0.5531875491142273,0.26057806611061096,-0.15438930690288544
1782987986680017000,6.933016845703125,0.5803006887435913,-0.022881081327795982,-0.30757805705070496
1782987986690091000,6.943091064453125,0.5704088807106018,-0.0925712138414383,-0.407434344291687
1782987986700166000,6.953165771484375,0.5470321774482727,0.020709538832306862,-0.43684709072113037
1782987986710240000,6.963239990234375,0.5260251760482788,0.21578449010849,-0.39435821771621704
1782987986720315000,6.97331494140625,0.5073215365409851,0.4570847153663635,-0.2983536720275879
1782987986730389800,6.9833896484375,0.48618030548095703,0.668648362159729,-0.16201314330101013
1782987986740463900,6.9934638671875,0.4789423644542694,0.7510886788368225,-0.012772253714501858
1782987986750538800,7.003538818359375,0.48703038692474365,0.6951242089271545,0.1177801638841629
1782987986760612900,7.01361279296875,0.506055474281311,0.5749074816703796,0.21590858697891235
1782987986770687700,7.023687744140625,0.5186530351638794,0.4402303695678711,0.28118425607681274
1782987986780761900,7.033761962890625,0.5322420597076416,0.3082909882068634,0.3063993453979492
1782987986790836700,7.043836669921875,0.5405969023704529,0.2167711853981018,0.2876379191875458
1782987986800910800,7.053910888671875,0.5515406727790833,0.185577854514122,0.23337307572364807
1782987986810985700,7.06398583984375,0.5735564827919006,0.21382999420166016,0.14951679110527039
1782987986821059800,7.074059814453125,0.6086939573287964,0.29777178168296814,0.045167744159698486
1782987986831134700,7.084134765625,0.6584995985031128,0.39852872490882874,-0.054609183222055435
1782987986841209900,7.0942099609375,0.7105023264884949,0.4316677749156952,-0.15231870114803314
1782987986851283700,7.10428369140625,0.7562008500099182,0.37242230772972107,-0.21611152589321136
1782987986861358800,7.11435888671875,0.7835032939910889,0.29003021121025085,-0.2250533550977707
1782987986871432700,7.1244326171875,0.7966611981391907,0.18812516331672668,-0.20441918075084686
1782987986881507800,7.1345078125,0.7940965890884399,0.08740521222352982,-0.17580059170722961
1782987986891581700,7.144581787109375,0.7843675017356873,0.005336974747478962,-0.14313878118991852
1782987986901656800,7.15465673828125,0.7687720656394958,-0.0007651261985301971,-0.10611364990472794
1782987986911731000,7.16473095703125,0.7522239685058594,0.06151316314935684,-0.06737823784351349
1782987986921805800,7.174805908203125,0.7257947325706482,0.16812776029109955,-0.03656386956572533
1782987986931880000,7.1848798828125,0.6878731846809387,0.25088921189308167,-0.014141385443508625
1782987986941954800,7.194954833984375,0.6359482407569885,0.28971171379089355,-0.0021763353142887354
1782987986952030000,7.205030029296875,0.5924689173698425,0.28122180700302124,0.004432831425219774
1782987986962103800,7.215103759765625,0.5501222610473633,0.22995170950889587,0.0014793860027566552
1782987986972179000,7.225178955078125,0.5056275129318237,0.16777116060256958,-0.005672000348567963
1782987986982252800,7.235252685546875,0.45825517177581787,0.07358500361442566,-0.018568623811006546
1782987986992328000,7.245327880859375,0.41270607709884644,-0.06181942671537399,-0.052201952785253525
1782987987002401800,7.25540185546875,0.36236247420310974,-0.21314530074596405,-0.0876488909125328
1782987987012477000,7.265476806640625,0.31475314497947693,-0.33938419818878174,-0.13642814755439758
1782987987022550800,7.27555078125,0.26261910796165466,-0.40174078941345215,-0.1950046420097351
1782987987032626000,7.2856259765625,0.2150965929031372,-0.40378662943840027,-0.24038223922252655
1782987987042699800,7.29569970703125,0.16367600858211517,-0.33973920345306396,-0.281158983707428
1782987987052775000,7.30577490234375,0.09740698337554932,-0.27004027366638184,-0.313293993473053
1782987987062850000,7.31585009765625,0.02413596212863922,-0.20501600205898285,-0.3398158848285675
1782987987072924000,7.325923828125,-0.04758349806070328,-0.14802780747413635,-0.3676419258117676
1782987987082999000,7.3359990234375,-0.11265437304973602,-0.12652331590652466,-0.3873932659626007
1782987987093073000,7.346072998046875,-0.16865825653076172,-0.11792450398206711,-0.39070916175842285
1782987987103148000,7.35614794921875,-0.20377816259860992,-0.12488733977079391,-0.35724493861198425
1782987987113222000,7.366221923828125,-0.22118644416332245,-0.1383887678384781,-0.28301680088043213
1782987987123297000,7.376297119140625,-0.21801088750362396,-0.18408514559268951,-0.17013737559318542
1782987987133371000,7.386370849609375,-0.18667827546596527,-0.25218749046325684,-0.040527984499931335
1782987987143446000,7.396446044921875,-0.14515745639801025,-0.3148101270198822,0.09284791350364685
1782987987153519900,7.406519775390625,-0.10988761484622955,-0.35464757680892944,0.2122933566570282
1782987987163595000,7.416594970703125,-0.09000419080257416,-0.36604055762290955,0.31072404980659485
1782987987173670000,7.426669921875,-0.07887457311153412,-0.3638208210468292,0.371527761220932
1782987987183744000,7.436743896484375,-0.060747768729925156,-0.3696075975894928,0.3958224356174469
1782987987193819000,7.44681884765625,-0.035406459122896194,-0.3450300991535187,0.40584951639175415
1782987987203892200,7.456892333984375,-0.00962626188993454,-0.2859204411506653,0.42872658371925354
1782987987213967400,7.46696728515625,-0.00036938043194822967,-0.1768070012331009,0.45252513885498047
1782987987224041200,7.477041259765625,-0.018279671669006348,0.06650179624557495,0.48599308729171753
1782987987234116400,7.487116455078125,-0.06484584510326385,0.1996593177318573,0.47705045342445374
1782987987244190200,7.497190185546875,-0.10397087037563324,0.09547272324562073,0.37588149309158325
1782987987254265300,7.507265380859375,-0.16214735805988312,-0.18876005709171295,0.17122741043567657
1782987987264340200,7.51734033203125,-0.2503754794597626,-0.5132688879966736,-0.06667543202638626
1782987987274414300,7.527414306640625,-0.3496541380882263,-0.6292312145233154,-0.2614920437335968
1782987987284489200,7.5374892578125,-0.43082329630851746,-0.4853150248527527,-0.3725852966308594
1782987987294563300,7.547563232421875,-0.4830508232116699,-0.2428659051656723,-0.4071677625179291
1782987987304638200,7.55763818359375,-0.4919668138027191,-0.020613931119441986,-0.3738920986652374
1782987987314712300,7.56771240234375,-0.4497778117656708,0.17648981511592865,-0.2668199837207794
1782987987324787500,7.577787353515625,-0.372692346572876,0.3014828860759735,-0.11519423127174377
1782987987334861300,7.587861328125,-0.2584025263786316,0.3127347528934479,0.03117629513144493
1782987987344936400,7.5979365234375,-0.10577622801065445,0.21267445385456085,0.13332264125347137
1782987987355010300,7.60801025390625,0.06673721969127655,0.06034110486507416,0.1816619336605072
1782987987365085400,7.61808544921875,0.20113897323608398,-0.10059158504009247,0.16752082109451294
1782987987375160300,7.628160400390625,0.2661355435848236,-0.24505023658275604,0.12827275693416595
1782987987385234400,7.638234375,0.2789096534252167,-0.3303672671318054,0.09545115381479263
1782987987395309300,7.648309326171875,0.26817819476127625,-0.27174922823905945,0.09579150378704071
1782987987405383400,7.658383544921875,0.24235884845256805,-0.1331378072500229,0.11097978055477142
1782987987415458300,7.668458251953125,0.17787519097328186,-0.01019830908626318,0.10585266351699829
1782987987425532400,7.678532470703125,0.077593594789505,0.10311733186244965,0.08697937428951263
1782987987435607300,7.688607177734375,-0.03104899637401104,0.24325686693191528,0.08524671941995621
1782987987445681400,7.698681396484375,-0.1393568217754364,0.3720143139362335,0.09800033271312714
1782987987455756300,7.70875634765625,-0.21790969371795654,0.4528399109840393,0.10437620431184769
1782987987465830400,7.718830322265625,-0.25142452120780945,0.4996175467967987,0.1035197302699089
1782987987475905300,7.7289052734375,-0.250111848115921,0.508369505405426,0.07943756878376007
1782987987485980200,7.738980224609375,-0.22005194425582886,0.46889185905456543,0.033971548080444336
1782987987496054300,7.74905419921875,-0.17493799328804016,0.3772897720336914,-0.027216440066695213
1782987987506129200,7.759129150390625,-0.12495552003383636,0.25694790482521057,-0.09653239697217941
1782987987516203300,7.769203369140625,-0.08408265560865402,0.13857705891132355,-0.17570391297340393
1782987987526278100,7.779278076171875,-0.044912878423929214,0.010615892708301544,-0.2553422749042511
1782987987536352300,7.789352294921875,-0.0009070726810023189,-0.09921073913574219,-0.32812780141830444
1782987987546427100,7.79942724609375,0.04321271926164627,-0.12222124636173248,-0.3756710886955261
1782987987556501200,7.809501220703125,0.07574322819709778,-0.06849277764558792,-0.39874473214149475
1782987987566576000,7.819576171875,0.08750534802675247,0.030673757195472717,-0.3953917920589447
1782987987576650500,7.829650390625,0.10001341253519058,0.1298442780971527,-0.3655944764614105
1782987987586725000,7.83972509765625,0.12509959936141968,0.21489499509334564,-0.3121938407421112
1782987987596800300,7.84980029296875,0.15569213032722473,0.28216618299484253,-0.23004385828971863
1782987987606874000,7.8598740234375,0.1920519918203354,0.3013308048248291,-0.13204698264598846
1782987987616949200,7.86994921875,0.2247348427772522,0.28549671173095703,-0.03321973979473114
1782987987627023000,7.880023193359375,0.26016953587532043,0.28287750482559204,0.06198533996939659
1782987987637098200,7.89009814453125,0.302155077457428,0.3107099235057831,0.13411305844783783
1782987987647172000,7.900172119140625,0.3404393494129181,0.32698798179626465,0.17451854050159454
1782987987657247200,7.910247314453125,0.37544766068458557,0.34294989705085754,0.1873893290758133
1782987987667321000,7.920321044921875,0.3963848948478699,0.37137487530708313,0.18448995053768158
1782987987677396200,7.930396240234375,0.4073834717273712,0.3656352460384369,0.17759396135807037
1782987987687470000,7.940469970703125,0.4059951901435852,0.3252531886100769,0.16510772705078125
1782987987697545200,7.950545166015625,0.4060226082801819,0.2723122239112854,0.1659727245569229
1782987987707620400,7.960620361328125,0.41320621967315674,0.23977157473564148,0.17346446216106415
1782987987717694200,7.970694091796875,0.41897621750831604,0.22361338138580322,0.17726053297519684
1782987987727769300,7.980769287109375,0.41591572761535645,0.2389068603515625,0.18011943995952606
1782987987737843200,7.99084326171875,0.4119284451007843,0.27560415863990784,0.18499408662319183
1782987987747918300,8.00091845703125,0.4177548885345459,0.3101096749305725,0.1851368248462677
1782987987757992200,8.0109921875,0.4294123649597168,0.3212414085865021,0.1880604475736618
1782987987768067300,8.0210673828125,0.44973066449165344,0.30583980679512024,0.19356493651866913
1782987987778141200,8.03114111328125,0.4646414518356323,0.2632675766944885,0.18207180500030518
1782987987788216300,8.04121630859375,0.46592164039611816,0.21166858077049255,0.1563110500574112
1782987987798290200,8.051290283203125,0.4640398323535919,0.2105918526649475,0.11629145592451096
1782987987808365300,8.061365234375,0.45717766880989075,0.37960085272789,0.07569795846939087
1782987987818440200,8.071440185546875,0.4601992964744568,0.5634447336196899,0.028255606070160866
1782987987828514300,8.081514404296875,0.47027990221977234,0.5180615186691284,-0.06662776321172714
1782987987838589200,8.091589111328124,0.47762036323547363,0.38706010580062866,-0.16445446014404297
1782987987848663300,8.101663330078125,0.4676308333873749,0.2921769917011261,-0.2394101917743683
1782987987858738200,8.11173828125,0.4566229283809662,0.2934156358242035,-0.26420289278030396
1782987987868812300,8.121812255859375,0.45096343755722046,0.32472267746925354,-0.23763412237167358
1782987987878887200,8.13188720703125,0.4595223069190979,0.33666136860847473,-0.15119165182113647
1782987987888961300,8.141961181640625,0.450025737285614,0.37551823258399963,-0.018636533990502357
1782987987899036200,8.1520361328125,0.4255094826221466,0.4841001033782959,0.15018896758556366
1782987987909110300,8.1621103515625,0.41258516907691956,0.6904809474945068,0.3306455612182617
1782987987919185200,8.17218505859375,0.41594022512435913,0.9265491366386414,0.4853475093841553
1782987987929260300,8.18226025390625,0.4392513930797577,1.1052627563476562,0.5871647000312805
1782987987939334100,8.192334228515625,0.46543851494789124,1.1573964357376099,0.6185622811317444
1782987987949409300,8.2024091796875,0.5004695057868958,1.0460600852966309,0.5802972316741943
1782987987959483100,8.212483154296875,0.5390245914459229,0.8048235177993774,0.468968003988266
1782987987969558300,8.222558349609375,0.5950396656990051,0.4661690294742584,0.3118723928928375
1782987987979632400,8.23263232421875,0.6606341004371643,0.14450044929981232,0.1351730078458786
1782987987989707300,8.242707275390625,0.7294456958770752,-0.10675041377544403,-0.03321654349565506
1782987987999781400,8.252781494140624,0.7748605608940125,-0.2531355917453766,-0.1740596741437912
1782987988009856300,8.262856201171875,0.7811927795410156,-0.31596460938453674,-0.2761508822441101
1782987988019930400,8.272930419921876,0.7691448926925659,-0.3132633864879608,-0.34222471714019775
1782987988030005200,8.283005126953125,0.7538610100746155,-0.25168389081954956,-0.361555814743042
1782987988040080400,8.293080322265626,0.7260352373123169,-0.1287079155445099,-0.31392303109169006
1782987988050154200,8.303154296875,0.6795350909233093,0.040476586669683456,-0.22001278400421143
1782987988060229400,8.3132294921875,0.6206645965576172,0.2373715341091156,-0.08442194014787674
1782987988070303200,8.32330322265625,0.545578122138977,0.39176803827285767,0.037282656878232956
1782987988080378400,8.33337841796875,0.46661004424095154,0.4813775420188904,0.11763449013233185
1782987988090452200,8.3434521484375,0.39435049891471863,0.5083178281784058,0.1360933929681778
1782987988100527400,8.35352734375,0.3306674063205719,0.500598132610321,0.09460426867008209
1782987988110601200,8.363601318359375,0.2701105773448944,0.4616198241710663,0.02689526416361332
1782987988120676400,8.37367626953125,0.21126696467399597,0.41845372319221497,-0.03891970217227936
1782987988130750200,8.383750244140625,0.16588670015335083,0.35418763756752014,-0.08849577605724335
1782987988140825300,8.393825439453124,0.1305263191461563,0.26749613881111145,-0.12394192069768906
1782987988150899200,8.403899169921875,0.10766015201807022,0.19241204857826233,-0.12556511163711548
1782987988160974300,8.413974365234376,0.09738780558109283,0.13913258910179138,-0.10164273530244827
1782987988171049500,8.424049560546875,0.07818108797073364,0.10163182020187378,-0.0641893744468689
1782987988181123300,8.434123291015625,0.05750696733593941,0.08315081149339676,-0.033662088215351105
1782987988191198500,8.444198486328125,0.0378325991332531,0.0806032344698906,-0.010894992388784885
1782987988201273000,8.454273193359375,0.02901141159236431,0.06514358520507812,-0.004447212442755699
1782987988211348200,8.46434814453125,0.035657063126564026,0.025680596008896828,-0.014972025528550148
1782987988221422000,8.474422119140625,0.04739760980010033,-0.03377474099397659,-0.03705895319581032
1782987988231497200,8.484497314453124,0.047024767845869064,-0.08794184029102325,-0.053336191922426224
1782987988241571300,8.4945712890625,0.03244289383292198,-0.1449017971754074,-0.06171822547912598
1782987988251646200,8.504646240234376,0.0006905576447024941,-0.17768530547618866,-0.05538016930222511
1782987988261721300,8.514721435546875,-0.02473091334104538,-0.210870161652565,-0.03714071214199066
1782987988271795200,8.524795166015625,-0.04369768127799034,-0.271523118019104,-0.00902438722550869
1782987988281870300,8.534870361328124,-0.0517398938536644,-0.32098519802093506,0.0505467988550663
1782987988291944200,8.544944091796875,-0.05188343673944473,-0.31078851222991943,0.14906936883926392
1782987988302019300,8.555019287109374,-0.058465175330638885,-0.2928422689437866,0.25162744522094727
1782987988312093200,8.56509326171875,-0.052612610161304474,-0.3361141085624695,0.3513343334197998
1782987988322168300,8.575168212890626,-0.029454827308654785,-0.3882388174533844,0.44743743538856506
1782987988332242200,8.5852421875,0.002951581496745348,-0.42054483294487,0.5265817642211914
1782987988342317300,8.5953173828125,0.023938888683915138,-0.44533565640449524,0.5660104155540466
1782987988352391200,8.60539111328125,0.027776770293712616,-0.4545738995075226,0.5630737543106079
1782987988362466300,8.61546630859375,0.013350426219403744,-0.4439132511615753,0.5021733641624451
1782987988372541200,8.625541259765624,-0.03984595090150833,-0.4320898950099945,0.39405304193496704
1782987988382615300,8.635615234375,-0.11350791901350021,-0.37372884154319763,0.25962144136428833
1782987988392690400,8.6456904296875,-0.18264810740947723,-0.3018980622291565,0.12987837195396423
1782987988402764300,8.655764404296875,-0.2433045357465744,-0.2757652699947357,-0.01353551633656025
1782987988412839400,8.66583935546875,-0.29871347546577454,-0.31296589970588684,-0.17529432475566864
1782987988422913300,8.675913330078124,-0.3642061948776245,-0.3885842263698578,-0.3659399151802063
1782987988432988400,8.685988525390625,-0.4483010768890381,-0.4797045588493347,-0.5707026124000549
1782987988443062300,8.696062255859376,-0.5421889424324036,-0.5240991711616516,-0.7594544291496277
1782987988453137400,8.706137451171875,-0.6408726572990417,-0.5567743182182312,-0.8962586522102356
1782987988463211300,8.716211181640626,-0.7427617311477661,-0.6326062083244324,-0.9676787257194519
1782987988473286400,8.726286376953125,-0.8388296961784363,-0.678883969783783,-0.9538097977638245
1782987988483360300,8.7363603515625,-0.9144578576087952,-0.6289252042770386,-0.8524035811424255
1782987988493435400,8.746435302734374,-0.9608885049819946,-0.5238445997238159,-0.6899248957633972
1782987988503510300,8.75651025390625,-0.9674534201622009,-0.34458109736442566,-0.4782981276512146
1782987988513584400,8.76658447265625,-0.950253427028656,-0.1259257048368454,-0.2624329626560211
1782987988523659300,8.7766591796875,-0.9016560316085815,-0.06607382744550705,-0.09281595796346664
1782987988533733400,8.7867333984375,-0.8121751546859741,-0.2002960741519928,0.014305702410638332
1782987988543808300,8.796808349609375,-0.6884170174598694,-0.4280935525894165,0.06785361468791962
1782987988553882400,8.80688232421875,-0.5643925666809082,-0.6863676905632019,0.06847146898508072
1782987988563957200,8.816957275390624,-0.4728442430496216,-0.9254441857337952,0.03466770052909851
1782987988574031400,8.82703125,-0.4432690441608429,-1.1174589395523071,-0.02587473951280117
1782987988584106200,8.837106201171874,-0.4616352617740631,-1.2262530326843262,-0.10911876708269119
1782987988594180400,8.847180419921875,-0.5155909061431885,-1.216988444328308,-0.19972217082977295
1782987988604255200,8.857255126953126,-0.5778856873512268,-1.1009047031402588,-0.2793022096157074
1782987988614330400,8.867330322265625,-0.6463049650192261,-0.8912748098373413,-0.3190253973007202
1782987988624404200,8.877404296875,-0.7310526371002197,-0.6295438408851624,-0.30642837285995483
1782987988634479400,8.887479248046875,-0.8362999558448792,-0.41536179184913635,-0.25688451528549194
1782987988644553500,8.897553466796875,-0.9586682319641113,-0.30858951807022095,-0.18300284445285797
1782987988654628400,8.90762841796875,-1.099019169807434,-0.28317099809646606,-0.11049854755401611
1782987988664702500,8.917702392578125,-1.2419774532318115,-0.30637937784194946,-0.06066840887069702
1782987988674777300,8.92777734375,-1.3518887758255005,-0.3135499358177185,-0.031571775674819946
1782987988684851500,8.9378515625,-1.398866057395935,-0.32032209634780884,-0.01878167688846588
1782987988694926300,8.94792626953125,-1.377841830253601,-0.3047439157962799,-0.022072546184062958
1782987988705000400,8.95800048828125,-1.3015443086624146,-0.2423868030309677,-0.03410683572292328
1782987988715075300,8.968075439453125,-1.1984387636184692,-0.1706971675157547,-0.05048927292227745
1782987988725150500,8.978150390625,-1.0686306953430176,-0.12967278063297272,-0.06058265268802643
1782987988735224300,8.988224365234375,-0.9089528322219849,-0.13427338004112244,-0.05048900470137596
1782987988745299500,8.998299560546876,-0.7401193380355835,-0.12980806827545166,-0.009783654473721981
1782987988755373300,9.008373291015625,-0.5687302947044373,-0.13552133738994598,0.05672985687851906
1782987988765448400,9.018448486328126,-0.42038530111312866,-0.15546442568302155,0.12252432107925415
1782987988775522300,9.028522216796874,-0.3031199276447296,-0.181060329079628,0.18134795129299164
1782987988785597400,9.038597412109375,-0.2126355618238449,-0.1630973070859909,0.22701716423034668
1782987988795671300,9.04867138671875,-0.1510174721479416,-0.1264527440071106,0.25208789110183716
1782987988805746400,9.058746337890625,-0.1168866753578186,-0.08813917636871338,0.25235554575920105
1782987988815820300,9.0688203125,-0.09489748626947403,-0.03910718858242035,0.22597560286521912
1782987988825895400,9.0788955078125,-0.06891355663537979,0.0046964846551418304,0.18897205591201782
1782987988835970300,9.08897021484375,-0.02502412721514702,0.033837057650089264,0.15886341035366058
1782987988846044400,9.09904443359375,0.03387833759188652,0.06651564687490463,0.14696334302425385
1782987988856119300,9.109119384765625,0.11298247426748276,0.12959261238574982,0.16481398046016693
1782987988866193400,9.119193359375,0.19985532760620117,0.22131693363189697,0.19752585887908936
1782987988876268300,9.129268310546875,0.29817843437194824,0.3382832407951355,0.247167706489563
1782987988886342400,9.13934228515625,0.4022931158542633,0.4543704390525818,0.28808772563934326
1782987988896417300,9.149417236328125,0.5077175498008728,0.5536554455757141,0.3024866282939911
1782987988906491400,9.159491455078125,0.6121576428413391,0.6184698939323425,0.2846474349498749
1782987988916566300,9.169566162109374,0.7066940069198608,0.6261445879936218,0.2390275001525879
1782987988926640400,9.179640380859375,0.7879265546798706,0.5961555242538452,0.17519205808639526
1782987988936715300,9.18971533203125,0.8444311022758484,0.5916723608970642,0.1005372628569603
1782987988946790100,9.1997900390625,0.8986445665359497,0.6505290269851685,0.024776186794042587
1782987988956864300,9.2098642578125,0.9613636136054993,0.6842725872993469,-0.057494185864925385
1782987988966939100,9.219939208984375,1.058370590209961,0.4948776364326477,-0.1732681840658188
1782987988977013200,9.23001318359375,1.177777647972107,0.14574840664863586,-0.3000415861606598
1782987988987088100,9.240088134765625,1.2748315334320068,-0.055150870233774185,-0.3644389510154724
1782987988997162200,9.250162353515625,1.3184479475021362,-0.00794660672545433,-0.32009226083755493
1782987989007237000,9.260237060546874,1.3342615365982056,0.20482105016708374,-0.20736676454544067
1782987989017311200,9.270311279296875,1.3457735776901245,0.44181203842163086,-0.07284784317016602
1782987989027386000,9.28038623046875,1.3425285816192627,0.6146320104598999,0.04115968570113182
1782987989037460200,9.290460205078125,1.3283416032791138,0.7284352779388428,0.1261265128850937
1782987989047535400,9.300535400390626,1.3239502906799316,0.868288516998291,0.1923326998949051
1782987989057609200,9.310609130859374,1.316729187965393,1.1016138792037964,0.26719602942466736
1782987989067684400,9.320684326171875,1.3012535572052002,1.375110149383545,0.34156477451324463
1782987989077759200,9.33075927734375,1.307381510734558,1.5541448593139648,0.380799263715744
1782987989087833300,9.340833251953125,1.3487720489501953,1.5531680583953857,0.3612431585788727
1782987989097908200,9.350908203125,1.4234915971755981,1.3598510026931763,0.29434508085250854
1782987989107982300,9.360982421875,1.5180537700653076,1.0113753080368042,0.19429171085357666
1782987989118057200,9.37105712890625,1.5991986989974976,0.597962498664856,0.06436886638402939
1782987989128131300,9.38113134765625,1.639315128326416,0.24434342980384827,-0.06009955704212189
1782987989138206200,9.391206298828125,1.6248643398284912,0.07031277567148209,-0.16368639469146729
1782987989148280300,9.4012802734375,1.5565459728240967,0.0860975980758667,-0.2497645616531372
1782987989158355200,9.411355224609375,1.4678763151168823,0.20505274832248688,-0.3035452365875244
1782987989168429300,9.42142919921875,1.3824676275253296,0.4301423132419586,-0.30020377039909363
1782987989178504200,9.431504150390625,1.3035396337509155,0.7183669209480286,-0.24540922045707703
1782987989188579300,9.441579345703126,1.240534782409668,0.9529134035110474,-0.16079235076904297
1782987989198653200,9.451653076171874,1.2002744674682617,1.058204174041748,-0.04969964548945427
1782987989208727000,9.46172705078125,1.1859391927719116,1.0352144241333008,0.07573550939559937
1782987989218801000,9.47180078125,1.198550820350647,0.970280110836029,0.20130355656147003
1782987989228876000,9.4818759765625,1.2332062721252441,0.8680432438850403,0.3141512870788574
1782987989238950100,9.4919501953125,1.2468632459640503,0.756361722946167,0.383632093667984
1782987989249025000,9.50202490234375,1.2475650310516357,0.6790608167648315,0.41119393706321716
1782987989259099100,9.51209912109375,1.2321234941482544,0.6314261555671692,0.38802391290664673
1782987989269174000,9.522174072265624,1.2049219608306885,0.6129971146583557,0.3142673969268799
1782987989279248100,9.532248046875,1.182187795639038,0.6065269708633423,0.22899563610553741
1782987989289323000,9.542322998046876,1.1587016582489014,0.6134064197540283,0.14045804738998413
1782987989299398100,9.552398193359375,1.1360599994659424,0.6092023849487305,0.07623139023780823
1782987989309472000,9.562471923828125,1.1111009120941162,0.6055777668952942,0.04669187217950821
1782987989319547100,9.572547119140625,1.0833518505096436,0.5964956283569336,0.044805821031332016
1782987989329621000,9.58262109375,1.056788444519043,0.562022864818573,0.06107400730252266
1782987989339696000,9.592696044921874,1.042670488357544,0.5263798832893372,0.09148464351892471
1782987989349770000,9.60277001953125,1.0403913259506226,0.5153059363365173,0.1316102296113968
1782987989359845000,9.61284521484375,1.0375480651855469,0.5048895478248596,0.16142964363098145
1782987989369919000,9.6229189453125,1.024985671043396,0.4795413017272949,0.1572924107313156
1782987989379994000,9.632994140625,1.012342095375061,0.4453335404396057,0.1321503072977066
1782987989390068000,9.64306787109375,0.9962456822395325,0.42491665482521057,0.08444777131080627
1782987989400143000,9.65314306640625,0.9624336361885071,0.4135095477104187,0.03256699815392494
1782987989410218200,9.66321826171875,0.9150528311729431,0.4379781484603882,-0.01064944826066494
1782987989420292000,9.6732919921875,0.8590396046638489,0.4971967339515686,-0.01619201898574829
1782987989430367200,9.6833671875,0.8111059069633484,0.565828800201416,0.006209160201251507
1782987989440441000,9.693441162109375,0.7842399477958679,0.6135459542274475,0.053829677402973175
1782987989450516200,9.70351611328125,0.7723116278648376,0.6442647576332092,0.12431662529706955
1782987989460590000,9.713590087890625,0.7653650641441345,0.6956445574760437,0.21028293669223785
1782987989470665200,9.723665283203125,0.7668617367744446,0.7002427577972412,0.2957855761051178
1782987989480739000,9.733739013671874,0.7762811183929443,0.6779979467391968,0.36252519488334656
1782987989490814200,9.743814208984375,0.7986681461334229,0.727968156337738,0.415312260389328
1782987989500888000,9.75388818359375,0.8150295615196228,0.8869032263755798,0.44423922896385193
1782987989510963200,9.763963134765625,0.8174524903297424,1.0496751070022583,0.4080314338207245
1782987989521037000,9.774037109375,0.8385756015777588,1.0748041868209839,0.31122952699661255
1782987989531112200,9.7841123046875,0.8395889401435852,0.8581144213676453,0.1585257351398468
1782987989541187000,9.79418701171875,0.8106476068496704,0.4917963743209839,-0.00427277572453022
1782987989551261200,9.80426123046875,0.7338739633560181,0.1821138709783554,-0.13618873059749603
1782987989561336000,9.814336181640625,0.6200206279754639,0.0816408023238182,-0.2224746197462082
1782987989571410200,9.82441015625,0.5013842582702637,0.25780171155929565,-0.23027154803276062
1782987989581485000,9.834485107421875,0.41741853952407837,0.636967122554779,-0.1877208948135376
1782987989591559200,9.84455908203125,0.3871495723724365,1.024365782737732,-0.12611958384513855
1782987989601634000,9.854634033203125,0.4233374297618866,1.221557378768921,-0.0902651846408844
1782987989611708200,9.864708251953125,0.5134620070457458,1.1760610342025757,-0.08926835656166077
1782987989621783300,9.874783203125,0.650562584400177,0.9517631530761719,-0.10547209531068802
1782987989631857200,9.884857177734375,0.8030988574028015,0.6852042078971863,-0.11437877267599106
1782987989641932300,9.894932373046874,0.9380806684494019,0.4987080693244934,-0.10177376866340637
1782987989652007200,9.905007080078125,1.0308440923690796,0.4231230318546295,-0.08270340412855148
1782987989662081300,9.915081298828126,1.0718655586242676,0.4574839472770691,-0.06610844284296036
1782987989672156200,9.92515625,1.0832124948501587,0.6013135313987732,-0.049066610634326935
1782987989682230300,9.935230224609375,1.0859566926956177,0.8655585050582886,-0.03156724572181702
1782987989692305200,9.94530517578125,1.090559720993042,1.1451443433761597,-0.016827449202537537
1782987989702379300,9.955379150390625,1.1207484006881714,1.391618251800537,0.010447314940392971
1782987989712454100,9.9654541015625,1.1926873922348022,1.5749095678329468,0.06075922027230263
1782987989722528300,9.9755283203125,1.2768107652664185,1.7057034969329834,0.12300794571638107
1782987989732603100,9.98560302734375,1.3444745540618896,1.7440853118896484,0.17156828939914703
1782987989742677200,9.99567724609375,1.394142746925354,1.6448018550872803,0.20002257823944092
1782987989752752000,10.005752197265625,1.423895001411438,1.4716582298278809,0.1977596879005432
1782987989762827300,10.0158271484375,1.4288588762283325,1.2648206949234009,0.15282629430294037
1782987989772901000,10.025901123046875,1.3838860988616943,1.0273993015289307,0.068806491792202
1782987989782976300,10.035976318359374,1.3241721391677856,0.8387463092803955,-0.03544720634818077
1782987989793050000,10.046050048828125,1.2763644456863403,0.7888535857200623,-0.13898184895515442
1782987989803125200,10.056125244140626,1.2443382740020752,0.8134638667106628,-0.2537102997303009
1782987989813199000,10.06619921875,1.2272021770477295,0.8432518839836121,-0.37622421979904175
1782987989823274200,10.076274169921875,1.2342242002487183,0.8638202548027039,-0.485668420791626
1782987989833348000,10.08634814453125,1.2547930479049683,0.8565903306007385,-0.5728251934051514
1782987989843423200,10.09642333984375,1.2700929641723633,0.8271147012710571,-0.6257104873657227
1782987989853497000,10.1064970703125,1.2752171754837036,0.7848210334777832,-0.6549360156059265
1782987989863572200,10.116572265625,1.2666715383529663,0.7266024947166443,-0.6754602193832397
1782987989873646300,10.126646240234376,1.2290080785751343,0.6611835360527039,-0.7111591100692749
1782987989883721200,10.13672119140625,1.1624112129211426,0.614927351474762,-0.7888040542602539
1782987989893796000,10.146796142578125,1.0970522165298462,0.5662513971328735,-0.8892853856086731
1782987989903870200,10.1568701171875,1.0702482461929321,0.5285149812698364,-1.0000423192977905
1782987989913945000,10.166945068359375,1.0847777128219604,0.48990553617477417,-1.0692626237869263
1782987989924019200,10.177019287109376,1.1414515972137451,0.4775305986404419,-1.0506160259246826
1782987989934094000,10.187093994140625,1.2262372970581055,0.5308537483215332,-0.9420812726020813
1782987989944168200,10.197168212890626,1.3465744256973267,0.6185777187347412,-0.7358772158622742
1782987989954243000,10.2072431640625,1.4969404935836792,0.7079691290855408,-0.45582079887390137
1782987989964317200,10.217317138671875,1.6564528942108154,0.8137370944023132,-0.14806988835334778
1782987989974392000,10.22739208984375,1.7799279689788818,0.8997614979743958,0.12232058495283127
1782987989984466200,10.237466064453125,1.849690318107605,0.958623468875885,0.3124614953994751
1782987989994541000,10.247541015625,1.8770885467529297,1.0399342775344849,0.4215531051158905
1782987990004616000,10.257615966796875,1.8678593635559082,1.1308733224868774,0.4825115203857422
1782987990014690000,10.26768994140625,1.8498095273971558,1.22483491897583,0.518391489982605
1782987990024765200,10.27776513671875,1.8430904150009155,1.3385188579559326,0.5235758423805237
1782987990034839000,10.287839111328125,1.8586877584457397,1.4721275568008423,0.48757684230804443
1782987990044914200,10.2979140625,1.886983871459961,1.6225242614746094,0.4198947548866272
1782987990054988000,10.307988037109375,1.9176470041275024,1.7766754627227783,0.31212061643600464
1782987990065063200,10.318063232421874,1.9573179483413696,1.8761389255523682,0.1920783668756485
1782987990075137000,10.328136962890625,1.9868364334106445,1.8509308099746704,0.0823286920785904
1782987990085212200,10.338212158203126,1.968865156173706,1.6237162351608276,-0.03590287268161774
1782987990095286000,10.3482861328125,1.8730195760726929,1.2899709939956665,-0.1486227661371231
1782987990105361200,10.358361083984375,1.7398737668991089,1.1333489418029785,-0.204032763838768
1782987990115435000,10.36843505859375,1.6360517740249634,1.2745527029037476,-0.17056961357593536
1782987990125510100,10.37851025390625,1.5938374996185303,1.6684070825576782,-0.043953608721494675
1782987990135585000,10.3885849609375,1.601722240447998,2.1122536659240723,0.14049160480499268
1782987990145659100,10.3986591796875,1.6479417085647583,2.438539505004883,0.36407381296157837
1782987990155734000,10.408734130859376,1.7368502616882324,2.5729126930236816,0.5596728920936584
1782987990165808000,10.41880810546875,1.8384642601013184,2.5160419940948486,0.6940509080886841
1782987990175883000,10.428883056640625,1.960722804069519,2.327744245529175,0.7581433653831482
1782987990185957000,10.43895703125,2.050041675567627,2.1204049587249756,0.7555190920829773
1782987990196032000,10.449031982421875,2.080465316772461,1.9524837732315063,0.7086594104766846
1782987990206106400,10.4591064453125,2.067932605743408,1.7753989696502686,0.5831949710845947
1782987990216181500,10.469181396484375,2.0415775775909424,1.551960825920105,0.3927861750125885
1782987990226255400,10.47925537109375,2.0097272396087646,1.304137945175171,0.15163186192512512
1782987990236330500,10.48933056640625,1.9550018310546875,0.966688334941864,-0.13168878853321075
1782987990246405400,10.4994052734375,1.8873987197875977,0.6735008955001831,-0.3886803686618805
1782987990256479500,10.5094794921875,1.8203885555267334,0.6390939354896545,-0.5516956448554993
1782987990266554400,10.519554443359375,1.7814902067184448,0.8170269131660461,-0.6126953363418579
1782987990276628500,10.52962841796875,1.7872340679168701,1.1449272632598877,-0.5747807621955872
1782987990286703400,10.539703369140625,1.8345789909362793,1.4613523483276367,-0.4573212265968323
1782987990296777500,10.549777587890626,1.9182991981506348,1.6043039560317993,-0.29190534353256226
1782987990306852400,10.559852294921875,2.009972095489502,1.5994971990585327,-0.11665790528059006
1782987990316926500,10.569926513671875,2.0657730102539062,1.5273737907409668,0.03772687166929245
1782987990327001300,10.58000146484375,2.049323558807373,1.4020991325378418,0.12610892951488495
1782987990337075500,10.590075439453125,1.98629891872406,1.3122057914733887,0.13708408176898956
1782987990347150300,10.600150390625,1.8878421783447266,1.2715811729431152,0.059657737612724304
1782987990357224400,10.610224365234375,1.7937431335449219,1.2764626741409302,-0.07954888790845871
1782987990367299300,10.62029931640625,1.720357894897461,1.3457802534103394,-0.2379225492477417
1782987990377374500,10.63037451171875,1.6561365127563477,1.4431960582733154,-0.3763962686061859
1782987990387448600,10.640448486328125,1.5979621410369873,1.4259613752365112,-0.4379903972148895
1782987990397523500,10.6505234375,1.4995112419128418,1.272054672241211,-0.3223058581352234
1782987990407597600,10.66059765625,1.4304934740066528,1.0239337682724,-0.1976398378610611
1782987990417672400,10.67067236328125,1.442802906036377,0.8247575759887695,-0.09414061158895493
1782987990427746600,10.68074658203125,1.434448003768921,0.7616153359413147,-0.07962505519390106
1782987990437821400,10.690821533203126,1.3607157468795776,0.7800635695457458,-0.14257845282554626
1782987990447895600,10.7008955078125,1.2143490314483643,0.867760419845581,-0.2684977650642395
1782987990457970400,10.710970458984375,0.9924836754798889,0.91707843542099,-0.3569301664829254
1782987990468044500,10.72104443359375,0.7647256255149841,0.8147019743919373,-0.36749839782714844
