time,seconds_elapsed,z,y,x
1782988057031730000,0.05872998046875,-0.2402871698141098,0.311570942401886,0.34755584597587585
1782988057041804000,0.068803955078125,-0.22279153764247894,0.40862318873405457,0.3432830572128296
1782988057051879200,0.078879150390625,-0.2179941087961197,0.46048691868782043,0.3489918112754822
1782988057061953000,0.088953125,-0.2363707274198532,0.4614323377609253,0.3425735831260681
1782988057072028200,0.099028076171875,-0.2621016502380371,0.4120402932167053,0.3047332763671875
1782988057082102000,0.10910205078125,-0.2597450315952301,0.3224709928035736,0.2610771358013153
1782988057092177200,0.11917724609375,-0.22671250998973846,0.23503781855106354,0.23475497961044312
1782988057102251000,0.1292509765625,-0.17077946662902832,0.16903722286224365,0.2185230255126953
1782988057112324900,0.139324951171875,-0.10646305978298187,0.1297646462917328,0.19446268677711487
1782988057122400000,0.14939990234375,-0.04165876284241676,0.10082461684942245,0.16389386355876923
1782988057132473900,0.159473876953125,0.009635583497583866,0.041605498641729355,0.10932435840368271
1782988057142549000,0.169549072265625,0.043059851974248886,-0.027466244995594025,0.03737054020166397
1782988057152622800,0.179622802734375,0.05734185129404068,-0.053887732326984406,-0.02219265326857567
1782988057162698000,0.189697998046875,0.05427122861146927,-0.03224741667509079,-0.04745406657457352
1782988057172772000,0.199772216796875,0.04073091968894005,0.014006096869707108,-0.050331879407167435
1782988057182847000,0.209846923828125,0.04384255409240723,0.06551775336265564,-0.025830265134572983
1782988057192921000,0.219921142578125,0.05168876051902771,0.1267518252134323,-0.0046722497791051865
1782988057202996000,0.229995849609375,0.07071118801832199,0.18334293365478516,-0.003941744565963745
1782988057213070000,0.240070068359375,0.09714332967996597,0.22328874468803406,-0.016832510009407997
1782988057223145000,0.25014501953125,0.1383213847875595,0.24019795656204224,-0.024811340495944023
1782988057233219000,0.260218994140625,0.18406836688518524,0.21933475136756897,-0.019246932119131088
1782988057243294000,0.2702939453125,0.22381071746349335,0.1809956133365631,-0.009849434718489647
1782988057253368000,0.2803681640625,0.26701971888542175,0.1626879870891571,-0.002412557601928711
1782988057263442000,0.29044189453125,0.3049665689468384,0.18747642636299133,-0.0004596615908667445
1782988057273514800,0.3005146484375,0.3429967761039734,0.22543445229530334,-0.0071037160232663155
1782988057283588600,0.310588623046875,0.38138970732688904,0.26211869716644287,-0.027472104877233505
1782988057293663700,0.320663818359375,0.4144427180290222,0.28223222494125366,-0.06489750742912292
1782988057303737600,0.330737548828125,0.44103360176086426,0.2722594738006592,-0.098301000893116
1782988057313812700,0.340812744140625,0.4506707787513733,0.27846118807792664,-0.1088833436369896
1782988057323886600,0.350886474609375,0.4564785957336426,0.28589725494384766,-0.09080127626657486
1782988057333961700,0.360961669921875,0.45831456780433655,0.3025508224964142,-0.05345097556710243
1782988057344035600,0.37103564453125,0.472321480512619,0.38988277316093445,-0.033415213227272034
1782988057354110700,0.38111083984375,0.5063851475715637,0.410572350025177,-0.05259823054075241
1782988057364184600,0.3911845703125,0.5427389144897461,0.2705545425415039,-0.12396721541881561
1782988057374259700,0.401259765625,0.5617019534111023,0.03386449068784714,-0.2673683166503906
1782988057384333600,0.41133349609375,0.5572975873947144,-0.31405752897262573,-0.4596323072910309
1782988057394408700,0.42140869140625,0.5401055812835693,-0.5800239443778992,-0.6477894186973572
1782988057404482600,0.431482666015625,0.5238403081893921,-0.5496082901954651,-0.7500483989715576
1782988057414556700,0.441556640625,0.5278412103652954,-0.317810982465744,-0.7311074733734131
1782988057424631800,0.4516318359375,0.5365502834320068,-0.008875783532857895,-0.5903101563453674
1782988057434705700,0.46170556640625,0.5355353355407715,0.3144540786743164,-0.3488152325153351
1782988057444780800,0.47178076171875,0.5308335423469543,0.5920076370239258,-0.07661861181259155
1782988057454854700,0.481854736328125,0.5467578768730164,0.7759644389152527,0.15989698469638824
1782988057464929800,0.4919296875,0.5763370990753174,0.8317728638648987,0.33917778730392456
1782988057475003600,0.502003662109375,0.6014466881752014,0.7883105874061584,0.471057265996933
1782988057485078800,0.512078857421875,0.623664915561676,0.675817608833313,0.5579660534858704
1782988057495152600,0.522152587890625,0.6413531303405762,0.5319659113883972,0.6092430949211121
1782988057505227800,0.532227783203125,0.6522645950317383,0.3634306788444519,0.6171942353248596
1782988057515301600,0.542301513671875,0.6652659177780151,0.17080050706863403,0.5944127440452576
1782988057525376800,0.552376708984375,0.6813181042671204,0.018728414550423622,0.5395745635032654
1782988057535450600,0.56245068359375,0.700621485710144,-0.08140537887811661,0.45692095160484314
1782988057545524700,0.572524658203125,0.7325626611709595,-0.1149393692612648,0.37273362278938293
1782988057555599600,0.582599609375,0.7663251161575317,-0.09206175059080124,0.2864096462726593
1782988057565673700,0.592673828125,0.7949399948120117,-0.05330583080649376,0.21095244586467743
1782988057575748600,0.60274853515625,0.8262872695922852,0.002778475871309638,0.16784705221652985
1782988057585822700,0.61282275390625,0.846615731716156,0.06335180997848511,0.1629265993833542
1782988057595897600,0.622897705078125,0.8488016128540039,0.10373704880475998,0.19127914309501648
1782988057605971700,0.6329716796875,0.8394278287887573,0.09549802541732788,0.23475179076194763
1782988057616046600,0.643046630859375,0.8105219006538391,0.0023909860756248236,0.2845747470855713
1782988057626120700,0.65312060546875,0.7744592428207397,-0.12720268964767456,0.3424023389816284
1782988057636195600,0.663195556640625,0.7368500828742981,-0.24337616562843323,0.40372881293296814
1782988057646269700,0.673269775390625,0.6840595602989197,-0.2957158088684082,0.44899803400039673
1782988057656344600,0.683344482421875,0.6325138211250305,-0.2343858778476715,0.4872250556945801
1782988057666418700,0.693418701171875,0.5887809991836548,-0.07704444974660873,0.505236029624939
1782988057676492800,0.703492919921875,0.5566608309745789,0.1536628007888794,0.49297428131103516
1782988057686567700,0.713567626953125,0.5422883033752441,0.33749282360076904,0.4329860508441925
1782988057696641800,0.723641845703125,0.5436792969703674,0.4245310425758362,0.3229817748069763
1782988057706716700,0.733716552734375,0.5520488023757935,0.4375144839286804,0.1940094232559204
1782988057716790800,0.743790771484375,0.5581777691841125,0.39811328053474426,0.07875765860080719
1782988057726865700,0.75386572265625,0.5541875958442688,0.39397019147872925,0.014371482655405998
1782988057736939800,0.763939697265625,0.5227979421615601,0.427833616733551,-0.0010040117194876075
1782988057747014700,0.7740146484375,0.4866492748260498,0.4469500780105591,0.02273780293762684
1782988057757088800,0.7840888671875,0.45074427127838135,0.44779056310653687,0.065376877784729
1782988057767163600,0.79416357421875,0.43530192971229553,0.49159982800483704,0.12407081574201584
1782988057777237800,0.80423779296875,0.4186238944530487,0.5326828360557556,0.1902594268321991
1782988057787312600,0.814312744140625,0.4027511775493622,0.5298657417297363,0.25939562916755676
1782988057797386800,0.82438671875,0.37636563181877136,0.5029968023300171,0.33341896533966064
1782988057807461600,0.834461669921875,0.33900895714759827,0.43695148825645447,0.39375290274620056
1782988057817535700,0.84453564453125,0.2989627420902252,0.34646207094192505,0.4221144914627075
1782988057827610600,0.854610595703125,0.2673361003398895,0.2324545532464981,0.3987812101840973
1782988057837684700,0.864684814453125,0.24720872938632965,0.1342933624982834,0.33406132459640503
1782988057847758800,0.8747587890625,0.2361033409833908,0.0685761347413063,0.22931388020515442
1782988057857833700,0.884833740234375,0.2268885374069214,0.025482989847660065,0.12296800315380096
1782988057867907800,0.894907958984375,0.22213773429393768,0.029405292123556137,0.044255077838897705
1782988057877982700,0.904982666015625,0.22456839680671692,0.06401466578245163,0.005167597904801369
1782988057888056800,0.915056884765625,0.23150299489498138,0.09462104737758636,-0.0028724854346364737
1782988057898131700,0.925131591796875,0.2315157800912857,0.09519203007221222,-0.005085838492959738
1782988057908205800,0.935205810546875,0.21881836652755737,0.07093888521194458,-0.011112838052213192
1782988057918280700,0.94528076171875,0.18804126977920532,0.036370258778333664,-0.024575117975473404
1782988057928354800,0.955354736328125,0.1380862295627594,0.009618538431823254,-0.05965001508593559
1782988057938430000,0.965429931640625,0.06730207800865173,0.08874291926622391,-0.09773880988359451
1782988057948503800,0.97550390625,-0.00698041170835495,0.24332104623317719,-0.14058880507946014
1782988057958579000,0.985578857421875,-0.07154235988855362,0.29868844151496887,-0.21483133733272552
1782988057968652800,0.99565283203125,-0.13383130729198456,0.18014712631702423,-0.3488306999206543
1782988057978728000,1.00572802734375,-0.1881169080734253,-0.018378207460045815,-0.5111282467842102
1782988057988801800,1.0158017578125,-0.24312636256217957,-0.20457124710083008,-0.6604593992233276
1782988057998875600,1.025875732421875,-0.28672951459884644,-0.2691526412963867,-0.7452608346939087
1782988058008950800,1.03595068359375,-0.32594242691993713,-0.12190672755241394,-0.737158477306366
1782988058019024600,1.046024658203125,-0.3596170246601105,0.14007800817489624,-0.6618916392326355
1782988058029099800,1.056099853515625,-0.3728228509426117,0.44577109813690186,-0.5364687442779541
1782988058039173600,1.066173583984375,-0.3437618911266327,0.6876034140586853,-0.3875676989555359
1782988058049248800,1.076248779296875,-0.28040316700935364,0.8195947408676147,-0.2365366369485855
1782988058059323000,1.086322998046875,-0.2162095308303833,0.8183419704437256,-0.10925431549549103
1782988058069397800,1.096397705078125,-0.1444634348154068,0.6458189487457275,-0.014700116589665413
1782988058079471900,1.106471923828125,-0.08089405298233032,0.3849639296531677,0.05997278913855553
1782988058089546800,1.116546630859375,-0.02371305227279663,0.14372122287750244,0.1353708803653717
1782988058099620900,1.126620849609375,0.019779030233621597,-0.007133010774850845,0.20414620637893677
1782988058109695700,1.13669580078125,0.0427330806851387,-0.057441454380750656,0.2369699329137802
1782988058119769900,1.146769775390625,0.03985846787691116,-0.03261759877204895,0.2169267237186432
1782988058129843700,1.15684375,0.023422768339514732,0.0288846455514431,0.17066708207130432
1782988058139918800,1.1669189453125,-0.025604695081710815,0.12571851909160614,0.1274580955505371
1782988058149992700,1.17699267578125,-0.11023968458175659,0.2465357482433319,0.10820236802101135
1782988058160067800,1.18706787109375,-0.21765004098415375,0.37704741954803467,0.11444535106420517
1782988058170141700,1.1971416015625,-0.3377487361431122,0.49808648228645325,0.13987001776695251
1782988058180216800,1.207216796875,-0.44498226046562195,0.585860550403595,0.1641215682029724
1782988058190290700,1.217290771484375,-0.5306436419487,0.5843918323516846,0.18890520930290222
1782988058200365800,1.22736572265625,-0.5969443321228027,0.4279334843158722,0.19184745848178864
1782988058210439700,1.237439697265625,-0.6485207080841064,0.22921986877918243,0.14594867825508118
1782988058220514800,1.247514892578125,-0.6467905044555664,0.04502180218696594,0.06811060756444931
1782988058230588700,1.257588623046875,-0.6137893795967102,-0.04703648388385773,-0.021261079236865044
1782988058240663800,1.267663818359375,-0.5735902786254883,-0.06452333182096481,-0.13033217191696167
1782988058250737700,1.277737548828125,-0.5361396074295044,-0.10146456956863403,-0.24702656269073486
1782988058260812800,1.287812744140625,-0.5223590731620789,-0.18968471884727478,-0.3687093257904053
1782988058270887000,1.297886962890625,-0.5065444111824036,-0.2985619306564331,-0.4781316816806793
1782988058280961000,1.3079609375,-0.4661884903907776,-0.4009958803653717,-0.5727412700653076
1782988058291036000,1.318035888671875,-0.40717893838882446,-0.5125048160552979,-0.6323153972625732
1782988058301110000,1.328110107421875,-0.34937238693237305,-0.6069847345352173,-0.6640048623085022
1782988058311185000,1.338184814453125,-0.29579809308052063,-0.6303715705871582,-0.6708052754402161
1782988058321259000,1.348259033203125,-0.2392866164445877,-0.4988310933113098,-0.6307460069656372
1782988058331334000,1.358333984375,-0.198747456073761,-0.33477240800857544,-0.5461762547492981
1782988058341408000,1.368407958984375,-0.19234174489974976,-0.1580551415681839,-0.41508162021636963
1782988058351483000,1.37848291015625,-0.2176162153482437,0.022245118394494057,-0.2519723176956177
1782988058361557000,1.388556884765625,-0.24913819134235382,0.16302619874477386,-0.07956939190626144
1782988058371631900,1.3986318359375,-0.266630083322525,0.24314740300178528,0.07311149686574936
1782988058381706000,1.4087060546875,-0.2626587748527527,0.2594355642795563,0.1763201653957367
1782988058391780900,1.41878076171875,-0.2418786734342575,0.2370905727148056,0.22340086102485657
1782988058401855000,1.42885498046875,-0.21354849636554718,0.18469367921352386,0.22154144942760468
1782988058411928800,1.4389287109375,-0.17387831211090088,0.11162293702363968,0.19089964032173157
1782988058422004000,1.44900390625,-0.1327492594718933,0.06681418418884277,0.15496188402175903
1782988058432077800,1.459077880859375,-0.08952002972364426,0.04909111186861992,0.12934307754039764
1782988058442153000,1.469153076171875,-0.04307609796524048,0.0647723376750946,0.13242514431476593
1782988058452226800,1.479226806640625,0.0012993563432246447,0.09795532375574112,0.16855385899543762
1782988058462302000,1.489302001953125,0.034805916249752045,0.13680525124073029,0.20939449965953827
1782988058472375800,1.499375732421875,0.06506102532148361,0.13694986701011658,0.23267905414104462
1782988058482451000,1.509450927734375,0.09833482652902603,0.10632271319627762,0.22891467809677124
1782988058492524800,1.51952490234375,0.13219185173511505,0.05007169023156166,0.19574101269245148
1782988058502600000,1.529599853515625,0.13676823675632477,0.00014407701382879168,0.12928181886672974
1782988058512673800,1.539673828125,0.1320991814136505,0.02087891660630703,0.046435143798589706
1782988058522749000,1.5497490234375,0.14430710673332214,0.12187450379133224,-0.016775785014033318
1782988058532822800,1.55982275390625,0.19184640049934387,0.10114818811416626,-0.0755980908870697
1782988058542897000,1.56989697265625,0.2579260766506195,-0.13721777498722076,-0.15800641477108002
1782988058552971800,1.5799716796875,0.33057737350463867,-0.5323368906974792,-0.26258689165115356
1782988058563046000,1.5900458984375,0.37839019298553467,-0.9121108055114746,-0.3797939419746399
1782988058573120800,1.600120849609375,0.37249207496643066,-1.103197693824768,-0.5068187117576599
1782988058583195000,1.61019482421875,0.3214755058288574,-1.0611698627471924,-0.612012505531311
1782988058593269800,1.620269775390625,0.2456851303577423,-0.8641560673713684,-0.6631633043289185
1782988058603344000,1.63034375,0.16030259430408478,-0.5565165281295776,-0.6497066617012024
1782988058613418800,1.640418701171875,0.07333413511514664,-0.1457476168870926,-0.5681002140045166
1782988058623492900,1.650492919921875,0.025179123505949974,0.3505686819553375,-0.4216060936450958
1782988058633567700,1.660567626953125,0.024835309013724327,0.8362267017364502,-0.22412444651126862
1782988058643641900,1.670641845703125,0.06179732084274292,1.1205679178237915,-0.038957517594099045
1782988058653717000,1.680717041015625,0.11660517752170563,1.163062572479248,0.11627653986215591
1782988058663790800,1.690790771484375,0.1973162740468979,1.0218682289123535,0.220601886510849
1782988058673865000,1.700864990234375,0.29292240738868713,0.7201347351074219,0.25661739706993103
1782988058683939800,1.71093994140625,0.41024959087371826,0.2922087013721466,0.2217627465724945
1782988058694014000,1.721013916015625,0.5520653128623962,-0.15399223566055298,0.1276082992553711
1782988058704088800,1.7310888671875,0.6886846423149109,-0.5131903290748596,0.018498316407203674
1782988058714163000,1.741162841796875,0.8024799227714539,-0.7052069306373596,-0.07262839376926422
1782988058724237800,1.75123779296875,0.8725376129150391,-0.6889824271202087,-0.12188702076673508
1782988058734312000,1.76131201171875,0.9047245383262634,-0.5138028860092163,-0.11131267249584198
1782988058744386800,1.77138671875,0.9005513787269592,-0.26431313157081604,-0.03153049573302269
1782988058754461000,1.7814609375,0.872180163860321,-0.014478807337582111,0.11472099274396896
1782988058764535800,1.791535888671875,0.823767900466919,0.15047818422317505,0.3083439767360687
1782988058774610000,1.80160986328125,0.7606203556060791,0.18312987685203552,0.4930531084537506
1782988058784684800,1.811684814453125,0.6884644031524658,0.11186634749174118,0.633087158203125
1782988058794759000,1.821759033203125,0.6118471622467041,0.03237445279955864,0.7207797765731812
1782988058804833800,1.831833740234375,0.5474308729171753,-0.0100774010643363,0.7489277720451355
1782988058814908000,1.841907958984375,0.48791825771331787,-0.012010323815047741,0.7099478840827942
1782988058824982000,1.85198193359375,0.43269070982933044,0.030652184039354324,0.6341220736503601
1782988058835057000,1.862056884765625,0.36939695477485657,0.10464092344045639,0.5285453200340271
1782988058845131000,1.872131103515625,0.2951091527938843,0.17140930891036987,0.4122821092605591
1782988058855206000,1.882205810546875,0.2166590690612793,0.19181124866008759,0.28745654225349426
1782988058865280000,1.892280029296875,0.14201253652572632,0.16297534108161926,0.16701668500900269
1782988058875355000,1.90235498046875,0.077874556183815,0.12243004143238068,0.06278402358293533
1782988058885429000,1.912428955078125,0.03153662011027336,0.0846395194530487,-0.01974148117005825
1782988058895504000,1.92250390625,-0.0005033374181948602,0.0440545417368412,-0.08666059374809265
1782988058905578000,1.932577880859375,-0.0189001876860857,0.005579056218266487,-0.1353226751089096
1782988058915652900,1.94265283203125,-0.023786822333931923,-0.003326288191601634,-0.16458441317081451
1782988058925727000,1.95272705078125,-0.01798858866095543,0.007823036052286625,-0.18049946427345276
1782988058935801000,1.962801025390625,-0.014150972478091717,0.0020295949652791023,-0.20338481664657593
1782988058945876000,1.9728759765625,-0.006090383045375347,-0.029807962477207184,-0.22647282481193542
1782988058955950000,1.9829501953125,0.005200620740652084,-0.05408773571252823,-0.21941012144088745
1782988058966025000,1.99302490234375,0.0025513083674013615,-0.03545626252889633,-0.18586280941963196
1782988058976099000,2.00309912109375,-0.029758693650364876,0.0021252024453133345,-0.1492621898651123
1782988058986174000,2.013174072265625,-0.05636154115200043,0.028739502653479576,-0.11700890958309174
1782988058996248000,2.023248046875,-0.06367538124322891,0.03586745262145996,-0.09881526231765747
1782988059006323000,2.033322998046875,-0.04809216037392616,0.03705895319581032,-0.0921027660369873
1782988059016397000,2.04339697265625,-0.020379040390253067,0.03886084631085396,-0.08611011505126953
1782988059026472000,2.053471923828125,-0.008490690030157566,0.046599194407463074,-0.08770854771137238
1782988059036546000,2.063546142578125,-0.007622499484568834,0.029561620205640793,-0.08764410018920898
1782988059046621000,2.073620849609375,-0.01438000425696373,0.006585464812815189,-0.07592086493968964
1782988059056695000,2.083695068359375,-0.02207973599433899,-0.006943127140402794,-0.039617717266082764
1782988059066770000,2.09377001953125,-0.030345655977725983,-0.0501910001039505,-0.0005030711181461811
1782988059076844000,2.103843994140625,-0.038168422877788544,-0.09418721497058868,0.04101747274398804
1782988059086918000,2.11391796875,-0.046128880232572556,-0.12864026427268982,0.07077936083078384
1782988059096993000,2.123992919921875,-0.07063528895378113,-0.17313529551029205,0.07430752366781235
1782988059107067000,2.13406689453125,-0.10926337540149689,-0.25104501843452454,0.04544737562537193
1782988059117142000,2.14414208984375,-0.16466538608074188,-0.3199377954006195,0.0006282397080212831
1782988059127215900,2.1542158203125,-0.22638733685016632,-0.33251482248306274,-0.043470777571201324
1782988059137291000,2.164291015625,-0.293046772480011,-0.26290538907051086,-0.061086256057024
1782988059147364900,2.17436474609375,-0.3658190071582794,-0.1397182196378708,-0.06831860542297363
1782988059157440000,2.18443994140625,-0.43614429235458374,-0.04460635036230087,-0.072952501475811
1782988059167513900,2.194513916015625,-0.48883306980133057,0.08884038776159286,-0.08037526905536652
1782988059177589000,2.204589111328125,-0.5292630195617676,0.2635229825973511,-0.1032470241189003
1782988059187662800,2.214662841796875,-0.5794726610183716,0.26348409056663513,-0.19682438671588898
1782988059197738000,2.224738037109375,-0.6469351053237915,-0.006873086094856262,-0.37282684445381165
1782988059207811800,2.234811767578125,-0.7202354073524475,-0.4392370283603668,-0.5943509936332703
1782988059217886000,2.244885986328125,-0.7793277502059937,-0.7687760591506958,-0.7658880949020386
1782988059227960800,2.2549609375,-0.8321936130523682,-0.7956316471099854,-0.8198277950286865
1782988059238035000,2.265034912109375,-0.8489579558372498,-0.4731161594390869,-0.7435401678085327
1782988059248109800,2.27510986328125,-0.8288942575454712,0.13820847868919373,-0.5330953598022461
1782988059258184000,2.285183837890625,-0.783554196357727,0.759505569934845,-0.24017824232578278
1782988059268258000,2.295258056640625,-0.7426027655601501,0.9863688349723816,0.007833422161638737
1782988059278332200,2.305332275390625,-0.6993505954742432,0.6794514656066895,0.16588297486305237
1782988059288407000,2.315406982421875,-0.6455073952674866,0.11728934198617935,0.2410259246826172
1782988059298481200,2.325481201171875,-0.590720534324646,-0.3428258001804352,0.26877766847610474
1782988059308556000,2.33555615234375,-0.5341310501098633,-0.5805097222328186,0.26930204033851624
1782988059318630100,2.345630126953125,-0.4870186448097229,-0.6117600798606873,0.2452976405620575
1782988059328705000,2.355705078125,-0.42344793677330017,-0.46875444054603577,0.2193097174167633
1782988059338779100,2.365779052734375,-0.34627699851989746,-0.23910711705684662,0.208441361784935
1782988059348853000,2.37585302734375,-0.28238803148269653,-0.026373017579317093,0.20312169194221497
1782988059358928100,2.38592822265625,-0.23792999982833862,0.08636711537837982,0.19443579018115997
1782988059369002000,2.396001953125,-0.21367686986923218,0.10805909335613251,0.1976824551820755
1782988059379077000,2.4060771484375,-0.20679925382137299,0.1279582381248474,0.22160695493221283
1782988059389151000,2.41615087890625,-0.21363984048366547,0.17486156523227692,0.2749021351337433
1782988059399226000,2.42622607421875,-0.24340812861919403,0.20026545226573944,0.32502123713493347
1782988059409300000,2.436300048828125,-0.27552637457847595,0.18543830513954163,0.3517591059207916
1782988059419375000,2.446375,-0.29424548149108887,0.13125309348106384,0.3515276610851288
1782988059429449000,2.456448974609375,-0.2873002290725708,0.050635214895009995,0.3166338801383972
1782988059439524000,2.466524169921875,-0.27081233263015747,-0.04631822928786278,0.2532615661621094
1782988059449598000,2.476597900390625,-0.25925153493881226,-0.1489516645669937,0.16196121275424957
1782988059459672300,2.48667236328125,-0.26499491930007935,-0.22889922559261322,0.05425924435257912
1782988059469747000,2.496746826171875,-0.2844280004501343,-0.25930294394493103,-0.04940350353717804
1782988059479821300,2.5068212890625,-0.3162311911582947,-0.2884219288825989,-0.13562972843647003
1782988059489896000,2.51689599609375,-0.35013216733932495,-0.337906152009964,-0.21169839799404144
1782988059499970300,2.52697021484375,-0.38144057989120483,-0.4121955335140228,-0.26180869340896606
1782988059510045200,2.537045166015625,-0.39662325382232666,-0.44896793365478516,-0.2635541558265686
1782988059520119300,2.547119384765625,-0.39866429567337036,-0.43332239985466003,-0.217763751745224
1782988059530194200,2.557194091796875,-0.3947465121746063,-0.4263094961643219,-0.15378797054290771
1782988059540268300,2.567268310546875,-0.38655516505241394,-0.40378475189208984,-0.07280736416578293
1782988059550343200,2.57734326171875,-0.3726380169391632,-0.3271546959877014,0.003916711080819368
1782988059560417300,2.587417236328125,-0.35738077759742737,-0.2463541179895401,0.06245352327823639
1782988059570492200,2.5974921875,-0.3487981855869293,-0.19865956902503967,0.0997854471206665
1782988059580566300,2.607566162109375,-0.3506235182285309,-0.16952751576900482,0.11982573568820953
1782988059590640000,2.61764013671875,-0.35278815031051636,-0.14601846039295197,0.13512666523456573
1782988059600715300,2.62771533203125,-0.35575437545776367,-0.1240612268447876,0.15422765910625458
1782988059610789000,2.6377890625,-0.3601464629173279,-0.09399040788412094,0.1717911958694458
1782988059620864300,2.6478642578125,-0.3625944256782532,-0.04566469043493271,0.1781473606824875
1782988059630938400,2.6579384765625,-0.35546010732650757,-0.005839246790856123,0.17078372836112976
1782988059641013200,2.66801318359375,-0.3534640669822693,0.03578862547874451,0.14515027403831482
1782988059651087400,2.67808740234375,-0.3572468161582947,0.05546485632658005,0.10149706155061722
1782988059661162200,2.688162353515625,-0.3655116558074951,0.009108809754252434,0.04795554280281067
1782988059671236400,2.698236328125,-0.3790631592273712,-0.04370540380477905,-0.017180318012833595
1782988059681311200,2.708311279296875,-0.3930506110191345,-0.07734458893537521,-0.09029580652713776
1782988059691385300,2.71838525390625,-0.4161372780799866,-0.1106380969285965,-0.1844601184129715
1782988059701460200,2.728460205078125,-0.4331650137901306,-0.1468120813369751,-0.28855669498443604
1782988059711534300,2.738534423828125,-0.43509554862976074,-0.1230849102139473,-0.3730790317058563
1782988059721608200,2.748608154296875,-0.41828885674476624,-0.001716939965263009,-0.4082338213920593
1782988059731683300,2.758683349609375,-0.3725144565105438,0.14739903807640076,-0.379903107881546
1782988059741757200,2.768757080078125,-0.2887575030326843,0.2591857612133026,-0.2872099280357361
1782988059751832300,2.778832275390625,-0.17281945049762726,0.3418891727924347,-0.14204981923103333
1782988059761906200,2.78890625,-0.032769396901130676,0.39169880747795105,0.030479345470666885
1782988059771981300,2.798981201171875,0.09171607345342636,0.3947947323322296,0.18776723742485046
1782988059782055200,2.80905517578125,0.18491604924201965,0.3592708110809326,0.30066609382629395
1782988059792130300,2.81913037109375,0.24696823954582214,0.3136753737926483,0.37295812368392944
1782988059802204200,2.8292041015625,0.2758544981479645,0.2602643370628357,0.3920247554779053
1782988059812279300,2.839279296875,0.2896861433982849,0.23443487286567688,0.34915292263031006
1782988059822353200,2.849353271484375,0.2959376573562622,0.20560508966445923,0.24236737191677094
1782988059832428300,2.85942822265625,0.3015201687812805,0.1409320831298828,0.10232290625572205
1782988059842502100,2.869502197265625,0.30108872056007385,-0.010742392390966415,-0.07311735302209854
1782988059852576300,2.879576171875,0.29911985993385315,-0.30567896366119385,-0.25571513175964355
1782988059862651100,2.889651123046875,0.2975075840950012,-0.6170903444290161,-0.3898923695087433
1782988059872725200,2.899725341796875,0.29776856303215027,-0.7145916223526001,-0.41725581884384155
1782988059882800000,2.909800048828125,0.2847779393196106,-0.5323081016540527,-0.34062469005584717
1782988059892874200,2.919874267578125,0.2876187264919281,-0.172184020280838,-0.1646115779876709
1782988059902949000,2.92994921875,0.31059515476226807,0.2224024385213852,0.06527300924062729
1782988059913023200,2.940023193359375,0.3386393189430237,0.4516089856624603,0.28336673974990845
1782988059923098000,2.95009814453125,0.36450234055519104,0.43853315711021423,0.43327340483665466
1782988059933172200,2.960172119140625,0.3840475380420685,0.20448362827301025,0.507398784160614
1782988059943247000,2.9702470703125,0.3917781710624695,-0.1125238835811615,0.5136500000953674
1782988059953321200,2.9803212890625,0.37315255403518677,-0.3846941590309143,0.42884349822998047
1782988059963395000,2.99039501953125,0.3410065770149231,-0.5778561234474182,0.27058008313179016
1782988059973470200,3.00047021484375,0.31337788701057434,-0.6918336153030396,0.046601057052612305
1782988059983544000,3.0105439453125,0.2913846969604492,-0.7316092252731323,-0.1882695108652115
1782988059993619200,3.020619140625,0.25698837637901306,-0.6683703660964966,-0.38996562361717224
1782988060003693000,3.030693115234375,0.20749273896217346,-0.5466657280921936,-0.5298638343811035
1782988060013768200,3.040768310546875,0.1416894942522049,-0.40338900685310364,-0.5805030465126038
1782988060023842000,3.050842041015625,0.0918060839176178,-0.2253979742527008,-0.5245530009269714
1782988060033917200,3.060917236328125,0.06141755357384682,-0.03900572285056114,-0.3848502039909363
1782988060043991000,3.070990966796875,0.05832535773515701,0.08098060637712479,-0.20353394746780396
1782988060054066200,3.081066162109375,0.08463525772094727,0.11175262928009033,-0.03194408491253853
1782988060064140000,3.09114013671875,0.13428989052772522,0.07590328902006149,0.09678353369235992
1782988060074215200,3.101215087890625,0.19520358741283417,0.007507450878620148,0.1628435105085373
1782988060084289000,3.1112890625,0.24811206758022308,-0.0639994889497757,0.17111635208129883
1782988060094363100,3.121363037109375,0.2957480251789093,-0.1265891045331955,0.11885235458612442
1782988060104438000,3.13143798828125,0.31443116068840027,-0.18217726051807404,0.009608152322471142
1782988060114512100,3.14151220703125,0.28439977765083313,-0.21839092671871185,-0.12662692368030548
1782988060124587000,3.1515869140625,0.21662311255931854,-0.18251122534275055,-0.2335946410894394
1782988060134661000,3.1616611328125,0.1438642293214798,-0.05801936239004135,-0.284111887216568
1782988060144736300,3.171736328125,0.083253875374794,0.07496718317270279,-0.27131032943725586
1782988060154810000,3.18181005859375,0.04107792675495148,0.17566795647144318,-0.216901957988739
1782988060164885200,3.19188525390625,0.03484799340367317,0.21878187358379364,-0.12718191742897034
1782988060174959000,3.201958984375,0.07088189572095871,0.2057100236415863,-0.03399685025215149
1782988060185034200,3.2120341796875,0.13338415324687958,0.13612082600593567,0.045406896620988846
1782988060195108000,3.222108154296875,0.20737075805664062,0.02238493412733078,0.10105524212121964
1782988060205182000,3.232181884765625,0.2685321271419525,-0.09569083899259567,0.11980123817920685
1782988060215257000,3.242257080078125,0.31155842542648315,-0.1758948713541031,0.10729982703924179
1782988060225331000,3.2523310546875,0.3356645405292511,-0.20277415215969086,0.08039577305316925
1782988060235406000,3.262406005859375,0.3390726149082184,-0.19410182535648346,0.03653537482023239
1782988060245480000,3.27247998046875,0.3258761167526245,-0.16012682020664215,-0.01302339043468237
1782988060255555000,3.28255517578125,0.3061780333518982,-0.08839590847492218,-0.054961517453193665
1782988060265629200,3.292629150390625,0.2861715853214264,0.004720985423773527,-0.07954542338848114
1782988060275704000,3.3027041015625,0.27279210090637207,0.06180158257484436,-0.08863239735364914
1782988060285778200,3.312778076171875,0.2686128318309784,0.06841500848531723,-0.09581787139177322
1782988060295853000,3.32285302734375,0.2843635380268097,0.04005394130945206,-0.08110683411359787
1782988060305927200,3.33292724609375,0.3129326105117798,0.03377527371048927,-0.05347813665866852
1782988060316002000,3.343001953125,0.3270612061023712,0.042021751403808594,-0.022899456322193146
1782988060326076200,3.353076171875,0.323976993560791,0.031916920095682144,-0.006345513742417097
1782988060336151000,3.363151123046875,0.31557366251945496,0.03266899660229683,0.00001944107498275116
1782988060346225200,3.37322509765625,0.3122026324272156,0.05289863422513008,-0.010322412475943565
1782988060356299300,3.38329931640625,0.30263763666152954,0.07272879779338837,-0.05764571949839592
1782988060366374100,3.3933740234375,0.2860780954360962,0.04035621136426926,-0.16247066855430603
1782988060376448300,3.4034482421875,0.26624658703804016,-0.06728396564722061,-0.3224680721759796
1782988060386523100,3.413523193359375,0.23995853960514069,-0.27369651198387146,-0.4877515435218811
1782988060396597200,3.42359716796875,0.199980229139328,-0.4667922258377075,-0.604682445526123
1782988060406672100,3.433672119140625,0.14012408256530762,-0.46936190128326416,-0.6369066834449768
1782988060416746200,3.443746337890625,0.08926516771316528,-0.2580571174621582,-0.5635296702384949
1782988060426821000,3.453821044921875,0.0813252180814743,0.11933677643537521,-0.3885815739631653
1782988060436895200,3.463895263671875,0.10971105098724365,0.5132161974906921,-0.16016703844070435
1782988060446970000,3.47397021484375,0.160494863986969,0.7258296608924866,0.061231933534145355
1782988060457044200,3.484044189453125,0.24103258550167084,0.6759539842605591,0.23906850814819336
1782988060467118300,3.494118408203125,0.34812042117118835,0.42471399903297424,0.36626747250556946
1782988060477193200,3.504193115234375,0.44370660185813904,0.14553989470005035,0.4497591555118561
1782988060487267300,3.514267333984375,0.4983048737049103,-0.01690574735403061,0.5060043334960938
1782988060497342200,3.52434228515625,0.5116704702377319,-0.07226913422346115,0.5307693481445312
1782988060507416300,3.534416259765625,0.5034857988357544,-0.06442106515169144,0.5145213603973389
1782988060517491200,3.5444912109375,0.49970543384552,-0.024196682497859,0.47317129373550415
1782988060527565300,3.5545654296875,0.4958169460296631,0.00014620754518546164,0.4152432680130005
1782988060537640200,3.56464013671875,0.4896503984928131,-0.0034559841733425856,0.3625241219997406
1782988060547714300,3.57471435546875,0.4647791385650635,-0.012119513005018234,0.31805840134620667
1782988060557789200,3.5847890625,0.4127156734466553,0.010696586221456528,0.28985124826431274
1782988060567863300,3.59486328125,0.332831472158432,0.04699094593524933,0.26638853549957275
1782988060577938200,3.604938232421875,0.2456347942352295,0.0779067799448967,0.24818983674049377
1782988060588012300,3.61501220703125,0.17261384427547455,0.1524292230606079,0.24385154247283936
1782988060598086100,3.625086181640625,0.11170655488967896,0.2563023567199707,0.27700844407081604
1782988060608161300,3.635161376953125,0.06658914685249329,0.3317811191082001,0.29445984959602356
1782988060618235100,3.645235107421875,0.03754817321896553,0.34168118238449097,0.2890341877937317
1782988060628310300,3.655310302734375,0.03640754148364067,0.3305582106113434,0.26547321677207947
1782988060638384000,3.665384033203125,0.05781269818544388,0.3337303102016449,0.2369030863046646
1782988060648459300,3.675459228515625,0.08487840741872787,0.3372448682785034,0.20619098842144012
1782988060658533000,3.685533203125,0.11176461726427078,0.3164575695991516,0.1603396087884903
1782988060668608300,3.695608154296875,0.1416119933128357,0.28854605555534363,0.12712253630161285
1782988060678682000,3.70568212890625,0.18045872449874878,0.2678263783454895,0.09809301048517227
1782988060688757200,3.71575732421875,0.23487348854541779,0.25607144832611084,0.07484787702560425
1782988060698831000,3.7258310546875,0.28328683972358704,0.24331997334957123,0.047681502997875214
1782988060708905200,3.7359052734375,0.33177393674850464,0.2222418636083603,0.01678830198943615
1782988060718980000,3.74597998046875,0.3685617744922638,0.19238968193531036,-0.01799577847123146
1782988060729054200,3.75605419921875,0.3940519690513611,0.17271238565444946,-0.05549654737114906
1782988060739129000,3.766129150390625,0.4111829996109009,0.17549778521060944,-0.08502648025751114
1782988060749203200,3.776203125,0.42504823207855225,0.1803993284702301,-0.12841123342514038
1782988060759278000,3.786278076171875,0.44549599289894104,0.18126513063907623,-0.1777457594871521
1782988060769352200,3.796352294921875,0.4768725335597992,0.17129291594028473,-0.22174623608589172
1782988060779427300,3.80642724609375,0.513826310634613,0.19203095138072968,-0.23823174834251404
1782988060789501200,3.816501220703125,0.5466228723526001,0.24818477034568787,-0.23634836077690125
1782988060799576300,3.826576416015625,0.5812543630599976,0.3215063810348511,-0.22347091138362885
1782988060809650200,3.836650146484375,0.6143001914024353,0.4051280617713928,-0.22138218581676483
1782988060819725300,3.846725341796875,0.6601046919822693,0.45627832412719727,-0.21908573806285858
1782988060829799200,3.856799072265625,0.7374364733695984,0.5178670883178711,-0.19966650009155273
1782988060839873000,3.866873046875,0.8292540311813354,0.6006445288658142,-0.15555976331233978
1782988060849948200,3.8769482421875,0.918500542640686,0.6828286647796631,-0.09608392417430878
1782988060860022000,3.88702197265625,1.0001845359802246,0.7515829205513,-0.037163082510232925
1782988060870097200,3.89709716796875,1.0767687559127808,0.7975538969039917,0.003970240708440542
1782988060880171000,3.9071708984375,1.136533260345459,0.8324980139732361,0.03032222017645836
1782988060890246100,3.91724609375,1.1927566528320312,0.8666866421699524,0.03537050634622574
1782988060900320300,3.9273203125,1.244203805923462,0.8841471076011658,0.0339270755648613
1782988060910395100,3.93739501953125,1.3063398599624634,0.9084897041320801,0.030944600701332092
1782988060920469200,3.94746923828125,1.3647289276123047,0.958776593208313,0.029169335961341858
1782988060930544000,3.957544189453125,1.4318642616271973,1.0118414163589478,0.033895380795001984
1782988060940618200,3.9676181640625,1.5000848770141602,1.0599809885025024,0.07331522554159164
1782988060950692000,3.977692138671875,1.5605732202529907,1.1903736591339111,0.1599169671535492
1782988060960767200,3.987767333984375,1.5981496572494507,1.417077898979187,0.27205467224121094
1782988060970841000,3.997841064453125,1.6070283651351929,1.580717921257019,0.37953507900238037
1782988060980916200,4.007916259765625,1.5965852737426758,1.574582815170288,0.4166654050350189
1782988060990990000,4.017989990234375,1.5898858308792114,1.4934879541397095,0.39528581500053406
1782988061001065200,4.028065185546875,1.579095482826233,1.2950624227523804,0.28824856877326965
1782988061011139000,4.03813916015625,1.574738621711731,0.9265949726104736,0.10226032137870789
1782988061021214200,4.048214111328125,1.5635367631912231,0.5662841796875,-0.10798558592796326
1782988061031288000,4.0582880859375,1.5178260803222656,0.4872881770133972,-0.258675754070282
1782988061041363200,4.06836328125,1.4430618286132812,0.7136943936347961,-0.2952026128768921
1782988061051437000,4.07843701171875,1.3449293375015259,1.0951815843582153,-0.2358812391757965
1782988061061512200,4.08851220703125,1.2498142719268799,1.4776149988174438,-0.12113867700099945
1782988061071586000,4.0985859375,1.1784945726394653,1.6562904119491577,-0.030540598556399345
1782988061081660200,4.10866015625,1.158591389656067,1.5513707399368286,0.01309156697243452
1782988061091735000,4.118735107421875,1.1940006017684937,1.2571909427642822,0.010950385592877865
1782988061101809200,4.12880908203125,1.2425044775009155,0.9249254465103149,-0.037399835884571075
1782988061111884000,4.138884033203125,1.278098702430725,0.6390659809112549,-0.1256314218044281
1782988061121958100,4.148958251953125,1.287522554397583,0.44648241996765137,-0.2297237366437912
1782988061132033000,4.159032958984375,1.2957026958465576,0.35942235589027405,-0.3212813436985016
1782988061142107100,4.169107177734375,1.2992819547653198,0.4095989763736725,-0.40250271558761597
1782988061152182000,4.17918212890625,1.2928640842437744,0.5865145921707153,-0.45918411016464233
1782988061162256100,4.189256103515625,1.2740535736083984,0.8147973418235779,-0.5069220662117004
1782988061172331000,4.1993310546875,1.2564458847045898,1.0219308137893677,-0.5349185466766357
1782988061182405000,4.209405029296875,1.270795464515686,1.1581659317016602,-0.5190423727035522
1782988061192479200,4.219479248046875,1.3122819662094116,1.181200623512268,-0.46900370717048645
1782988061202554000,4.22955419921875,1.3717132806777954,1.0891737937927246,-0.39066681265830994
1782988061212628200,4.239628173828125,1.4372169971466064,0.9744016528129578,-0.2841065526008606
1782988061222703000,4.249703125,1.4934426546096802,0.8743762373924255,-0.1697474867105484
1782988061232777200,4.259777099609375,1.5375555753707886,0.7601245045661926,-0.0764516294002533
1782988061242852000,4.26985205078125,1.5556714534759521,0.6244809031486511,-0.030053772032260895
1782988061252926200,4.27992626953125,1.5516798496246338,0.5187091827392578,-0.02280944213271141
1782988061263001000,4.2900009765625,1.5181323289871216,0.48073360323905945,-0.044202081859111786
1782988061273075000,4.300074951171875,1.4608732461929321,0.4902852773666382,-0.09700457751750946
1782988061283149800,4.31014990234375,1.3870233297348022,0.53765469789505,-0.1608104556798935
1782988061293224000,4.320223876953125,1.306809902191162,0.6017414927482605,-0.22258354723453522
1782988061303297800,4.3302978515625,1.230980396270752,0.638835072517395,-0.27212151885032654
1782988061313373000,4.340373046875,1.1562806367874146,0.6323159337043762,-0.3043154180049896
1782988061323446800,4.35044677734375,1.0886962413787842,0.5920489430427551,-0.3198794722557068
1782988061333522000,4.36052197265625,1.0427380800247192,0.5558658838272095,-0.31160634756088257
1782988061343595800,4.370595703125,1.0045512914657593,0.5379399061203003,-0.29188430309295654
1782988061353671000,4.3806708984375,0.9764062166213989,0.5160340666770935,-0.27320730686187744
1782988061363744800,4.390744873046875,0.9571148157119751,0.4907185733318329,-0.25652793049812317
1782988061373820000,4.40081982421875,0.9602221846580505,0.48733770847320557,-0.2222498506307602
1782988061383893800,4.410893798828125,0.9697922468185425,0.5026348829269409,-0.16797782480716705
1782988061393969000,4.420968994140625,0.9781209826469421,0.5209124684333801,-0.10445050895214081
1782988061404042800,4.431042724609375,0.9907201528549194,0.5057755708694458,-0.061886005103588104
1782988061414118000,4.441117919921875,1.0075502395629883,0.45410439372062683,-0.03936684876680374
1782988061424191700,4.451191650390625,1.0263208150863647,0.38929155468940735,-0.03738225996494293
1782988061434265900,4.461265869140625,1.0387928485870361,0.3382891118526459,-0.04048297926783562
1782988061444340700,4.4713408203125,1.0497536659240723,0.30028870701789856,-0.04376425966620445
1782988061454414800,4.481414794921875,1.0566962957382202,0.2743873596191406,-0.03440431132912636
1782988061464489700,4.49148974609375,1.0581697225570679,0.277692586183548,-0.01227477565407753
1782988061474563800,4.501563720703125,1.04341721534729,0.2992093563079834,0.003254915354773402
1782988061484638700,4.511638671875,1.0194412469863892,0.31621548533439636,0.0047087352722883224
1782988061494712800,4.521712890625,0.9932515025138855,0.312129944562912,-0.013854563236236572
1782988061504787700,4.53178759765625,0.9752037525177002,0.30292952060699463,-0.03171105682849884
1782988061514861800,4.54186181640625,0.9511597156524658,0.2891199588775635,-0.0532512366771698
1782988061524937000,4.55193701171875,0.9209914207458496,0.29338181018829346,-0.0713609978556633
1782988061535010800,4.5620107421875,0.8850312829017639,0.31724268198013306,-0.09845626354217529
1782988061545086000,4.5720859375,0.8433147072792053,0.36406344175338745,-0.13188639283180237
1782988061555159800,4.582159912109375,0.79783034324646,0.422186940908432,-0.16696715354919434
1782988061565233700,4.592233642578125,0.741870105266571,0.4379211366176605,-0.20559842884540558
1782988061575308800,4.602308837890625,0.6726170182228088,0.4314368963241577,-0.24224220216274261
1782988061585382700,4.612382568359375,0.5905117392539978,0.5117932558059692,-0.2587631046772003
1782988061595457800,4.622457763671875,0.4928424656391144,0.6209167838096619,-0.2651118338108063
1782988061605531600,4.63253173828125,0.385692298412323,0.6452008485794067,-0.2936665117740631
1782988061615606800,4.642606689453125,0.2816314101219177,0.5703215599060059,-0.34266945719718933
1782988061625680600,4.6526806640625,0.20259864628314972,0.4453553557395935,-0.3987511098384857
1782988061635755800,4.662755859375,0.1606016606092453,0.33182746171951294,-0.44262775778770447
1782988061645830000,4.672829833984375,0.15252162516117096,0.2799490988254547,-0.47547146677970886
1782988061655904800,4.68290478515625,0.19351859390735626,0.32348138093948364,-0.47651007771492004
1782988061665979000,4.692978759765625,0.2931346595287323,0.44718310236930847,-0.41084691882133484
1782988061676052700,4.703052734375,0.4371187388896942,0.6050211787223816,-0.2803933024406433
1782988061686127900,4.7131279296875,0.57353675365448,0.7402123212814331,-0.11110734939575195
1782988061696201700,4.72320166015625,0.680000364780426,0.7790699601173401,0.05200621113181114
1782988061706276900,4.73327685546875,0.7507714629173279,0.7284144759178162,0.1776626706123352
1782988061716350700,4.743350830078125,0.807166576385498,0.6263751983642578,0.23902589082717896
1782988061726425900,4.75342578125,0.8309803009033203,0.5359014868736267,0.24088585376739502
1782988061736499700,4.763499755859375,0.8175899386405945,0.5256201028823853,0.19727233052253723
1782988061746574800,4.773574951171875,0.7635453343391418,0.6085448265075684,0.13304433226585388
1782988061756648700,4.783648681640625,0.6797415018081665,0.7266613245010376,0.05259982869029045
1782988061766723800,4.793723876953125,0.5859010219573975,0.8161576390266418,-0.02346750907599926
1782988061776797700,4.803797607421875,0.5197204351425171,0.8421993851661682,-0.06836067885160446
1782988061786871800,4.813871826171875,0.506878674030304,0.8284100890159607,-0.06145697087049484
1782988061796946700,4.82394677734375,0.5445724725723267,0.7901542782783508,0.00629012007266283
1782988061807020800,4.834020751953125,0.5969310402870178,0.7194615006446838,0.10853233933448792
1782988061817095700,4.844095703125,0.6388484239578247,0.6084156632423401,0.22035394608974457
1782988061827169800,4.854169677734375,0.6638509631156921,0.49104028940200806,0.320686399936676
1782988061837244700,4.86424462890625,0.6754263639450073,0.41018831729888916,0.38812270760536194
1782988061847318800,4.87431884765625,0.680831253528595,0.3630032241344452,0.42138397693634033
1782988061857393700,4.8843935546875,0.6998558044433594,0.36761635541915894,0.41694557666778564
1782988061867467800,4.8944677734375,0.7267135381698608,0.38452237844467163,0.37800347805023193
1782988061877542700,4.904542724609375,0.7554208040237427,0.3741839826107025,0.30539053678512573
1782988061887616800,4.91461669921875,0.7815634608268738,0.32769346237182617,0.21563561260700226
1782988061897691600,4.924691650390625,0.8009896278381348,0.2450515627861023,0.12082602083683014
1782988061907765800,4.934765869140625,0.8200911283493042,0.14126205444335938,0.034452248364686966
1782988061917840000,4.94483984375,0.8475984334945679,0.0548616498708725,-0.031495608389377594
1782988061927914800,4.954914794921875,0.8650149703025818,0.0019033611752092838,-0.07518503069877625
1782988061937988900,4.96498876953125,0.874411940574646,-0.03915512561798096,-0.11025380343198776
1782988061948063700,4.975063720703125,0.8762547969818115,-0.054493069648742676,-0.1267254501581192
1782988061958137900,4.985137939453125,0.8735889792442322,-0.03729837015271187,-0.14976686239242554
1782988061968212700,4.995212646484375,0.8711551427841187,-0.027704598382115364,-0.17077679932117462
1782988061978286800,5.005286865234375,0.8597898483276367,-0.006140716839581728,-0.17994925379753113
1782988061988361700,5.01536181640625,0.83989417552948,0.028682511299848557,-0.1678108423948288
1782988061998435800,5.025435791015625,0.8067745566368103,0.07807189971208572,-0.14074459671974182
1782988062008510700,5.0355107421875,0.7630904316902161,0.14446690678596497,-0.09218665212392807
1782988062018584800,5.045584716796875,0.72557133436203,0.22549836337566376,-0.02845534309744835
1782988062028659000,5.055658935546875,0.703010618686676,0.29129576683044434,0.02659113146364689
1782988062038733800,5.06573388671875,0.7049376964569092,0.3431538939476013,0.0643659383058548
1782988062048808000,5.075807861328125,0.723787248134613,0.37532275915145874,0.09347375482320786
1782988062058882800,5.0858828125,0.7373368740081787,0.3951302766799927,0.10795682668685913
1782988062068957000,5.09595703125,0.7441458106040955,0.40613260865211487,0.12337253242731094
1782988062079031800,5.10603173828125,0.7418889999389648,0.4179844558238983,0.14088894426822662
1782988062089106000,5.11610595703125,0.7217789888381958,0.4247225224971771,0.16058088839054108
1782988062099180800,5.126180908203125,0.685006320476532,0.42021167278289795,0.17005987465381622
1782988062109255000,5.1362548828125,0.6478301882743835,0.4139780104160309,0.17001566290855408
1782988062119329800,5.146329833984375,0.6203039884567261,0.4101206660270691,0.15926581621170044
1782988062129404000,5.15640380859375,0.6015769243240356,0.40935635566711426,0.14484426379203796
1782988062139477800,5.166477783203125,0.5982159972190857,0.4291638731956482,0.12331847101449966
1782988062149553000,5.176552978515625,0.6099573373794556,0.4788656532764435,0.09926160424947739
1782988062159626800,5.186626708984375,0.6363703012466431,0.5329006314277649,0.06389322876930237
1782988062169702000,5.196701904296875,0.6605480909347534,0.5704749226570129,0.02429868094623089
1782988062179775700,5.206775634765625,0.6831069588661194,0.6042650938034058,-0.02400173991918564
1782988062189851000,5.216850830078125,0.6934400200843811,0.6159361600875854,-0.06358882784843445
1782988062199924700,5.2269248046875,0.6861013770103455,0.5916465520858765,-0.09730871021747589
1782988062210000000,5.236999755859375,0.672313392162323,0.5483038425445557,-0.11828829348087311
1782988062220073700,5.24707373046875,0.6621065735816956,0.5334711074829102,-0.1388135403394699
1782988062230148900,5.25714892578125,0.6506254076957703,0.5571061372756958,-0.14926724135875702
1782988062240222700,5.26722265625,0.653095006942749,0.6157990097999573,-0.1505410373210907
1782988062250297900,5.2772978515625,0.6871371269226074,0.7316270470619202,-0.14349724352359772
1782988062260371700,5.287371826171875,0.745080292224884,0.8846381902694702,-0.14186260104179382
1782988062270445800,5.29744580078125,0.8150622844696045,0.8728297352790833,-0.18984423577785492
1782988062280520400,5.3075205078125,0.8910439014434814,0.6479918360710144,-0.3076494336128235
1782988062290594300,5.31759423828125,0.9422863125801086,0.32934194803237915,-0.46091407537460327
1782988062300669400,5.32766943359375,0.9420977830886841,0.12079432606697083,-0.6122927069664001
1782988062310743300,5.337743408203125,0.8990493416786194,0.11231615394353867,-0.7045997381210327
1782988062320818400,5.347818359375,0.8373218178749084,0.1406002640724182,-0.7352651953697205
1782988062330892300,5.357892333984375,0.7691552639007568,0.12742400169372559,-0.7209991812705994
1782988062340967400,5.367967529296875,0.699286162853241,0.10431762039661407,-0.6598743200302124
1782988062351041300,5.378041259765625,0.6498549580574036,0.09339252859354019,-0.5605549216270447
1782988062361116400,5.388116455078125,0.634722113609314,0.1741401106119156,-0.41164320707321167
1782988062371190300,5.398190185546875,0.6544140577316284,0.3955555856227875,-0.22045780718326569
1782988062381265400,5.408265380859375,0.6918679475784302,0.6535921692848206,-0.02672482095658779
1782988062391339500,5.418339599609375,0.7195435166358948,0.7844844460487366,0.11604644358158112
1782988062401414400,5.428414306640625,0.7447966933250427,0.7209304571151733,0.19475483894348145
1782988062411488500,5.438488525390625,0.7706540822982788,0.5167997479438782,0.20224924385547638
1782988062421562400,5.448562255859375,0.7831973433494568,0.25713086128234863,0.15955184400081635
1782988062431637500,5.458637451171875,0.7673072814941406,0.039508260786533356,0.07581114023923874
1782988062441711400,5.46871142578125,0.7224812507629395,-0.0699404701590538,-0.032337434589862823
1782988062451786500,5.478786376953125,0.6503151655197144,-0.0494554340839386,-0.14039891958236694
1782988062461860400,5.4888603515625,0.5788220763206482,0.05491944029927254,-0.22158777713775635
1782988062471935500,5.498935546875,0.5421636700630188,0.18893636763095856,-0.2534479796886444
1782988062482009300,5.50900927734375,0.5247687101364136,0.34291553497314453,-0.2208133339881897
1782988062492084500,5.51908447265625,0.5011118650436401,0.4697675108909607,-0.1294325590133667
1782988062502158300,5.529158447265625,0.4655381441116333,0.5509198904037476,-0.011515242047607899
1782988062512233500,5.5392333984375,0.41292792558670044,0.5810160040855408,0.10421774536371231
1782988062522307300,5.549307373046875,0.366007000207901,0.5572717785835266,0.192078098654747
1782988062532381400,5.55938134765625,0.3266383111476898,0.5028617978096008,0.22648561000823975
1782988062542456300,5.569456298828125,0.2957134246826172,0.45231181383132935,0.2090192586183548
1782988062552530400,5.579530517578125,0.25866857171058655,0.45026278495788574,0.14449672400951385
1782988062562605300,5.589605224609375,0.2165602743625641,0.46931156516075134,0.05956239625811577
1782988062572679400,5.599679443359375,0.17700034379959106,0.5118678212165833,-0.028779184445738792
1782988062582754300,5.60975439453125,0.1446187049150467,0.5609778165817261,-0.12091124057769775
1782988062592828400,5.619828369140625,0.12787674367427826,0.5826042890548706,-0.21037507057189941
1782988062602903300,5.6299033203125,0.13608673214912415,0.5737879276275635,-0.26639148592948914
1782988062612977400,5.639977294921875,0.1643657684326172,0.5385431051254272,-0.29562899470329285
1782988062623052300,5.65005224609375,0.20667700469493866,0.4676862359046936,-0.30130818486213684
1782988062633126400,5.66012646484375,0.2536892592906952,0.3685750961303711,-0.30991578102111816
1782988062643200500,5.670200439453125,0.29471153020858765,0.2522999048233032,-0.3247791528701782
1782988062653276400,5.6802763671875,0.3344933092594147,0.12444419413805008,-0.3369135856628418
1782988062663350300,5.690350341796875,0.37411901354789734,0.04246543347835541,-0.33254092931747437
1782988062673424400,5.70042431640625,0.40222734212875366,0.013439375907182693,-0.32032129168510437
1782988062683499300,5.710499267578125,0.42015600204467773,0.03841370344161987,-0.28994953632354736
1782988062693573400,5.720573486328125,0.4335778057575226,0.12487562000751495,-0.23616166412830353
1782988062703648300,5.730648193359375,0.4419233500957489,0.1926450878381729,-0.1633913218975067
1782988062713722400,5.740722412109375,0.45817503333091736,0.19960391521453857,-0.07788414508104324
1782988062723797200,5.75079736328125,0.49267202615737915,0.18620076775550842,0.044317129999399185
1782988062733871400,5.760871337890625,0.5283027291297913,0.15794488787651062,0.19067195057868958
1782988062743946200,5.7709462890625,0.5493946671485901,0.09591081738471985,0.33140963315963745
1782988062754020400,5.781020263671875,0.5559955835342407,0.013635118491947651,0.43865352869033813
1782988062764095500,5.791095458984375,0.5445189476013184,-0.04604179412126541,0.5025339722633362
1782988062774169300,5.80116943359375,0.5307704210281372,-0.05302619934082031,0.524660587310791
1782988062784244500,5.811244384765625,0.5087071657180786,-0.036791570484638214,0.5106661915779114
1782988062794318300,5.821318359375,0.47609782218933105,-0.01858912967145443,0.4871653914451599
1782988062804392400,5.831392333984375,0.4379081130027771,-0.011475561186671257,0.45050671696662903
1782988062814467300,5.84146728515625,0.39047402143478394,-0.00951121374964714,0.41059204936027527
1782988062824541400,5.85154150390625,0.35428616404533386,-0.015225292183458805,0.35618606209754944
1782988062834616300,5.8616162109375,0.3321654200553894,-0.04926794767379761,0.2934292256832123
1782988062844690400,5.8716904296875,0.3237551748752594,-0.10486409813165665,0.2302505075931549
1782988062854765300,5.881765380859375,0.3192504346370697,-0.15703009068965912,0.16552291810512543
1782988062864839400,5.89183935546875,0.3205620348453522,-0.13316097855567932,0.12707512080669403
1782988062874914300,5.901914306640625,0.31531399488449097,-0.03887895494699478,0.10975445806980133
1782988062884988400,5.911988525390625,0.2980591356754303,-0.025013208389282227,0.06727384775876999
1782988062895063300,5.922063232421875,0.2811640202999115,-0.1777646690607071,-0.04186675697565079
1782988062905137700,5.9321376953125,0.255157470703125,-0.45370838046073914,-0.20855027437210083
1782988062915211500,5.94221142578125,0.2038727104663849,-0.7119292616844177,-0.4046119451522827
1782988062925286700,5.95228662109375,0.1441795527935028,-0.8258630037307739,-0.5779948830604553
1782988062935360500,5.962360595703125,0.09779553860425949,-0.7511536478996277,-0.6832385063171387
1782988062945435600,5.972435546875,0.08845076709985733,-0.5066059231758118,-0.6880732178688049
1782988062955509500,5.982509521484375,0.11622753739356995,-0.13386964797973633,-0.5902406573295593
1782988062965584600,5.992584716796875,0.16502171754837036,0.21159054338932037,-0.4411422312259674
1782988062975658500,6.002658447265625,0.2116326242685318,0.3325832784175873,-0.28995487093925476
1782988062985733600,6.012733642578125,0.24970650672912598,0.2656354010105133,-0.18112903833389282
1782988062995807500,6.022807373046875,0.2827608585357666,0.12825331091880798,-0.11011452227830887
1782988063005882600,6.032882568359375,0.2932393252849579,-0.010628676041960716,-0.088007353246212
1782988063015956500,6.04295654296875,0.27145734429359436,-0.06967175751924515,-0.10919519513845444
1782988063026031600,6.053031494140625,0.2258259356021881,-0.027702733874320984,-0.15509957075119019
1782988063036105500,6.06310546875,0.17909838259220123,0.08897780627012253,-0.21503907442092896
1782988063046179600,6.0731796875,0.1324472576379776,0.19594500958919525,-0.272946834564209
1782988063056254500,6.08325439453125,0.1068582758307457,0.269021600484848,-0.3050920069217682
1782988063066328600,6.09332861328125,0.10619834065437317,0.3269810378551483,-0.29218313097953796
1782988063076403500,6.103403564453125,0.1215227022767067,0.35944685339927673,-0.23263271152973175
1782988063086477600,6.1134775390625,0.14427009224891663,0.3636240065097809,-0.14104367792606354
1782988063096552400,6.123552490234375,0.16494500637054443,0.3765888214111328,-0.02430267632007599
1782988063106626600,6.13362646484375,0.17668502032756805,0.3939419686794281,0.10101982206106186
1782988063116701400,6.143701416015625,0.17336246371269226,0.3645894229412079,0.1953234225511551
1782988063126775600,6.153775634765625,0.16688379645347595,0.2914033532142639,0.23442821204662323
1782988063136850400,6.163850341796875,0.16099314391613007,0.18958990275859833,0.2167871743440628
1782988063146924500,6.173924560546875,0.17812207341194153,0.07445985078811646,0.14913195371627808
1782988063156998400,6.183998291015625,0.20955482125282288,-0.01913348026573658,0.0588044598698616
1782988063167073500,6.194073486328125,0.23403406143188477,-0.06673295795917511,-0.039386287331581116
1782988063177147400,6.2041474609375,0.24776692688465118,-0.053878944367170334,-0.11899615824222565
1782988063187222500,6.214222412109375,0.25009453296661377,-0.021084245294332504,-0.163819819688797
1782988063197296400,6.22429638671875,0.24511228501796722,0.029632726684212685,-0.17680832743644714
1782988063207371500,6.23437158203125,0.24169038236141205,0.08167888224124908,-0.1459295153617859
1782988063217445400,6.2444453125,0.2402256578207016,0.12191445380449295,-0.08120457828044891
1782988063227520500,6.2545205078125,0.24142886698246002,0.15945278108119965,0.011457185260951519
1782988063237594400,6.264594482421875,0.23122362792491913,0.18182413280010223,0.09160874783992767
1782988063247669500,6.27466943359375,0.22229085862636566,0.1756783425807953,0.14529940485954285
1782988063257743400,6.284743408203125,0.2253609448671341,0.15161243081092834,0.1734066754579544
1782988063267817500,6.2948173828125,0.2358170598745346,0.16002056002616882,0.18597306311130524
1782988063277891800,6.304891845703125,0.2462071031332016,0.20270571112632751,0.195143923163414
1782988063287966000,6.314966064453125,0.243633434176445,0.25360217690467834,0.20619577169418335
1782988063298040800,6.325040771484375,0.2344077080488205,0.31064149737358093,0.21590033173561096
1782988063308115000,6.335114990234375,0.2279258370399475,0.35088932514190674,0.2291913777589798
1782988063318189800,6.34518994140625,0.22056299448013306,0.3488927483558655,0.2335437834262848
1782988063328264000,6.355263916015625,0.22020933032035828,0.3195369839668274,0.23062282800674438
1782988063338338800,6.3653388671875,0.2162574678659439,0.29589396715164185,0.20472145080566406
1782988063348413000,6.375412841796875,0.2235715687274933,0.2926606237888336,0.16985028982162476
1782988063358487800,6.38548779296875,0.230520561337471,0.29699358344078064,0.10877814888954163
1782988063368562000,6.39556201171875,0.24476154148578644,0.30933254957199097,0.04424815624952316
1782988063378636800,6.40563671875,0.26461726427078247,0.3566824793815613,-0.002835467690601945
1782988063388711000,6.4157109375,0.2840080261230469,0.38862231373786926,-0.027245203033089638
1782988063398784800,6.42578466796875,0.29074767231941223,0.4045136570930481,-0.038837410509586334
1782988063408860000,6.43585986328125,0.281538724899292,0.3903839886188507,-0.051413122564554214
1782988063418933800,6.445933837890625,0.2708727717399597,0.34877583384513855,-0.05933975428342819
1782988063429009000,6.4560087890625,0.26190030574798584,0.2990146577358246,-0.0660884752869606
1782988063439082800,6.466082763671875,0.25140348076820374,0.255234956741333,-0.08631092309951782
1782988063449158000,6.476157958984375,0.24436339735984802,0.23720082640647888,-0.10835683345794678
1782988063459231700,6.486231689453125,0.24490483105182648,0.35054177045822144,-0.14024393260478973
1782988063469307000,6.496306884765625,0.25910747051239014,0.5525185465812683,-0.18225689232349396
1782988063479380700,6.506380615234375,0.2902648448944092,0.5924292206764221,-0.2616119086742401
1782988063489455900,6.516455810546875,0.3088798224925995,0.4388308823108673,-0.40704792737960815
1782988063499529700,6.52652978515625,0.2985243797302246,0.18487690389156342,-0.5815533995628357
1782988063509604900,6.53660498046875,0.2692048251628876,0.007445931900292635,-0.7140869498252869
1782988063519678700,6.5466787109375,0.2350628525018692,-0.03738439083099365,-0.772798478603363
1782988063529753000,6.556753173828125,0.2014220654964447,0.009052084758877754,-0.7583204507827759
1782988063539827700,6.56682763671875,0.1798906773328781,0.1300211101770401,-0.6818895936012268
1782988063549902000,6.576902099609375,0.16390292346477509,0.29833635687828064,-0.5348013639450073
1782988063559976700,6.586976806640625,0.17384156584739685,0.5079255104064941,-0.32497888803482056
1782988063570051000,6.597051025390625,0.20472997426986694,0.7200356721878052,-0.10439271479845047
1782988063580125700,6.607125732421875,0.26015913486480713,0.8760774731636047,0.09900594502687454
1782988063590200000,6.617199951171875,0.3138894736766815,0.9042973518371582,0.24445688724517822
1782988063600275000,6.62727490234375,0.3392561078071594,0.79529869556427,0.31851354241371155
1782988063610349000,6.63734912109375,0.3579022288322449,0.6178086400032043,0.32959040999412537
1782988063620424000,6.647423828125,0.3760380744934082,0.4072127640247345,0.285200834274292
1782988063630498000,6.657498046875,0.39895617961883545,0.20764774084091187,0.1988142877817154
1782988063640572000,6.667572021484375,0.43955686688423157,0.054000385105609894,0.08458173274993896
1782988063650647000,6.67764697265625,0.488055944442749,-0.0427946001291275,-0.043711528182029724
1782988063660721000,6.687720947265625,0.5306795835494995,-0.09665890038013458,-0.15362897515296936
1782988063670796000,6.697796142578125,0.5655544996261597,-0.10090477764606476,-0.22464855015277863
1782988063680870000,6.707869873046875,0.584823489189148,-0.05940020829439163,-0.23154214024543762
1782988063690945000,6.717945068359375,0.5899828672409058,0.004466920159757137,-0.1889459490776062
1782988063701019000,6.728018798828125,0.5716342329978943,0.05380117893218994,-0.10728144645690918
1782988063711094000,6.738093994140625,0.5472423434257507,0.07136872410774231,-0.01190992258489132
1782988063721168100,6.748168212890625,0.5270918011665344,0.0583551861345768,0.08206584304571152
1782988063731243000,6.758242919921875,0.5184266567230225,0.03479126840829849,0.16532132029533386
1782988063741317000,6.768317138671875,0.5174077153205872,0.016515327617526054,0.22282668948173523
1782988063751391000,6.778390869140625,0.5210586190223694,-0.009948237799108028,0.24687956273555756
1782988063761466000,6.788466064453125,0.5218355059623718,-0.014241520315408707,0.24658474326133728
1782988063771540000,6.7985400390625,0.5043540000915527,0.03171452134847641,0.23634515702724457
1782988063781615000,6.808614990234375,0.4614637494087219,0.11024901270866394,0.21537090837955475
1782988063791689000,6.81868896484375,0.39534252882003784,0.15658801794052124,0.18464307487010956
1782988063801764000,6.82876416015625,0.33627575635910034,0.1738961637020111,0.14747147262096405
1782988063811838000,6.838837890625,0.2959214150905609,0.15930336713790894,0.11628106981515884
1782988063821913000,6.8489130859375,0.25455451011657715,0.13223819434642792,0.08936263620853424
1782988063831987000,6.858987060546875,0.21352000534534454,0.08990272134542465,0.06781819462776184
1782988063842062000,6.86906201171875,0.17996230721473694,0.05014519393444061,0.05050178989768028
1782988063852136000,6.879135986328125,0.1511961817741394,0.01666446402668953,0.039254993200302124
1782988063862211000,6.889211181640625,0.1377200484275818,-0.01702132821083069,0.03111823834478855
1782988063872285000,6.899284912109375,0.12301380932331085,-0.046240463852882385,0.013940050266683102
1782988063882359000,6.909359130859375,0.08487174659967422,-0.07739705592393875,-0.013839116320014
1782988063892434000,6.919433837890625,0.016507070511579514,-0.09963098913431168,-0.06318110227584839
1782988063902508000,6.929508056640625,-0.07236234843730927,-0.11655111610889435,-0.13343502581119537
1782988063912583000,6.9395830078125,-0.17545944452285767,-0.1499929577112198,-0.22037099301815033
1782988063922657000,6.949656982421875,-0.27439427375793457,-0.1677330732345581,-0.30015289783477783
1782988063932732000,6.95973193359375,-0.35898345708847046,-0.12597870826721191,-0.34231287240982056
1782988063942806000,6.969805908203125,-0.4172363877296448,-0.06210145354270935,-0.3563988506793976
1782988063952881000,6.979880859375,-0.44194599986076355,-0.04405613988637924,-0.3561996519565582
1782988063962955000,6.989955078125,-0.43144968152046204,-0.0670541375875473,-0.3296410143375397
1782988063973030000,7.00002978515625,-0.3816640079021454,-0.08236730843782425,-0.25856098532676697
1782988063983104000,7.01010400390625,-0.3203761577606201,-0.0964445173740387,-0.15751585364341736
1782988063993179000,7.020178955078125,-0.2455165535211563,-0.1146237850189209,-0.04982854425907135
1782988064003253000,7.0302529296875,-0.15960563719272614,-0.12430490553379059,0.05528536066412926
1782988064013326800,7.040326904296875,-0.06852126866579056,-0.1361415982246399,0.1323244869709015
1782988064023402000,7.050402099609375,0.0011430287268012762,-0.15354321897029877,0.18297114968299866
1782988064033475800,7.060475830078125,0.05109141394495964,-0.1702316552400589,0.21276472508907318
1782988064043551000,7.070551025390625,0.08941856026649475,-0.1600559800863266,0.2399049997329712
1782988064053624800,7.080624755859375,0.12325908243656158,-0.1236305981874466,0.26332297921180725
1782988064063700000,7.090699951171875,0.1594538390636444,-0.00526533555239439,0.29320576786994934
1782988064073773800,7.10077392578125,0.19753117859363556,0.1459803730249405,0.32225847244262695
1782988064083849000,7.110848876953125,0.22710132598876953,0.15186889469623566,0.2841811180114746
1782988064093922800,7.1209228515625,0.228281632065773,-0.08031827211380005,0.1399509757757187
1782988064103998000,7.130998046875,0.20249025523662567,-0.5172615051269531,-0.08725101500749588
1782988064114071800,7.14107177734375,0.14801476895809174,-0.9685447812080383,-0.3552933931350708
1782988064124146000,7.15114599609375,0.08634447306394577,-1.1689870357513428,-0.5756153464317322
1782988064134220800,7.161220703125,0.03434306010603905,-1.003753423690796,-0.6999613046646118
1782988064144295000,7.171294921875,0.016589095816016197,-0.6243022084236145,-0.7205195426940918
1782988064154369800,7.181369873046875,0.04998327046632767,-0.20852284133434296,-0.6194259524345398
1782988064164444000,7.19144384765625,0.13460920751094818,0.18170695006847382,-0.4053003489971161
1782988064174518800,7.201518798828125,0.26064011454582214,0.42605650424957275,-0.11620090901851654
1782988064184593000,7.211593017578125,0.3928106725215912,0.4959122836589813,0.17671804130077362
1782988064194667800,7.221667724609375,0.5003975629806519,0.44542834162712097,0.4219467043876648
1782988064204742000,7.231741943359375,0.556056022644043,0.3161451816558838,0.5664770007133484
1782988064214816800,7.241816650390625,0.5646854639053345,0.17899611592292786,0.6102284789085388
1782988064224891000,7.251890869140625,0.5508711338043213,0.06637609750032425,0.591992199420929
1782988064234964700,7.26196484375,0.5107490420341492,0.006172408349812031,0.5447701215744019
1782988064245039900,7.272039794921875,0.44759029150009155,0.01537629310041666,0.4925053119659424
1782988064255113700,7.28211376953125,0.3647036552429199,0.09192539751529694,0.44994986057281494
1782988064265188900,7.29218896484375,0.27063095569610596,0.20538698136806488,0.40052077174186707
1782988064275262700,7.3022626953125,0.17227429151535034,0.29388514161109924,0.34344470500946045
1782988064285337300,7.31233740234375,0.08016248047351837,0.37037086486816406,0.2941024601459503
1782988064295411700,7.32241162109375,0.0072896042838692665,0.4114035367965698,0.24565264582633972
1782988064305486300,7.332486328125,-0.043230827897787094,0.4096410572528839,0.21869638562202454
1782988064315560700,7.342560791015625,-0.07522843778133392,0.3655976951122284,0.19939886033535004
1782988064325635300,7.35263525390625,-0.09711483120918274,0.27928224205970764,0.1635441929101944
1782988064335709700,7.362709716796875,-0.11904942244291306,0.15290220081806183,0.09594996273517609
1782988064345783600,7.372783447265625,-0.14487330615520477,-0.001651159836910665,0.010359164327383041
1782988064355858700,7.382858642578125,-0.15823836624622345,-0.12951964139938354,-0.08667204529047012
1782988064365932500,7.3929326171875,-0.15456587076187134,-0.1880548596382141,-0.1743057519197464
1782988064376007700,7.403007568359375,-0.1471734642982483,-0.18162864446640015,-0.2556866407394409
1782988064386081500,7.41308154296875,-0.12533901631832123,-0.13043177127838135,-0.31497710943222046
1782988064396156700,7.42315673828125,-0.0746646523475647,-0.02636156603693962,-0.32815098762512207
1782988064406230500,7.43323046875,-0.0062733422964811325,0.07964102923870087,-0.29524150490760803
1782988064416305700,7.4433056640625,0.0601285845041275,0.13836772739887238,-0.2265401929616928
1782988064426379500,7.453379638671875,0.10373464971780777,0.13528485596179962,-0.13752776384353638
1782988064436454700,7.46345458984375,0.12153548747301102,0.11068657040596008,-0.044862281531095505
1782988064446528500,7.473528564453125,0.12247025221586227,0.09182152897119522,0.04072372615337372
1782988064456603600,7.483603759765625,0.11570609360933304,0.07843968272209167,0.0914958268404007
1782988064466677800,7.493677734375,0.1129065752029419,0.06460215896368027,0.11727682501077652
1782988064476751600,7.503751708984375,0.12492436170578003,0.07411310821771622,0.1236758679151535
1782988064486826800,7.51382666015625,0.15382471680641174,0.10380496084690094,0.12245960533618927
1782988064496900600,7.523900634765625,0.17904485762119293,0.13521720468997955,0.12187157571315765
1782988064506975700,7.533975830078125,0.19624966382980347,0.1550774723291397,0.12273523956537247
1782988064517049600,7.544049560546875,0.19893386960029602,0.15323695540428162,0.13192340731620789
1782988064527124700,7.554124755859375,0.1931614726781845,0.15020494163036346,0.14976578950881958
1782988064537198600,7.564198486328125,0.17635639011859894,0.144784614443779,0.16525153815746307
1782988064547273700,7.574273681640625,0.16519267857074738,0.12641333043575287,0.1737302541732788
1782988064557347600,7.58434765625,0.16654877364635468,0.12105904519557953,0.17291931807994843
1782988064567422700,7.594422607421875,0.16976213455200195,0.10560951381921768,0.1638754904270172
1782988064577496600,7.60449658203125,0.1767750382423401,0.11688267439603806,0.14438460767269135
1782988064587571700,7.61457177734375,0.18351656198501587,0.16220834851264954,0.12691693007946014
1782988064597645600,7.6246455078125,0.184438556432724,0.21558316051959991,0.11089695990085602
1782988064607719700,7.6347197265625,0.18083715438842773,0.2502652406692505,0.09093869477510452
1782988064617794600,7.644794677734375,0.16435885429382324,0.259419322013855,0.0672466829419136
1782988064627868700,7.65486865234375,0.13861513137817383,0.23731321096420288,0.0386912040412426
1782988064637943600,7.664943603515625,0.10528621077537537,0.20097225904464722,0.017917215824127197
1782988064648017700,7.675017578125,0.07343293726444244,0.16972431540489197,-0.004034689161926508
1782988064658092500,7.685092529296875,0.04950203746557236,0.20680217444896698,-0.0361473523080349
1782988064668166700,7.695166748046875,0.04219299182295799,0.36710265278816223,-0.07654670625925064
1782988064678241500,7.705241455078125,0.0607251338660717,0.43021848797798157,-0.13099290430545807
1782988064688315600,7.715315673828125,0.1042339950799942,0.30404430627822876,-0.2230655699968338
1782988064698390500,7.725390625,0.1481844037771225,0.11773408949375153,-0.33131828904151917
1782988064708464600,7.735464599609375,0.17937801778316498,-0.014312094077467918,-0.4076271653175354
1782988064718538500,7.74553857421875,0.17881342768669128,-0.024223580956459045,-0.4354814291000366
1782988064728613600,7.755613525390625,0.16428828239440918,-0.006502640433609486,-0.42731377482414246
1782988064738687500,7.7656875,0.15874063968658447,0.03802195191383362,-0.3963334858417511
1782988064748762600,7.7757626953125,0.16138435900211334,0.14258643984794617,-0.3309052288532257
1782988064758836500,7.78583642578125,0.16720150411128998,0.3295600712299347,-0.20638246834278107
1782988064768911600,7.79591162109375,0.18404732644557953,0.5736526250839233,-0.04265851527452469
1782988064778985500,7.8059853515625,0.20229505002498627,0.7697107791900635,0.12825144827365875
1782988064789060600,7.816060546875,0.2232128381729126,0.8308641910552979,0.2590392827987671
1782988064799134500,7.826134521484375,0.2511289119720459,0.7339445352554321,0.3295310139656067
1782988064809209600,7.836209716796875,0.2634095251560211,0.4917742609977722,0.32486969232559204
1782988064819283500,7.846283447265625,0.2593599259853363,0.1467313915491104,0.2570466995239258
1782988064829358600,7.856358642578125,0.24972541630268097,-0.200464129447937,0.12650734186172485
1782988064839432400,7.866432373046875,0.25450924038887024,-0.42742136120796204,-0.037512220442295074
1782988064849506600,7.876506591796875,0.2631717026233673,-0.5231454968452454,-0.21974541246891022
1782988064859581400,7.88658154296875,0.2584872245788574,-0.5201669931411743,-0.3815540075302124
1782988064869655600,7.896655517578125,0.24821513891220093,-0.4436434805393219,-0.496196448802948
1782988064879730400,7.90673046875,0.23528122901916504,-0.3568417429924011,-0.5504649877548218
1782988064889804500,7.916804443359375,0.223255455493927,-0.2434515357017517,-0.5117418169975281
1782988064899879400,7.92687939453125,0.19573327898979187,-0.09040579944849014,-0.3990826904773712
1782988064909953500,7.93695361328125,0.14602059125900269,0.04031919315457344,-0.2384706288576126
1782988064920028400,7.9470283203125,0.09958731383085251,0.10972649604082108,-0.07020571827888489
1782988064930102500,7.9571025390625,0.06965790688991547,0.1365961879491806,0.0746539980173111
1782988064940177400,7.967177490234375,0.05914081633090973,0.12521250545978546,0.16239769756793976
1782988064950251500,7.97725146484375,0.05347973480820656,0.06772205233573914,0.18490327894687653
1782988064960325400,7.987325439453125,0.0499878004193306,-0.00035979304811917245,0.14209403097629547
1782988064970400500,7.997400390625,0.04623514041304588,-0.038302648812532425,0.07344039529561996
1782988064980474400,8.007474365234375,0.037029922008514404,-0.04967913776636124,-0.0014000238152220845
1782988064990549500,8.017549560546875,0.01762479916214943,-0.029446039348840714,-0.052197955548763275
1782988065000623400,8.027623291015624,-0.013275591656565666,-0.024863803759217262,-0.08180271834135056
1782988065010698500,8.037698486328125,-0.050103381276130676,-0.07608571648597717,-0.08620253205299377
1782988065020772400,8.0477724609375,-0.08925744146108627,-0.15114425122737885,-0.0754510834813118
1782988065030847500,8.057847412109375,-0.12118981033563614,-0.21399511396884918,-0.054114099591970444
1782988065040921300,8.06792138671875,-0.16499614715576172,-0.2636665403842926,-0.034339066594839096
1782988065050996500,8.07799658203125,-0.21527636051177979,-0.2939445376396179,-0.018100174143910408
1782988065061070300,8.0880703125,-0.2648305892944336,-0.27563583850860596,0.0033787523861974478
1782988065071145500,8.0981455078125,-0.3137217164039612,-0.25062742829322815,-0.0009763148264028132
1782988065081219300,8.10821923828125,-0.35916322469711304,-0.22941188514232635,-0.012555206194519997
1782988065091293700,8.118293701171876,-0.39497795701026917,-0.19799484312534332,-0.01570546068251133
1782988065101368600,8.12836865234375,-0.42675185203552246,-0.17140637338161469,-0.002682602033019066
1782988065111442700,8.138442626953125,-0.4519940912723541,-0.16111032664775848,0.023184414952993393
1782988065121517600,8.148517578125,-0.4719206690788269,-0.1583414375782013,0.06347537785768509
1782988065131591700,8.158591796875,-0.48593342304229736,-0.16600973904132843,0.10894432663917542
1782988065141666600,8.16866650390625,-0.49603185057640076,-0.20964697003364563,0.14302772283554077
1782988065151740700,8.17874072265625,-0.4979674518108368,-0.2931772768497467,0.1666257381439209
1782988065161815600,8.188815673828126,-0.48753902316093445,-0.3742138147354126,0.1887637972831726
1782988065171889700,8.1988896484375,-0.48328039050102234,-0.42799288034439087,0.21336767077445984
1782988065181964500,8.208964599609375,-0.49822816252708435,-0.47052302956581116,0.22476279735565186
1782988065192038700,8.21903857421875,-0.5302137732505798,-0.5147192478179932,0.22628267109394073
1782988065202112500,8.229112548828125,-0.5740667581558228,-0.5542797446250916,0.2028854638338089
1782988065212187600,8.239187744140626,-0.6195487380027771,-0.5430741906166077,0.16231833398342133
1782988065222261800,8.24926171875,-0.670370876789093,-0.4744647741317749,0.10242890566587448
1782988065232336600,8.259336669921876,-0.7228708863258362,-0.46449869871139526,0.018545720726251602
1782988065242410800,8.26941064453125,-0.7736251354217529,-0.5620396137237549,-0.12511610984802246
1782988065252485600,8.279485595703125,-0.8309629559516907,-0.7424251437187195,-0.3300154507160187
1782988065262559700,8.289559814453124,-0.8835936784744263,-0.9150645136833191,-0.5559819936752319
1782988065272635400,8.299635498046875,-0.9424466490745544,-0.98955237865448,-0.7567318677902222
1782988065282709200,8.309709228515626,-1.0034711360931396,-0.911917507648468,-0.8923949003219604
1782988065292784400,8.319784423828125,-1.0351831912994385,-0.693081796169281,-0.9244908094406128
1782988065302858200,8.329858154296875,-1.0130449533462524,-0.3767182528972626,-0.8148969411849976
1782988065312932600,8.3399326171875,-0.9396921396255493,-0.030586937442421913,-0.5720342397689819
1782988065323007200,8.35000732421875,-0.8137168884277344,0.2904067933559418,-0.21706201136112213
1782988065333081600,8.36008154296875,-0.6577930450439453,0.5400832295417786,0.1912120282649994
1782988065343156200,8.37015625,-0.514355480670929,0.6883373856544495,0.5719636678695679
1782988065353230600,8.380230712890626,-0.39563679695129395,0.7033645510673523,0.8432958126068115
1782988065363305200,8.39030517578125,-0.2956628203392029,0.5414898991584778,0.9803633689880371
1782988065373379600,8.400379638671875,-0.21152129769325256,0.19092388451099396,0.9698635935783386
1782988065383454200,8.4104541015625,-0.15309074521064758,-0.24810701608657837,0.830631673336029
1782988065393528600,8.420528564453125,-0.13083577156066895,-0.6056140065193176,0.5958197116851807
1782988065403603200,8.430603271484374,-0.14990107715129852,-0.8031851649284363,0.2896893322467804
1782988065413677600,8.440677490234375,-0.21218523383140564,-0.8371404409408569,-0.037093039602041245
1782988065423752200,8.450752197265626,-0.29820558428764343,-0.6937736868858337,-0.32263052463531494
1782988065433826600,8.46082666015625,-0.37704208493232727,-0.351733535528183,-0.4901587963104248
1782988065443900400,8.470900390625,-0.43060413002967834,0.08746380358934402,-0.5071470737457275
1782988065453975600,8.4809755859375,-0.447968989610672,0.47998151183128357,-0.3728172481060028
1782988065464049400,8.49104931640625,-0.416214257478714,0.6929164528846741,-0.14340589940547943
1782988065474124500,8.50112451171875,-0.32843461632728577,0.7239111065864563,0.11141441017389297
1782988065484198400,8.511198486328125,-0.21140038967132568,0.6570314168930054,0.3238840699195862
1782988065494273500,8.5212734375,-0.09324552118778229,0.5014745593070984,0.45166680216789246
1782988065504347400,8.531347412109374,0.01860058307647705,0.29200735688209534,0.4876554310321808
1782988065514422500,8.541422607421875,0.11514922231435776,0.09634757786989212,0.4478408992290497
1782988065524496400,8.551496337890624,0.19671998918056488,-0.017177654430270195,0.3563908636569977
1782988065534571500,8.561571533203125,0.26314374804496765,-0.028019117191433907,0.22143732011318207
1782988065544645400,8.571645263671876,0.330172598361969,0.024632642045617104,0.0834038108587265
1782988065554720500,8.581720458984375,0.40672940015792847,0.10141077637672424,-0.02028662897646427
1782988065564794600,8.591794677734375,0.49056917428970337,0.1653255820274353,-0.0645851194858551
1782988065574868500,8.601868408203124,0.5598247051239014,0.18780851364135742,-0.0545031875371933
1782988065584943600,8.611943603515625,0.6124128103256226,0.17878252267837524,0.0035212314687669277
1782988065595017500,8.622017578125,0.6401315331459045,0.16729524731636047,0.0896768867969513
1782988065605092600,8.632092529296875,0.6559346914291382,0.18591473996639252,0.19663183391094208
1782988065615166500,8.64216650390625,0.6672443747520447,0.2518295645713806,0.29868975281715393
1782988065625241600,8.65224169921875,0.6839469075202942,0.3434590995311737,0.36076486110687256
1782988065635315500,8.6623154296875,0.7024446725845337,0.4243669807910919,0.3797129690647125
1782988065645390600,8.672390625,0.732981264591217,0.4781058430671692,0.3620671331882477
1782988065655464400,8.68246435546875,0.7639999389648438,0.49031829833984375,0.3258529305458069
1782988065665539600,8.69253955078125,0.7995682954788208,0.46078333258628845,0.29435867071151733
1782988065675613400,8.702613525390625,0.8399655222892761,0.41162535548210144,0.28588980436325073
1782988065685687600,8.7126875,0.8821347951889038,0.38791924715042114,0.3044928014278412
1782988065695762400,8.722762451171874,0.920138955116272,0.39479976892471313,0.34772229194641113
1782988065705836500,8.73283642578125,0.9538095593452454,0.45032721757888794,0.3959214985370636
1782988065715911400,8.742911376953124,0.9856244325637817,0.5453889966011047,0.4368596076965332
1782988065725985500,8.752985595703125,1.024241328239441,0.6405770778656006,0.4594551920890808
1782988065736060400,8.763060302734376,1.064953088760376,0.7037296891212463,0.46706172823905945
1782988065746134500,8.773134521484375,1.1101781129837036,0.7369526028633118,0.4590080678462982
1782988065756209400,8.78320947265625,1.1421661376953125,0.7397132515907288,0.4268921911716461
1782988065766283500,8.793283447265624,1.159621238708496,0.7300866842269897,0.36000025272369385
1782988065776358400,8.8033583984375,1.1620266437530518,0.7600874900817871,0.2623477280139923
1782988065786432500,8.8134326171875,1.1598564386367798,0.8221950531005859,0.12258583307266235
1782988065796507400,8.82350732421875,1.1551759243011475,0.7677187919616699,-0.09006437659263611
1782988065806581500,8.83358154296875,1.1436530351638794,0.5051734447479248,-0.38752108812332153
1782988065816655400,8.8436552734375,1.1270196437835693,0.1914179027080536,-0.7027994394302368
1782988065826730500,8.85373046875,1.105664849281311,0.0035289546940475702,-0.9379789233207703
1782988065836804400,8.863804443359374,1.04933500289917,0.05241500586271286,-1.0734193325042725
1782988065846879500,8.87387939453125,0.9912320375442505,0.258556991815567,-1.0946118831634521
1782988065856953300,8.883953369140626,0.962730348110199,0.5438632965087891,-0.988284170627594
1782988065867028500,8.894028564453125,0.949057936668396,0.8799009323120117,-0.7835237979888916
1782988065877102300,8.904102294921875,0.9532960653305054,1.158725380897522,-0.5371172428131104
1782988065887177500,8.914177490234374,0.9831058979034424,1.2876362800598145,-0.3206685483455658
1782988065897251300,8.924251220703125,1.0500503778457642,1.3724310398101807,-0.13895389437675476
1782988065907326500,8.934326416015624,1.1377900838851929,1.4874391555786133,0.021095432341098785
1782988065917400300,8.944400390625,1.2138440608978271,1.5697904825210571,0.1344403624534607
1782988065927474400,8.954474365234375,1.2561869621276855,1.5153673887252808,0.1743326485157013
1782988065937549300,8.96454931640625,1.2856489419937134,1.2517703771591187,0.14090918004512787
1782988065947623400,8.97462353515625,1.319003701210022,0.8416526317596436,0.06277497112751007
1782988065957698300,8.9846982421875,1.364801287651062,0.4156597852706909,-0.025467010214924812
1782988065967772400,8.9947724609375,1.4120991230010986,0.09809940308332443,-0.11923611164093018
1782988065977847300,9.004847412109376,1.4447087049484253,-0.10303211212158203,-0.22570449113845825
1782988065987921400,9.01492138671875,1.440769076347351,-0.21429631114006042,-0.3231351673603058
1782988065997996300,9.024996337890625,1.4078677892684937,-0.19282644987106323,-0.37165239453315735
1782988066008070400,9.0350703125,1.3592076301574707,-0.07424893230199814,-0.35375460982322693
1782988066018145300,9.045145263671875,1.3054105043411255,0.07357701659202576,-0.2805304527282715
1782988066028219400,9.055219482421874,1.242106318473816,0.22458703815937042,-0.164397194981575
1782988066038293200,9.065293212890625,1.1823428869247437,0.3924042582511902,-0.02799195423722267
1782988066048368400,9.075368408203126,1.1340608596801758,0.5624481439590454,0.10261612385511398
1782988066058442200,9.085442138671874,1.1013710498809814,0.7087286710739136,0.1977490335702896
1782988066068517400,9.095517333984375,1.096043586730957,0.8063337802886963,0.25695934891700745
1782988066078591200,9.10559130859375,1.1116104125976562,0.8532426953315735,0.2728200852870941
1782988066088666400,9.115666259765625,1.1366245746612549,0.8518914580345154,0.25860145688056946
1782988066098740200,9.125740234375,1.151162028312683,0.8236326575279236,0.22944144904613495
1782988066108815400,9.1358154296875,1.1510573625564575,0.7851438522338867,0.1761483997106552
1782988066118889200,9.14588916015625,1.133829951286316,0.7428616285324097,0.10756827145814896
1782988066128964400,9.15596435546875,1.1268255710601807,0.701444149017334,0.04056846350431442
1782988066139038200,9.1660380859375,1.1324889659881592,0.6513378024101257,-0.013680125586688519
1782988066149113300,9.17611328125,1.1645255088806152,0.5819840431213379,-0.058585017919540405
1782988066159187200,9.186187255859375,1.2052454948425293,0.5095759034156799,-0.08796074986457825
1782988066169261600,9.196261474609376,1.2484632730484009,0.4480765759944916,-0.08819830417633057
1782988066179336200,9.206336181640625,1.2786784172058105,0.40435439348220825,-0.06499471515417099
1782988066189410600,9.21641064453125,1.2996574640274048,0.40956541895866394,-0.02161075361073017
1782988066199485400,9.2264853515625,1.3023430109024048,0.44018828868865967,0.02341105043888092
1782988066209559600,9.2365595703125,1.2841390371322632,0.4757162034511566,0.06630551815032959
1782988066219634400,9.246634521484374,1.2423721551895142,0.4995368421077728,0.08027832955121994
1782988066229708500,9.25670849609375,1.196096420288086,0.4897449314594269,0.06458591669797897
1782988066239783400,9.266783447265626,1.157020926475525,0.45653292536735535,0.029686523601412773
1782988066249857500,9.276857421875,1.1271182298660278,0.4281904995441437,0.002579537918791175
1782988066259932400,9.286932373046875,1.0995371341705322,0.4517938196659088,-0.0004799016169272363
1782988066270005500,9.297005615234376,1.0774465799331665,0.5297355055809021,0.02195536531507969
1782988066280080100,9.307080078125,1.064716100692749,0.622685968875885,0.06798544526100159
1782988066290154200,9.317154296875,1.0712682008743286,0.6971737742424011,0.12072881311178207
1782988066300229000,9.32722900390625,1.0985534191131592,0.7943969964981079,0.18180841207504272
1782988066310303200,9.33730322265625,1.1291084289550781,0.9425126910209656,0.22681556642055511
1782988066320378000,9.347378173828124,1.1551402807235718,1.0609817504882812,0.2133234590291977
1782988066330452200,9.3574521484375,1.1333619356155396,0.8229210376739502,0.018425878137350082
1782988066340527000,9.367527099609376,1.0504088401794434,0.16357961297035217,-0.3817995488643646
1782988066350601200,9.377601318359375,0.9290791749954224,-0.4869898855686188,-0.7845752239227295
1782988066360676400,9.38767626953125,0.7861672639846802,-0.6183567047119141,-1.017120361328125
1782988066370750200,9.397750244140624,0.665354311466217,-0.20902378857135773,-1.001753330230713
1782988066380824000,9.407823974609375,0.6155065894126892,0.5757341384887695,-0.7447290420532227
1782988066390899200,9.417899169921874,0.6674992442131042,1.504663348197937,-0.3209567070007324
1782988066400973000,9.42797314453125,0.8012501001358032,2.294762372970581,0.13419535756111145
1782988066411048200,9.438048095703126,0.9878852367401123,2.6595711708068848,0.48825782537460327
1782988066421122000,9.4481220703125,1.219476580619812,2.563904047012329,0.682404637336731
1782988066431197200,9.458197265625,1.4790639877319336,2.187037706375122,0.7283993363380432
1782988066441271000,9.46827099609375,1.7403347492218018,1.6459933519363403,0.6533548831939697
1782988066451346200,9.47834619140625,1.9598995447158813,1.0501229763031006,0.49376097321510315
1782988066461420000,9.488419921875,2.113590955734253,0.5288329720497131,0.2886504530906677
1782988066471495200,9.4984951171875,2.201124906539917,0.16433247923851013,0.06488658487796783
1782988066481569300,9.5085693359375,2.2188608646392822,0.008555937558412552,-0.18053995072841644
1782988066491643100,9.51864306640625,2.192568302154541,0.07449660450220108,-0.3880784809589386
1782988066501718300,9.52871826171875,2.1328775882720947,0.3702086806297302,-0.5093793272972107
1782988066511792000,9.538792236328124,2.0405478477478027,0.8353286981582642,-0.5293874144554138
1782988066521867300,9.5488671875,1.9324685335159302,1.2899590730667114,-0.4642677903175354
1782988066531941000,9.558941162109376,1.8453445434570312,1.5951051712036133,-0.336078405380249
1782988066542016300,9.569016357421875,1.7972075939178467,1.7167234420776367,-0.1741398423910141
1782988066552090000,9.579090087890625,1.793975591659546,1.7166123390197754,-0.028871329501271248
1782988066562165200,9.589165283203124,1.8301173448562622,1.6626002788543701,0.06583946943283081
1782988066572239000,9.599239013671875,1.8759516477584839,1.5729726552963257,0.08548613637685776
1782988066582314200,9.609314208984374,1.9096819162368774,1.4696491956710815,0.047235157340765
1782988066592388000,9.61938818359375,1.9199169874191284,1.35612154006958,-0.052678655833005905
1782988066602463200,9.629463134765626,1.9131624698638916,1.233817458152771,-0.19908274710178375
1782988066612537000,9.639537109375,1.9013417959213257,1.1173502206802368,-0.3557967245578766
1782988066622612200,9.6496123046875,1.8939613103866577,0.979161262512207,-0.4942012131214142
1782988066632686000,9.65968603515625,1.9010506868362427,0.8798927068710327,-0.6054280996322632
1782988066642761200,9.66976123046875,1.9416286945343018,0.8503811359405518,-0.6621758341789246
1782988066652835000,9.6798349609375,1.9931070804595947,0.8671247363090515,-0.6699661016464233
1782988066662910200,9.68991015625,2.037957191467285,0.9211291074752808,-0.6457846164703369
1782988066672984000,9.699984130859375,2.0715677738189697,0.9450464248657227,-0.6050366163253784
1782988066683059200,9.71005908203125,2.08634352684021,0.9263818860054016,-0.5446209907531738
1782988066693133000,9.720133056640625,2.0703485012054443,0.901604413986206,-0.4595388174057007
1782988066703207200,9.730207275390624,2.0310943126678467,0.8608809113502502,-0.36645203828811646
1782988066713282000,9.740281982421875,1.9645907878875732,0.8064712285995483,-0.24148692190647125
1782988066723356200,9.750356201171876,1.8749524354934692,0.7558115124702454,-0.09159702807664871
1782988066733431000,9.76043115234375,1.7880852222442627,0.7689052224159241,0.08966223895549774
1782988066743505200,9.770505126953125,1.7050409317016602,0.8549172878265381,0.2790369689464569
1782988066753580000,9.780580078125,1.6292098760604858,0.9712377786636353,0.398689329624176
1782988066763654100,9.790654052734375,1.563232421875,1.056782841682434,0.4185927212238312
1782988066773729000,9.80072900390625,1.4862101078033447,1.1014394760131836,0.3379700481891632
1782988066783803100,9.81080322265625,1.4272990226745605,1.0761386156082153,0.23168356716632843
1782988066793878000,9.8208779296875,1.3760571479797363,0.9831298589706421,0.11841452866792679
1782988066803952000,9.8309521484375,1.3292561769485474,0.8832243084907532,0.014162424020469189
1782988066814026200,9.841026123046875,1.2718645334243774,0.7868250608444214,-0.07864714413881302
1782988066824101000,9.85110107421875,1.215122103691101,0.6984028220176697,-0.15956595540046692
1782988066834175200,9.86117529296875,1.1581480503082275,0.6901928186416626,-0.2229321449995041
1782988066844250000,9.87125,1.1178557872772217,0.7747676372528076,-0.2441128045320511
1782988066854324200,9.88132421875,1.1010432243347168,0.9583193063735962,-0.22531861066818237
1782988066864399000,9.891399169921876,1.1167329549789429,1.1849807500839233,-0.1460845023393631
1782988066874473200,9.90147314453125,1.1524475812911987,1.3698557615280151,-0.050149984657764435
1782988066884548000,9.911548095703125,1.2036164999008179,1.4799604415893555,0.05127490684390068
1782988066894622200,9.921622314453124,1.2565832138061523,1.507125735282898,0.1318560391664505
1782988066904697000,9.931697021484375,1.3011001348495483,1.484405279159546,0.20244871079921722
1782988066914771200,9.941771240234376,1.3459309339523315,1.486430048942566,0.24819089472293854
1782988066924846000,9.95184619140625,1.398720145225525,1.5379999876022339,0.2535979151725769
1782988066934920200,9.961920166015625,1.4810110330581665,1.588992953300476,0.2401721179485321
1782988066944994300,9.971994384765624,1.5802133083343506,1.498688817024231,0.191594198346138
1782988066955069200,9.982069091796875,1.6698118448257446,1.1250276565551758,0.05573729798197746
1782988066965143300,9.992143310546876,1.7044368982315063,0.606864869594574,-0.17007772624492645
1782988066975218200,10.00221826171875,1.6626149415969849,0.2698115110397339,-0.3790373206138611
1782988066985292300,10.012292236328125,1.5726858377456665,0.18983198702335358,-0.4481889605522156
1782988066995367200,10.0223671875,1.4855890274047852,0.4175112247467041,-0.34553930163383484
1782988067005441300,10.032441162109375,1.4637649059295654,0.985661506652832,-0.09653665870428085
1782988067015516200,10.04251611328125,1.5034995079040527,1.6988509893417358,0.20941607654094696
1782988067025590300,10.05259033203125,1.5600800514221191,2.1213035583496094,0.43939414620399475
1782988067035665200,10.0626650390625,1.6240938901901245,2.12951397895813,0.5442987084388733
1782988067045739300,10.0727392578125,1.6691572666168213,1.9218659400939941,0.5251468420028687
1782988067055813000,10.082813232421875,1.6562004089355469,1.5425406694412231,0.4038561284542084
1782988067065888300,10.09288818359375,1.5882285833358765,1.0211031436920166,0.20652255415916443
1782988067075962000,10.102962158203125,1.4852172136306763,0.506428062915802,-0.03753352537751198
1782988067086037200,10.113037353515624,1.4069002866744995,0.26300206780433655,-0.27953577041625977
1782988067096111000,10.123111083984375,1.3778668642044067,0.29988712072372437,-0.46240171790122986
1782988067106186200,10.133186279296876,1.391682744026184,0.5825779438018799,-0.5441780686378479
1782988067116260400,10.14326025390625,1.444206953048706,1.0238105058670044,-0.5034130811691284
1782988067126335200,10.153335205078125,1.5180305242538452,1.4937366247177124,-0.3698451519012451
1782988067136409300,10.163409423828124,1.5861488580703735,1.7941311597824097,-0.17991890013217926
1782988067146484200,10.173484130859375,1.6482905149459839,1.8470127582550049,0.02959970384836197
1782988067156558300,10.183558349609376,1.6910556554794312,1.7201815843582153,0.2083532065153122
1782988067166633200,10.19363330078125,1.699892282485962,1.5271286964416504,0.3298575282096863
1782988067176707300,10.203707275390625,1.6949379444122314,1.317341685295105,0.37752437591552734
1782988067186781200,10.21378125,1.678227424621582,1.1565991640090942,0.3294506072998047
1782988067196856300,10.223856201171875,1.6584100723266602,1.0520082712173462,0.20402397215366364
1782988067206930200,10.23393017578125,1.6435956954956055,0.9875674843788147,0.024889636784791946
1782988067217005300,10.24400537109375,1.6388510465621948,0.9404047727584839,-0.1749931126832962
1782988067227079200,10.2540791015625,1.6559377908706665,0.8988104462623596,-0.34209874272346497
1782988067237154300,10.264154296875,1.6774969100952148,0.8805923461914062,-0.44054996967315674
1782988067247228200,10.274228271484375,1.6890009641647339,0.8681566715240479,-0.4566711485385895
1782988067257303300,10.28430322265625,1.6876121759414673,0.840711772441864,-0.411395788192749
1782988067267377200,10.294377197265625,1.6652189493179321,0.824726939201355,-0.33750399947166443
1782988067277452000,10.3044521484375,1.5969245433807373,0.8135674595832825,-0.2646726667881012
1782988067287526000,10.31452587890625,1.5151159763336182,0.7819011807441711,-0.18628811836242676
1782988067297600000,10.32460009765625,1.4249765872955322,0.7647344470024109,-0.13392424583435059
1782988067307675000,10.3346748046875,1.3268470764160156,0.7701084017753601,-0.10877282172441483
1782988067317749000,10.3447490234375,1.2200875282287598,0.8140401840209961,-0.11358009278774261
1782988067327824000,10.354823974609374,1.1287214756011963,0.8645656704902649,-0.13273566961288452
1782988067337898000,10.36489794921875,1.0655030012130737,0.8836709260940552,-0.14908641576766968
1782988067347972900,10.374972900390626,1.0265172719955444,0.9151694774627686,-0.14143888652324677
1782988067358047000,10.385046875,1.004137635231018,0.9310373663902283,-0.10441349446773529
1782988067368121900,10.395121826171875,0.9932312369346619,0.9174555540084839,-0.06173739954829216
1782988067378196000,10.405196044921874,0.9868338108062744,0.9184462428092957,-0.01215440034866333
1782988067388270800,10.415270751953125,0.9776394963264465,0.9229261875152588,0.023743679746985435
1782988067398345000,10.425344970703126,0.9530806541442871,0.9158605337142944,0.07438474893569946
1782988067408419800,10.435419921875,0.9237800240516663,0.9341588616371155,0.152443066239357
1782988067418494000,10.445493896484376,0.9140975475311279,0.9309217929840088,0.23324178159236908
1782988067428567800,10.45556787109375,0.9475015997886658,0.8725338578224182,0.31676623225212097
1782988067438643000,10.465642822265625,0.9944270253181458,0.7715025544166565,0.40666043758392334
1782988067448716800,10.475716796875,1.0324867963790894,0.6764642000198364,0.46535569429397583
1782988067458792000,10.4857919921875,1.072800874710083,0.5915898084640503,0.5064250826835632
1782988067468865800,10.49586572265625,1.1029417514801025,0.5860368609428406,0.5285080671310425
1782988067478941000,10.50594091796875,1.1211601495742798,0.7557933926582336,0.5522735714912415
1782988067489014800,10.516014892578125,1.1088414192199707,1.056514024734497,0.5597120523452759
1782988067499090000,10.52608984375,1.0965994596481323,1.271075963973999,0.5153706669807434
1782988067509163800,10.536163818359375,1.062569260597229,1.2456402778625488,0.37073439359664917
1782988067519239000,10.546239013671874,0.9740210771560669,0.9544199109077454,0.11184637248516083
1782988067529312800,10.556312744140625,0.8457493782043457,0.46566757559776306,-0.24990516901016235
1782988067539387000,10.566386962890626,0.7376689910888672,0.1732226461172104,-0.5927900671958923
1782988067549461800,10.576461669921875,0.699806272983551,0.2778462767601013,-0.768168568611145
1782988067559535900,10.586535888671875,0.7483195066452026,0.7118539214134216,-0.6949167251586914
1782988067569610800,10.59661083984375,0.8992496132850647,1.3052637577056885,-0.4041011333465576
1782988067579684900,10.606684814453125,1.0910019874572754,1.830140233039856,-0.028549352660775185
1782988067589759700,10.616759765625,1.2843552827835083,2.0839548110961914,0.27478310465812683
1782988067599833900,10.626833740234375,1.4356142282485962,2.0202255249023438,0.5465171337127686
1782988067609908700,10.63690869140625,1.3077516555786133,1.50733482837677,0.7566890120506287
1782988067619982800,10.64698291015625,1.1992088556289673,0.8928801417350769,0.7003828883171082
1782988067630057700,10.6570576171875,1.2910157442092896,0.37267372012138367,0.3618333041667938
1782988067640131800,10.6671318359375,1.3565503358840942,0.2223089635372162,-0.16778847575187683
1782988067650206000,10.6772060546875,1.3196974992752075,0.4382692277431488,-0.7290286421775818
1782988067660280800,10.68728076171875,1.250551462173462,0.7882817983627319,-1.1950730085372925
1782988067670355000,10.69735498046875,1.151174783706665,1.0968761444091797,-1.3358104228973389
1782988067680429800,10.707429931640625,1.0633776187896729,1.2828670740127563,-1.0836751461029053
1782988067690504000,10.71750390625,1.0531738996505737,1.2940195798873901,-0.6321612000465393
1782988067700578800,10.727578857421875,1.1478623151779175,1.0932915210723877,-0.18415279686450958
