time,seconds_elapsed,z,y,x
1782984601909841700,0.060841552734375,-0.481201171875,-0.812896728515625,-0.015533447265625
1782984601919915800,0.070915771484375,-0.477203369140625,-0.8114166259765625,0.0048980712890625
1782984601929989600,0.08098974609375,-0.5001373291015625,-0.8030242919921875,0.007049560546875
1782984601940064800,0.091064697265625,-0.5157318115234375,-0.7990875244140625,0.001129150390625
1782984601950138600,0.101138671875,-0.5092926025390625,-0.7943878173828125,-0.00067138671875
1782984601960212500,0.11121240234375,-0.5126190185546875,-0.7988433837890625,-0.001251220703125
1782984601970286300,0.121286376953125,-0.5205841064453125,-0.8058319091796875,-0.003143310546875
1782984601980360400,0.1313603515625,-0.5145721435546875,-0.8106689453125,-0.0078887939453125
1782984601990435300,0.141435302734375,-0.488037109375,-0.82110595703125,-0.0069580078125
1782984602000509400,0.151509521484375,-0.4544525146484375,-0.8319091796875,-0.0056304931640625
1782984602010583300,0.161583251953125,-0.4344940185546875,-0.836395263671875,-0.0067138671875
1782984602020657700,0.17165771484375,-0.436981201171875,-0.8420562744140625,-0.0121917724609375
1782984602030731500,0.1817314453125,-0.456207275390625,-0.8393707275390625,-0.017608642578125
1782984602040805400,0.191805419921875,-0.4945068359375,-0.842987060546875,-0.031585693359375
1782984602050880500,0.201880615234375,-0.526153564453125,-0.8504638671875,-0.0741729736328125
1782984602060954400,0.211954345703125,-0.5386199951171875,-0.853057861328125,-0.0805206298828125
1782984602071028500,0.222028564453125,-0.5155792236328125,-0.8617401123046875,-0.0700225830078125
1782984602081102300,0.232102294921875,-0.487213134765625,-0.87017822265625,-0.0715484619140625
1782984602091176400,0.242176513671875,-0.48907470703125,-0.871337890625,-0.0660247802734375
1782984602101250300,0.252250244140625,-0.4901885986328125,-0.876800537109375,-0.05621337890625
1782984602111325400,0.262325439453125,-0.50140380859375,-0.8985595703125,-0.0682220458984375
1782984602121399300,0.2723994140625,-0.5191192626953125,-0.8654937744140625,-0.0659637451171875
1782984602131473700,0.2824736328125,-0.5411834716796875,-0.849761962890625,-0.0462188720703125
1782984602141547500,0.292547607421875,-0.54998779296875,-0.8944244384765625,-0.0569610595703125
1782984602151621400,0.302621337890625,-0.5210418701171875,-0.88702392578125,-0.0913543701171875
1782984602161696500,0.312696533203125,-0.53253173828125,-0.8707427978515625,-0.07861328125
1782984602171770400,0.322770263671875,-0.56390380859375,-0.875,-0.063385009765625
1782984602181844500,0.332844482421875,-0.559661865234375,-0.8691253662109375,-0.0689849853515625
1782984602191918300,0.34291845703125,-0.543182373046875,-0.870880126953125,-0.065216064453125
1782984602201992400,0.352992431640625,-0.5366973876953125,-0.8675994873046875,-0.0577850341796875
1782984602212066300,0.36306640625,-0.5371246337890625,-0.8583221435546875,-0.0549163818359375
1782984602222141400,0.373141357421875,-0.555633544921875,-0.8493499755859375,-0.0506744384765625
1782984602232215300,0.38321533203125,-0.558746337890625,-0.8507080078125,-0.0528106689453125
1782984602242289700,0.39328955078125,-0.5503997802734375,-0.850799560546875,-0.049957275390625
1782984602252363500,0.403363525390625,-0.547210693359375,-0.848541259765625,-0.045074462890625
1782984602262437400,0.413437255859375,-0.54266357421875,-0.8465423583984375,-0.031707763671875
1782984602272512500,0.423512451171875,-0.555908203125,-0.84857177734375,-0.0237579345703125
1782984602282586400,0.43358642578125,-0.5608062744140625,-0.8489227294921875,-0.0211029052734375
1782984602292660500,0.443660400390625,-0.548797607421875,-0.8454132080078125,-0.0174407958984375
1782984602302734300,0.453734375,-0.544708251953125,-0.8391876220703125,-0.0131072998046875
1782984602312808400,0.463808349609375,-0.54559326171875,-0.8359832763671875,-0.01812744140625
1782984602322882300,0.47388232421875,-0.5345916748046875,-0.8322296142578125,-0.0167388916015625
1782984602332957400,0.48395751953125,-0.5419158935546875,-0.826751708984375,-0.013519287109375
1782984602343031300,0.49403125,-0.565155029296875,-0.8260955810546875,-0.019012451171875
1782984602353105700,0.504105712890625,-0.56585693359375,-0.82501220703125,-0.0214080810546875
1782984602363179500,0.514179443359375,-0.563079833984375,-0.827484130859375,-0.02081298828125
1782984602373253400,0.52425341796875,-0.5691680908203125,-0.83441162109375,-0.023345947265625
1782984602383327500,0.534327392578125,-0.566925048828125,-0.833770751953125,-0.020782470703125
1782984602393402400,0.54440234375,-0.5546722412109375,-0.8329010009765625,-0.0106964111328125
1782984602403476500,0.5544765625,-0.5420074462890625,-0.8338165283203125,-0.0013275146484375
1782984602413550300,0.56455029296875,-0.5350494384765625,-0.8286895751953125,0.0046539306640625
1782984602423624400,0.57462451171875,-0.536468505859375,-0.8264617919921875,0.0045166015625
1782984602433698300,0.5846982421875,-0.539886474609375,-0.832122802734375,0.005462646484375
1782984602443773400,0.5947734375,-0.542510986328125,-0.8301239013671875,0.001129150390625
1782984602453847300,0.604847412109375,-0.542236328125,-0.8255615234375,0.0001678466796875
1782984602463921700,0.614921630859375,-0.5480194091796875,-0.82794189453125,-0.0005950927734375
1782984602473995500,0.62499560546875,-0.5563201904296875,-0.82623291015625,-0.00482177734375
1782984602484069400,0.6350693359375,-0.55908203125,-0.824981689453125,-0.01165771484375
1782984602494143500,0.6451435546875,-0.553985595703125,-0.8286285400390625,-0.0149078369140625
1782984602504218400,0.65521826171875,-0.558502197265625,-0.830230712890625,-0.013427734375
1782984602514292500,0.66529248046875,-0.55609130859375,-0.82666015625,-0.013214111328125
1782984602524366300,0.675366455078125,-0.54791259765625,-0.8205108642578125,-0.01123046875
1782984602534440400,0.6854404296875,-0.552642822265625,-0.8193817138671875,-0.011993408203125
1782984602544514300,0.695514404296875,-0.552978515625,-0.819732666015625,-0.0142364501953125
1782984602554589400,0.70558935546875,-0.5568084716796875,-0.8203125,-0.010772705078125
1782984602564663300,0.715663330078125,-0.563385009765625,-0.824249267578125,-0.0088043212890625
1782984602574737700,0.725737548828125,-0.5715179443359375,-0.825775146484375,-0.0061187744140625
1782984602584811500,0.7358115234375,-0.570556640625,-0.825714111328125,-0.0037994384765625
1782984602594885400,0.745885498046875,-0.57000732421875,-0.823577880859375,-0.004669189453125
1782984602604959500,0.75595947265625,-0.5709228515625,-0.8227081298828125,-0.0073699951171875
1782984602615034400,0.766034423828125,-0.5687103271484375,-0.8246307373046875,-0.0066070556640625
1782984602625108500,0.7761083984375,-0.569915771484375,-0.8238677978515625,-0.0169525146484375
1782984602635182300,0.786182373046875,-0.57293701171875,-0.82843017578125,-0.0242462158203125
1782984602645256400,0.79625634765625,-0.5711517333984375,-0.82672119140625,-0.0244903564453125
1782984602655330300,0.806330322265625,-0.5620269775390625,-0.820343017578125,-0.0197906494140625
1782984602665405400,0.816405517578125,-0.556304931640625,-0.819091796875,-0.0194244384765625
1782984602675479300,0.826479248046875,-0.5567779541015625,-0.822265625,-0.0236968994140625
1782984602685553700,0.8365537109375,-0.56866455078125,-0.8210601806640625,-0.0247650146484375
1782984602695627500,0.84662744140625,-0.57562255859375,-0.81689453125,-0.0199127197265625
1782984602705701400,0.856701416015625,-0.5777740478515625,-0.8190765380859375,-0.0195770263671875
1782984602715775500,0.866775390625,-0.577972412109375,-0.818450927734375,-0.02288818359375
1782984602725850400,0.876850341796875,-0.5884246826171875,-0.82183837890625,-0.0257720947265625
1782984602735924500,0.886924560546875,-0.586029052734375,-0.81903076171875,-0.0288848876953125
1782984602745998300,0.896998291015625,-0.5856475830078125,-0.8177490234375,-0.0300140380859375
1782984602756072400,0.907072509765625,-0.5830078125,-0.8128509521484375,-0.02734375
1782984602766146300,0.917146240234375,-0.575164794921875,-0.8105010986328125,-0.0307159423828125
1782984602776220700,0.927220703125,-0.57196044921875,-0.8078765869140625,-0.032196044921875
1782984602786295300,0.93729541015625,-0.571624755859375,-0.80792236328125,-0.032928466796875
1782984602796369700,0.94736962890625,-0.5687255859375,-0.80511474609375,-0.0303802490234375
1782984602806443500,0.957443603515625,-0.572357177734375,-0.807342529296875,-0.0224151611328125
1782984602816517400,0.967517333984375,-0.5771942138671875,-0.809417724609375,-0.022735595703125
1782984602826591500,0.977591552734375,-0.58160400390625,-0.808868408203125,-0.0214080810546875
1782984602836666400,0.987666259765625,-0.580963134765625,-0.8093414306640625,-0.0236358642578125
1782984602846740500,0.997740478515625,-0.5756072998046875,-0.8097381591796875,-0.023162841796875
1782984602856814300,1.007814453125,-0.5728607177734375,-0.81182861328125,-0.0211944580078125
1782984602866888400,1.017888427734375,-0.5669708251953125,-0.8104248046875,-0.0253753662109375
1782984602876962300,1.02796240234375,-0.5679779052734375,-0.8081207275390625,-0.0231781005859375
1782984602887036700,1.03803662109375,-0.575408935546875,-0.808349609375,-0.0302886962890625
1782984602897111300,1.048111328125,-0.5866546630859375,-0.808746337890625,-0.0334625244140625
1782984602907185700,1.058185546875,-0.5915069580078125,-0.8055419921875,-0.0277252197265625
1782984602917259500,1.068259521484375,-0.584869384765625,-0.8043975830078125,-0.023590087890625
1782984602927333400,1.07833349609375,-0.5774993896484375,-0.8040313720703125,-0.0207672119140625
1782984602937407500,1.088407470703125,-0.5717620849609375,-0.8071746826171875,-0.01751708984375
1782984602947482400,1.098482421875,-0.5663604736328125,-0.8076934814453125,-0.0168609619140625
1782984602957556500,1.108556396484375,-0.5701446533203125,-0.8096923828125,-0.0204010009765625
1782984602967630800,1.118630859375,-0.57928466796875,-0.81048583984375,-0.0235443115234375
1782984602977705000,1.128705078125,-0.5801849365234375,-0.80828857421875,-0.0213623046875
1782984602987778800,1.13877880859375,-0.5793609619140625,-0.807281494140625,-0.0237579345703125
1782984602997853000,1.14885302734375,-0.5819549560546875,-0.811065673828125,-0.0249481201171875
1782984603007927800,1.158927734375,-0.5883636474609375,-0.8104248046875,-0.0251007080078125
1782984603018002000,1.169001953125,-0.589691162109375,-0.810546875,-0.0324859619140625
1782984603028076000,1.179075927734375,-0.5847320556640625,-0.814727783203125,-0.0343017578125
1782984603038150000,1.18914990234375,-0.5743560791015625,-0.80987548828125,-0.03082275390625
1782984603048224000,1.19922412109375,-0.570159912109375,-0.8045806884765625,-0.0283203125
1782984603058297900,1.2092978515625,-0.57354736328125,-0.8017425537109375,-0.026123046875
1782984603068373000,1.219373046875,-0.5709991455078125,-0.802276611328125,-0.025848388671875
1782984603078446800,1.22944677734375,-0.5719451904296875,-0.8059844970703125,-0.0273284912109375
1782984603088521000,1.23952099609375,-0.5825347900390625,-0.8122100830078125,-0.0246429443359375
1782984603098594800,1.2495947265625,-0.5940093994140625,-0.810943603515625,-0.0284271240234375
1782984603108669000,1.2596689453125,-0.5851593017578125,-0.805816650390625,-0.0324859619140625
1782984603118743800,1.269743896484375,-0.5711517333984375,-0.8087615966796875,-0.02685546875
1782984603128818000,1.27981787109375,-0.57366943359375,-0.8076019287109375,-0.0239715576171875
1782984603138892000,1.28989208984375,-0.5872039794921875,-0.8072052001953125,-0.027252197265625
1782984603148966000,1.2999658203125,-0.5877227783203125,-0.8073577880859375,-0.030059814453125
1782984603159040000,1.3100400390625,-0.5786590576171875,-0.809844970703125,-0.0288238525390625
1782984603169113900,1.32011376953125,-0.569580078125,-0.812835693359375,-0.02703857421875
1782984603179189000,1.33018896484375,-0.5764923095703125,-0.8104705810546875,-0.02911376953125
1782984603189262800,1.340262939453125,-0.5812530517578125,-0.8086090087890625,-0.0321197509765625
1782984603199337000,1.3503369140625,-0.58441162109375,-0.80535888671875,-0.032257080078125
1782984603209410800,1.360410888671875,-0.58172607421875,-0.8028564453125,-0.0321807861328125
1782984603219485000,1.37048486328125,-0.5790863037109375,-0.8047943115234375,-0.0275726318359375
1782984603229559000,1.38055908203125,-0.584930419921875,-0.806121826171875,-0.023956298828125
1782984603239634000,1.390634033203125,-0.58953857421875,-0.8067779541015625,-0.0180511474609375
1782984603249708000,1.4007080078125,-0.587921142578125,-0.8086395263671875,-0.0135955810546875
1782984603259782000,1.410781982421875,-0.5861663818359375,-0.80731201171875,-0.00885009765625
1782984603269856000,1.42085595703125,-0.57659912109375,-0.808135986328125,-0.0095062255859375
1782984603279929900,1.430929931640625,-0.5716552734375,-0.8079071044921875,-0.015594482421875
1782984603290004000,1.44100390625,-0.571563720703125,-0.8074951171875,-0.024505615234375
1782984603300078800,1.451078857421875,-0.5766448974609375,-0.8061065673828125,-0.0298614501953125
1782984603310153000,1.461153076171875,-0.5824127197265625,-0.8076019287109375,-0.034271240234375
1782984603320226800,1.471226806640625,-0.5821990966796875,-0.805908203125,-0.033782958984375
1782984603330301000,1.481301025390625,-0.5792388916015625,-0.8051300048828125,-0.02972412109375
1782984603340375000,1.491375,-0.5828857421875,-0.8115692138671875,-0.029693603515625
1782984603350450000,1.501449951171875,-0.581695556640625,-0.8116455078125,-0.030548095703125
1782984603360524000,1.51152392578125,-0.5868682861328125,-0.8104248046875,-0.0287017822265625
1782984603370598000,1.521597900390625,-0.58258056640625,-0.8081512451171875,-0.0266265869140625
1782984603380672000,1.531672119140625,-0.57867431640625,-0.8105316162109375,-0.0300445556640625
1782984603390745900,1.541745849609375,-0.5750732421875,-0.8148040771484375,-0.028961181640625
1782984603400820000,1.551820068359375,-0.578765869140625,-0.8131256103515625,-0.0201263427734375
1782984603410894800,1.561894775390625,-0.5776824951171875,-0.8111419677734375,-0.0183258056640625
1782984603420969000,1.571968994140625,-0.5763702392578125,-0.8113250732421875,-0.017364501953125
1782984603431042800,1.582042724609375,-0.578399658203125,-0.8080902099609375,-0.0177001953125
1782984603441117000,1.592116943359375,-0.5809173583984375,-0.8062896728515625,-0.0215301513671875
1782984603451191000,1.60219091796875,-0.5799560546875,-0.8072509765625,-0.0250396728515625
1782984603461266000,1.612265869140625,-0.5760040283203125,-0.8062286376953125,-0.0207672119140625
1782984603471340000,1.622340087890625,-0.5723724365234375,-0.8035430908203125,-0.0164031982421875
1782984603481414000,1.632413818359375,-0.5725860595703125,-0.8082122802734375,-0.014312744140625
1782984603491488000,1.642488037109375,-0.5751800537109375,-0.8111114501953125,-0.0084991455078125
1782984603501561900,1.652561767578125,-0.5821685791015625,-0.8128204345703125,-0.010284423828125
1782984603511636000,1.662635986328125,-0.5848236083984375,-0.8186798095703125,-0.018524169921875
1782984603521710800,1.6727109375,-0.5850677490234375,-0.8173980712890625,-0.0189971923828125
1782984603531785000,1.682784912109375,-0.58819580078125,-0.818572998046875,-0.020263671875
1782984603541858800,1.69285888671875,-0.59234619140625,-0.81756591796875,-0.0205841064453125
1782984603551933000,1.702932861328125,-0.5973358154296875,-0.8119964599609375,-0.02252197265625
1782984603562007000,1.713007080078125,-0.5996856689453125,-0.81219482421875,-0.0248870849609375
1782984603572081000,1.723080810546875,-0.5970306396484375,-0.811981201171875,-0.0253753662109375
1782984603582156000,1.733156005859375,-0.5872039794921875,-0.80938720703125,-0.0225067138671875
1782984603592230000,1.74322998046875,-0.582183837890625,-0.8086395263671875,-0.0148162841796875
1782984603602304000,1.753303955078125,-0.576080322265625,-0.8053436279296875,-0.0125579833984375
1782984603612377900,1.7633779296875,-0.570037841796875,-0.80780029296875,-0.0130157470703125
1782984603622452000,1.773451904296875,-0.5642547607421875,-0.8071441650390625,-0.00653076171875
1782984603632525800,1.78352587890625,-0.5626220703125,-0.80584716796875,-0.004730224609375
1782984603642601000,1.79360107421875,-0.5650787353515625,-0.80657958984375,-0.0062255859375
1782984603652674800,1.8036748046875,-0.5632476806640625,-0.8064422607421875,-0.0094757080078125
1782984603662749000,1.8137490234375,-0.56512451171875,-0.80364990234375,-0.009002685546875
1782984603672823000,1.823822998046875,-0.570068359375,-0.8007354736328125,-0.009765625
1782984603682897000,1.83389697265625,-0.571380615234375,-0.8025970458984375,-0.0128936767578125
1782984603692972000,1.843971923828125,-0.5674591064453125,-0.804901123046875,-0.0118560791015625
1782984603703046000,1.8540458984375,-0.565826416015625,-0.8072357177734375,-0.012542724609375
1782984603713120000,1.8641201171875,-0.5679473876953125,-0.8120269775390625,-0.0149688720703125
1782984603723193900,1.87419384765625,-0.57550048828125,-0.81524658203125,-0.0149993896484375
1782984603733268000,1.88426806640625,-0.5814666748046875,-0.8162994384765625,-0.0170745849609375
1782984603743341800,1.894341796875,-0.5802154541015625,-0.817626953125,-0.0185089111328125
1782984603753417000,1.9044169921875,-0.5782318115234375,-0.8189239501953125,-0.0200347900390625
1782984603763490800,1.91449072265625,-0.5825347900390625,-0.8180084228515625,-0.0175933837890625
1782984603773565000,1.92456494140625,-0.5859222412109375,-0.81304931640625,-0.0222320556640625
1782984603783639000,1.93463916015625,-0.5768280029296875,-0.814666748046875,-0.021728515625
1782984603793713000,1.944712890625,-0.5756988525390625,-0.811614990234375,-0.0147857666015625
1782984603803787000,1.954787109375,-0.5756988525390625,-0.81072998046875,-0.0152130126953125
1782984603813862000,1.96486181640625,-0.5773468017578125,-0.8146209716796875,-0.016448974609375
1782984603823936000,1.97493603515625,-0.5828399658203125,-0.8115386962890625,-0.01812744140625
1782984603834009900,1.985009765625,-0.580596923828125,-0.8112945556640625,-0.0236663818359375
1782984603844084000,1.995083984375,-0.5810699462890625,-0.8092803955078125,-0.024932861328125
1782984603854157800,2.00515771484375,-0.576873779296875,-0.8105621337890625,-0.026153564453125
1782984603864233000,2.01523291015625,-0.5763702392578125,-0.812255859375,-0.0264434814453125
1782984603874306800,2.025306884765625,-0.578338623046875,-0.8082122802734375,-0.0235748291015625
1782984603884381000,2.035380859375,-0.5854034423828125,-0.80810546875,-0.0229339599609375
1782984603894455000,2.045455078125,-0.586517333984375,-0.8101806640625,-0.017120361328125
1782984603904529000,2.05552880859375,-0.5769500732421875,-0.8094329833984375,-0.0069732666015625
1782984603914603000,2.06560302734375,-0.575714111328125,-0.812164306640625,-0.0002899169921875
1782984603924678000,2.075677978515625,-0.5673370361328125,-0.812164306640625,0.0037994384765625
1782984603934752000,2.085751953125,-0.5564117431640625,-0.8121795654296875,0.005950927734375
1782984603944825900,2.095825927734375,-0.558837890625,-0.8134002685546875,-0.002777099609375
1782984603954900000,2.10589990234375,-0.5621795654296875,-0.8097076416015625,-0.01055908203125
1782984603964973600,2.1159736328125,-0.5643310546875,-0.8110198974609375,-0.017730712890625
1782984603975048000,2.1260478515625,-0.5747528076171875,-0.808197021484375,-0.0253753662109375
1782984603985122600,2.13612255859375,-0.58795166015625,-0.8101348876953125,-0.02777099609375
1782984603995197000,2.146197021484375,-0.596099853515625,-0.810791015625,-0.0312652587890625
1782984604005270800,2.156270751953125,-0.59124755859375,-0.8148040771484375,-0.0320281982421875
1782984604015345000,2.166344970703125,-0.5805816650390625,-0.8152313232421875,-0.0271148681640625
1782984604025418800,2.176418701171875,-0.570770263671875,-0.8147735595703125,-0.0254669189453125
1782984604035492900,2.186492919921875,-0.5653533935546875,-0.8137054443359375,-0.0216064453125
1782984604045567700,2.196567626953125,-0.5673980712890625,-0.8114166259765625,-0.023834228515625
1782984604055641900,2.206641845703125,-0.568206787109375,-0.8083953857421875,-0.02252197265625
1782984604065715700,2.2167158203125,-0.5693359375,-0.805999755859375,-0.020599365234375
1782984604075789600,2.22678955078125,-0.574951171875,-0.81072998046875,-0.0195770263671875
1782984604085864000,2.236864013671875,-0.579620361328125,-0.81121826171875,-0.0171051025390625
1782984604095938600,2.2469384765625,-0.5824737548828125,-0.8085784912109375,-0.020294189453125
1782984604106013000,2.257012939453125,-0.583892822265625,-0.811187744140625,-0.0222625732421875
1782984604116086800,2.267086669921875,-0.586944580078125,-0.8104248046875,-0.0211944580078125
1782984604126161000,2.277160888671875,-0.5851593017578125,-0.8138275146484375,-0.017913818359375
1782984604136234800,2.28723486328125,-0.5822601318359375,-0.8154754638671875,-0.0139312744140625
1782984604146308900,2.297308837890625,-0.582305908203125,-0.81109619140625,-0.0124664306640625
1782984604156383700,2.3073837890625,-0.5850372314453125,-0.81414794921875,-0.0167083740234375
1782984604166457900,2.317457763671875,-0.584716796875,-0.816192626953125,-0.0175933837890625
1782984604176531700,2.32753173828125,-0.5813140869140625,-0.812744140625,-0.0110626220703125
1782984604186605600,2.33760546875,-0.5759429931640625,-0.8101043701171875,-0.010589599609375
1782984604196680000,2.347679931640625,-0.57928466796875,-0.811309814453125,-0.0139007568359375
1782984604206753800,2.35775390625,-0.589935302734375,-0.8097381591796875,-0.0160675048828125
1782984604216829000,2.367828857421875,-0.587158203125,-0.8057403564453125,-0.0135955810546875
1782984604226902800,2.37790283203125,-0.5847930908203125,-0.8038177490234375,-0.0110626220703125
1782984604236977000,2.387976806640625,-0.5803680419921875,-0.805206298828125,-0.0095672607421875
1782984604247050800,2.39805078125,-0.5756683349609375,-0.8086700439453125,-0.0069732666015625
1782984604257124900,2.408124755859375,-0.5695648193359375,-0.8065338134765625,0.0002593994140625
1782984604267198700,2.41819873046875,-0.5695648193359375,-0.8095550537109375,0.0001373291015625
1782984604277273900,2.42827392578125,-0.572052001953125,-0.810882568359375,0.0018463134765625
1782984604287347700,2.43834765625,-0.568328857421875,-0.807373046875,0.0015106201171875
1782984604297421600,2.448421630859375,-0.564605712890625,-0.811187744140625,-0.0017547607421875
1782984604307496000,2.458495849609375,-0.5598297119140625,-0.815521240234375,-0.00225830078125
1782984604317569800,2.46856982421875,-0.5682525634765625,-0.81036376953125,-0.00555419921875
1782984604327644000,2.478643798828125,-0.5758819580078125,-0.81060791015625,-0.0164947509765625
1782984604337718800,2.48871875,-0.58538818359375,-0.81549072265625,-0.01800537109375
1782984604347793000,2.49879296875,-0.584197998046875,-0.8152618408203125,-0.021636962890625
1782984604357866800,2.50886669921875,-0.5796356201171875,-0.815521240234375,-0.0232696533203125
1782984604367940600,2.518940673828125,-0.5785980224609375,-0.8196563720703125,-0.02264404296875
1782984604378014700,2.5290146484375,-0.585906982421875,-0.8178253173828125,-0.0244293212890625
1782984604388089900,2.53908984375,-0.58551025390625,-0.8190460205078125,-0.0263519287109375
1782984604398163700,2.549163818359375,-0.5800323486328125,-0.8152008056640625,-0.0232086181640625
1782984604408237600,2.559237548828125,-0.574951171875,-0.814727783203125,-0.0223846435546875
1782984604418312000,2.56931201171875,-0.5709991455078125,-0.817596435546875,-0.025115966796875
1782984604428385800,2.5793857421875,-0.57489013671875,-0.8153228759765625,-0.028228759765625
1782984604438460000,2.5894599609375,-0.5833740234375,-0.8133697509765625,-0.025787353515625
1782984604448534800,2.59953466796875,-0.583892822265625,-0.8167724609375,-0.0259857177734375
1782984604458609000,2.60960888671875,-0.5768890380859375,-0.8165283203125,-0.0183258056640625
1782984604468682800,2.619682861328125,-0.5703277587890625,-0.8137969970703125,-0.0129852294921875
1782984604478756600,2.629756591796875,-0.5672454833984375,-0.8135223388671875,-0.0141143798828125
1782984604488830700,2.639830810546875,-0.57379150390625,-0.8173370361328125,-0.0152435302734375
1782984604498904800,2.64990478515625,-0.5825042724609375,-0.816650390625,-0.0116729736328125
1782984604508979700,2.659979736328125,-0.5816802978515625,-0.818267822265625,-0.017059326171875
1782984604519053800,2.6700537109375,-0.578125,-0.8138580322265625,-0.01849365234375
1782984604529128000,2.6801279296875,-0.57275390625,-0.8121795654296875,-0.0131072998046875
1782984604539201800,2.690201904296875,-0.5661163330078125,-0.8082275390625,-0.0157623291015625
1782984604549276000,2.70027587890625,-0.563507080078125,-0.8074188232421875,-0.0175018310546875
1782984604559350800,2.710350830078125,-0.567962646484375,-0.807647705078125,-0.0207977294921875
1782984604569425000,2.7204248046875,-0.5781707763671875,-0.8072509765625,-0.0239410400390625
1782984604579498800,2.730498779296875,-0.5869598388671875,-0.8073883056640625,-0.0315093994140625
1782984604589572600,2.740572509765625,-0.5950469970703125,-0.8085174560546875,-0.0276641845703125
1782984604599646700,2.750646728515625,-0.5992431640625,-0.81134033203125,-0.02191162109375
1782984604609720800,2.760720947265625,-0.5976715087890625,-0.8107147216796875,-0.016998291015625
1782984604619795700,2.770795654296875,-0.58905029296875,-0.8094329833984375,-0.0084228515625
1782984604629869800,2.780869873046875,-0.5764007568359375,-0.804351806640625,0.00311279296875
1782984604639944000,2.79094384765625,-0.56549072265625,-0.8020172119140625,0.0068359375
1782984604650017800,2.801017822265625,-0.5628204345703125,-0.795623779296875,0.00555419921875
1782984604660092000,2.811091796875,-0.56597900390625,-0.7937774658203125,-0.005035400390625
1782984604670165800,2.821165771484375,-0.57635498046875,-0.792388916015625,-0.0115814208984375
1782984604680241000,2.831240966796875,-0.5784759521484375,-0.7949676513671875,-0.016632080078125
1782984604690314800,2.841314697265625,-0.5785675048828125,-0.79669189453125,-0.0171356201171875
1782984604700388600,2.851388671875,-0.58807373046875,-0.7994384765625,-0.0139312744140625
1782984604710462700,2.861462646484375,-0.590362548828125,-0.80511474609375,-0.0108795166015625
1782984604720536800,2.871536865234375,-0.591644287109375,-0.8093109130859375,-0.006561279296875
1782984604730611000,2.88161083984375,-0.590423583984375,-0.811492919921875,-0.0083160400390625
1782984604740685800,2.891685791015625,-0.5859527587890625,-0.8130645751953125,-0.01025390625
1782984604750760000,2.901760009765625,-0.5831146240234375,-0.813232421875,-0.011138916015625
1782984604760833800,2.911833740234375,-0.5888824462890625,-0.8145904541015625,-0.011383056640625
1782984604770908000,2.921907958984375,-0.5887603759765625,-0.8157806396484375,-0.00958251953125
1782984604780981800,2.931981689453125,-0.587066650390625,-0.81707763671875,-0.004302978515625
1782984604791055600,2.9420556640625,-0.5826416015625,-0.8164215087890625,-0.0016632080078125
1782984604801130800,2.952130859375,-0.5772552490234375,-0.814910888671875,-0.002197265625
1782984604811204600,2.96220458984375,-0.5763092041015625,-0.815643310546875,-0.007568359375
1782984604821278700,2.97227880859375,-0.5809478759765625,-0.8184814453125,-0.00640869140625
1782984604831352800,2.982352783203125,-0.58038330078125,-0.8146514892578125,-0.0069580078125
1782984604841427000,2.992427001953125,-0.571014404296875,-0.8115386962890625,-0.00543212890625
1782984604851501800,3.002501708984375,-0.561798095703125,-0.811614990234375,-0.002685546875
1782984604861576000,3.012575927734375,-0.5603485107421875,-0.81170654296875,-0.000396728515625
1782984604871649800,3.02264990234375,-0.57171630859375,-0.811859130859375,-0.0021209716796875
1782984604881724000,3.032723876953125,-0.5780792236328125,-0.8099365234375,-0.00653076171875
1782984604891797800,3.0427978515625,-0.5758514404296875,-0.8126678466796875,-0.009246826171875
1782984604901871600,3.05287158203125,-0.5697479248046875,-0.811614990234375,-0.0057373046875
1782984604911946800,3.06294677734375,-0.5698394775390625,-0.8105621337890625,-0.007476806640625
1782984604922020600,3.0730205078125,-0.5699920654296875,-0.81097412109375,-0.00689697265625
1782984604932094700,3.0830947265625,-0.5720977783203125,-0.8101654052734375,-0.0061492919921875
1782984604942168800,3.0931689453125,-0.5741424560546875,-0.81304931640625,-0.0030059814453125
1782984604952243000,3.103242919921875,-0.5750579833984375,-0.810882568359375,0.001312255859375
1782984604962316800,3.11331689453125,-0.572845458984375,-0.8123626708984375,-0.003753662109375
1782984604972391400,3.123391357421875,-0.5740966796875,-0.81549072265625,-0.0070648193359375
1782984604982465300,3.13346533203125,-0.574005126953125,-0.815521240234375,-0.0037841796875
1782984604992539400,3.143539306640625,-0.573974609375,-0.814239501953125,-0.005279541015625
1782984605002613200,3.15361328125,-0.56451416015625,-0.8146514892578125,-0.004852294921875
1782984605012687000,3.16368701171875,-0.556610107421875,-0.8101348876953125,-0.0029449462890625
1782984605022761500,3.173761474609375,-0.5598602294921875,-0.80963134765625,-0.002777099609375
1782984605032836400,3.18383642578125,-0.56671142578125,-0.8138427734375,-0.007537841796875
1782984605042910500,3.193910400390625,-0.570098876953125,-0.8159637451171875,-0.0117340087890625
1782984605052984300,3.203984375,-0.570404052734375,-0.819915771484375,-0.010772705078125
1782984605063058400,3.214058349609375,-0.57550048828125,-0.822265625,-0.008453369140625
1782984605073132300,3.22413232421875,-0.5823516845703125,-0.8235321044921875,-0.0125885009765625
1782984605083207400,3.23420751953125,-0.58428955078125,-0.82452392578125,-0.0170440673828125
1782984605093281300,3.24428125,-0.579437255859375,-0.8222808837890625,-0.015380859375
1782984605103355400,3.25435546875,-0.574005126953125,-0.819000244140625,-0.0112762451171875
1782984605113429200,3.26442919921875,-0.57611083984375,-0.82025146484375,-0.0157623291015625
1782984605123503000,3.274503173828125,-0.5772705078125,-0.82196044921875,-0.0164947509765625
1782984605133577500,3.284577392578125,-0.5771942138671875,-0.8197784423828125,-0.0144500732421875
1782984605143652400,3.29465234375,-0.5721893310546875,-0.8182373046875,-0.0140838623046875
1782984605153726500,3.3047265625,-0.5653839111328125,-0.81719970703125,-0.0154571533203125
1782984605163800300,3.31480029296875,-0.571929931640625,-0.8150634765625,-0.012298583984375
1782984605173874400,3.32487451171875,-0.57647705078125,-0.813262939453125,-0.0132598876953125
1782984605183948300,3.3349482421875,-0.5819549560546875,-0.8150787353515625,-0.019500732421875
1782984605194022400,3.3450224609375,-0.5835723876953125,-0.8120880126953125,-0.01751708984375
1782984605204097300,3.35509716796875,-0.574371337890625,-0.8097381591796875,-0.0131378173828125
1782984605214171400,3.36517138671875,-0.562713623046875,-0.8109130859375,-0.0126800537109375
1782984605224245200,3.375245361328125,-0.5595245361328125,-0.8091888427734375,-0.0082855224609375
1782984605234319000,3.385319091796875,-0.558807373046875,-0.805816650390625,-0.0028228759765625
1782984605244393500,3.3953935546875,-0.56488037109375,-0.808929443359375,-0.006072998046875
1782984605254467300,3.40546728515625,-0.57574462890625,-0.8127288818359375,-0.0124359130859375
1782984605264542500,3.41554248046875,-0.5761566162109375,-0.813568115234375,-0.0125274658203125
1782984605274616300,3.4256162109375,-0.5731658935546875,-0.8112335205078125,-0.0126953125
1782984605284690400,3.4356904296875,-0.5714874267578125,-0.8107757568359375,-0.0195770263671875
1782984605294764300,3.445764404296875,-0.5747833251953125,-0.81317138671875,-0.02069091796875
1782984605304838400,3.45583837890625,-0.579864501953125,-0.8133392333984375,-0.0202789306640625
1782984605314912300,3.465912353515625,-0.5751800537109375,-0.8131103515625,-0.02044677734375
1782984605324987400,3.4759873046875,-0.5646820068359375,-0.81390380859375,-0.0186614990234375
1782984605335061200,3.486061279296875,-0.5653228759765625,-0.8105926513671875,-0.0195465087890625
1782984605345135000,3.496135009765625,-0.5626678466796875,-0.8091583251953125,-0.022674560546875
1782984605355209500,3.50620947265625,-0.5684814453125,-0.81005859375,-0.025543212890625
1782984605365283300,3.516283447265625,-0.572845458984375,-0.809967041015625,-0.0190277099609375
1782984605375357400,3.526357421875,-0.5705413818359375,-0.8113250732421875,-0.006500244140625
1782984605385432300,3.536432373046875,-0.570648193359375,-0.813690185546875,-0.0012054443359375
1782984605395506400,3.54650634765625,-0.5637664794921875,-0.8164215087890625,0.0015716552734375
1782984605405580300,3.556580322265625,-0.5565032958984375,-0.8173980712890625,0.0014801025390625
1782984605415654400,3.566654296875,-0.557464599609375,-0.8183746337890625,-0.0062408447265625
1782984605425728300,3.576728271484375,-0.5646514892578125,-0.8208160400390625,-0.01654052734375
1782984605435803400,3.586803466796875,-0.5694732666015625,-0.8270111083984375,-0.0182647705078125
1782984605445877200,3.596877197265625,-0.5725555419921875,-0.8199462890625,-0.022705078125
1782984605455951000,3.606951171875,-0.57769775390625,-0.8219451904296875,-0.02728271484375
1782984605466025500,3.617025390625,-0.5815582275390625,-0.8229217529296875,-0.0269012451171875
1782984605476099300,3.627099365234375,-0.57489013671875,-0.8230438232421875,-0.022735595703125
1782984605486173400,3.63717333984375,-0.572723388671875,-0.8232421875,-0.023040771484375
1782984605496248300,3.647248291015625,-0.5749969482421875,-0.8256378173828125,-0.024871826171875
1782984605506322400,3.657322509765625,-0.57049560546875,-0.8222808837890625,-0.025482177734375
1782984605516396300,3.667396240234375,-0.5634918212890625,-0.821868896484375,-0.021728515625
1782984605526470400,3.677470458984375,-0.56231689453125,-0.8226470947265625,-0.0192413330078125
1782984605536544300,3.687544189453125,-0.56597900390625,-0.820587158203125,-0.0192718505859375
1782984605546618000,3.6976181640625,-0.57177734375,-0.82073974609375,-0.01641845703125
1782984605556693200,3.707693359375,-0.5777587890625,-0.8185577392578125,-0.0175018310546875
1782984605566767000,3.71776708984375,-0.57623291015625,-0.814697265625,-0.0176544189453125
1782984605576841500,3.727841552734375,-0.5660552978515625,-0.816680908203125,-0.018463134765625
1782984605586915300,3.737915283203125,-0.56463623046875,-0.81793212890625,-0.013824462890625
1782984605596989400,3.747989501953125,-0.564971923828125,-0.8161468505859375,-0.0106048583984375
1782984605607063300,3.758063232421875,-0.5632476806640625,-0.8160858154296875,-0.0068511962890625
1782984605617138400,3.768138427734375,-0.5659942626953125,-0.8170623779296875,-0.0040283203125
1782984605627212300,3.77821240234375,-0.56817626953125,-0.8164520263671875,-0.006439208984375
1782984605637286400,3.788286376953125,-0.5720672607421875,-0.8154144287109375,-0.0068206787109375
1782984605647360300,3.7983603515625,-0.568389892578125,-0.8126678466796875,-0.008392333984375
1782984605657434000,3.80843408203125,-0.565643310546875,-0.814056396484375,-0.01171875
1782984605667508500,3.818508544921875,-0.5693206787109375,-0.8119659423828125,-0.0143280029296875
1782984605677583000,3.8285830078125,-0.5728912353515625,-0.8123931884765625,-0.01544189453125
1782984605687657500,3.838657470703125,-0.5807342529296875,-0.81304931640625,-0.0144805908203125
1782984605697731300,3.8487314453125,-0.584136962890625,-0.8115081787109375,-0.0157012939453125
1782984605707805400,3.858805419921875,-0.585052490234375,-0.8115081787109375,-0.0155792236328125
1782984605717879300,3.86887939453125,-0.57940673828125,-0.810546875,-0.0166015625
1782984605727954400,3.878954345703125,-0.572265625,-0.811798095703125,-0.01397705078125
1782984605738028300,3.8890283203125,-0.566314697265625,-0.8133697509765625,-0.0084075927734375
1782984605748102400,3.899102294921875,-0.56256103515625,-0.8123321533203125,-0.0122528076171875
1782984605758176300,3.90917626953125,-0.565277099609375,-0.8140106201171875,-0.012481689453125
1782984605768250000,3.91925,-0.5738372802734375,-0.8118133544921875,-0.013702392578125
1782984605778324500,3.929324462890625,-0.5762176513671875,-0.810577392578125,-0.0156402587890625
1782984605788399000,3.939399169921875,-0.5717620849609375,-0.8157196044921875,-0.0164947509765625
1782984605798473500,3.949473388671875,-0.57037353515625,-0.8162841796875,-0.017181396484375
1782984605808547300,3.95954736328125,-0.5661773681640625,-0.8136444091796875,-0.0181884765625
1782984605818621400,3.969621337890625,-0.5631256103515625,-0.8106689453125,-0.0181884765625
1782984605828695300,3.9796953125,-0.5625,-0.8092803955078125,-0.0174407958984375
1782984605838769400,3.989769287109375,-0.5663909912109375,-0.811370849609375,-0.0183563232421875
1782984605848843300,3.99984326171875,-0.570404052734375,-0.808990478515625,-0.0175323486328125
1782984605858917000,4.009917236328125,-0.574920654296875,-0.8092193603515625,-0.0238800048828125
1782984605868991500,4.019991455078125,-0.5726776123046875,-0.81298828125,-0.0230255126953125
1782984605879065300,4.0300654296875,-0.5748443603515625,-0.8125152587890625,-0.0222930908203125
1782984605889139500,4.040139404296875,-0.57489013671875,-0.81439208984375,-0.020233154296875
1782984605899214300,4.05021435546875,-0.57196044921875,-0.8155517578125,-0.0175628662109375
1782984605909288400,4.060288330078125,-0.5684814453125,-0.8159942626953125,-0.016937255859375
1782984605919362300,4.0703623046875,-0.56597900390625,-0.814178466796875,-0.0131378173828125
1782984605929436200,4.080436279296875,-0.5634765625,-0.8123626708984375,-0.013885498046875
1782984605939510300,4.09051025390625,-0.5599212646484375,-0.8104400634765625,-0.017974853515625
1782984605949584100,4.100584228515625,-0.557586669921875,-0.811004638671875,-0.0160980224609375
1782984605959659300,4.1106591796875,-0.565704345703125,-0.806671142578125,-0.016815185546875
1782984605969734000,4.12073388671875,-0.57403564453125,-0.8107757568359375,-0.0217437744140625
1782984605979807700,4.130807861328125,-0.5783233642578125,-0.81158447265625,-0.017791748046875
1782984605989882000,4.140882080078125,-0.5725250244140625,-0.8108367919921875,-0.0145263671875
1782984605999956000,4.1509560546875,-0.57220458984375,-0.815521240234375,-0.012969970703125
1782984606010029800,4.16102978515625,-0.571624755859375,-0.8188629150390625,-0.01593017578125
1782984606020105000,4.17110498046875,-0.578155517578125,-0.8137054443359375,-0.018585205078125
1782984606030179000,4.181178955078125,-0.5802001953125,-0.8159942626953125,-0.0208892822265625
1782984606040253000,4.1912529296875,-0.5795135498046875,-0.8171844482421875,-0.021575927734375
1782984606050326800,4.201326904296875,-0.5836944580078125,-0.8206939697265625,-0.021240234375
1782984606060401000,4.21140087890625,-0.5811920166015625,-0.8181915283203125,-0.023284912109375
1782984606070474800,4.221474853515625,-0.5953521728515625,-0.813262939453125,-0.0333709716796875
1782984606080550000,4.2315498046875,-0.6021575927734375,-0.8120269775390625,-0.030242919921875
1782984606090623700,4.241623779296875,-0.607177734375,-0.8113555908203125,-0.02447509765625
1782984606100698000,4.251697998046875,-0.6103668212890625,-0.812255859375,-0.019287109375
1782984606110772000,4.26177197265625,-0.5982513427734375,-0.81134033203125,-0.0160675048828125
1782984606120845800,4.271845703125,-0.578887939453125,-0.8083343505859375,-0.005218505859375
1782984606130921000,4.2819208984375,-0.5685882568359375,-0.801910400390625,-0.00421142578125
1782984606140995000,4.2919951171875,-0.5680694580078125,-0.800018310546875,-0.0111236572265625
1782984606151069000,4.30206884765625,-0.571685791015625,-0.7981414794921875,-0.0221099853515625
1782984606161142800,4.312142822265625,-0.5783538818359375,-0.7965850830078125,-0.024505615234375
1782984606171217000,4.322216796875,-0.5879058837890625,-0.7987823486328125,-0.0331268310546875
1782984606181290800,4.332290771484375,-0.58941650390625,-0.800994873046875,-0.0329742431640625
1782984606191366000,4.342365966796875,-0.5864105224609375,-0.8015899658203125,-0.034210205078125
1782984606201439700,4.352439697265625,-0.576171875,-0.8024749755859375,-0.0261688232421875
1782984606211514000,4.36251416015625,-0.56634521484375,-0.8061981201171875,-0.0223541259765625
1782984606221588000,4.372587890625,-0.563140869140625,-0.8074798583984375,-0.0218048095703125
1782984606231663000,4.3826630859375,-0.5643768310546875,-0.8050689697265625,-0.019256591796875
1782984606241737000,4.392737060546875,-0.5700531005859375,-0.8066253662109375,-0.0211029052734375
1782984606251810800,4.402810791015625,-0.5885772705078125,-0.8114166259765625,-0.0216827392578125
1782984606261885000,4.412885009765625,-0.6012420654296875,-0.8171234130859375,-0.02398681640625
1782984606271958800,4.422958740234375,-0.5947723388671875,-0.819854736328125,-0.020172119140625
1782984606282033000,4.433032958984375,-0.5780181884765625,-0.814453125,-0.0182342529296875
1782984606292107800,4.443107666015625,-0.564544677734375,-0.815460205078125,-0.0200653076171875
1782984606302182000,4.453181884765625,-0.5685577392578125,-0.8160858154296875,-0.02001953125
1782984606312255700,4.463255859375,-0.5743560791015625,-0.8114471435546875,-0.0245361328125
1782984606322330000,4.473330078125,-0.5760650634765625,-0.811004638671875,-0.0278472900390625
1782984606332404000,4.483404052734375,-0.59027099609375,-0.8060150146484375,-0.0253753662109375
1782984606342477800,4.493477783203125,-0.5947418212890625,-0.8074493408203125,-0.02587890625
1782984606352553000,4.503552978515625,-0.5944366455078125,-0.8079833984375,-0.022125244140625
1782984606362626800,4.513626708984375,-0.5831451416015625,-0.8044891357421875,-0.0167236328125
1782984606372701000,4.523700927734375,-0.568817138671875,-0.80450439453125,-0.010284423828125
1782984606382774800,4.53377490234375,-0.5655517578125,-0.80712890625,-0.018585205078125
1782984606392849000,4.543848876953125,-0.5736236572265625,-0.8044586181640625,-0.0235137939453125
1782984606402922800,4.5539228515625,-0.5683441162109375,-0.805908203125,-0.022186279296875
1782984606412998000,4.563997802734375,-0.5731201171875,-0.8054656982421875,-0.0196685791015625
1782984606423071700,4.57407177734375,-0.5827789306640625,-0.8088531494140625,-0.02301025390625
1782984606433146000,4.58414599609375,-0.5888671875,-0.8113250732421875,-0.022369384765625
1782984606443220000,4.594219970703125,-0.5882110595703125,-0.8194580078125,-0.022216796875
1782984606453293800,4.6042939453125,-0.5843658447265625,-0.819305419921875,-0.021148681640625
1782984606463368000,4.614367919921875,-0.5767822265625,-0.818939208984375,-0.0162200927734375
1782984606473442800,4.62444287109375,-0.573760986328125,-0.8207855224609375,-0.0131378173828125
1782984606483517000,4.634516845703125,-0.5689544677734375,-0.819061279296875,-0.0135345458984375
1782984606493590800,4.6445908203125,-0.563201904296875,-0.8169403076171875,-0.0121002197265625
1782984606503665000,4.654664794921875,-0.5594482421875,-0.8157958984375,-0.0110321044921875
1782984606513738800,4.66473876953125,-0.5603179931640625,-0.8179473876953125,-0.013763427734375
1782984606523813000,4.674813232421875,-0.5634918212890625,-0.819915771484375,-0.0169677734375
1782984606533887700,4.6848876953125,-0.5663299560546875,-0.819976806640625,-0.0166473388671875
1782984606543962000,4.694962158203125,-0.5697479248046875,-0.8235931396484375,-0.0168914794921875
1782984606554036000,4.705035888671875,-0.571533203125,-0.82232666015625,-0.02044677734375
1782984606564109800,4.71510986328125,-0.5689239501953125,-0.8232879638671875,-0.0206146240234375
1782984606574184000,4.725183837890625,-0.5704193115234375,-0.8203582763671875,-0.0225067138671875
1782984606584257800,4.7352578125,-0.5700531005859375,-0.82061767578125,-0.0224609375
1782984606594333000,4.7453330078125,-0.5597686767578125,-0.818817138671875,-0.021820068359375
1782984606604406800,4.75540673828125,-0.55474853515625,-0.8142852783203125,-0.01873779296875
1782984606614481000,4.76548095703125,-0.55291748046875,-0.8136138916015625,-0.020050048828125
1782984606624554800,4.7755546875,-0.55755615234375,-0.8142547607421875,-0.019775390625
1782984606634629000,4.785629150390625,-0.5618133544921875,-0.8120880126953125,-0.0180511474609375
1782984606644703700,4.795703857421875,-0.56976318359375,-0.8154449462890625,-0.018707275390625
1782984606654778000,4.805778076171875,-0.5796966552734375,-0.81658935546875,-0.01812744140625
1782984606664852000,4.81585205078125,-0.577362060546875,-0.820404052734375,-0.0192718505859375
1782984606674925800,4.82592578125,-0.5727996826171875,-0.820892333984375,-0.0196685791015625
1782984606685000000,4.836,-0.566986083984375,-0.819183349609375,-0.016448974609375
1782984606695073800,4.84607373046875,-0.5688323974609375,-0.81866455078125,-0.02294921875
1782984606705149000,4.85614892578125,-0.5758209228515625,-0.815521240234375,-0.0255889892578125
1782984606715222800,4.866222900390625,-0.5776824951171875,-0.810089111328125,-0.0279083251953125
1782984606725297000,4.876296875,-0.573089599609375,-0.8123779296875,-0.0264129638671875
1782984606735370800,4.886370849609375,-0.5590972900390625,-0.8137054443359375,-0.03045654296875
1782984606745445000,4.896445068359375,-0.564239501953125,-0.8112335205078125,-0.03582763671875
1782984606755519000,4.90651904296875,-0.5688018798828125,-0.8115997314453125,-0.03570556640625
1782984606765594000,4.916593994140625,-0.5742645263671875,-0.8119049072265625,-0.031280517578125
1782984606775668000,4.92666796875,-0.5796356201171875,-0.8115081787109375,-0.0245361328125
1782984606785741800,4.936741943359375,-0.5793304443359375,-0.813079833984375,-0.017181396484375
1782984606795816000,4.94681591796875,-0.57330322265625,-0.8140716552734375,-0.0063934326171875
1782984606805889800,4.956889892578125,-0.5649261474609375,-0.8166961669921875,-0.000732421875
1782984606815964000,4.9669638671875,-0.5570220947265625,-0.817291259765625,-0.0047454833984375
1782984606826038800,4.977038818359375,-0.5530242919921875,-0.81573486328125,-0.010894775390625
1782984606836113000,4.98711279296875,-0.556549072265625,-0.8121337890625,-0.017181396484375
1782984606846186800,4.997186767578125,-0.56378173828125,-0.81182861328125,-0.025848388671875
1782984606856261000,5.00726123046875,-0.5699462890625,-0.8103485107421875,-0.028533935546875
1782984606866335000,5.0173349609375,-0.5766143798828125,-0.8132171630859375,-0.0297698974609375
1782984606876408800,5.027408935546875,-0.5731201171875,-0.816802978515625,-0.030914306640625
1782984606886484000,5.03748388671875,-0.5688629150390625,-0.819549560546875,-0.0255126953125
1782984606896557800,5.047557861328125,-0.5625457763671875,-0.8213043212890625,-0.01971435546875
1782984606906632000,5.0576318359375,-0.5621490478515625,-0.825286865234375,-0.0207061767578125
1782984606916705800,5.067705810546875,-0.569854736328125,-0.8289794921875,-0.024688720703125
1782984606926780000,5.07777978515625,-0.581329345703125,-0.8282928466796875,-0.0237884521484375
1782984606936853800,5.087853759765625,-0.5821685791015625,-0.82830810546875,-0.02362060546875
1782984606946929000,5.097928955078125,-0.573028564453125,-0.8241119384765625,-0.0187835693359375
1782984606957002800,5.108002685546875,-0.5677490234375,-0.8211822509765625,-0.0160064697265625
1782984606967077000,5.1180771484375,-0.567840576171875,-0.8210906982421875,-0.016143798828125
1782984606977150700,5.128150634765625,-0.566925048828125,-0.81744384765625,-0.0236968994140625
1782984606987224600,5.138224609375,-0.5685882568359375,-0.81524658203125,-0.025360107421875
1782984606997299700,5.1482998046875,-0.5694427490234375,-0.8143768310546875,-0.025238037109375
1782984607007373600,5.15837353515625,-0.561981201171875,-0.8121337890625,-0.024993896484375
1782984607017447400,5.168447509765625,-0.5538330078125,-0.80950927734375,-0.016937255859375
1782984607027521500,5.178521484375,-0.551727294921875,-0.805389404296875,-0.011505126953125
1782984607037595400,5.188595458984375,-0.5529022216796875,-0.810699462890625,-0.0117645263671875
1782984607047669800,5.198669677734375,-0.563995361328125,-0.8115692138671875,-0.01702880859375
1782984607057744400,5.208744384765625,-0.57489013671875,-0.8142547607421875,-0.0204925537109375
1782984607067818800,5.21881884765625,-0.5808563232421875,-0.813812255859375,-0.024322509765625
1782984607077892600,5.228892578125,-0.5799560546875,-0.8134765625,-0.0281219482421875
1782984607087966700,5.238966796875,-0.5711822509765625,-0.8180999755859375,-0.0300750732421875
1782984607098040600,5.24904052734375,-0.5724945068359375,-0.820556640625,-0.0297393798828125
1782984607108114400,5.259114501953125,-0.5878448486328125,-0.815948486328125,-0.030731201171875
1782984607118189600,5.269189453125,-0.586883544921875,-0.81622314453125,-0.0301971435546875
1782984607128263400,5.279263427734375,-0.5798187255859375,-0.8174285888671875,-0.0305633544921875
1782984607138337500,5.289337646484375,-0.5786895751953125,-0.815093994140625,-0.020416259765625
1782984607148411400,5.299411376953125,-0.579864501953125,-0.8140716552734375,-0.015899658203125
1782984607158485800,5.30948583984375,-0.5805511474609375,-0.817626953125,-0.017120361328125
1782984607168559600,5.3195595703125,-0.5830230712890625,-0.818115234375,-0.015838623046875
1782984607178634800,5.329634765625,-0.576507568359375,-0.8134765625,-0.0137786865234375
1782984607188708600,5.33970849609375,-0.574462890625,-0.8148956298828125,-0.0130615234375
1782984607198782700,5.34978271484375,-0.57159423828125,-0.815948486328125,-0.0115966796875
1782984607208856600,5.359856689453125,-0.5761871337890625,-0.812408447265625,-0.013214111328125
1782984607218930400,5.369930419921875,-0.57855224609375,-0.8111419677734375,-0.01739501953125
1782984607229004500,5.380004638671875,-0.5740814208984375,-0.8122406005859375,-0.0157318115234375
1782984607239079400,5.390079345703125,-0.57366943359375,-0.8107147216796875,-0.015869140625
1782984607249153500,5.400153564453125,-0.5682373046875,-0.8099365234375,-0.0155487060546875
1782984607259227400,5.410227294921875,-0.5679473876953125,-0.81292724609375,-0.012847900390625
1782984607269301800,5.4203017578125,-0.5715484619140625,-0.8122100830078125,-0.0117645263671875
1782984607279375600,5.430375732421875,-0.5675506591796875,-0.8145294189453125,-0.0130157470703125
1782984607289450800,5.44045068359375,-0.564910888671875,-0.8133087158203125,-0.013458251953125
1782984607299524600,5.450524658203125,-0.5621185302734375,-0.8105010986328125,-0.0124969482421875
1782984607309598700,5.4605986328125,-0.5620269775390625,-0.8098907470703125,-0.016693115234375
1782984607319672600,5.470672607421875,-0.563873291015625,-0.8101043701171875,-0.0180206298828125
1782984607329746400,5.480746337890625,-0.5617218017578125,-0.8115386962890625,-0.020751953125
1782984607339820500,5.490820556640625,-0.5646820068359375,-0.80938720703125,-0.0172119140625
1782984607349895400,5.5008955078125,-0.5688323974609375,-0.814056396484375,-0.0142974853515625
1782984607359969500,5.510969482421875,-0.569366455078125,-0.820220947265625,-0.014923095703125
1782984607370043400,5.52104345703125,-0.5773468017578125,-0.8227996826171875,-0.0179901123046875
1782984607380117800,5.53111767578125,-0.575408935546875,-0.828399658203125,-0.024200439453125
1782984607390191600,5.541191650390625,-0.5727386474609375,-0.8281402587890625,-0.0291748046875
1782984607400265500,5.551265380859375,-0.578887939453125,-0.821044921875,-0.03143310546875
1782984607410340600,5.561340576171875,-0.578155517578125,-0.8200225830078125,-0.037445068359375
1782984607420414700,5.571414794921875,-0.5716552734375,-0.818084716796875,-0.037200927734375
1782984607430488600,5.581488525390625,-0.57537841796875,-0.81396484375,-0.027191162109375
1782984607440562400,5.5915625,-0.5779266357421875,-0.815185546875,-0.019927978515625
1782984607450636500,5.601636474609375,-0.5851287841796875,-0.818328857421875,-0.011322021484375
1782984607460710400,5.61171044921875,-0.5818939208984375,-0.821044921875,-0.004974365234375
1782984607470785500,5.62178564453125,-0.56396484375,-0.821929931640625,-0.0040130615234375
1782984607480859400,5.631859375,-0.5538177490234375,-0.817901611328125,-0.0054473876953125
1782984607490933800,5.641933837890625,-0.5491790771484375,-0.812042236328125,-0.0133819580078125
1782984607501007600,5.652007568359375,-0.54486083984375,-0.8073883056640625,-0.01971435546875
1782984607511081500,5.66208154296875,-0.558197021484375,-0.8076171875,-0.023162841796875
1782984607521155600,5.672155517578125,-0.5648956298828125,-0.8091278076171875,-0.0277252197265625
1782984607531230700,5.682230712890625,-0.563232421875,-0.806976318359375,-0.0340576171875
1782984607541304600,5.6923046875,-0.5629730224609375,-0.81146240234375,-0.03143310546875
1782984607551378400,5.70237841796875,-0.566986083984375,-0.8115692138671875,-0.0265350341796875
1782984607561452500,5.71245263671875,-0.569915771484375,-0.815399169921875,-0.02777099609375
1782984607571526400,5.7225263671875,-0.5694580078125,-0.8186187744140625,-0.026763916015625
1782984607581600800,5.732600830078125,-0.5686798095703125,-0.8209228515625,-0.0242919921875
1782984607591675400,5.74267529296875,-0.571319580078125,-0.822418212890625,-0.02001953125
1782984607601749800,5.752749755859375,-0.572509765625,-0.820068359375,-0.02081298828125
1782984607611823600,5.76282373046875,-0.5677032470703125,-0.8219451904296875,-0.0185394287109375
1782984607621897500,5.7728974609375,-0.5663604736328125,-0.82373046875,-0.010894775390625
1782984607631971600,5.7829716796875,-0.5636444091796875,-0.8206634521484375,-0.0096588134765625
1782984607642045400,5.79304541015625,-0.558319091796875,-0.8212738037109375,-0.0143280029296875
1782984607652120600,5.80312060546875,-0.5599212646484375,-0.819610595703125,-0.0146484375
1782984607662194400,5.8131943359375,-0.5609588623046875,-0.8169708251953125,-0.015106201171875
1782984607672268500,5.8232685546875,-0.5569000244140625,-0.8155364990234375,-0.0156097412109375
1782984607682342700,5.8333427734375,-0.5631103515625,-0.8152313232421875,-0.014129638671875
1782984607692416800,5.843416748046875,-0.568511962890625,-0.81390380859375,-0.0183258056640625
1782984607702491600,5.85349169921875,-0.5662384033203125,-0.8130340576171875,-0.0197906494140625
1782984607712565800,5.863565673828125,-0.5689697265625,-0.8135223388671875,-0.0198516845703125
1782984607722639600,5.8736396484375,-0.570770263671875,-0.8164825439453125,-0.0215301513671875
1782984607732713500,5.88371337890625,-0.57427978515625,-0.815338134765625,-0.021728515625
1782984607742787600,5.89378759765625,-0.5771942138671875,-0.817779541015625,-0.023040771484375
1782984607752861400,5.903861328125,-0.5792694091796875,-0.8204193115234375,-0.024749755859375
1782984607762936600,5.9139365234375,-0.5767669677734375,-0.8198394775390625,-0.025360107421875
1782984607773010400,5.924010498046875,-0.570037841796875,-0.8176116943359375,-0.021148681640625
1782984607783084500,5.93408447265625,-0.5711822509765625,-0.8165283203125,-0.0219268798828125
1782984607793158700,5.94415869140625,-0.575653076171875,-0.8158416748046875,-0.0213470458984375
1782984607803232800,5.954232666015625,-0.5809173583984375,-0.812835693359375,-0.01947021484375
1782984607813306600,5.964306640625,-0.572235107421875,-0.8140106201171875,-0.022796630859375
1782984607823381800,5.9743818359375,-0.5659027099609375,-0.8133392333984375,-0.020111083984375
1782984607833455600,5.98445556640625,-0.5681304931640625,-0.812896728515625,-0.020111083984375
1782984607843529500,5.994529541015625,-0.572296142578125,-0.8122100830078125,-0.0175018310546875
1782984607853603600,6.004603515625,-0.5769805908203125,-0.8111572265625,-0.0230255126953125
1782984607863677400,6.014677490234375,-0.572601318359375,-0.8146514892578125,-0.02978515625
1782984607873751600,6.02475146484375,-0.5738067626953125,-0.81195068359375,-0.0294189453125
1782984607883826400,6.034826416015625,-0.5704803466796875,-0.810272216796875,-0.0333251953125
1782984607893900500,6.044900634765625,-0.5653076171875,-0.805419921875,-0.0323638916015625
1782984607903974700,6.054974609375,-0.5691986083984375,-0.80810546875,-0.0284423828125
1782984607914048800,6.065048828125,-0.573822021484375,-0.81243896484375,-0.030609130859375
1782984607924122600,6.07512255859375,-0.5744171142578125,-0.811004638671875,-0.0337982177734375
1782984607934196500,6.085196533203125,-0.5729827880859375,-0.8113250732421875,-0.0329437255859375
1782984607944271600,6.095271728515625,-0.5733642578125,-0.8109588623046875,-0.02923583984375
1782984607954345500,6.105345458984375,-0.5689697265625,-0.81170654296875,-0.0297088623046875
1782984607964419600,6.115419677734375,-0.564361572265625,-0.80816650390625,-0.0273284912109375
1782984607974494200,6.125494140625,-0.5699310302734375,-0.8110198974609375,-0.02996826171875
1782984607984568000,6.135568115234375,-0.5716552734375,-0.8164825439453125,-0.0294036865234375
1782984607994642200,6.14564208984375,-0.576324462890625,-0.817413330078125,-0.0344390869140625
1782984608004717000,6.155717041015625,-0.5775909423828125,-0.82110595703125,-0.0359344482421875
1782984608014791200,6.165791259765625,-0.5723419189453125,-0.82049560546875,-0.0328216552734375
1782984608024865000,6.175864990234375,-0.567718505859375,-0.819580078125,-0.0342864990234375
1782984608034939100,6.185939208984375,-0.564788818359375,-0.8197479248046875,-0.032501220703125
1782984608045013200,6.19601318359375,-0.5704803466796875,-0.819061279296875,-0.0352020263671875
1782984608055088000,6.206088134765625,-0.5721282958984375,-0.82147216796875,-0.0387115478515625
1782984608065162200,6.216162353515625,-0.5753936767578125,-0.818756103515625,-0.037872314453125
1782984608075236000,6.226236083984375,-0.581268310546875,-0.8179168701171875,-0.03887939453125
1782984608085310200,6.236310302734375,-0.5852813720703125,-0.8178253173828125,-0.03729248046875
1782984608095384000,6.246384033203125,-0.580718994140625,-0.8159332275390625,-0.032501220703125
1782984608105458200,6.256458251953125,-0.5829620361328125,-0.818511962890625,-0.026947021484375
1782984608115533000,6.266532958984375,-0.5838470458984375,-0.816436767578125,-0.021209716796875
1782984608125607200,6.276607177734375,-0.57611083984375,-0.816070556640625,-0.0166778564453125
1782984608135681300,6.286681396484375,-0.5745086669921875,-0.81640625,-0.0167083740234375
1782984608145755100,6.296755126953125,-0.568450927734375,-0.8125457763671875,-0.01885986328125
1782984608155829200,6.306829345703125,-0.5640716552734375,-0.8103179931640625,-0.027374267578125
1782984608165903000,6.316903076171875,-0.5625,-0.8070831298828125,-0.0281219482421875
1782984608175978200,6.326978271484375,-0.5677490234375,-0.8043212890625,-0.034881591796875
1782984608186052000,6.337052001953125,-0.5768280029296875,-0.8031158447265625,-0.04241943359375
1782984608196126200,6.347126220703125,-0.5820770263671875,-0.8072509765625,-0.03790283203125
1782984608206200000,6.357199951171875,-0.5865936279296875,-0.8084564208984375,-0.0336151123046875
1782984608216274200,6.367274169921875,-0.5773468017578125,-0.8145904541015625,-0.0342254638671875
1782984608226348300,6.377348388671875,-0.57763671875,-0.8147430419921875,-0.029815673828125
1782984608236423200,6.387423095703125,-0.5780792236328125,-0.8119049072265625,-0.029876708984375
1782984608246497300,6.397497314453125,-0.5718536376953125,-0.8121490478515625,-0.03558349609375
1782984608256571100,6.407571044921875,-0.5774383544921875,-0.8087158203125,-0.0335540771484375
1782984608266645200,6.417645263671875,-0.5825347900390625,-0.8109130859375,-0.030731201171875
1782984608276719000,6.427718994140625,-0.5781402587890625,-0.8135986328125,-0.025634765625
1782984608286793200,6.437793212890625,-0.5677947998046875,-0.8148040771484375,-0.025665283203125
1782984608296868000,6.4478681640625,-0.5653839111328125,-0.813720703125,-0.0244598388671875
1782984608306942200,6.457942138671875,-0.5710296630859375,-0.809326171875,-0.0299224853515625
1782984608317016000,6.46801611328125,-0.5788116455078125,-0.8075714111328125,-0.03515625
1782984608327090200,6.478090087890625,-0.58087158203125,-0.8081207275390625,-0.029296875
1782984608337164300,6.488164306640625,-0.57861328125,-0.808502197265625,-0.028656005859375
1782984608347238100,6.498238037109375,-0.572601318359375,-0.81365966796875,-0.02337646484375
1782984608357313300,6.508313232421875,-0.5693511962890625,-0.8139190673828125,-0.0229339599609375
1782984608367387100,6.51838720703125,-0.573394775390625,-0.8155517578125,-0.0218353271484375
1782984608377461200,6.528461181640625,-0.5786285400390625,-0.81500244140625,-0.023162841796875
1782984608387535000,6.53853515625,-0.585479736328125,-0.8150177001953125,-0.027679443359375
1782984608397609200,6.548609130859375,-0.5918426513671875,-0.814361572265625,-0.0299072265625
1782984608407683000,6.55868310546875,-0.5880279541015625,-0.8136749267578125,-0.03106689453125
1782984608417758200,6.56875830078125,-0.5828094482421875,-0.8119659423828125,-0.028167724609375
1782984608427832000,6.57883203125,-0.5773773193359375,-0.8094024658203125,-0.0247344970703125
1782984608437906200,6.58890625,-0.57476806640625,-0.811614990234375,-0.02496337890625
1782984608447980300,6.598980224609375,-0.5719757080078125,-0.8084716796875,-0.01983642578125
1782984608458054100,6.60905419921875,-0.5672454833984375,-0.805816650390625,-0.0208740234375
1782984608468129300,6.61912939453125,-0.566497802734375,-0.8046722412109375,-0.022735595703125
1782984608478203100,6.629203125,-0.565032958984375,-0.8059234619140625,-0.0257568359375
1782984608488277200,6.63927734375,-0.568359375,-0.808807373046875,-0.0233612060546875
1782984608498351000,6.64935107421875,-0.573944091796875,-0.80859375,-0.0240478515625
1782984608508425200,6.65942529296875,-0.5817108154296875,-0.8122100830078125,-0.026123046875
1782984608518499000,6.6694990234375,-0.5890350341796875,-0.8162384033203125,-0.030853271484375
1782984608528574200,6.67957421875,-0.5894927978515625,-0.8150634765625,-0.028594970703125
1782984608538648000,6.68964794921875,-0.58428955078125,-0.811737060546875,-0.02667236328125
1782984608548722200,6.69972216796875,-0.5821685791015625,-0.812286376953125,-0.0263824462890625
1782984608558796300,6.70979638671875,-0.5770416259765625,-0.8119049072265625,-0.0244293212890625
1782984608568870100,6.7198701171875,-0.573486328125,-0.8104095458984375,-0.0242767333984375
1782984608578944300,6.7299443359375,-0.568939208984375,-0.807342529296875,-0.02520751953125
1782984608589019100,6.74001904296875,-0.560821533203125,-0.8072662353515625,-0.02191162109375
1782984608599093200,6.75009326171875,-0.56500244140625,-0.808746337890625,-0.02490234375
1782984608609167000,6.7601669921875,-0.5769500732421875,-0.8059539794921875,-0.025634765625
1782984608619241200,6.7702412109375,-0.5807342529296875,-0.807464599609375,-0.0274505615234375
1782984608629315000,6.780315185546875,-0.58013916015625,-0.8072052001953125,-0.0309906005859375
1782984608639389000,6.790388916015625,-0.58306884765625,-0.81109619140625,-0.0344085693359375
1782984608649464000,6.800464111328125,-0.5843963623046875,-0.814666748046875,-0.03436279296875
1782984608659538200,6.8105380859375,-0.5918426513671875,-0.8190155029296875,-0.0356292724609375
1782984608669612300,6.8206123046875,-0.5900726318359375,-0.816162109375,-0.0334930419921875
1782984608679686100,6.83068603515625,-0.580657958984375,-0.813232421875,-0.032562255859375
1782984608689760300,6.84076025390625,-0.57818603515625,-0.8121185302734375,-0.0302886962890625
1782984608699834000,6.850834228515625,-0.5749969482421875,-0.810516357421875,-0.0316009521484375
1782984608709909200,6.8609091796875,-0.57611083984375,-0.808197021484375,-0.0292816162109375
1782984608719983000,6.870983154296875,-0.5759124755859375,-0.8055572509765625,-0.025238037109375
1782984608730057200,6.88105712890625,-0.5724639892578125,-0.8097381591796875,-0.0286102294921875
1782984608740131000,6.891131103515625,-0.57135009765625,-0.81103515625,-0.027435302734375
1782984608750205000,6.901204833984375,-0.57025146484375,-0.8094024658203125,-0.0252532958984375
1782984608760279300,6.911279296875,-0.5732879638671875,-0.8107147216796875,-0.0240478515625
1782984608770354200,6.921354248046875,-0.5770263671875,-0.81158447265625,-0.023223876953125
1782984608780428300,6.93142822265625,-0.575775146484375,-0.810882568359375,-0.021270751953125
1782984608790502100,6.941502197265625,-0.5729827880859375,-0.8097381591796875,-0.020660400390625
1782984608800576300,6.951576171875,-0.5741729736328125,-0.8100128173828125,-0.0202789306640625
1782984608810650000,6.961650146484375,-0.5785369873046875,-0.812347412109375,-0.0189971923828125
1782984608820724200,6.97172412109375,-0.5809783935546875,-0.8157958984375,-0.0189666748046875
1782984608830799000,6.981799072265625,-0.58184814453125,-0.816009521484375,-0.019317626953125
1782984608840873200,6.991873291015625,-0.5856781005859375,-0.81292724609375,-0.0224151611328125
1782984608850947000,7.001947021484375,-0.5763397216796875,-0.8136749267578125,-0.0218048095703125
1782984608861021000,7.01202099609375,-0.57275390625,-0.813018798828125,-0.020965576171875
1782984608871095300,7.02209521484375,-0.5718231201171875,-0.8130340576171875,-0.024932861328125
1782984608881170200,7.032170166015625,-0.5659942626953125,-0.8139495849609375,-0.0273895263671875
1782984608891244300,7.042244384765625,-0.567413330078125,-0.8116302490234375,-0.0269317626953125
1782984608901318100,7.052318115234375,-0.573516845703125,-0.81048583984375,-0.0300750732421875
1782984608911392300,7.062392333984375,-0.5775604248046875,-0.8120880126953125,-0.0301055908203125
1782984608921466000,7.072466064453125,-0.577423095703125,-0.812896728515625,-0.033843994140625
1782984608931540200,7.082540283203125,-0.5716705322265625,-0.8115997314453125,-0.0361785888671875
1782984608941615000,7.092614990234375,-0.5772247314453125,-0.8111572265625,-0.036651611328125
1782984608951689200,7.102689208984375,-0.58197021484375,-0.8073883056640625,-0.03753662109375
1782984608961763000,7.11276318359375,-0.5841827392578125,-0.8097991943359375,-0.0293121337890625
1782984608971837000,7.1228369140625,-0.5833587646484375,-0.814178466796875,-0.020477294921875
1782984608981911000,7.1329111328125,-0.5854644775390625,-0.8160400390625,-0.0106201171875
1782984608991985000,7.14298486328125,-0.580902099609375,-0.8141326904296875,-0.0061187744140625
1782984609002060000,7.15306005859375,-0.5662994384765625,-0.8170318603515625,-0.0096435546875
1782984609012134000,7.1631337890625,-0.562469482421875,-0.8160858154296875,-0.01519775390625
1782984609022208000,7.1732080078125,-0.566375732421875,-0.8087005615234375,-0.0237884521484375
1782984609032281900,7.18328173828125,-0.5692291259765625,-0.804901123046875,-0.0279083251953125
1782984609042356000,7.19335595703125,-0.570556640625,-0.802642822265625,-0.032562255859375
1782984609052429800,7.203429931640625,-0.574798583984375,-0.7993927001953125,-0.035797119140625
1782984609062505000,7.2135048828125,-0.57769775390625,-0.805023193359375,-0.040496826171875
1782984609072578800,7.223578857421875,-0.5785980224609375,-0.808837890625,-0.033843994140625
1782984609082653000,7.23365283203125,-0.5762481689453125,-0.813629150390625,-0.0347900390625
1782984609092727000,7.24372705078125,-0.5697479248046875,-0.8168487548828125,-0.0315399169921875
1782984609102801000,7.25380078125,-0.5694580078125,-0.8138427734375,-0.0266265869140625
1782984609112875000,7.263875,-0.5730438232421875,-0.812774658203125,-0.03082275390625
1782984609122950000,7.273949951171875,-0.5741119384765625,-0.813690185546875,-0.0311431884765625
1782984609133024000,7.28402392578125,-0.5762481689453125,-0.811492919921875,-0.0250244140625
1782984609143097900,7.294097900390625,-0.57318115234375,-0.81219482421875,-0.022369384765625
1782984609153172000,7.304171875,-0.5682525634765625,-0.8150634765625,-0.0186004638671875
1782984609163245800,7.314245849609375,-0.574981689453125,-0.8191680908203125,-0.020172119140625
1782984609173320000,7.32431982421875,-0.5814971923828125,-0.8161468505859375,-0.022857666015625
1782984609183394800,7.334394775390625,-0.584259033203125,-0.810699462890625,-0.029998779296875
1782984609193469000,7.344468994140625,-0.5873870849609375,-0.807708740234375,-0.0278167724609375
1782984609203543000,7.35454296875,-0.5915374755859375,-0.811614990234375,-0.0301361083984375
1782984609213617000,7.364616943359375,-0.5868377685546875,-0.811553955078125,-0.0263824462890625
1782984609223691000,7.37469091796875,-0.5743255615234375,-0.8099822998046875,-0.01837158203125
1782984609233764900,7.384764892578125,-0.566070556640625,-0.810333251953125,-0.0122833251953125
1782984609243840000,7.394840087890625,-0.561737060546875,-0.808380126953125,-0.01641845703125
1782984609253913900,7.404913818359375,-0.562896728515625,-0.80853271484375,-0.0163116455078125
1782984609263988000,7.414988037109375,-0.5704345703125,-0.8082275390625,-0.01971435546875
1782984609274061800,7.425061767578125,-0.5723419189453125,-0.808258056640625,-0.022796630859375
1782984609284136000,7.435135986328125,-0.5775909423828125,-0.8090972900390625,-0.0252685546875
1782984609294210800,7.4452109375,-0.5783538818359375,-0.8098602294921875,-0.02392578125
1782984609304285000,7.455284912109375,-0.5770111083984375,-0.81317138671875,-0.0281524658203125
1782984609314359000,7.465359130859375,-0.58074951171875,-0.813385009765625,-0.026458740234375
1782984609324433000,7.475432861328125,-0.5849609375,-0.815673828125,-0.023345947265625
1782984609334507000,7.485507080078125,-0.5841064453125,-0.8177947998046875,-0.0236053466796875
1782984609344580900,7.495580810546875,-0.57574462890625,-0.8199462890625,-0.02197265625
1782984609354656000,7.505656005859375,-0.57281494140625,-0.8205718994140625,-0.0174102783203125
1782984609364729900,7.515729736328125,-0.5701751708984375,-0.8180389404296875,-0.0155029296875
1782984609374804000,7.525803955078125,-0.572296142578125,-0.8172149658203125,-0.0157928466796875
1782984609384877800,7.5358779296875,-0.574066162109375,-0.8160400390625,-0.022308349609375
1782984609394952000,7.545951904296875,-0.571868896484375,-0.81439208984375,-0.0235748291015625
1782984609405026000,7.556026123046875,-0.5662384033203125,-0.8115234375,-0.0225067138671875
1782984609415101000,7.566100830078125,-0.56805419921875,-0.8116607666015625,-0.027069091796875
1782984609425175000,7.576175048828125,-0.5752105712890625,-0.8121490478515625,-0.0290069580078125
1782984609435249000,7.586248779296875,-0.5792999267578125,-0.81488037109375,-0.0329132080078125
1782984609445323000,7.596322998046875,-0.572784423828125,-0.8124237060546875,-0.0315399169921875
1782984609455396900,7.60639697265625,-0.575469970703125,-0.8135223388671875,-0.02886962890625
1782984609465470700,7.616470703125,-0.579681396484375,-0.8147125244140625,-0.0306854248046875
1782984609475545900,7.6265458984375,-0.5754547119140625,-0.81256103515625,-0.03125
1782984609485620000,7.636619873046875,-0.5650482177734375,-0.8121185302734375,-0.0302276611328125
1782984609495693800,7.64669384765625,-0.56793212890625,-0.8103485107421875,-0.0270538330078125
1782984609505768000,7.656767822265625,-0.5717926025390625,-0.809967041015625,-0.028167724609375
1782984609515842000,7.666842041015625,-0.5695343017578125,-0.809173583984375,-0.0312347412109375
1782984609525916000,7.676916015625,-0.572357177734375,-0.81268310546875,-0.02911376953125
1782984609535991000,7.686990966796875,-0.57489013671875,-0.812286376953125,-0.0272979736328125
1782984609546065000,7.69706494140625,-0.5762786865234375,-0.814483642578125,-0.0313873291015625
1782984609556139000,7.707138916015625,-0.5782318115234375,-0.812164306640625,-0.027130126953125
1782984609566212900,7.717212890625,-0.580535888671875,-0.8121185302734375,-0.02490234375
1782984609576286700,7.72728662109375,-0.5758819580078125,-0.8095703125,-0.0249176025390625
1782984609586360800,7.73736083984375,-0.573028564453125,-0.8105926513671875,-0.024932861328125
1782984609596436000,7.74743603515625,-0.5744171142578125,-0.8097381591796875,-0.02203369140625
1782984609606509800,7.757509765625,-0.572784423828125,-0.808685302734375,-0.0228729248046875
1782984609616584000,7.767583984375,-0.5687713623046875,-0.811187744140625,-0.02410888671875
1782984609626658000,7.777657958984375,-0.566864013671875,-0.8131866455078125,-0.024505615234375
1782984609636732000,7.78773193359375,-0.5703277587890625,-0.8112945556640625,-0.0222320556640625
1782984609646806000,7.797805908203125,-0.575469970703125,-0.811431884765625,-0.01995849609375
1782984609656881000,7.807880859375,-0.57135009765625,-0.81610107421875,-0.0251617431640625
1782984609666955000,7.817955078125,-0.5727081298828125,-0.8135528564453125,-0.0277557373046875
1782984609677028900,7.82802880859375,-0.57537841796875,-0.812042236328125,-0.02874755859375
1782984609687102700,7.838102783203125,-0.57476806640625,-0.81439208984375,-0.0313262939453125
1782984609697176800,7.8481767578125,-0.571197509765625,-0.8160552978515625,-0.03326416015625
1782984609707251000,7.8582509765625,-0.56524658203125,-0.8183135986328125,-0.03338623046875
1782984609717325800,7.868325927734375,-0.5666046142578125,-0.818145751953125,-0.0341339111328125
1782984609727400000,7.87839990234375,-0.571990966796875,-0.815460205078125,-0.0344696044921875
1782984609737474000,7.88847412109375,-0.5790557861328125,-0.817779541015625,-0.0431976318359375
1782984609747548000,7.8985478515625,-0.577423095703125,-0.8196868896484375,-0.0315093994140625
1782984609757622000,7.9086220703125,-0.5709381103515625,-0.8166961669921875,-0.0203704833984375
1782984609767696000,7.91869580078125,-0.5707855224609375,-0.818023681640625,-0.0167236328125
1782984609777771000,7.92877099609375,-0.56781005859375,-0.8189849853515625,-0.015472412109375
1782984609787844900,7.938844970703125,-0.5640411376953125,-0.8178863525390625,-0.0132293701171875
1782984609797918700,7.948918701171875,-0.5609130859375,-0.8143310546875,-0.0153350830078125
1782984609807992800,7.958992919921875,-0.5655975341796875,-0.811553955078125,-0.0198974609375
1782984609818067000,7.96906689453125,-0.5704803466796875,-0.8068084716796875,-0.0297393798828125
1782984609828141800,7.979141845703125,-0.5699005126953125,-0.804656982421875,-0.0318145751953125
1782984609838216000,7.9892158203125,-0.5670623779296875,-0.8015899658203125,-0.0367889404296875
1782984609848290000,7.9992900390625,-0.5692138671875,-0.801727294921875,-0.03558349609375
1782984609858364000,8.009364013671876,-0.56964111328125,-0.8043060302734375,-0.029144287109375
1782984609868438000,8.01943798828125,-0.5691986083984375,-0.80780029296875,-0.028045654296875
1782984609878511900,8.029511962890625,-0.5702972412109375,-0.8108367919921875,-0.021392822265625
1782984609888585700,8.039585693359374,-0.56976318359375,-0.8137359619140625,-0.02337646484375
1782984609898659800,8.049659912109375,-0.5739898681640625,-0.8140106201171875,-0.018218994140625
1782984609908734700,8.059734619140626,-0.5750274658203125,-0.8150482177734375,-0.022369384765625
1782984609918808800,8.069808837890625,-0.5688018798828125,-0.8114471435546875,-0.0185546875
1782984609928883000,8.079883056640625,-0.57012939453125,-0.8128662109375,-0.0183563232421875
1782984609938957000,8.08995703125,-0.57855224609375,-0.8174896240234375,-0.0202484130859375
1782984609949031000,8.100031005859375,-0.58538818359375,-0.8189697265625,-0.0244598388671875
1782984609959105000,8.11010498046875,-0.5874481201171875,-0.817657470703125,-0.025146484375
1782984609969180000,8.120179931640624,-0.585540771484375,-0.815673828125,-0.0275726318359375
1782984609979253500,8.13025341796875,-0.5847015380859375,-0.8152008056640625,-0.0296173095703125
1782984609989327400,8.140327392578126,-0.579925537109375,-0.81390380859375,-0.025604248046875
1782984609999401500,8.1504013671875,-0.5784759521484375,-0.8104248046875,-0.0219268798828125
1782984610009475600,8.1604755859375,-0.5735321044921875,-0.8123779296875,-0.022186279296875
1782984610019549700,8.1705498046875,-0.567962646484375,-0.809967041015625,-0.0221099853515625
1782984610029624600,8.18062451171875,-0.5627899169921875,-0.8075714111328125,-0.0208740234375
1782984610039698700,8.19069873046875,-0.56573486328125,-0.8092193603515625,-0.02227783203125
1782984610049772500,8.2007724609375,-0.5684051513671875,-0.8134613037109375,-0.021759033203125
1782984610059846700,8.2108466796875,-0.5727386474609375,-0.8131866455078125,-0.0251922607421875
1782984610069920500,8.22092041015625,-0.5827484130859375,-0.8116607666015625,-0.0292510986328125
1782984610079994400,8.230994384765625,-0.5935211181640625,-0.8155670166015625,-0.032012939453125
1782984610090069500,8.241069580078126,-0.5940399169921875,-0.8157196044921875,-0.0328826904296875
1782984610100143400,8.251143310546874,-0.589935302734375,-0.814788818359375,-0.028106689453125
1782984610110217500,8.261217529296875,-0.5824127197265625,-0.8128509521484375,-0.0236358642578125
1782984610120291600,8.27129150390625,-0.5718536376953125,-0.8112030029296875,-0.0210113525390625
1782984610130365700,8.28136572265625,-0.5693511962890625,-0.8127899169921875,-0.018646240234375
1782984610140439600,8.291439453125,-0.5695648193359375,-0.811614990234375,-0.0147857666015625
1782984610150514700,8.3015146484375,-0.5696868896484375,-0.8119354248046875,-0.0125274658203125
1782984610160588500,8.311588623046875,-0.572967529296875,-0.8116912841796875,-0.01397705078125
1782984610170662700,8.32166259765625,-0.5753326416015625,-0.812408447265625,-0.01580810546875
1782984610180736500,8.331736572265624,-0.575775146484375,-0.813751220703125,-0.0165557861328125
1782984610190810400,8.341810302734375,-0.5765533447265625,-0.8138275146484375,-0.0190277099609375
1782984610200885500,8.351885498046874,-0.57177734375,-0.8096160888671875,-0.0200347900390625
1782984610210959400,8.36195947265625,-0.573028564453125,-0.8097686767578125,-0.0211029052734375
1782984610221033500,8.372033447265625,-0.5786895751953125,-0.8060760498046875,-0.025909423828125
1782984610231107600,8.382107666015624,-0.58734130859375,-0.8070831298828125,-0.02874755859375
1782984610241181700,8.392181640625,-0.58380126953125,-0.80755615234375,-0.0321197509765625
1782984610251256600,8.402256591796874,-0.5761566162109375,-0.8084259033203125,-0.02899169921875
1782984610261330700,8.41233056640625,-0.5764923095703125,-0.8090667724609375,-0.0284271240234375
1782984610271404500,8.422404541015625,-0.583038330078125,-0.808013916015625,-0.03009033203125
1782984610281478700,8.432478759765624,-0.58245849609375,-0.8088531494140625,-0.0293121337890625
1782984610291552500,8.442552490234375,-0.5809326171875,-0.8094024658203125,-0.026336669921875
1782984610301626400,8.45262646484375,-0.5778961181640625,-0.808013916015625,-0.030731201171875
1782984610311701500,8.462701416015625,-0.57672119140625,-0.807220458984375,-0.0323333740234375
1782984610321775400,8.472775390625,-0.586273193359375,-0.8080596923828125,-0.030426025390625
1782984610331849500,8.482849365234374,-0.58514404296875,-0.804412841796875,-0.0283203125
1782984610341923600,8.492923583984375,-0.5848388671875,-0.803009033203125,-0.02386474609375
1782984610351997700,8.502997802734376,-0.5768585205078125,-0.8033294677734375,-0.025482177734375
1782984610362071600,8.513071533203124,-0.57147216796875,-0.808135986328125,-0.0236053466796875
1782984610372146700,8.523146728515625,-0.5724639892578125,-0.8073577880859375,-0.01971435546875
1782984610382220500,8.533220458984376,-0.5758056640625,-0.8062591552734375,-0.022796630859375
1782984610392294700,8.543294677734375,-0.5775604248046875,-0.8089599609375,-0.0282745361328125
1782984610402368500,8.553368408203125,-0.581298828125,-0.8098602294921875,-0.0299224853515625
1782984610412442400,8.5634423828125,-0.5809783935546875,-0.8060760498046875,-0.02960205078125
1782984610422517500,8.573517578125,-0.5791015625,-0.8059234619140625,-0.02459716796875
1782984610432591400,8.58359130859375,-0.5791168212890625,-0.809295654296875,-0.02642822265625
1782984610442665500,8.59366552734375,-0.582366943359375,-0.8104400634765625,-0.0272674560546875
1782984610452739600,8.603739501953125,-0.58575439453125,-0.8117218017578125,-0.028594970703125
1782984610462813700,8.613813720703124,-0.5940399169921875,-0.812347412109375,-0.031707763671875
1782984610472887600,8.623887451171875,-0.5987396240234375,-0.8090057373046875,-0.03350830078125
1782984610482962700,8.633962646484376,-0.5935516357421875,-0.805419921875,-0.0284271240234375
1782984610493036500,8.64403662109375,-0.5860443115234375,-0.804931640625,-0.024505615234375
1782984610503110700,8.654110595703125,-0.58538818359375,-0.8037261962890625,-0.014312744140625
1782984610513184500,8.6641845703125,-0.5746307373046875,-0.804718017578125,-0.0112457275390625
1782984610523258400,8.67425830078125,-0.5652618408203125,-0.8031158447265625,-0.010223388671875
1782984610533332500,8.68433251953125,-0.56646728515625,-0.804107666015625,-0.01116943359375
1782984610543407400,8.694407470703124,-0.5724334716796875,-0.8014984130859375,-0.0196685791015625
1782984610553481500,8.7044814453125,-0.5758056640625,-0.80206298828125,-0.0293121337890625
1782984610563555600,8.7145556640625,-0.57794189453125,-0.8041839599609375,-0.0316925048828125
1782984610573629700,8.724629638671875,-0.5836334228515625,-0.8038330078125,-0.031524658203125
1782984610583703600,8.73470361328125,-0.584014892578125,-0.8048095703125,-0.0318756103515625
1782984610593777400,8.74477734375,-0.5846099853515625,-0.8106689453125,-0.0360565185546875
1782984610603852500,8.7548525390625,-0.5810089111328125,-0.8128662109375,-0.0289764404296875
1782984610613926700,8.7649267578125,-0.578399658203125,-0.8165283203125,-0.0274658203125
1782984610624000500,8.77500048828125,-0.5783843994140625,-0.8170166015625,-0.030517578125
1782984610634074400,8.785074462890625,-0.58343505859375,-0.8171234130859375,-0.0302886962890625
1782984610644148500,8.7951484375,-0.5825042724609375,-0.8135528564453125,-0.0282440185546875
1782984610654222600,8.80522265625,-0.5843963623046875,-0.8116302490234375,-0.026702880859375
1782984610664297500,8.81529736328125,-0.589996337890625,-0.8133087158203125,-0.026885986328125
1782984610674371600,8.82537158203125,-0.586395263671875,-0.8140716552734375,-0.022003173828125
1782984610684445700,8.83544580078125,-0.5761871337890625,-0.8172149658203125,-0.0180816650390625
1782984610694519600,8.84551953125,-0.5746002197265625,-0.814697265625,-0.0186920166015625
1782984610704593400,8.855593505859375,-0.5787200927734375,-0.8117828369140625,-0.0257415771484375
1782984610714667500,8.86566748046875,-0.58447265625,-0.8100128173828125,-0.02972412109375
1782984610724742400,8.875742431640624,-0.5898284912109375,-0.8061370849609375,-0.02984619140625
1782984610734816500,8.88581640625,-0.5892333984375,-0.8056182861328125,-0.02618408203125
1782984610744890400,8.895890380859376,-0.5793609619140625,-0.8086090087890625,-0.0261383056640625
1782984610754964500,8.905964599609375,-0.5731658935546875,-0.8089599609375,-0.0198211669921875
1782984610765038600,8.91603857421875,-0.573822021484375,-0.8065338134765625,-0.019744873046875
1782984610775112700,8.92611279296875,-0.5795135498046875,-0.803955078125,-0.0229339599609375
1782984610785187600,8.9361875,-0.586181640625,-0.8051300048828125,-0.0265960693359375
1782984610795261700,8.94626171875,-0.587493896484375,-0.805267333984375,-0.02642822265625
1782984610805335600,8.95633544921875,-0.591522216796875,-0.8038177490234375,-0.02642822265625
1782984610815409400,8.966409423828125,-0.5892181396484375,-0.802886962890625,-0.02691650390625
1782984610825483500,8.9764833984375,-0.58917236328125,-0.803436279296875,-0.0282440185546875
1782984610835557400,8.986557373046875,-0.5864105224609375,-0.800445556640625,-0.027618408203125
1782984610845632500,8.996632568359376,-0.579376220703125,-0.8000335693359375,-0.0259552001953125
1782984610855706400,9.006706298828124,-0.5772552490234375,-0.7992401123046875,-0.02362060546875
1782984610865780500,9.016780517578125,-0.58056640625,-0.8020782470703125,-0.0253143310546875
1782984610875854600,9.0268544921875,-0.5800628662109375,-0.8030853271484375,-0.024688720703125
1782984610885928700,9.0369287109375,-0.57586669921875,-0.803192138671875,-0.025726318359375
1782984610896003600,9.047003662109375,-0.57220458984375,-0.803192138671875,-0.027496337890625
1782984610906077700,9.05707763671875,-0.5707550048828125,-0.8040924072265625,-0.0281829833984375
1782984610916151600,9.067151611328125,-0.5741119384765625,-0.806884765625,-0.03125
1782984610926225400,9.077225341796876,-0.5762939453125,-0.807769775390625,-0.0333099365234375
1782984610936299500,9.087299560546874,-0.5785064697265625,-0.8083038330078125,-0.035400390625
1782984610946373400,9.097373291015625,-0.5817718505859375,-0.810791015625,-0.037139892578125
1782984610956448500,9.107448486328124,-0.579254150390625,-0.81158447265625,-0.041229248046875
1782984610966522400,9.1175224609375,-0.5754241943359375,-0.8117218017578125,-0.04095458984375
1782984610976597000,9.127596923828126,-0.57379150390625,-0.8130645751953125,-0.041900634765625
1782984610986671000,9.137671142578125,-0.571258544921875,-0.8165740966796875,-0.039886474609375
1782984610996745200,9.1477451171875,-0.572265625,-0.8154296875,-0.0411376953125
1782984611006819300,9.1578193359375,-0.5709991455078125,-0.8142852783203125,-0.0443878173828125
1782984611016894200,9.167894287109375,-0.5693206787109375,-0.81304931640625,-0.046417236328125
1782984611026968300,9.17796826171875,-0.5734710693359375,-0.81329345703125,-0.046142578125
1782984611037042200,9.188042236328124,-0.5766143798828125,-0.812713623046875,-0.0462493896484375
1782984611047116000,9.198115966796875,-0.5799407958984375,-0.8100433349609375,-0.0428619384765625
1782984611057190100,9.208190185546876,-0.5826873779296875,-0.810455322265625,-0.0424041748046875
1782984611067264000,9.218263916015625,-0.5816497802734375,-0.8109283447265625,-0.04119873046875
1782984611077339100,9.228339111328125,-0.57861328125,-0.815032958984375,-0.0352325439453125
1782984611087413000,9.2384130859375,-0.5786895751953125,-0.8160400390625,-0.035491943359375
1782984611097487000,9.248487060546875,-0.5836639404296875,-0.8156890869140625,-0.0354461669921875
1782984611107561200,9.258561279296876,-0.5857696533203125,-0.8107757568359375,-0.032989501953125
1782984611117635300,9.26863525390625,-0.58673095703125,-0.807891845703125,-0.0339508056640625
1782984611127709200,9.278709228515625,-0.573272705078125,-0.8102264404296875,-0.03167724609375
1782984611137784300,9.288784423828124,-0.5673675537109375,-0.807769775390625,-0.02728271484375
1782984611147858200,9.298858154296875,-0.565399169921875,-0.8056488037109375,-0.027191162109375
1782984611157932000,9.30893212890625,-0.5679168701171875,-0.8057708740234375,-0.029541015625
1782984611168006100,9.319006103515624,-0.5695953369140625,-0.80535888671875,-0.02960205078125
1782984611178080000,9.329080078125,-0.5766754150390625,-0.806915283203125,-0.0320281982421875
1782984611188154000,9.339154052734376,-0.5819091796875,-0.807159423828125,-0.0361328125
1782984611198229000,9.34922900390625,-0.5796966552734375,-0.8042144775390625,-0.036468505859375
1782984611208303000,9.35930322265625,-0.5828857421875,-0.8090057373046875,-0.0279541015625
1782984611218377200,9.369377197265624,-0.58538818359375,-0.8097991943359375,-0.0234222412109375
1782984611228451300,9.379451416015625,-0.5873565673828125,-0.8172607421875,-0.02301025390625
1782984611238525200,9.389525146484376,-0.5847015380859375,-0.814239501953125,-0.0171051025390625
1782984611248599000,9.39959912109375,-0.5694580078125,-0.811279296875,-0.01214599609375
1782984611258674200,9.409674072265625,-0.55511474609375,-0.809173583984375,-0.01031494140625
1782984611268748000,9.419748046875,-0.551605224609375,-0.8076171875,-0.0111846923828125
1782984611278822100,9.429822265625,-0.555938720703125,-0.803619384765625,-0.0178680419921875
1782984611288896000,9.43989599609375,-0.5666961669921875,-0.801483154296875,-0.0311126708984375
1782984611298970000,9.44997021484375,-0.5810546875,-0.8026885986328125,-0.039215087890625
1782984611309044200,9.460044189453125,-0.590789794921875,-0.8031158447265625,-0.04095458984375
1782984611319119000,9.470119140625,-0.5889892578125,-0.813385009765625,-0.042572021484375
1782984611329193200,9.480193115234375,-0.6000518798828125,-0.8151092529296875,-0.0395660400390625
1782984611339267300,9.490267333984375,-0.5926361083984375,-0.8069000244140625,-0.044464111328125
1782984611349341200,9.500341064453124,-0.5837554931640625,-0.8120269775390625,-0.0411224365234375
1782984611359415000,9.5104150390625,-0.57720947265625,-0.8123931884765625,-0.0386199951171875
1782984611369489200,9.5204892578125,-0.574066162109375,-0.8114166259765625,-0.0369415283203125
1782984611379564000,9.53056396484375,-0.5823974609375,-0.8077239990234375,-0.034759521484375
1782984611389638100,9.54063818359375,-0.586944580078125,-0.8093719482421875,-0.0354461669921875
1782984611399712000,9.5507119140625,-0.5821380615234375,-0.8116302490234375,-0.0327606201171875
1782984611409786000,9.5607861328125,-0.5828704833984375,-0.8115386962890625,-0.0239715576171875
1782984611419860200,9.570860107421876,-0.5858154296875,-0.81097412109375,-0.0251312255859375
1782984611429935000,9.58093505859375,-0.587738037109375,-0.8154296875,-0.0224456787109375
1782984611440009200,9.59100927734375,-0.5870513916015625,-0.815093994140625,-0.02239990234375
1782984611450083300,9.601083251953124,-0.58905029296875,-0.811676025390625,-0.0211181640625
1782984611460157200,9.6111572265625,-0.5918426513671875,-0.8084869384765625,-0.0251312255859375
1782984611470231000,9.62123095703125,-0.5935211181640625,-0.808013916015625,-0.0247802734375
1782984611480305200,9.63130517578125,-0.58624267578125,-0.805633544921875,-0.0210418701171875
1782984611490380000,9.641380126953125,-0.5779266357421875,-0.8025360107421875,-0.020843505859375
1782984611500454100,9.6514541015625,-0.571533203125,-0.80255126953125,-0.0178375244140625
1782984611510528000,9.661528076171875,-0.5670623779296875,-0.801177978515625,-0.01776123046875
1782984611520602000,9.67160205078125,-0.5684967041015625,-0.79669189453125,-0.0167694091796875
1782984611530676200,9.68167626953125,-0.57904052734375,-0.7959747314453125,-0.018035888671875
1782984611540750300,9.691750244140625,-0.5910491943359375,-0.797698974609375,-0.022216796875
1782984611550825200,9.7018251953125,-0.595672607421875,-0.7989654541015625,-0.0256500244140625
1782984611560899300,9.7118994140625,-0.5942230224609375,-0.8013153076171875,-0.0277099609375
1782984611570973200,9.72197314453125,-0.59375,-0.8025665283203125,-0.02386474609375
1782984611581047000,9.732047119140624,-0.5912933349609375,-0.8028411865234375,-0.0198822021484375
1782984611591121200,9.74212109375,-0.5975799560546875,-0.804046630859375,-0.0242462158203125
1782984611601195000,9.752195068359375,-0.6004180908203125,-0.8031158447265625,-0.0249176025390625
1782984611611270100,9.762270263671875,-0.59637451171875,-0.8054656982421875,-0.026123046875
1782984611621344000,9.772343994140625,-0.592132568359375,-0.8042144775390625,-0.0269012451171875
1782984611631418000,9.782418212890626,-0.5825347900390625,-0.8015289306640625,-0.0222625732421875
1782984611641492200,9.7924921875,-0.583587646484375,-0.8045196533203125,-0.021484375
1782984611651566300,9.80256640625,-0.586700439453125,-0.8039703369140625,-0.0229949951171875
1782984611661640200,9.81264013671875,-0.5885009765625,-0.804229736328125,-0.020172119140625
1782984611671715300,9.82271533203125,-0.59014892578125,-0.8025970458984375,-0.020660400390625
1782984611681789200,9.8327890625,-0.58233642578125,-0.8023681640625,-0.02337646484375
1782984611691863000,9.842863037109375,-0.579559326171875,-0.8029022216796875,-0.02447509765625
1782984611701937200,9.852937255859375,-0.58367919921875,-0.80133056640625,-0.024749755859375
1782984611712011000,9.863010986328124,-0.58697509765625,-0.8041839599609375,-0.025970458984375
1782984611722085000,9.873085205078125,-0.5880889892578125,-0.806060791015625,-0.0252838134765625
1782984611732160000,9.883159912109376,-0.590087890625,-0.8075103759765625,-0.0263214111328125
1782984611742234000,9.893234130859375,-0.592742919921875,-0.80718994140625,-0.0252532958984375
1782984611752308200,9.90330810546875,-0.5911865234375,-0.8056488037109375,-0.028564453125
1782984611762382300,9.91338232421875,-0.591156005859375,-0.804779052734375,-0.0333404541015625
1782984611772456200,9.923456298828125,-0.58892822265625,-0.8037109375,-0.0311737060546875
1782984611782530000,9.933530029296875,-0.588104248046875,-0.8036651611328125,-0.0327911376953125
1782984611792605200,9.943605224609374,-0.58587646484375,-0.80242919921875,-0.0319061279296875
1782984611802679000,9.953678955078125,-0.593231201171875,-0.8021240234375,-0.0294647216796875
1782984611812753200,9.963753173828126,-0.5977783203125,-0.8038177490234375,-0.032379150390625
1782984611822827000,9.973826904296875,-0.595184326171875,-0.804046630859375,-0.0346832275390625
1782984611832901000,9.983901123046875,-0.59375,-0.8064422607421875,-0.0315093994140625
1782984611842975200,9.993975341796874,-0.5927581787109375,-0.80389404296875,-0.02703857421875
1782984611853050000,10.004050048828125,-0.5926971435546875,-0.80303955078125,-0.027618408203125
1782984611863124200,10.014124267578126,-0.589630126953125,-0.8019256591796875,-0.0272369384765625
1782984611873198300,10.0241982421875,-0.5816650390625,-0.800872802734375,-0.0239715576171875
1782984611883272200,10.034272216796875,-0.5787506103515625,-0.8009185791015625,-0.0240478515625
1782984611893346000,10.044345947265626,-0.5812835693359375,-0.800445556640625,-0.02777099609375
1782984611903420200,10.054420166015625,-0.580657958984375,-0.7962188720703125,-0.02960205078125
1782984611913495000,10.0644951171875,-0.584991455078125,-0.7998809814453125,-0.0295867919921875
1782984611923569200,10.074569091796874,-0.5958099365234375,-0.8007354736328125,-0.0297698974609375
1782984611933643000,10.08464306640625,-0.600738525390625,-0.803985595703125,-0.0306549072265625
1782984611943717000,10.094717041015626,-0.59527587890625,-0.8048553466796875,-0.02899169921875
1782984611953791200,10.104791259765625,-0.589599609375,-0.8029937744140625,-0.0241546630859375
1782984611963865000,10.114864990234375,-0.5785369873046875,-0.8012542724609375,-0.0259246826171875
1782984611973940500,10.1249404296875,-0.5773773193359375,-0.8058319091796875,-0.023223876953125
1782984611984014300,10.135014404296875,-0.5769500732421875,-0.8057403564453125,-0.0226898193359375
1782984611994088200,10.145088134765626,-0.5736083984375,-0.8088226318359375,-0.022979736328125
1782984612004162300,10.155162353515625,-0.578216552734375,-0.8137969970703125,-0.026611328125
1782984612014236200,10.165236083984375,-0.5862274169921875,-0.8177947998046875,-0.031097412109375
1782984612024310300,10.175310302734376,-0.5845947265625,-0.8165435791015625,-0.034210205078125
1782984612034385200,10.18538525390625,-0.5785675048828125,-0.816925048828125,-0.0340576171875
1782984612044459300,10.195459228515626,-0.57086181640625,-0.817901611328125,-0.030303955078125
1782984612054533000,10.205533203125,-0.565093994140625,-0.81280517578125,-0.0320892333984375
1782984612064607500,10.215607421875,-0.5681610107421875,-0.816070556640625,-0.03253173828125
1782984612074681300,10.225681396484376,-0.57415771484375,-0.8125762939453125,-0.03314208984375
1782984612084756500,10.235756591796875,-0.5782470703125,-0.8106689453125,-0.029083251953125
1782984612094830300,10.245830322265626,-0.5845184326171875,-0.804107666015625,-0.031219482421875
1782984612104904200,10.255904296875,-0.580535888671875,-0.814483642578125,-0.0283050537109375
1782984612114978300,10.265978271484375,-0.5738677978515625,-0.8143157958984375,-0.034149169921875
1782984612125052200,10.27605224609375,-0.5763092041015625,-0.8140716552734375,-0.0379180908203125
1782984612135126300,10.286126220703125,-0.573394775390625,-0.814727783203125,-0.0425872802734375
1782984612145201200,10.296201171875,-0.576385498046875,-0.80657958984375,-0.0391082763671875
1782984612155275300,10.306275146484374,-0.5819091796875,-0.8094482421875,-0.0411834716796875
1782984612165349000,10.31634912109375,-0.5853424072265625,-0.8237457275390625,-0.03472900390625
