time,seconds_elapsed,z,y,x
1782984601921174500,0.072174560546875,0.008439919911324978,-0.15588665008544922,0.3918442726135254
1782984601931248600,0.08224853515625,0.025901468470692635,-0.12731225788593292,0.3730729818344116
1782984601941323500,0.092323486328125,0.04213493689894676,-0.12391664832830429,0.35819709300994873
1782984601951397600,0.102397705078125,0.05384565517306328,-0.12027157843112946,0.3409653604030609
1782984601961471500,0.112471435546875,0.07475919276475906,-0.10672354698181152,0.3410189151763916
1782984601971545300,0.12254541015625,0.10630327463150024,-0.111263707280159,0.3414679169654846
1782984601981619500,0.132619384765625,0.13261714577674866,-0.11780739575624466,0.3193861246109009
1782984601991694300,0.1426943359375,0.15229018032550812,-0.12921719253063202,0.25605911016464233
1782984602001768400,0.1527685546875,0.16909535229206085,-0.15514738857746124,0.1620202213525772
1782984602011842600,0.162842529296875,0.1914065182209015,-0.18276943266391754,0.05401119962334633
1782984602021916400,0.17291650390625,0.19798357784748077,-0.2090303599834442,-0.04104628786444664
1782984602031990500,0.182990478515625,0.20212319493293762,-0.22388413548469543,-0.11175321042537689
1782984602042064400,0.193064453125,0.17316372692584991,-0.16389989852905273,-0.15215283632278442
1782984602052139500,0.203139404296875,0.13076725602149963,-0.06739306449890137,-0.16206033527851105
1782984602062213400,0.21321337890625,0.09226800501346588,-0.010260678827762604,-0.17848920822143555
1782984602072287500,0.22328759765625,0.05289396271109581,-0.004879229236394167,-0.2271246612071991
1782984602082361300,0.233361328125,0.013101398944854736,0.0029698836151510477,-0.27552303671836853
1782984602092435500,0.243435546875,-0.014626368880271912,-0.012498821131885052,-0.33669158816337585
1782984602102509600,0.253509521484375,-0.04940810427069664,-0.002727796556428075,-0.38909706473350525
1782984602112584400,0.26358447265625,-0.05180388316512108,0.044936928898096085,-0.40595436096191406
1782984602122658600,0.273658447265625,-0.037219658493995667,-0.10288750380277634,-0.4129873216152191
1782984602132732400,0.283732421875,-0.03416261821985245,-0.17819638550281525,-0.40226274728775024
1782984602142806500,0.293806640625,-0.0761786550283432,-0.04154719412326813,-0.38596269488334656
1782984602152880400,0.30388037109375,-0.10009916871786118,-0.050186216831207275,-0.3665088415145874
1782984602162955500,0.31395556640625,-0.1033017709851265,-0.08182062953710556,-0.3431566059589386
1782984602173029400,0.324029296875,-0.1180703267455101,-0.020267251878976822,-0.30027464032173157
1782984602183103500,0.334103515625,-0.12786495685577393,-0.018015118315815926,-0.2673643231391907
1782984602193177300,0.34417724609375,-0.1308242529630661,-0.024449048563838005,-0.24584010243415833
1782984602203251500,0.35425146484375,-0.1437276154756546,-0.017790522426366806,-0.2334570735692978
1782984602213325600,0.36432568359375,-0.13446195423603058,0.005490832030773163,-0.2234925925731659
1782984602223400400,0.374400390625,-0.13140949606895447,0.018428901210427284,-0.20322561264038086
1782984602233474600,0.384474609375,-0.12429112941026688,0.038277704268693924,-0.18880805373191833
1782984602243548400,0.39454833984375,-0.12487206608057022,0.0746552124619484,-0.16550196707248688
1782984602253622500,0.40462255859375,-0.11704158037900925,0.07720625400543213,-0.14395833015441895
1782984602263696400,0.4146962890625,-0.10617749392986298,0.0565028041601181,-0.11690781265497208
1782984602273771500,0.424771484375,-0.09054233878850937,0.005744552239775658,-0.07819823920726776
1782984602283845400,0.434845458984375,-0.0808459222316742,-0.04573996737599373,-0.051006510853767395
1782984602293919500,0.44491943359375,-0.06594979763031006,-0.06302867084741592,-0.03045436553657055
1782984602303993300,0.454993408203125,-0.042502619326114655,-0.06956026703119278,-0.01103433407843113
1782984602314067500,0.4650673828125,-0.024346519261598587,-0.08933769911527634,0.00022923962387721986
1782984602324141600,0.4751416015625,-0.008695269003510475,-0.09823615103960037,0.010078579187393188
1782984602334216400,0.485216552734375,-0.004934352822601795,-0.09464594721794128,0.033893097192049026
1782984602344290600,0.49529052734375,-0.007716290652751923,-0.09563104808330536,0.05648602545261383
1782984602354364400,0.505364501953125,-0.0027934378013014793,-0.08553287386894226,0.07415396720170975
1782984602364438500,0.5154384765625,-0.004365524277091026,-0.0705835297703743,0.08796176314353943
1782984602374512400,0.525512451171875,-0.017429927363991737,-0.051489200443029404,0.09166329354047775
1782984602384586200,0.535586181640625,-0.028983134776353836,-0.015774644911289215,0.0769183337688446
1782984602394661400,0.545661376953125,-0.024602502584457397,-0.011869918555021286,0.04578331857919693
1782984602404735500,0.555735595703125,-0.013266418129205704,-0.019695740193128586,0.014549341052770615
1782984602414809300,0.565809326171875,0.001448345952667296,-0.028004534542560577,-0.013675105758011341
1782984602424883500,0.575883544921875,0.005055990070104599,-0.05104061961174011,-0.03805029019713402
1782984602434957600,0.58595751953125,0.014144559390842915,-0.05491338670253754,-0.056675370782613754
1782984602445032400,0.596032470703125,0.012966327369213104,-0.06264811009168625,-0.0673774927854538
1782984602455106600,0.6061064453125,0.010600907728075981,-0.07946037501096725,-0.06927499175071716
1782984602465180400,0.616180419921875,0.0014784892555326223,-0.07915523648262024,-0.0714321956038475
1782984602475254500,0.626254638671875,-0.005438006483018398,-0.059638526290655136,-0.08010078966617584
1782984602485328400,0.636328369140625,-0.011572643183171749,-0.03671705350279808,-0.08862163871526718
1782984602495402200,0.64640234375,-0.014625690877437592,-0.02515041083097458,-0.09705586731433868
1782984602505477400,0.656477294921875,-0.022661244496703148,-0.02741381525993347,-0.09882619231939316
1782984602515551500,0.666551513671875,-0.029572946950793266,-0.02493787556886673,-0.1058577373623848
1782984602525625300,0.676625244140625,-0.03342052176594734,-0.015781624242663383,-0.10932108759880066
1782984602535699500,0.686699462890625,-0.03814683109521866,-0.0032871379517018795,-0.11070886254310608
1782984602545773600,0.696773681640625,-0.0402693897485733,0.007004615850746632,-0.10143628716468811
1782984602555848400,0.706848388671875,-0.04032691568136215,0.016249779611825943,-0.08275474607944489
1782984602565922600,0.716922607421875,-0.035408101975917816,0.004590374417603016,-0.05500680208206177
1782984602575996400,0.726996337890625,-0.024270763620734215,-0.01816393993794918,-0.02546648494899273
1782984602586070500,0.737070556640625,-0.015390072017908096,-0.03374934196472168,-0.009318917989730835
1782984602596144400,0.747144287109375,-0.009492235258221626,-0.04315242916345596,-0.00008706936932867393
1782984602606218200,0.75721826171875,-0.003755660727620125,-0.05529911816120148,-0.01769835688173771
1782984602616293400,0.76729345703125,-0.001813150942325592,-0.043186526745557785,-0.028014909476041794
1782984602626367200,0.7773671875,-0.007416899316012859,-0.02669580653309822,-0.04215523973107338
1782984602636441300,0.78744140625,-0.021381983533501625,-0.009633999317884445,-0.05039026588201523
1782984602646515500,0.797515380859375,-0.028603635728359222,-0.006829885765910149,-0.06279189139604568
1782984602656589600,0.807589599609375,-0.033127281814813614,-0.002281206427142024,-0.07770852744579315
1782984602666664400,0.81766455078125,-0.03704670071601868,0.007342304103076458,-0.09151069074869156
1782984602676738600,0.827738525390625,-0.040693365037441254,0.015468407422304153,-0.09618160873651505
1782984602686812400,0.8378125,-0.04162757843732834,0.01911485195159912,-0.09869546443223953
1782984602696886500,0.847886474609375,-0.034558750689029694,0.02194259688258171,-0.0992366224527359
1782984602706960400,0.85796044921875,-0.02555898390710354,0.014251423999667168,-0.09342417120933533
1782984602717034200,0.8680341796875,-0.017821168527007103,0.008515240624547005,-0.07960396260023117
1782984602727109400,0.878109375,-0.006760140415281057,0.014212519861757755,-0.057777177542448044
1782984602737183200,0.888183349609375,-0.004261296708136797,0.022321045398712158,-0.036421023309230804
1782984602747257300,0.89825732421875,-0.004478054586797953,0.018805449828505516,-0.012538430280983448
1782984602757331500,0.90833154296875,0.002011269796639681,0.016106069087982178,0.0007145245326682925
1782984602767405600,0.918405517578125,0.0002823192626237869,0.026185812428593636,0.005201906431466341
1782984602777479400,0.9284794921875,-0.0012292909668758512,0.04500051215291023,0.007994762621819973
1782984602787554600,0.938554443359375,0.001668616314418614,0.0663561150431633,0.002111624926328659
1782984602797628400,0.94862841796875,0.009301235899329185,0.06498405337333679,0.003260246245190501
1782984602807702500,0.95870263671875,0.014166293665766716,0.05321606248617172,0.013379045762121677
1782984602817776400,0.9687763671875,0.00964451301842928,0.03881208971142769,0.02244737558066845
1782984602827850200,0.978850341796875,0.009254314936697483,0.03584550321102142,0.020458197221159935
1782984602837925400,0.98892529296875,0.0075666699558496475,0.03870387375354767,0.01119652297347784
1782984602847999200,0.998999267578125,0.01183082815259695,0.0453336276113987,-0.01820957474410534
1782984602858073600,1.009073486328125,0.01624874584376812,0.05082080513238907,-0.042072828859090805
1782984602868147500,1.0191474609375,0.020128799602389336,0.06686760485172272,-0.06357571482658386
1782984602878221600,1.0292216796875,0.02304895594716072,0.08476164937019348,-0.06919898092746735
1782984602888295400,1.03929541015625,0.023375455290079117,0.09242701530456543,-0.05859868600964546
1782984602898370600,1.04937060546875,0.01778814196586609,0.08889167010784149,-0.03330930694937706
1782984602908444400,1.0594443359375,0.005770976189523935,0.07401488721370697,-0.009828879497945309
1782984602918518500,1.0695185546875,-0.0004168786690570414,0.0672009289264679,0.0031489708926528692
1782984602928592400,1.07959228515625,0.0060972594656050205,0.05274244397878647,0.006184771191328764
1782984602938666200,1.089666259765625,0.017725152894854546,0.04540836438536644,-0.007186960428953171
1782984602948741400,1.099741455078125,0.031123684719204903,0.05260402336716652,-0.022656351327896118
1782984602958815200,1.109815185546875,0.039323024451732635,0.05634230375289917,-0.02783593162894249
1782984602968889900,1.119889892578125,0.03970954567193985,0.04866674169898033,-0.03347022831439972
1782984602978964000,1.1299638671875,0.04242889955639839,0.03535120189189911,-0.02975059300661087
1782984602989038000,1.1400380859375,0.04063618183135986,0.031229926273226738,-0.021816866472363472
1782984602999112000,1.15011181640625,0.03483554720878601,0.017544208094477654,-0.0146183418110013
1782984603009187000,1.16018701171875,0.030668331310153008,0.023688053712248802,-0.006934968754649162
1782984603019261000,1.170260986328125,0.026849891990423203,0.03090841695666313,0.00423779059201479
1782984603029335000,1.1803349609375,0.027053745463490486,0.03210948035120964,-0.0008874115883372724
1782984603039409000,1.190408935546875,0.02172396145761013,0.04233042523264885,-0.008761047385632992
1782984603049483000,1.20048291015625,0.020145023241639137,0.04456012696027756,-0.018358338624238968
1782984603059556900,1.210556884765625,0.0192070584744215,0.04603764787316322,-0.025743549689650536
1782984603069632000,1.220632080078125,0.025518817827105522,0.04890866577625275,-0.029441921040415764
1782984603079705900,1.230705810546875,0.03304331377148628,0.030659087002277374,-0.03327367827296257
1782984603089780000,1.240780029296875,0.03740576654672623,0.03097214363515377,-0.025680432096123695
1782984603099854000,1.25085400390625,0.03146611899137497,0.03946629911661148,-0.01825101301074028
1782984603109928000,1.260927978515625,0.03014799952507019,0.03867163136601448,-0.014628897421061993
1782984603120003000,1.271003173828125,0.02900257334113121,0.02969491481781006,-0.02570445090532303
1782984603130077000,1.281076904296875,0.023557303473353386,0.017146021127700806,-0.030006783083081245
1782984603140151000,1.291151123046875,0.016024285927414894,0.01766267418861389,-0.023495087400078773
1782984603150225000,1.301224853515625,0.010516557842493057,0.02869366481900215,-0.027500279247760773
1782984603160299000,1.311299072265625,0.01643543317914009,0.02772906795144081,-0.03967731446027756
1782984603170372900,1.321372802734375,0.015939457342028618,0.021163124591112137,-0.04749130457639694
1782984603180448000,1.331447998046875,0.011923410929739475,0.018028318881988525,-0.05032623931765556
1782984603190521900,1.34152197265625,0.0018819805700331926,0.02655073069036007,-0.04647528752684593
1782984603200596000,1.351595947265625,-0.0012341841356828809,0.03142271563410759,-0.043968986719846725
1782984603210670000,1.361670166015625,-0.005783251486718655,0.0476112961769104,-0.037594761699438095
1782984603220744000,1.371743896484375,-0.001848431071266532,0.05721784755587578,-0.024056052789092064
1782984603230818000,1.381818115234375,0.00044438394252210855,0.05459963157773018,0.0025432214606553316
1782984603240893000,1.391892822265625,0.005633819382637739,0.03738442435860634,0.024642132222652435
1782984603250967000,1.401967041015625,0.018839752301573753,0.008078169077634811,0.0402982272207737
1782984603261041000,1.412041015625,0.03158910572528839,-0.02159024588763714,0.037154633551836014
1782984603271115000,1.422114990234375,0.04190145060420036,-0.03857390955090523,0.01910994201898575
1782984603281188900,1.43218896484375,0.043226905167102814,-0.03364652767777443,-0.008431671187281609
1782984603291263000,1.442262939453125,0.03760126605629921,-0.020171688869595528,-0.029904576018452644
1782984603301337900,1.452337890625,0.023784788325428963,-0.0003298084484413266,-0.046817511320114136
1782984603311412000,1.462411865234375,0.004957809578627348,0.012555841356515884,-0.05233189836144447
1782984603321486000,1.472486083984375,-0.006831205449998379,0.02179701067507267,-0.05862441286444664
1782984603331560000,1.482559814453125,-0.011119693517684937,0.01758442260324955,-0.051480483263731
1782984603341634000,1.492634033203125,-0.017735518515110016,0.00578901544213295,-0.040421973913908005
1782984603351709000,1.502708984375,-0.023937810212373734,-0.004877852275967598,-0.02107952907681465
1782984603361783000,1.512782958984375,-0.025926128029823303,-0.00422883965075016,-0.01630714349448681
1782984603371857000,1.52285693359375,-0.017368029803037643,0.011364021338522434,-0.01189716998487711
1782984603381931000,1.532930908203125,-0.012454232200980186,0.026806093752384186,-0.01933804154396057
1782984603392004900,1.5430048828125,-0.0008903887355700135,0.03632742911577225,-0.011958875693380833
1782984603402079000,1.553078857421875,0.00927090272307396,0.021224111318588257,0.003639258909970522
1782984603412153900,1.56315380859375,0.015566317364573479,-0.004270931705832481,0.01710374280810356
1782984603422228000,1.57322802734375,0.015359656885266304,-0.01732388325035572,0.02870926633477211
1782984603432302000,1.583302001953125,0.016862943768501282,-0.006935823708772659,0.03445906937122345
1782984603442376000,1.5933759765625,0.011868718080222607,0.014499428682029247,0.03610517084598541
1782984603452450000,1.603449951171875,-0.00007553386967629194,0.03939684480428696,0.03405138477683067
1782984603462525000,1.61352490234375,0.002921055071055889,0.04650801792740822,0.03403700515627861
1782984603472599000,1.62359912109375,0.0008722816128283739,0.037796538323163986,0.031947340816259384
1782984603482673000,1.6336728515625,-0.003863085061311722,0.0226450152695179,0.028006661683321
1782984603492746800,1.643746826171875,0.005212754011154175,0.01246945932507515,0.02317657507956028
1782984603502820900,1.65382080078125,0.0026795552112162113,0.019542815163731575,0.010795807465910912
1782984603512895000,1.66389501953125,0.0032729497179389,0.0234830342233181,0.00037503993371501565
1782984603522969900,1.673969970703125,0.0030969148501753807,0.023824984207749367,-0.0004289684002287686
1782984603533044000,1.6840439453125,-0.001383241848088801,0.014847375452518463,0.002012485871091485
1782984603543118000,1.6941181640625,-0.014437790960073471,0.023660840466618538,0.009751631878316402
1782984603553192000,1.70419189453125,-0.02954346500337124,0.031168097630143166,0.014665880240499973
1782984603563266000,1.71426611328125,-0.03804587200284004,0.047061044722795486,0.025587236508727074
1782984603573340000,1.72433984375,-0.046545058488845825,0.05488040670752525,0.039372071623802185
1782984603583415000,1.7344150390625,-0.052616268396377563,0.0558260940015316,0.0511336550116539
1782984603593489000,1.744489013671875,-0.05330280587077141,0.03875049576163292,0.06323803216218948
1782984603603562800,1.754562744140625,-0.055095378309488297,0.02599235810339451,0.061022281646728516
1782984603613636900,1.764636962890625,-0.051414478570222855,0.019390402361750603,0.050662536174058914
1782984603623711000,1.7747109375,-0.043175723403692245,0.010815289802849293,0.03113863617181778
1782984603633785000,1.78478515625,-0.037093985825777054,0.008394485339522362,0.012211618945002556
1782984603643860000,1.79485986328125,-0.02966403402388096,0.006137455813586712,-0.00307146436534822
1782984603653934000,1.80493408203125,-0.02731410413980484,-0.0008571580983698368,-0.013159581460058689
1782984603664008000,1.815008056640625,-0.01829051598906517,0.0011418105568736792,-0.009689481928944588
1782984603674082000,1.82508203125,-0.015174252912402153,-0.00029822473879903555,-0.001480668317526579
1782984603684156000,1.835156005859375,-0.011380580253899097,-0.008068529888987541,0.009103799238801003
1782984603694231000,1.84523095703125,-0.00008260284084826708,-0.02308892458677292,0.020714592188596725
1782984603704305000,1.855304931640625,0.01080359984189272,-0.031728219240903854,0.02531014196574688
1782984603714378800,1.865378662109375,0.016512654721736908,-0.030254626646637917,0.03449142724275589
1782984603724452900,1.875452880859375,0.020282359793782234,-0.025989042595028877,0.030720388516783714
1782984603734527000,1.88552685546875,0.02099713683128357,-0.016124462708830833,0.024265935644507408
1782984603744601000,1.89560107421875,0.025788430124521255,-0.008183981291949749,0.014519830234348774
1782984603754676000,1.905676025390625,0.02600322663784027,0.009203566238284111,0.008438332006335258
1782984603764750000,1.91575,0.020778371021151543,0.023804081603884697,0.013902871869504452
1782984603774824000,1.925823974609375,0.014575145207345486,0.021661728620529175,0.018567653372883797
1782984603784898000,1.93589794921875,0.019518505781888962,0.009332356974482536,0.020779674872756004
1782984603794972000,1.945971923828125,0.020247599110007286,-0.0048880307003855705,0.026364987716078758
1782984603805045800,1.956045654296875,0.01715194061398506,-0.017816878855228424,0.0231217909604311
1782984603815121000,1.966120849609375,0.02177913300693035,-0.014532235451042652,0.022270699962973595
1782984603825194800,1.97619482421875,0.01821582391858101,-0.00567216519266367,0.01622186228632927
1782984603835268900,1.986268798828125,0.017010821029543877,0.008591349236667156,0.007207050919532776
1782984603845343000,1.996343017578125,0.014691206626594067,0.01057274080812931,0.00013316248077899218
1782984603855417000,2.0064169921875,0.010597441345453262,0.015460528433322906,-0.004253800492733717
1782984603865492000,2.016491943359375,0.00665889261290431,0.021583402529358864,-0.004266849718987942
1782984603875566000,2.026566162109375,-0.0005758507177233696,0.04663496091961861,0.008713397197425365
1782984603885640000,2.036639892578125,-0.004253676161170006,0.0622304268181324,0.026657510548830032
1782984603895714000,2.046714111328125,0.0019264054717496037,0.058342382311820984,0.04308074712753296
1782984603905788000,2.056787841796875,0.012752688489854336,0.04581034556031227,0.05805037543177605
1782984603915861800,2.06686181640625,0.02611958049237728,0.00974652823060751,0.06175690144300461
1782984603925937000,2.07693701171875,0.03833816573023796,-0.029257329180836678,0.04304793104529381
1782984603936010800,2.0870107421875,0.05010374262928963,-0.041760075837373734,0.009552820585668087
1782984603946084900,2.0970849609375,0.05114157870411873,-0.047778017818927765,-0.03178183734416962
1782984603956159000,2.107158935546875,0.047017354518175125,-0.03476564586162567,-0.06967323273420334
1782984603966232800,2.11723291015625,0.03988887369632721,-0.00963579211384058,-0.09782177954912186
1782984603976306700,2.127306640625,0.027816951274871826,0.005827165208756924,-0.09835600107908249
1782984603986381800,2.1373818359375,0.019075125455856323,0.025073030963540077,-0.07536999136209488
1782984603996455700,2.14745556640625,0.006255549844354391,0.024199681356549263,-0.039088550955057144
1782984604006529800,2.15752978515625,0.007691259495913982,0.009762685745954514,-0.008152204565703869
1782984604016603600,2.167603759765625,0.011966781690716743,-0.001218958292156458,0.005347069818526506
1782984604026677800,2.177677734375,0.022206369787454605,-0.0013718237169086933,0.009407858364284039
1782984604036752000,2.187751953125,0.02670424059033394,0.0074811652302742004,0.006131196394562721
1782984604046826800,2.19782666015625,0.023868773132562637,0.01975673995912075,-0.0015352455666288733
1782984604056900900,2.20790087890625,0.019811661913990974,0.02040991187095642,-0.006057502701878548
1782984604066975000,2.21797509765625,0.012816071510314941,0.01740426942706108,-0.00415866868570447
1782984604077048800,2.228048828125,0.007504134438931942,-0.0002170561347156763,-0.008127963170409203
1782984604087122700,2.238122802734375,0.0026997923851013184,-0.0032581198029220104,-0.0075945318676531315
1782984604097197800,2.24819775390625,-0.00284011522307992,0.011827622540295124,-0.010587658733129501
1782984604107271700,2.258271728515625,-0.014722607098519802,0.029754159972071648,-0.013803158886730671
1782984604117345800,2.268345703125,-0.018224086612462997,0.03756077215075493,-0.01246565766632557
1782984604127419600,2.278419677734375,-0.018129544332623482,0.035788435488939285,-0.013072592206299305
1782984604137493800,2.28849365234375,-0.017290115356445312,0.036748506128787994,-0.01763218827545643
1782984604147567900,2.29856787109375,-0.01156511902809143,0.03636687621474266,-0.012266986072063446
1782984604157642800,2.308642822265625,-0.014058247208595276,0.033509284257888794,-0.0027400085236877203
1782984604167716900,2.318716796875,-0.011990036815404892,0.026120873168110847,0.005320314783602953
1782984604177791000,2.328791015625,-0.0063079167157411575,0.019726090133190155,0.009485232643783092
1782984604187864800,2.33886474609375,-0.004256217274814844,0.020029691979289055,0.010846640914678574
1782984604197938700,2.348938720703125,-0.006198966410011053,0.030156949535012245,0.02363811433315277
1782984604208012800,2.3590126953125,-0.007606180850416422,0.037808746099472046,0.0374242328107357
1782984604218087700,2.369087646484375,-0.006956563331186771,0.043624166399240494,0.052204884588718414
1782984604228161800,2.379161865234375,-0.007248445879667997,0.053381722420454025,0.055942632257938385
1782984604238235600,2.389235595703125,-0.004083283711224794,0.07257937639951706,0.05381941422820091
1782984604248309800,2.399309814453125,0.00687828753143549,0.06860966980457306,0.04429781436920166
1782984604258384000,2.4093837890625,0.017231065779924393,0.07145686447620392,0.03699237480759621
1782984604268458000,2.4194580078125,0.02226097695529461,0.06021619215607643,0.028939245268702507
1782984604278532900,2.429532958984375,0.03110526315867901,0.04028788208961487,0.017037203535437584
1782984604288607000,2.43960693359375,0.03737913444638252,0.028971310704946518,0.001346923760138452
1782984604298680800,2.449680908203125,0.04643368721008301,0.008987082168459892,-0.02153233252465725
1782984604308754700,2.459754638671875,0.054603464901447296,0.010492833331227303,-0.04325627163052559
1782984604318828800,2.469828857421875,0.04638281837105751,0.017233027145266533,-0.05878382921218872
1782984604328902700,2.479902587890625,0.03838428109884262,0.02076597698032856,-0.06351840496063232
1782984604338977800,2.489977783203125,0.0289425328373909,0.02254008688032627,-0.05338220298290253
1782984604349051600,2.5000517578125,0.022595154121518135,0.0245790034532547,-0.046579424291849136
1782984604359125800,2.510125732421875,0.020106934010982513,0.028436802327632904,-0.04074528068304062
1782984604369199900,2.520199951171875,0.02207820676267147,0.02600533701479435,-0.024827836081385612
1782984604379274000,2.53027392578125,0.015198173932731152,0.017691968008875847,-0.008693771436810493
1782984604389348900,2.540348876953125,0.00809206161648035,0.013240761123597622,0.00042728896369226277
1782984604399423000,2.550423095703125,0.004985777661204338,0.013820054940879345,-0.00189600745216012
1782984604409496800,2.560496826171875,0.009268141351640224,0.01676817424595356,-0.009697738103568554
1782984604419570700,2.57057080078125,0.003937363158911467,0.03499099612236023,-0.009105343371629715
1782984604429644800,2.580644775390625,0.006523026153445244,0.048512931913137436,0.0008777823532000184
1782984604439718700,2.59071875,-0.003578636795282364,0.04817438870668411,0.02029244787991047
1782984604449793800,2.600793701171875,-0.008834651671350002,0.038428016006946564,0.03592866286635399
1782984604459867600,2.61086767578125,-0.009803270921111107,0.012589441612362862,0.035798657685518265
1782984604469941800,2.620941650390625,-0.0091848848387599,0.0078080021776258945,0.024081014096736908
1782984604480016000,2.631015869140625,-0.01576942391693592,0.006120878271758556,0.010673795826733112
1782984604490090000,2.641090087890625,-0.01836041361093521,0.006819957867264748,-0.001431336859241128
1782984604500163800,2.651163818359375,-0.015927426517009735,0.017414921894669533,-0.00808896217495203
1782984604510239000,2.661239013671875,-0.02353447861969471,0.019284194335341454,-0.017060086131095886
1782984604520312800,2.671312744140625,-0.026468094438314438,0.010078158229589462,-0.023062001913785934
1782984604530386700,2.68138671875,-0.02358096092939377,0.0013432556297630072,-0.029317235574126244
1782984604540460800,2.691460693359375,-0.024513984099030495,-0.009491514414548874,-0.040404412895441055
1782984604550534700,2.70153466796875,-0.021512867882847786,-0.021121272817254066,-0.05100538954138756
1782984604560609800,2.71160986328125,-0.02708236500620842,-0.022921893745660782,-0.049178771674633026
1782984604570683600,2.72168359375,-0.03892703726887703,-0.01748078688979149,-0.042257484048604965
1782984604580757800,2.7317578125,-0.050821542739868164,0.0034838272258639336,-0.026536356657743454
1782984604590831900,2.741831787109375,-0.061054740101099014,0.02611004374921322,-0.012693776749074459
1782984604600906000,2.751906005859375,-0.06664367765188217,0.04696068540215492,0.0053180824033916
1782984604610979800,2.761979736328125,-0.0664636418223381,0.04537450522184372,0.021787868812680244
1782984604621055000,2.772054931640625,-0.05265500396490097,0.022376280277967453,0.02525806427001953
1782984604631128800,2.78212890625,-0.041137099266052246,-0.015045925974845886,0.01802385412156582
1782984604641202700,2.79220263671875,-0.027117785066366196,-0.04775374010205269,0.0034924286883324385
1782984604651276800,2.80227685546875,-0.018686482682824135,-0.06342324614524841,-0.013198666274547577
1782984604661350700,2.8123505859375,-0.022884907200932503,-0.04129520803689957,-0.0334070548415184
1782984604671424800,2.8224248046875,-0.024463096633553505,-0.01947619579732418,-0.03881220892071724
1782984604681499600,2.832499755859375,-0.029770050197839737,-0.006186099722981453,-0.03726768121123314
1782984604691573800,2.84257373046875,-0.029589220881462097,-0.002151676919311285,-0.018792536109685898
1782984604701648000,2.85264794921875,-0.03179921954870224,-0.007557570934295654,0.012748578563332558
1782984604711722000,2.862721923828125,-0.026398859918117523,-0.03827633336186409,0.04555286467075348
1782984604721795800,2.8727958984375,-0.021137773990631104,-0.056662511080503464,0.07522263377904892
1782984604731869700,2.88286962890625,-0.01768338866531849,-0.06169295683503151,0.09276115149259567
1782984604741944800,2.89294482421875,-0.01642308384180069,-0.054452165961265564,0.08650299906730652
1782984604752018700,2.903018798828125,-0.017133882269263268,-0.0304885096848011,0.0781041830778122
1782984604762092800,2.9130927734375,-0.015576083213090897,-0.016392165794968605,0.07366273552179337
1782984604772166700,2.923166748046875,-0.016897276043891907,-0.009211750701069832,0.07105283439159393
1782984604782240800,2.93324072265625,-0.012654091231524944,-0.020084425806999207,0.06420180946588516
1782984604792315000,2.94331494140625,-0.013901782222092152,-0.0261220782995224,0.05624987557530403
1782984604802389800,2.9533896484375,-0.01404718030244112,-0.030231580138206482,0.046053193509578705
1782984604812463900,2.9634638671875,-0.0168999582529068,-0.024243196472525597,0.04119345545768738
1782984604822538000,2.9735380859375,-0.018261516466736794,-0.016314201056957245,0.03301665559411049
1782984604832611800,2.98361181640625,-0.022342277690768242,-0.012031571939587593,0.03150637820363045
1782984604842685700,2.993685791015625,-0.017791850492358208,-0.00783199816942215,0.018719039857387543
1782984604852760800,3.0037607421875,-0.010652182623744011,-0.010346289724111557,0.0020223520696163177
1782984604862834700,3.013834716796875,-0.010734306648373604,-0.010540368035435677,-0.00007077887130435556
1782984604872908800,3.02390869140625,-0.011604893952608109,-0.016926361247897148,0.002436320995911956
1782984604882982700,3.033982666015625,-0.016785353422164917,-0.020973989740014076,0.009741649031639099
1782984604893056800,3.044056884765625,-0.020008577033877373,-0.01636112853884697,0.010816235095262527
1782984604903131000,3.054130859375,-0.019792910665273666,-0.005237736739218235,0.004552803002297878
1782984604913205800,3.064205810546875,-0.019481588155031204,0.000261158449575305,-0.0017516983207315207
1782984604923280000,3.07427978515625,-0.015608740039169788,0.009996764361858368,0.0020728560630232096
1782984604933353700,3.084353759765625,-0.014061976224184036,0.0057413000613451,0.00844873022288084
1782984604943427800,3.094427734375,-0.00718102278187871,-0.007503909524530172,0.01521310769021511
1782984604953501700,3.104501708984375,0.004816517699509859,-0.016326162964105606,0.021260615438222885
1782984604963575800,3.114575927734375,0.0047368439845740795,-0.0012271931627765298,0.02612561546266079
1782984604973650200,3.124650146484375,0.009271142072975636,-0.0009973624255508184,0.0310580562800169
1782984604983724300,3.134724365234375,0.011419243179261684,-0.0017491849139332771,0.04329247027635574
1782984604993798100,3.144798095703125,0.015598274767398834,-0.006621704436838627,0.0491785891354084
1782984605003872500,3.15487255859375,0.017773518338799477,-0.020113065838813782,0.046737223863601685
1782984605013946400,3.1649462890625,0.023357367143034935,-0.032531119883060455,0.03905613347887993
1782984605024020500,3.1750205078125,0.020069284364581108,-0.036496322602033615,0.028749484568834305
1782984605034095400,3.185095458984375,0.01856779307126999,-0.023148559033870697,0.01662597805261612
1782984605044169500,3.19516943359375,0.015921777114272118,-0.025090869516134262,0.010487543419003487
1782984605054243300,3.205243408203125,0.01317019946873188,-0.027149759232997894,-0.003538259770721197
1782984605064317200,3.215317138671875,0.007759310770779848,-0.01966150663793087,-0.0064892577938735485
1782984605074391300,3.225391357421875,0.0015152634587138891,-0.010037374682724476,-0.005332913249731064
1782984605084466200,3.235466064453125,-0.005355037748813629,-0.014464103616774082,-0.00479064229875803
1782984605094540300,3.245540283203125,-0.006071161478757858,-0.01976752281188965,-0.0036132591776549816
1782984605104614100,3.2556142578125,-0.00764264864847064,-0.015787072479724884,-0.006215371657162905
1782984605114688500,3.2656884765625,-0.008477549068629742,-0.01377398893237114,-0.0057418616488575935
1782984605124762400,3.275762451171875,-0.007565899286419153,-0.012981599196791649,0.0034401286393404007
1782984605134836500,3.28583642578125,-0.004649205598980188,-0.020249100401997566,0.007183734327554703
1782984605144911400,3.295911376953125,-0.0012108702212572098,-0.021336345002055168,0.010010305792093277
1782984605154985500,3.3059853515625,0.0022682833950966597,-0.022600281983613968,0.008910419419407845
1782984605165059300,3.316059326171875,0.0041658622212708,-0.022497860714793205,0.01195813063532114
1782984605175133200,3.32613330078125,-0.0016566065605729818,-0.007191342301666737,0.015563251450657845
1782984605185207300,3.336207275390625,-0.006008527707308531,0.004890786483883858,0.026672950014472008
1782984605195281200,3.34628125,-0.009214706718921661,0.014131423085927963,0.026599979028105736
1782984605205356300,3.356356201171875,-0.009036253206431866,0.013057147152721882,0.022366518154740334
1782984605215430100,3.36643017578125,-0.005754972342401743,0.00020819413475692272,0.014978109858930111
1782984605225504500,3.37650439453125,-0.005339352879673243,-0.01787327229976654,0.0018752042669802904
1782984605235578400,3.386578369140625,0.0010911159915849566,-0.022905314341187477,-0.008232557214796543
1782984605245652500,3.396652587890625,0.0038317968137562275,-0.023917801678180695,-0.008243845775723457
1782984605255726300,3.406726318359375,0.004362298641353846,-0.033366698771715164,-0.003907952457666397
1782984605265801500,3.416801513671875,0.0027457159012556076,-0.0379604734480381,-0.0014693576376885176
1782984605275875300,3.426875244140625,0.0054536182433366776,-0.02918163128197193,-0.004790052771568298
1782984605285949200,3.43694921875,0.003401386085897684,-0.01400534063577652,-0.001369489124044776
1782984605296023300,3.447023193359375,0.0004884205991402268,-0.017352402210235596,0.0019552011508494616
1782984605306097200,3.45709716796875,-0.003576872870326042,-0.02341317944228649,0.009569342248141766
1782984605316171500,3.467171630859375,0.000619470258243382,-0.032989904284477234,0.012869798578321934
1782984605326246100,3.47724609375,-0.0007483014487661421,-0.022171292454004288,0.015319685451686382
1782984605336320500,3.487320556640625,0.000846399343572557,-0.020053545013070107,0.00914035364985466
1782984605346394400,3.497394287109375,-0.004471789114177227,0.010166164487600327,0.014422149397432804
1782984605356468500,3.507468505859375,-0.006849992088973522,0.024366937577724457,0.027094801887869835
1782984605366542300,3.517542236328125,-0.002740495838224888,0.01429640594869852,0.04356667399406433
1782984605376616200,3.5276162109375,0.002371707931160927,-0.001835159957408905,0.05210663378238678
1782984605386691300,3.53769140625,0.007270542439073324,-0.029418684542179108,0.040653496980667114
1782984605396765200,3.54776513671875,0.022942978888750076,-0.045646123588085175,0.011453001759946346
1782984605406839300,3.55783935546875,0.03783511742949486,-0.04726504907011986,-0.023767687380313873
1782984605416913200,3.5679130859375,0.04285970330238342,-0.03745343163609505,-0.051343388855457306
1782984605426987500,3.577987548828125,0.03989702835679054,-0.027476774528622627,-0.06286342442035675
1782984605437062100,3.588062255859375,0.03757501766085625,-0.028437908738851547,-0.06432309746742249
1782984605447136500,3.598136474609375,0.024021826684474945,-0.01848693937063217,-0.0537656806409359
1782984605457210400,3.60821044921875,0.015136987902224064,-0.015783032402396202,-0.03749296814203262
1782984605467284500,3.618284423828125,0.01290180254727602,-0.019085343927145004,-0.025295276194810867
1782984605477358300,3.6283583984375,0.013688233681023121,-0.01475078146904707,-0.016376616433262825
1782984605487432200,3.63843212890625,0.016940774396061897,-0.017233602702617645,-0.00904983002692461
1782984605497507300,3.64850732421875,0.015847280621528625,-0.01647193729877472,0.004831363912671804
1782984605507581200,3.658581298828125,0.016752682626247406,-0.012733004055917263,0.006386276334524155
1782984605517655300,3.6686552734375,0.019351130351424217,-0.005378951318562031,0.001245576422661543
1782984605527729200,3.678729248046875,0.01870567351579666,-0.004221884533762932,-0.003733996767550707
1782984605537803500,3.688803466796875,0.015565273351967335,-0.007053890265524387,-0.002536373445764184
1782984605547877400,3.69887744140625,0.008420650847256184,-0.010503537952899933,0.007820427417755127
1782984605557952500,3.708952392578125,0.00426079286262393,-0.012516088783740997,0.0201796256005764
1782984605568026400,3.7190263671875,0.001513709663413465,-0.0066598644480109215,0.020625513046979904
1782984605578100200,3.729100341796875,-0.004473076201975346,0.0030947618652135134,0.016729841008782387
1782984605588174300,3.73917431640625,-0.0034964673686772585,0.012146901339292526,0.01606755703687668
1782984605598248200,3.749248291015625,0.004536159336566925,0.012401766143739223,0.006463932804763317
1782984605608322300,3.759322265625,0.0070012351498007774,0.014752650633454323,0.0022298633120954037
1782984605618397200,3.769397216796875,0.001568918931297958,0.005063005723059177,-0.0017542256973683834
1782984605628471300,3.77947119140625,0.004662320949137211,0.0006994255818426609,-0.005920939147472382
1782984605638545200,3.789545166015625,0.006882598157972097,-0.0069268024526536465,-0.009954030625522137
1782984605648619500,3.79961962890625,0.005002162419259548,0.0023908433504402637,-0.02019451931118965
1782984605658693400,3.809693359375,0.008074916899204254,0.020682232454419136,-0.028462568297982216
1782984605668767200,3.819767333984375,0.006294044200330973,0.02525191940367222,-0.03700147941708565
1782984605678842400,3.82984228515625,0.0003266989951953292,0.03676476329565048,-0.03648136556148529
1782984605688916200,3.839916259765625,0.0005500118713825941,0.03149890527129173,-0.02474474534392357
1782984605698990300,3.849990234375,-0.0026343297213315964,0.036927491426467896,-0.003695386229082942
1782984605709064200,3.860064208984375,-0.0027210721746087074,0.03342745453119278,0.019898878410458565
1782984605719138300,3.87013818359375,0.0071707069873809814,0.031415704637765884,0.03483175113797188
1782984605729213200,3.880213134765625,0.021490974351763725,0.021617237478494644,0.035873714834451675
1782984605739287300,3.890287353515625,0.030622685328125954,0.012182989157736301,0.03313545137643814
1782984605749361200,3.900361083984375,0.037671398371458054,0.013034378178417683,0.025574520230293274
1782984605759435500,3.910435546875,0.04000219702720642,0.011081482283771038,0.020102789625525475
1782984605769509400,3.92050927734375,0.03391542658209801,0.010457536205649376,0.016449296846985817
1782984605779583200,3.930583251953125,0.026799991726875305,0.014145482331514359,0.00198167422786355
1782984605789658400,3.940658447265625,0.02524343878030777,0.026378313079476357,-0.01339199673384428
1782984605799732200,3.950732177734375,0.019721906632184982,0.036615774035453796,-0.028917692601680756
1782984605809806300,3.960806396484375,0.018610386177897453,0.038147520273923874,-0.04814664274454117
1782984605819880200,3.970880126953125,0.020198430866003036,0.025935595855116844,-0.05338401719927788
1782984605829954300,3.980954345703125,0.013389335945248604,0.020838730037212372,-0.05455102398991585
1782984605840028200,3.991028076171875,0.017924966290593147,0.009368229657411575,-0.049246273934841156
1782984605850102500,4.0011025390625,0.01725742407143116,0.011759167537093163,-0.03800877928733826
1782984605860176400,4.01117626953125,0.017722679302096367,0.018436776474118233,-0.033854514360427856
1782984605870250200,4.021250244140625,0.012485717423260212,0.03098454885184765,-0.028838498517870903
1782984605880325400,4.031325439453125,0.0109378881752491,0.03164448216557503,-0.027966579422354698
1782984605890399200,4.041399169921875,0.017295384779572487,0.03094460256397724,-0.02532099559903145
1782984605900473300,4.051473388671875,0.02266165427863598,0.028367992490530014,-0.025951633229851723
1782984605910547200,4.061547119140625,0.02225262112915516,0.017014194279909134,-0.029098112136125565
1782984605920621300,4.071621337890625,0.027180001139640808,0.013116657733917236,-0.04027513414621353
1782984605930695200,4.081695068359375,0.028365975245833397,0.015660110861063004,-0.0477173775434494
1782984605940770300,4.091770263671875,0.025886571034789085,0.015804454684257507,-0.06047232076525688
1782984605950844200,4.10184423828125,0.028031347319483757,0.02309965342283249,-0.07121144235134125
1782984605960918500,4.11191845703125,0.017892692238092422,0.033188775181770325,-0.06935148686170578
1782984605970993000,4.121992919921875,0.01665666699409485,0.031385164707899094,-0.07318546622991562
1782984605981067000,4.13206689453125,0.0114256851375103,0.028636250644922256,-0.07557085901498795
1782984605991140900,4.142140869140625,0.012827817350625992,0.022449949756264687,-0.08021823316812515
1782984606001216000,4.152216064453125,0.017703533172607422,0.0060986741445958614,-0.08145740628242493
1782984606011289900,4.162289794921875,0.013277280144393444,-0.0069240727461874485,-0.08077295869588852
1782984606021364000,4.172364013671875,0.007755216211080551,-0.013962807133793831,-0.07189131528139114
1782984606031437800,4.182437744140625,0.003385479561984539,-0.020493987947702408,-0.07002567499876022
1782984606041512000,4.192511962890625,0.006322413682937622,-0.019081713631749153,-0.06949596852064133
1782984606051585800,4.202585693359375,0.005813483148813248,-0.02826083078980446,-0.07641220092773438
1782984606061661000,4.212660888671875,-0.0029808070976287127,0.007105149328708649,-0.07349523901939392
1782984606071734800,4.22273486328125,-0.004289723467081785,0.04521556943655014,-0.05381469801068306
1782984606081809000,4.232808837890625,-0.011819012463092804,0.0598810650408268,-0.031099801883101463
1782984606091883000,4.242883056640625,-0.014140566810965538,0.06049344316124916,0.0022416552528738976
1782984606101956900,4.252956787109375,-0.014499827288091183,0.04315226897597313,0.0326584167778492
1782984606112031000,4.263031005859375,-0.007353429216891527,0.015183361247181892,0.036528896540403366
1782984606122105900,4.27310595703125,0.013592332601547241,-0.009197346866130829,0.0169884841889143
1782984606132180000,4.283179931640625,0.027459513396024704,-0.01857973076403141,-0.012184694409370422
1782984606142253800,4.29325390625,0.030645184218883514,-0.028945552185177803,-0.03725835308432579
1782984606152328000,4.303327880859375,0.02876163460314274,-0.02585447207093239,-0.04692453145980835
1782984606162401800,4.31340185546875,0.020065614953637123,-0.012043851427733898,-0.04766169190406799
1782984606172476000,4.323475830078125,0.007367321290075779,0.0052979616448283195,-0.03750332072377205
1782984606182550800,4.33355078125,-0.002952694660052657,0.017036642879247665,-0.022962193936109543
1782984606192625000,4.343625,-0.005454274360090494,0.011992205865681171,-0.011729089543223381
1782984606202699000,4.353698974609375,-0.0006507306825369596,0.002320936182513833,-0.0027659547049552202
1782984606212772900,4.36377294921875,0.003758710343390703,0.007389286532998085,-0.013603892177343369
1782984606222847000,4.373846923828125,0.013392696157097816,0.004563938360661268,-0.01896669901907444
1782984606232921900,4.383921875,0.024552449584007263,0.018734442070126534,-0.024303879588842392
1782984606242996000,4.393995849609375,0.02333138883113861,0.028836609795689583,0.00014180922880768776
1782984606253069800,4.40406982421875,0.016171270981431007,0.023278439417481422,0.04277244955301285
1782984606263144000,4.41414404296875,0.006968983914703131,0.010140265338122845,0.08733832091093063
1782984606273217800,4.4242177734375,0.007651113905012608,0.003490806557238102,0.10145681351423264
1782984606283292000,4.4342919921875,0.005745356436818838,0.008650947362184525,0.08284877240657806
1782984606293366800,4.44436669921875,0.007830589078366756,0.0070673879235982895,0.05739650875329971
1782984606303441000,4.45444091796875,0.0067416224628686905,0.021135270595550537,0.03423366695642471
1782984606313515000,4.464514892578125,-0.0007993350736796856,0.03192516416311264,0.02395540475845337
1782984606323588900,4.4745888671875,-0.012540945783257484,0.0503196194767952,0.03509034588932991
1782984606333663000,4.4846630859375,-0.018701158463954926,0.04276092350482941,0.057817406952381134
1782984606343736800,4.49473681640625,-0.019741389900445938,0.029580676928162575,0.08365193754434586
1782984606353812000,4.50481201171875,-0.026051383465528488,-0.0026399120688438416,0.11091406643390656
1782984606363885800,4.5148857421875,-0.01065777987241745,-0.029739705845713615,0.11700018495321274
1782984606373960000,4.5249599609375,0.010536459274590015,-0.04819460213184357,0.09906262159347534
1782984606384033800,4.53503369140625,0.019403986632823944,-0.0406876839697361,0.0920443907380104
1782984606394108000,4.54510791015625,0.024746261537075043,-0.034836508333683014,0.08388654887676239
1782984606404182000,4.55518212890625,0.027529265731573105,-0.033528365194797516,0.07769523561000824
1782984606414257000,4.5652568359375,0.02202848345041275,-0.01999901607632637,0.07910574227571487
1782984606424331000,4.5753310546875,0.021624214947223663,-0.013326199725270271,0.08053000271320343
1782984606434404900,4.58540478515625,0.02158658765256405,-0.0009975185384973884,0.08037315309047699
1782984606444479000,4.59547900390625,0.016153737902641296,0.019616147503256798,0.0783584713935852
1782984606454552800,4.605552734375,0.012152145616710186,0.020196327939629555,0.0744147002696991
1782984606464626700,4.615626708984375,0.020405814051628113,0.01902107335627079,0.07051023840904236
1782984606474701800,4.625701904296875,0.02045811526477337,0.008306059055030346,0.06675548106431961
1782984606484776000,4.63577587890625,0.02269596979022026,-0.006098445970565081,0.056384336203336716
1782984606494850000,4.64585009765625,0.02124490961432457,-0.01464247889816761,0.04721055179834366
1782984606504924000,4.655923828125,0.025653239339590073,-0.023985380306839943,0.03902639076113701
1782984606514998000,4.665998046875,0.02284884639084339,-0.019370820373296738,0.032295119017362595
1782984606525072000,4.67607177734375,0.016602935269474983,-0.0164373479783535,0.024222807958722115
1782984606535147000,4.68614697265625,0.013120376504957676,-0.012721330858767033,0.01654287613928318
1782984606545220900,4.696220947265625,0.006881388369947672,-0.0002388283610343933,0.011503642424941063
1782984606555295000,4.706294921875,0.006354155018925667,0.009366538375616074,0.0054740868508815765
1782984606565368800,4.716368896484375,0.0025149420835077763,0.022543326020240784,0.003950226120650768
1782984606575442700,4.726442626953125,-0.0032783104106783867,0.025714199990034103,0.011070463806390762
1782984606585517000,4.73651708984375,-0.011419327929615974,0.0210491381585598,0.013004185631871223
1782984606595592000,4.746592041015625,-0.015572837553918362,0.01177832018584013,0.01400733646005392
1782984606605666000,4.756666015625,-0.012424981221556664,0.0072677237913012505,0.010645628906786442
1782984606615740000,4.766739990234375,-0.013207129202783108,0.0047106011770665646,0.003946344833821058
1782984606625814000,4.77681396484375,-0.00846590381115675,0.007205184083431959,0.0067815459333360195
1782984606635887900,4.786887939453125,-0.003995276987552643,0.002131817629560828,0.013836361467838287
1782984606645963000,4.796962890625,-0.00208472553640604,-0.011827940121293068,0.021418912336230278
1782984606656036900,4.807036865234375,0.0038665905594825745,-0.019865725189447403,0.024194518104195595
1782984606666111000,4.817111083984375,0.0068554566241800785,-0.01695995032787323,0.016382932662963867
1782984606676184800,4.827184814453125,0.013731665909290314,-0.012416476383805275,-0.007161649409681559
1782984606686258700,4.8372587890625,0.01605314388871193,0.0006175665184855461,-0.01950060762465
1782984606696333000,4.8473330078125,0.012602174654603004,0.005598654970526695,-0.018730750307440758
1782984606706408000,4.857407958984375,0.009123287163674831,-0.00045977067202329636,-0.009030451066792011
1782984606716482000,4.86748193359375,0.007881427183747292,-0.012571882456541061,0.007977248169481754
1782984606726556000,4.877555908203125,0.0023569667246192694,-0.03647961467504501,0.005065348464995623
1782984606736630000,4.887630126953125,-0.0017062404658645391,-0.020034370943903923,0.0027871159836649895
1782984606746704000,4.897703857421875,-0.008286644704639912,-0.003268173895776272,-0.006093460600823164
1782984606756778000,4.907778076171875,-0.015575528144836426,0.02520405873656273,-0.0016382476314902306
1782984606766852900,4.917852783203125,-0.018472516909241676,0.04279157519340515,0.008697214536368847
1782984606776927000,4.927927001953125,-0.022823704406619072,0.03851510211825371,0.031051618978381157
1782984606787000800,4.938000732421875,-0.01997731812298298,0.01625879853963852,0.05067378655076027
1782984606797074700,4.94807470703125,-0.0084993876516819,-0.008632224053144455,0.04227839410305023
1782984606807149000,4.958149169921875,0.0038720606826245785,-0.01708776131272316,0.020948603749275208
1782984606817223000,4.968222900390625,0.017413197085261345,-0.01827387884259224,-0.0189854484051466
1782984606827298000,4.978298095703125,0.022666016593575478,-0.016575314104557037,-0.05142221972346306
1782984606837372000,4.988371826171875,0.01537537295371294,-0.007277894765138626,-0.06591243296861649
1782984606847446000,4.998446044921875,0.0014422476524487138,-0.002671425463631749,-0.07039639353752136
1782984606857519900,5.008519775390625,-0.011025146581232548,0.0028587502893060446,-0.0507490336894989
1782984606867594000,5.018593994140625,-0.02389140985906124,0.007193312048912048,-0.028266096487641335
1782984606877667800,5.028667724609375,-0.026415344327688217,0.010940000414848328,-0.017521662637591362
1782984606887743000,5.038742919921875,-0.020913252606987953,0.000950483838096261,-0.01456235907971859
1782984606897816800,5.04881689453125,-0.007166109047830105,-0.00484474329277873,-0.020324112847447395
1782984606907890700,5.058890625,-0.0019556344486773014,0.005371941719204187,-0.027072029188275337
1782984606917965000,5.068965087890625,-0.0013047136599197984,0.011603828519582748,-0.018646525219082832
1782984606928039000,5.079038818359375,-0.006280830129981041,0.004386661574244499,-0.00020067329751327634
1782984606938113000,5.089113037109375,-0.007959297858178616,-0.0023333155550062656,0.011648846790194511
1782984606948188000,5.09918798828125,-0.005728634539991617,-0.020290743559598923,0.013242215849459171
1782984606958262000,5.109261962890625,-0.0018032575026154518,-0.02943495102226734,0.009755021892488003
1782984606968336000,5.1193359375,-0.0032019494101405144,-0.01979856938123703,-0.004572518635541201
1782984606978409500,5.129409423828125,-0.009000810794532299,-0.00898765679448843,-0.016915209591388702
1782984606988483600,5.139483642578125,-0.009838640689849854,0.012328283861279488,-0.024641839787364006
1782984606998558500,5.149558349609375,-0.0171065516769886,0.02174306847155094,-0.02495737373828888
1782984607008632600,5.159632568359375,-0.017080720514059067,0.008192906156182289,-0.02713663876056671
1782984607018706700,5.169706787109375,-0.009898245334625244,-0.009286362677812576,-0.026332469657063484
1782984607028780500,5.179780517578125,-0.000570790667552501,-0.032980240881443024,-0.025308217853307724
1782984607038854700,5.189854736328125,0.007297762203961611,-0.03961368650197983,-0.022601014003157616
1782984607048928500,5.199928466796875,0.01142965629696846,-0.04078414663672447,-0.02165612392127514
1782984607059003600,5.210003662109375,0.012122245505452156,-0.04753386229276657,-0.014157881028950214
1782984607069077500,5.220077392578125,0.010861771181225777,-0.04108448699116707,-0.008250190876424313
1782984607079151600,5.230151611328125,0.007233846466988325,-0.035557959228754044,-0.005635346285998821
1782984607089225500,5.2402255859375,0.0012678334023803473,-0.027454227209091187,-0.013616573065519333
1782984607099299600,5.250299560546875,-0.0034164064563810825,0.0055457912385463715,-0.011085919104516506
1782984607109373700,5.260373779296875,-0.010880714282393456,0.01308599952608347,-0.01231097336858511
1782984607119448600,5.270448486328125,-0.018440429121255875,0.019993839785456657,-0.006704180501401424
1782984607129522700,5.280522705078125,-0.019395172595977783,0.020094240084290504,0.0003145805385429412
1782984607139596500,5.290596435546875,-0.020432695746421814,0.013350140303373337,0.00409846194088459
1782984607149670700,5.300670654296875,-0.017052078619599342,0.013029761612415314,0.0038025849498808384
1782984607159744500,5.31074462890625,-0.011699513532221317,0.028181837871670723,-0.0025989064015448093
1782984607169818600,5.320818603515625,-0.009661662392318249,0.03291241452097893,-0.014734931290149689
1782984607179893500,5.3308935546875,-0.007242980413138866,0.036029644310474396,-0.020307861268520355
1782984607189967600,5.340967529296875,-0.000493464816827327,0.01763492077589035,-0.019215965643525124
1782984607200041500,5.35104150390625,0.0025205067358911037,0.004881720524281263,-0.011747822165489197
1782984607210115600,5.361115478515625,0.0013268779730424285,0.004383975639939308,0.0070570241659879684
1782984607220189700,5.371189697265625,-0.00013860955368727446,-0.0006796593079343438,0.01684967800974846
1782984607230263600,5.381263671875,-0.0017599420389160514,0.001423439010977745,0.02496938966214657
1782984607240338700,5.391338623046875,-0.0025263498537242413,0.017677078023552895,0.024074245244264603
1782984607250412500,5.40141259765625,-0.0012605494121089578,0.023441756144165993,0.00991794466972351
1782984607260486700,5.411486572265625,0.0029938442166894674,0.025706233456730843,0.007635734509676695
1782984607270560500,5.421560546875,0.0012982096523046494,0.02256290428340435,0.000773034815210849
1782984607280634600,5.431634521484375,0.0025429273955523968,0.02365417592227459,-0.0016933806473389268
1782984607290709500,5.44170947265625,0.011156922206282616,0.01680079661309719,-0.004708877764642239
1782984607300783600,5.45178369140625,0.014330077916383743,0.020554522052407265,-0.0026209596544504166
1782984607310857500,5.461857421875,0.016987379640340805,0.01800214871764183,0.00791850034147501
1782984607320931600,5.471931640625,0.01405241061002016,0.025024838745594025,0.01370916422456503
1782984607331005700,5.482005615234375,0.015444179065525532,0.02651221491396427,0.025034522637724876
1782984607341079600,5.49207958984375,0.01600525714457035,0.012964613735675812,0.03568962216377258
1782984607351154700,5.50215478515625,0.021280447021126747,-0.002885988214984536,0.03573809191584587
1782984607361228500,5.512228515625,0.02442183345556259,-0.015298337675631046,0.03562944382429123
1782984607371302700,5.522302734375,0.028233882039785385,-0.015539087355136871,0.03005331940948963
1782984607381376500,5.53237646484375,0.02846035175025463,-0.0018182826461270452,0.01735685206949711
1782984607391450600,5.54245068359375,0.024795308709144592,0.018252898007631302,0.014220179989933968
1782984607401524500,5.5525244140625,0.016639599576592445,0.04242392256855965,0.012706111185252666
1782984607411599600,5.562599609375,0.002396747237071395,0.054929330945014954,0.022223981097340584
1782984607421673500,5.572673583984375,-0.007360325660556555,0.06901761889457703,0.04323051869869232
1782984607431747600,5.58274755859375,-0.014312773942947388,0.05755190923810005,0.07297643274068832
1782984607441821700,5.59282177734375,-0.008478831499814987,0.03455023095011711,0.10743843019008636
1782984607451895600,5.6028955078125,0.0019439823227003217,0.013266250491142273,0.13679125905036926
1782984607461969700,5.6129697265625,0.02044273167848587,-0.013681144453585148,0.13563315570354462
1782984607472044500,5.62304443359375,0.04553636536002159,-0.023624856024980545,0.10996082425117493
1782984607482118700,5.63311865234375,0.05930709466338158,-0.020701657980680466,0.06504937261343002
1782984607492192500,5.643192626953125,0.06202564761042595,-0.018522394821047783,0.01567462831735611
1782984607502266600,5.6532666015625,0.05151063948869705,-0.011424104683101177,-0.018027085810899734
1782984607512340500,5.663340576171875,0.04017622768878937,-0.006912177428603172,-0.040047697722911835
1782984607522414600,5.67341455078125,0.02388722077012062,-0.00036516215186566114,-0.05119457095861435
1782984607532489500,5.683489501953125,0.010408163070678711,0.008984397165477276,-0.06482569128274918
1782984607542563600,5.6935634765625,0.006532175932079554,0.01694134622812271,-0.06702563166618347
1782984607552637700,5.7036376953125,0.005677833687514067,0.023454640060663223,-0.06384848058223724
1782984607562711600,5.713711669921875,0.009935329668223858,0.026754627004265785,-0.05246521532535553
1782984607572785700,5.72378564453125,0.01666540466248989,0.027252372354269028,-0.03512297570705414
1782984607582859500,5.733859619140625,0.01919323205947876,0.022566452622413635,-0.01699916273355484
1782984607592934700,5.7439345703125,0.019939983263611794,0.02240879461169243,0.0021431068889796734
1782984607603008500,5.754008544921875,0.02039971575140953,0.018401678651571274,0.017942683771252632
1782984607613082600,5.76408251953125,0.02491217665374279,0.005631555337458849,0.022458605468273163
1782984607623156500,5.774156494140625,0.031147725880146027,-0.010322333313524723,0.021124526858329773
1782984607633230600,5.784230712890625,0.03172430023550987,-0.008269302546977997,0.007472097873687744
1782984607643304700,5.7943046875,0.03243846446275711,-0.0005407307762652636,-0.01308937557041645
1782984607653379600,5.804379638671875,0.02978861890733242,0.01905347779393196,-0.031063849106431007
1782984607663453700,5.81445361328125,0.02545618824660778,0.019606616348028183,-0.03900086507201195
1782984607673527600,5.824527587890625,0.02179034613072872,0.018034018576145172,-0.04414742439985275
1782984607683601700,5.8346015625,0.01466473750770092,0.00917836558073759,-0.04147396981716156
1782984607693675500,5.844675537109375,0.007353028282523155,-0.00369002902880311,-0.04208649694919586
1782984607703750700,5.854750732421875,0.011203793808817863,0.01054290123283863,-0.04355268180370331
1782984607713824500,5.864824462890625,0.013028858229517937,0.017127299681305885,-0.04526083171367645
1782984607723898600,5.874898681640625,0.017880897969007492,0.014384565874934196,-0.046495161950588226
1782984607733972500,5.884972412109375,0.0214812271296978,0.021348999813199043,-0.04494200646877289
1782984607744046600,5.895046630859375,0.024755381047725677,0.021753933280706406,-0.04023757204413414
1782984607754120700,5.90512060546875,0.02327093668282032,0.025832831859588623,-0.03999655693769455
1782984607764195600,5.915195556640625,0.03205094859004021,0.03188640996813774,-0.04899720847606659
1782984607774269700,5.925269775390625,0.03922204300761223,0.03489391505718231,-0.051676347851753235
1782984607784343600,5.935343505859375,0.038233015686273575,0.03290732949972153,-0.04007672145962715
1782984607794417700,5.945417724609375,0.03790012001991272,0.021758005023002625,-0.02779688686132431
1782984607804491500,5.955491455078125,0.0432228147983551,0.0188582893460989,-0.013777853921055794
1782984607814565600,5.965565673828125,0.05030708760023117,0.02071983925998211,-0.01354908850044012
1782984607824640500,5.975640625,0.05518517643213272,0.026552382856607437,-0.018390079960227013
1782984607834714600,5.985714599609375,0.055692773312330246,0.010853315703570843,-0.027431778609752655
1782984607844788500,5.99578857421875,0.05788658931851387,0.0033240928314626217,-0.02452828548848629
1782984607854862600,6.005862548828125,0.05558961257338524,0.006380602717399597,-0.026560278609395027
1782984607864936700,6.015936767578125,0.05570344999432564,0.005028227344155312,-0.02788834646344185
1782984607875010600,6.026010498046875,0.04735364392399788,0.011457364074885845,-0.031288668513298035
1782984607885085700,6.036085693359375,0.03934253752231598,0.00711551308631897,-0.037463150918483734
1782984607895159600,6.04615966796875,0.03634009137749672,0.01084660179913044,-0.04248720407485962
1782984607905233700,6.056233642578125,0.038021478801965714,0.009813575074076653,-0.042969170957803726
1782984607915307500,6.0663076171875,0.0345282107591629,0.016367347911000252,-0.0379302017390728
1782984607925381600,6.076381591796875,0.029985670000314713,0.024087605997920036,-0.031885597854852676
1782984607935455500,6.08645556640625,0.02786952257156372,0.029373446479439735,-0.0327383428812027
1782984607945530600,6.096530517578125,0.027945199981331825,0.029849175363779068,-0.02970067784190178
1782984607955604500,6.1066044921875,0.027905786409974098,0.02294386550784111,-0.03273029252886772
1782984607965678600,6.1166787109375,0.028843995183706284,0.01951606757938862,-0.02481234446167946
1782984607975753000,6.1267529296875,0.03021978586912155,0.005989073775708675,-0.01994062401354313
1782984607985827300,6.136827392578125,0.0323740616440773,0.012778092175722122,-0.007246870547533035
1782984607995901200,6.146901123046875,0.028645101934671402,0.0112592913210392,-0.005598640069365501
1782984608005976300,6.156976318359375,0.02646176889538765,0.018103471025824547,-0.007351906504482031
1782984608016050200,6.16705029296875,0.02321670763194561,0.011968080885708332,-0.011855312623083591
1782984608026124300,6.177124267578125,0.014017955400049686,-0.00445895129814744,-0.02490069903433323
1782984608036198100,6.1871982421875,0.011027226224541664,-0.00272070593200624,-0.033653177320957184
1782984608046272000,6.19727197265625,-0.0026028770953416824,0.0021586494985967875,-0.043553538620471954
1782984608056347100,6.20734716796875,-0.008553178049623966,0.00977236032485962,-0.047407135367393494
1782984608066421200,6.217421142578125,-0.022588655352592468,0.021668804809451103,-0.03829393535852432
1782984608076495000,6.2274951171875,-0.031945936381816864,0.030870558694005013,-0.01800357736647129
1782984608086569000,6.23756884765625,-0.03137124329805374,0.02450663037598133,0.004484138451516628
1782984608096643300,6.247643310546875,-0.02611655741930008,0.024247771129012108,0.0356372632086277
1782984608106717200,6.25771728515625,-0.014134075492620468,0.00763308722525835,0.061121102422475815
1782984608116792300,6.267792236328125,0.0002475266810506582,-0.013318001292645931,0.06808260828256607
1782984608126866200,6.2778662109375,0.014278173446655273,-0.022671189159154892,0.05720806494355202
1782984608136940300,6.287940185546875,0.026100745424628258,-0.035147298127412796,0.03550543263554573
1782984608147014100,6.29801416015625,0.02725146897137165,-0.0291813425719738,0.006060413084924221
1782984608157088000,6.308087890625,0.02160024084150791,-0.023657945916056633,-0.03152664378285408
1782984608167162000,6.318162109375,0.01539965346455574,-0.016494741663336754,-0.05543522909283638
1782984608177237200,6.3282373046875,-0.003833961905911565,0.006010035052895546,-0.05820411816239357
1782984608187311000,6.33831103515625,-0.01932956464588642,0.004456613212823868,-0.048123251646757126
1782984608197385000,6.348385009765625,-0.02089283987879753,-0.001299809548072517,-0.02702835388481617
1782984608207459300,6.358459228515625,-0.01727578416466713,-0.01997772417962551,-0.006653517950326204
1782984608217533200,6.368533203125,-0.014124466106295586,-0.02424970082938671,0.014001159928739071
1782984608227607300,6.378607177734375,-0.006210034247487783,-0.025176912546157837,0.02224784903228283
1782984608237682200,6.38868212890625,-0.00018330075545236468,-0.016456658020615578,0.020053137093782425
1782984608247756300,6.39875634765625,0.0003965486539527774,-0.0013720747083425522,0.020145684480667114
1782984608257830100,6.408830078125,-0.009064597077667713,-0.0012871199287474155,0.02445174939930439
1782984608267904000,6.418904052734375,-0.008414332754909992,-0.004747271537780762,0.020962873473763466
1782984608277978000,6.42897802734375,-0.006604182068258524,-0.01845349557697773,0.012076969258487225
1782984608288052000,6.439052001953125,-0.0011901698308065534,-0.017825113609433174,-0.0010757425334304571
1782984608298127000,6.449127197265625,0.0004748385399580002,-0.026619138196110725,-0.017237136140465736
1782984608308201000,6.459200927734375,-0.013168053701519966,-0.01178329810500145,-0.01730206049978733
1782984608318275300,6.469275390625,-0.021939706057310104,-0.00654965452849865,-0.013315307907760143
1782984608328349200,6.47934912109375,-0.023395663127303123,-0.008767809718847275,-0.0050567276775836945
1782984608338423300,6.48942333984375,-0.023341601714491844,-0.011962272226810455,0.0013295328244566917
1782984608348497200,6.4994970703125,-0.017009463161230087,-0.01699736714363098,-0.00609517190605402
1782984608358572300,6.509572265625,-0.012880764901638031,-0.023044340312480927,-0.010630534961819649
1782984608368646100,6.519646240234375,-0.009793194942176342,-0.016914477571845055,-0.017787666991353035
1782984608378720000,6.529719970703125,-0.011047543957829475,-0.009688256308436394,-0.015551943331956863
1782984608388794000,6.539794189453125,-0.018698683008551598,0.0027723857201635838,-0.005637743044644594
1782984608398868000,6.549867919921875,-0.016017679125070572,0.012532338500022888,0.0034082161728292704
1782984608408942300,6.5599423828125,-0.01366722397506237,0.01728465035557747,0.010225432924926281
1782984608419017000,6.570016845703125,-0.011494883336126804,0.01994248479604721,0.019659681245684624
1782984608429091300,6.58009130859375,-0.0132391806691885,0.01178190391510725,0.03361794725060463
1782984608439165200,6.590165283203125,-0.0067762224934995174,-0.005648485384881496,0.0420074388384819
1782984608449239300,6.6002392578125,-0.004811952821910381,-0.013280460610985756,0.04099731147289276
1782984608459313200,6.610313232421875,0.00022461730986833572,-0.009378662332892418,0.027317453175783157
1782984608469388300,6.62038818359375,0.001739717903546989,-0.010672638192772865,0.01690906658768654
1782984608479462100,6.630462158203125,0.003760790918022394,-0.0022373422980308533,-0.002901923144236207
1782984608489536000,6.640535888671875,-0.0005207232898101211,0.00555010698735714,-0.013298694044351578
1782984608499610000,6.650610107421875,-0.004495757631957531,0.0068601155653595924,-0.017906228080391884
1782984608509684000,6.66068408203125,-0.009226037189364433,0.01110311970114708,-0.020747510716319084
1782984608519758300,6.67075830078125,-0.011603441089391708,0.017170067876577377,-0.014159115962684155
1782984608529833000,6.6808330078125,-0.01481042429804802,0.021349089220166206,-0.0039444430731236935
1782984608539907300,6.6909072265625,-0.011659638956189156,0.029223524034023285,0.0017073174240067601
1782984608549981200,6.700981201171875,-0.008730472065508366,0.02343585155904293,0.0072106774896383286
1782984608560055300,6.71105517578125,-0.004751709755510092,0.01807357743382454,0.004236991982907057
1782984608570129200,6.721129150390625,-0.001286237733438611,0.013180618174374104,0.0069237020798027515
1782984608580203000,6.731203125,0.00436951732262969,0.005455853417515755,-0.004847203381359577
1782984608590278100,6.741278076171875,0.009358949959278107,-0.0054130395874381065,-0.016884159296751022
1782984608600352000,6.75135205078125,0.0069469246082007885,-0.017579957842826843,-0.01527560967952013
1782984608610426000,6.761426025390625,0.010600745677947998,-0.027054479345679283,-0.015305898152291775
1782984608620500000,6.7715,0.006323975045233965,-0.02343258075416088,-0.019597582519054413
1782984608630574300,6.78157421875,0.0017002810491248965,-0.0040632495656609535,-0.02158416248857975
1782984608640648200,6.791648193359375,-0.00008962955325841904,0.0038892156444489956,-0.02663697674870491
1782984608650723300,6.801723388671875,-0.005378351546823978,0.019917815923690796,-0.027217604219913483
1782984608660797200,6.811797119140625,-0.012989932671189308,0.022938108071684837,-0.01854821667075157
1782984608670871300,6.821871337890625,-0.017380597069859505,0.017247110605239868,-0.01230377797037363
1782984608680945200,6.831945068359375,-0.015397075563669205,0.012517070397734642,-0.008020881563425064
1782984608691019000,6.84201904296875,-0.014455176889896393,0.004928804002702236,0.0039518121629953384
1782984608701093000,6.852093017578125,-0.01647411845624447,0.0006230049766600132,0.01034286618232727
1782984608711168000,6.86216796875,-0.009293153882026672,-0.009948646649718285,0.02025303803384304
1782984608721242000,6.8722421875,-0.008918979205191135,-0.006910779047757387,0.017862852662801743
1782984608731316000,6.88231591796875,-0.006626824848353863,-0.004071104805916548,0.009931912645697594
1782984608741390300,6.892390380859375,-0.00904630683362484,0.00673333927989006,0.0036686898674815893
1782984608751464200,6.902464111328125,-0.015683243051171303,0.00447483453899622,-0.0006896809209138155
1782984608761538300,6.912538330078125,-0.018261980265378952,0.001613800646737218,-0.005919063929468393
1782984608771613200,6.92261328125,-0.01555794570595026,0.0035736088175326586,0.0031499972101300955
1782984608781687300,6.932687255859375,-0.019709546118974686,0.004490534774959087,0.0005310447886586189
1782984608791761200,6.94276123046875,-0.011889491230249405,-0.00020258710719645023,-0.003357912879437208
1782984608801835000,6.9528349609375,-0.01120133139193058,-0.0005740980850532651,-0.0005474790814332664
1782984608811909000,6.9629091796875,-0.00416642427444458,0.0019205515272915363,0.005329964216798544
1782984608821983000,6.97298291015625,0.0008419164223596454,-0.014778267592191696,0.018288904801011086
1782984608832058000,6.98305810546875,0.0019324634922668338,-0.014225427061319351,0.03664392605423927
1782984608842132000,6.993132080078125,0.004850489087402821,-0.022087879478931427,0.044239263981580734
1782984608852206300,7.003206298828125,0.011516597121953964,-0.031086532399058342,0.04290667176246643
1782984608862280200,7.0132802734375,0.015444492921233177,-0.01993667520582676,0.027647027745842934
1782984608872354300,7.023354248046875,0.012536244466900826,-0.007666318211704493,0.009533283300697803
1782984608882429200,7.03342919921875,0.01636161096394062,-0.004920332692563534,-0.007940249517560005
1782984608892503300,7.04350341796875,0.011886827647686005,-0.0023647735361009836,-0.006518722511827946
1782984608902577200,7.0535771484375,0.0037545980885624886,-0.012198229320347309,-0.0034350482746958733
1782984608912651000,7.063651123046875,-0.0046993400901556015,-0.01472983043640852,0.002334956545382738
1782984608922725000,7.07372509765625,-0.009897563606500626,-0.010054650716483593,-0.009165638126432896
1782984608932799000,7.083799072265625,-0.01944311521947384,0.012669069692492485,-0.0072851637378335
1782984608942874000,7.0938740234375,-0.02354704588651657,0.03326435759663582,-0.0017721536569297314
1782984608952948000,7.103947998046875,-0.027256635949015617,0.041920822113752365,0.019104791805148125
1782984608963022300,7.114022216796875,-0.026472602039575577,0.03248071298003197,0.04880249872803688
1782984608973096000,7.124095947265625,-0.017574988305568695,0.011279813013970852,0.07671947032213211
1782984608983169800,7.134169677734375,-0.007312229368835688,-0.011712055653333664,0.07831177860498428
1782984608993244000,7.144243896484375,0.009225914254784584,-0.01695440337061882,0.048159606754779816
1782984609003319000,7.154319091796875,0.02190469205379486,-0.009279172867536545,-0.0029576397500932217
1782984609013393000,7.164392822265625,0.02437111735343933,0.000565878814086318,-0.039907559752464294
1782984609023466800,7.174466796875,0.014324873685836792,-0.007118672132492065,-0.051289111375808716
1782984609033540900,7.184540771484375,0.005087094847112894,-0.011999857611954212,-0.048837777227163315
1782984609043615000,7.194614990234375,-0.0018491080263629556,-0.015256904065608978,-0.02786165662109852
1782984609053689000,7.204689208984375,-0.016384907066822052,-0.005191220436245203,-0.010679741390049458
1782984609063764000,7.214763916015625,-0.01601020060479641,0.0034589930437505245,-0.0022644191049039364
1782984609073838000,7.224838134765625,-0.01302015408873558,0.009247074835002422,0.0014497949741780758
1782984609083912000,7.234911865234375,-0.007275449112057686,0.014756090007722378,0.001652727834880352
1782984609093985800,7.24498583984375,-0.0009604893857613206,0.01059025153517723,0.002289064694195986
1782984609104060000,7.255059814453125,0.0035317307338118553,0.005225047003477812,0.009062548168003559
1782984609114133800,7.2651337890625,-0.002499890513718128,0.005259744822978973,0.013968085870146751
1782984609124209000,7.275208984375,-0.0069510978646576405,0.01107369177043438,0.013279392383992672
1782984609134282800,7.28528271484375,-0.008081271313130856,0.008998967707157135,0.005340083967894316
1782984609144356900,7.29535693359375,-0.006033833138644695,-0.0031210787128657103,-0.008265472948551178
1782984609154431000,7.305430908203125,-0.000807135016657412,-0.010666923597455025,-0.022088242694735527
1782984609164505000,7.315505126953125,0.001489841379225254,-0.019275592640042305,-0.022368939593434334
1782984609174579000,7.325578857421875,-0.005342909134924412,-0.011948458850383759,-0.019133679568767548
1782984609184654000,7.335654052734375,-0.010081471875309944,0.0007873098365962505,-0.009711416438221931
1782984609194728000,7.34572802734375,-0.017059875652194023,0.016300778836011887,0.005693321581929922
1782984609204801800,7.3558017578125,-0.02275025099515915,0.025368042290210724,0.024268070235848427
1782984609214876000,7.3658759765625,-0.016805464401841164,0.019792072474956512,0.03342374041676521
1782984609224949800,7.37594970703125,-0.005523782689124346,0.006984930485486984,0.03112570010125637
1782984609235024000,7.38602392578125,0.0050428141839802265,0.0014415041077882051,0.02546856738626957
1782984609245098800,7.3960986328125,0.008377624675631523,-0.001461873995140195,0.004976608324795961
1782984609255172900,7.4061728515625,0.011144354939460754,0.00442472193390131,-0.008309148252010345
1782984609265247000,7.4162470703125,0.009607444517314434,0.006179744843393564,-0.021958116441965103
1782984609275321000,7.426321044921875,0.004527414683252573,0.01930902898311615,-0.02726493962109089
1782984609285395000,7.43639501953125,0.003251228015869856,0.020863518118858337,-0.01825147122144699
1782984609295470000,7.446469970703125,0.009647081606090069,0.024800743907690048,-0.010719637386500835
1782984609305544000,7.4565439453125,0.007708566728979349,0.030802978202700615,0.008444735780358315
1782984609315617800,7.46661767578125,0.0052270772866904736,0.02713216468691826,0.02349911443889141
1782984609325692000,7.47669189453125,0.006519243121147156,0.02786373533308506,0.038392309099435806
1782984609335765800,7.486765869140625,0.004540786147117615,0.03991800919175148,0.0381983146071434
1782984609345839900,7.49683984375,0.011825596913695335,0.04227916896343231,0.027547532692551613
1782984609355914800,7.506914794921875,0.02031969279050827,0.03797805681824684,0.021877305582165718
1782984609365988900,7.51698876953125,0.02309444174170494,0.03141229972243309,0.019809627905488014
1782984609376063000,7.52706298828125,0.02189803309738636,0.023634834215044975,0.021378327161073685
1782984609386137000,7.53713720703125,0.020775245502591133,0.02353683114051819,0.018659505993127823
1782984609396211000,7.5472109375,0.0224749892950058,0.014449560083448887,0.010927186347544193
1782984609406284800,7.557284912109375,0.02249203436076641,0.016689278185367584,0.001408515963703394
1782984609416360000,7.56735986328125,0.02237583138048649,0.01981937885284424,-0.004639114253222942
1782984609426433800,7.577433837890625,0.018272964283823967,0.026075411587953568,0.00035697579733096063
1782984609436508000,7.5875078125,0.016264764592051506,0.027031399309635162,0.004916964564472437
1782984609446581800,7.597581787109375,0.018227513879537582,0.02543563023209572,0.010542092844843864
1782984609456656000,7.60765576171875,0.012210663408041,0.01734393835067749,0.017096977680921555
1782984609466730000,7.61772998046875,0.007593007292598486,0.01975329965353012,0.014975503087043762
1782984609476804900,7.627804931640625,0.0100345928221941,0.033197466284036636,0.002683683531358838
1782984609486879000,7.63787890625,0.012374980375170708,0.033745281398296356,-0.006930594332516193
1782984609496953000,7.647953125,0.009912015870213509,0.02972589246928692,-0.007289163768291473
1782984609507027000,7.65802685546875,0.010293646715581417,0.014856933616101742,-0.003908014390617609
1782984609517100800,7.668100830078125,0.010171845555305481,0.013887887820601463,-0.0011290112743154168
1782984609527175000,7.6781748046875,0.010394752025604248,0.004217683337628841,0.00042068210314027965
1782984609537249800,7.688249755859375,0.01184740662574768,0.006949620321393013,0.0005480945110321045
1782984609547324000,7.698323974609375,0.0008371006697416306,0.00681300088763237,0.0033952801022678614
1782984609557397800,7.708397705078125,0.002234028186649084,0.00808645784854889,0.005318235140293837
1782984609567471900,7.718471923828125,-0.0011633664835244417,0.008140252903103828,0.005647135432809591
1782984609577546000,7.7285458984375,-0.004375915043056011,0.01735137216746807,0.00008928274473873898
1782984609587620000,7.7386201171875,-0.0025234203785657883,0.012432780116796494,0.0013476263266056776
1782984609597695000,7.748695068359375,0.0029363706707954407,0.00580479484051466,0.006009019445627928
1782984609607769000,7.75876904296875,0.009798804298043251,0.005766179412603378,0.007097986061125994
1782984609617843000,7.768843017578125,0.012479547411203384,0.007874347269535065,-0.00009639600466471165
1782984609627916800,7.778916748046875,0.01683674566447735,0.005688690580427647,-0.004485551733523607
1782984609637991000,7.788990966796875,0.024604452773928642,-0.013800453394651413,-0.0050917272455990314
1782984609648064800,7.799064697265625,0.028599195182323456,-0.013359700329601765,-0.007393763866275549
1782984609658140000,7.809139892578125,0.030052391812205315,-0.00994836911559105,-0.012518342584371567
1782984609668213800,7.8192138671875,0.02972828596830368,-0.0069837383925914764,-0.006470303982496262
1782984609678288000,7.829287841796875,0.029803741723299026,-0.002234345069155097,-0.00930751208215952
1782984609688362000,7.839362060546875,0.026385309174656868,-0.0007333875400945544,-0.011252684518694878
1782984609698436000,7.84943603515625,0.021872976794838905,-0.008072271943092346,-0.008058556355535984
1782984609708510000,7.859510009765625,0.01619751565158367,-0.011024918407201767,-0.008835400454699993
1782984609718585000,7.869585205078125,0.008546956814825535,-0.010807259939610958,-0.0060811652801930904
1782984609728659000,7.879658935546875,-0.004408522974699736,0.015890927985310555,0.0019176392816007137
1782984609738732800,7.88973291015625,-0.007236105855554342,0.03497173637151718,0.01533381175249815
1782984609748807000,7.899806884765625,-0.008380466140806675,0.02521524392068386,0.02709219977259636
1782984609758880800,7.909880859375,-0.005647026933729649,0.015379071235656738,0.03823801875114441
1782984609768955000,7.919954833984375,-0.00207439623773098,-0.004525394178926945,0.03259824216365814
1782984609779029800,7.93002978515625,0.0074591003358364105,-0.009532051160931587,0.011056073009967804
1782984609789103900,7.940103759765625,0.011353973299264908,-0.014278869144618511,-0.021066710352897644
1782984609799178000,7.950177978515625,0.013524903915822506,-0.014514713548123837,-0.05074470117688179
1782984609809252000,7.960252197265625,0.006705347448587418,-0.019648224115371704,-0.05503398925065994
1782984609819326000,7.970325927734375,-0.006844737567007542,-0.027375228703022003,-0.046945445239543915
1782984609829401000,7.980401123046875,-0.008889245800673962,-0.02079615741968155,-0.037631575018167496
1782984609839475000,7.990474853515625,-0.015804970636963844,-0.01522088423371315,-0.02488226629793644
1782984609849548800,8.000548828125,-0.016514969989657402,-0.008267370983958244,-0.019965805113315582
1782984609859623000,8.010622802734375,-0.017190713435411453,-0.0051000057719647884,-0.020373156294226646
1782984609869696800,8.02069677734375,-0.009694715030491352,-0.0016791753005236387,-0.027395378798246384
1782984609879771000,8.03077099609375,-0.0034344939049333334,0.005683255381882191,-0.02974972128868103
1782984609889845800,8.040845703125,-0.004236638080328703,-0.007306313142180443,-0.030390476807951927
1782984609899920000,8.050919921875,-0.006259952671825886,-0.012044564820826054,-0.02577577345073223
1782984609909994000,8.060993896484375,-0.013494961895048618,-0.013532739132642746,-0.030065327882766724
1782984609920068000,8.071068115234375,-0.013406039215624332,-0.010969770140945911,-0.03617040440440178
1782984609930142000,8.081141845703126,-0.005609635729342699,-0.0026532502379268408,-0.042644813656806946
1782984609940215800,8.0912158203125,-0.0008865757845342159,-0.0007614500354975462,-0.0367707684636116
1782984609950291000,8.101291015625,-0.0013057573232799768,-0.006004681810736656,-0.025106390938162804
1782984609960364800,8.11136474609375,0.0002852434990927577,-0.0031475883442908525,-0.015916308388113976
1782984609970439000,8.12143896484375,0.00015528127551078796,0.012313127517700195,-0.011842472478747368
1782984609980512500,8.131512451171876,-0.003425310831516981,0.015765437856316566,-0.007886567153036594
1782984609990586600,8.141586669921875,-0.003968329634517431,0.017970802262425423,0.008152053691446781
1782984610000660500,8.151660400390625,0.00047299638390541077,0.006214754190295935,0.020780986174941063
1782984610010735600,8.161735595703124,0.007740229833871126,0.002468485850840807,0.021688057109713554
1782984610020809700,8.171809814453125,0.00982463639229536,-0.0016267562750726938,0.008515586145222187
1782984610030883600,8.181883544921876,0.011650499887764454,-0.00010635773651301861,-0.01348851528018713
1782984610040957400,8.19195751953125,0.007882198318839073,-0.010872574523091316,-0.027409017086029053
1782984610051031600,8.202031494140625,0.005883496254682541,-0.016461750492453575,-0.03920096158981323
1782984610061105400,8.21210546875,0.000929972855374217,-0.00922256987541914,-0.04312359541654587
1782984610071180500,8.2221806640625,-0.004079433158040047,0.0012931881938129663,-0.03549683466553688
1782984610081254400,8.23225439453125,-0.009649844840168953,0.014280070550739765,-0.013808797113597393
1782984610091328500,8.24232861328125,-0.01644277013838291,0.02384614571928978,0.004790719598531723
1782984610101402600,8.252402587890625,-0.01862424425780773,0.02087203785777092,0.022230440750718117
1782984610111476500,8.2624765625,-0.01650197058916092,0.023605775088071823,0.02677272818982601
1782984610121550600,8.272550537109375,-0.00622267322614789,0.033666450530290604,0.021174542605876923
1782984610131625500,8.28262548828125,-0.0007365612545982003,0.0219192486256361,0.01989729143679142
1782984610141699600,8.292699462890624,0.0053927041590213776,0.016339393332600594,0.01183457113802433
1782984610151773400,8.3027734375,0.0059426468797028065,0.010856477543711662,0.00831600185483694
1782984610161847600,8.31284765625,0.009736679494380951,0.00526695791631937,0.003633638145402074
1782984610171921400,8.32292138671875,0.009892474859952927,0.0007891189306974411,-0.00291028106585145
1782984610181995500,8.33299560546875,0.008040495216846466,0.007322619669139385,-0.0140090212225914
1782984610192070400,8.3430703125,0.008310273289680481,0.004043735563755035,-0.022820621728897095
1782984610202144500,8.35314453125,0.01275717094540596,0.006669778376817703,-0.024973200634121895
1782984610212218600,8.363218505859376,0.011852760799229145,0.004764818586409092,-0.02169351652264595
1782984610222292500,8.37329248046875,0.004783078096807003,0.0033843922428786755,-0.009681685827672482
1782984610232366600,8.38336669921875,-0.0008263380150310695,0.003971619065850973,-0.00485577154904604
1782984610242440400,8.3934404296875,-0.00043322256533429027,0.00900639221072197,-0.00759810209274292
1782984610252515600,8.403515625,0.0005060742842033505,0.012114833109080791,-0.014980384148657322
1782984610262589400,8.41358935546875,0.0030072536319494247,0.016924915835261345,-0.012359539978206158
1782984610272663600,8.42366357421875,0.0017670192755758762,0.007864308543503284,-0.011441548354923725
1782984610282737400,8.4337373046875,0.0014941744739189744,0.005114047788083553,-0.010898596607148647
1782984610292811500,8.4438115234375,0.006052707321941853,0.009712262079119682,-0.0165460966527462
1782984610302885600,8.4538857421875,0.005404443945735693,0.0066758920438587666,-0.01964409649372101
1782984610312960500,8.46396044921875,0.001435002195648849,0.012352420017123222,-0.011356071569025517
1782984610323034600,8.47403466796875,-0.0016892461571842432,0.001892132917419076,0.0019299010746181011
1782984610333108500,8.4841083984375,-0.006597185507416725,0.00795721635222435,0.012581214308738708
1782984610343182600,8.4941826171875,0.0007928921841084957,0.0007191549520939589,0.015073773451149464
1782984610353256400,8.50425634765625,0.00647581135854125,-0.0010720870923250914,0.010457184165716171
1782984610363330600,8.51433056640625,0.007743152789771557,-0.012960545718669891,0.003493192605674267
1782984610373405400,8.524405517578124,0.012100882828235626,-0.02036360092461109,-0.007552002090960741
1782984610383479600,8.5344794921875,0.007878541946411133,-0.0164932981133461,-0.016969583928585052
1782984610393553400,8.544553466796875,0.006017791572958231,-0.00020114355720579624,-0.018055088818073273
1782984610403627500,8.55462744140625,-0.0023682801984250546,0.0011141018476337194,-0.01602955162525177
1782984610413701600,8.56470166015625,-0.004382961429655552,-0.007543834857642651,-0.014060409739613533
1782984610423776500,8.574776611328126,-0.008765703067183495,-0.019655313342809677,-0.012048226781189442
1782984610433850600,8.5848505859375,-0.008173682726919651,-0.025974728167057037,-0.0174869354814291
1782984610443924500,8.594924560546875,-0.006658289581537247,-0.020347358658909798,-0.016581369563937187
1782984610453998600,8.60499853515625,-0.004391140304505825,-0.018888212740421295,-0.01724822446703911
1782984610464072400,8.615072509765625,-0.011820393614470959,-0.0021616306621581316,-0.010218431241810322
1782984610474146600,8.625146484375,-0.014808193780481815,0.009937642142176628,0.009573383256793022
1782984610484221400,8.635221435546875,-0.017425404861569405,0.012126516550779343,0.02316397614777088
1782984610494295600,8.645295654296875,-0.008021250367164612,-0.006417339667677879,0.03550906106829643
1782984610504369400,8.655369384765624,-0.00024719437351450324,-0.015180161222815514,0.04559221491217613
1782984610514443500,8.665443603515625,0.01096444670110941,-0.026321228593587875,0.029440412297844887
1782984610524517600,8.675517578125,0.019772464409470558,-0.03886549547314644,0.004531548358500004
1782984610534591500,8.685591552734374,0.02062360942363739,-0.03366141393780708,-0.032077863812446594
1782984610544666600,8.69566650390625,0.023244794458150864,-0.019920898601412773,-0.05212678387761116
1782984610554740500,8.705740478515626,0.020131558179855347,-0.014486185275018215,-0.054265301674604416
1782984610564814600,8.715814697265625,0.01265858393162489,-0.012288833037018776,-0.036138977855443954
1782984610574888400,8.725888427734375,0.006400954443961382,-0.02393537014722824,-0.014261908829212189
1782984610584962600,8.735962646484374,0.0037241834215819836,-0.012142946943640709,-0.004295073449611664
1782984610595036400,8.746036376953125,0.005272279027849436,-0.009337574243545532,0.00011592006194405258
1782984610605111600,8.756111572265626,0.009252739138901234,-0.005299222655594349,-0.009085946716368198
1782984610615185400,8.766185302734375,0.014689849689602852,-0.0035588471218943596,-0.009162645787000656
1782984610625259500,8.776259521484375,0.01475281547755003,0.001198058482259512,-0.01120512094348669
1782984610635333600,8.786333740234374,0.009582022204995155,0.00414910726249218,-0.006634604185819626
1782984610645407500,8.796407470703125,0.008879019878804684,0.006231045350432396,-0.0015111074317246675
1782984610655481600,8.806481689453125,-0.004454894922673702,0.0028845169581472874,0.01117699034512043
1782984610665556500,8.816556396484375,-0.00392990792170167,-0.0036720314528793097,0.015081707388162613
1782984610675630600,8.826630615234375,0.00196606433019042,-0.009151218459010124,0.006704467348754406
1782984610685704400,8.836704345703126,0.01293599046766758,-0.011928696185350418,-0.006856196094304323
1782984610695778600,8.846778564453125,0.017312096431851387,-0.003088066354393959,-0.015331706032156944
1782984610705852400,8.856852294921875,0.011838302947580814,0.004385162610560656,-0.0122475391253829
1782984610715926500,8.866926513671874,0.0005528911715373397,0.010341588407754898,0.0012277897913008928
1782984610726001400,8.87700146484375,-0.006664658430963755,0.015931863337755203,0.013696273788809776
1782984610736075500,8.887075439453126,-0.005255313590168953,0.014439161866903305,0.018933113664388657
1782984610746149600,8.897149658203125,-0.00378156965598464,0.012805745005607605,0.015290498733520508
1782984610756223500,8.907223388671875,0.00333306472748518,-0.0021726717241108418,0.002214644104242325
1782984610766297600,8.917297607421874,0.004997274372726679,0.0010566774290055037,-0.014413334429264069
1782984610776371500,8.927371337890625,0.006368536036461592,0.014210828579962254,-0.021200133487582207
1782984610786446600,8.937446533203126,0.01005666982382536,0.014938781969249249,-0.018812598660588264
1782984610796520400,8.9475205078125,0.011117140762507915,0.016502059996128082,-0.008391916751861572
1782984610806594600,8.957594482421875,0.009393936023116112,0.015270866453647614,0.0018625174416229129
1782984610816668400,8.96766845703125,0.009003518149256706,0.019449632614850998,0.014675784856081009
1782984610826742500,8.977742431640625,0.015416814014315605,0.022937320172786713,0.01961015723645687
1782984610836816600,8.987816650390625,0.019559627398848534,0.03302431106567383,0.0201510451734066
1782984610846891500,8.9978916015625,0.026079850271344185,0.032482899725437164,0.023679081350564957
1782984610856965600,9.007965576171875,0.034390777349472046,0.02462231181561947,0.031248051673173904
1782984610867039500,9.01803955078125,0.03616998344659805,0.01915607415139675,0.037888433784246445
1782984610877113600,9.028113525390625,0.03861343488097191,0.014696079306304455,0.03657842427492142
1782984610887187500,9.0381875,0.03965330496430397,0.011571737006306648,0.027606762945652008
1782984610897262600,9.0482626953125,0.04005357623100281,0.011165603995323181,0.010171580128371716
1782984610907336400,9.05833642578125,0.040043387562036514,0.01212872564792633,0.003129541641101241
1782984610917410600,9.06841064453125,0.039136581122875214,0.010587554425001144,-0.0066445255652070045
1782984610927484400,9.078484375,0.038054175674915314,0.003816012991592288,-0.009674143977463245
1782984610937558500,9.08855859375,0.03634655848145485,0.005085009150207043,-0.007780369836837053
1782984610947632600,9.098632568359376,0.03167303651571274,0.011824527755379677,-0.009794172830879688
1782984610957707500,9.10870751953125,0.029234914109110832,0.006065442226827145,-0.006765626836568117
1782984610967781600,9.11878173828125,0.028070874512195587,-0.0003569837426766753,0.00032668354106135666
1782984610977856300,9.128856201171875,0.020901111885905266,-0.008188541978597641,0.0034375221002846956
1782984610987930000,9.13893017578125,0.01732848584651947,-0.008444460108876228,-0.004229038488119841
1782984610998004200,9.149004150390626,0.007915809750556946,-0.008059101179242134,-0.016407940536737442
1782984611008078000,9.159078125,0.004186607897281647,0.0026154257357120514,-0.02628171071410179
1782984611018153200,9.1691533203125,-0.0007855135481804609,0.0009456234984099865,-0.02898402139544487
1782984611028227000,9.17922705078125,-0.009540583938360214,-0.0024953025858849287,-0.02329167351126671
1782984611038301200,9.18930126953125,-0.021353833377361298,-0.006487381178885698,-0.011785219423472881
1782984611048375000,9.199375,-0.02972480282187462,-0.01598419062793255,-0.009518388658761978
1782984611058449200,9.20944921875,-0.031811654567718506,-0.0110935615375638,-0.00793620478361845
1782984611068523300,9.219523193359375,-0.0331503227353096,-0.011106131598353386,-0.013799918815493584
1782984611078598100,9.22959814453125,-0.02081243135035038,-0.009407034143805504,-0.01720370538532734
1782984611088672300,9.23967236328125,-0.016104575246572495,-0.010302824899554253,-0.015251477248966694
1782984611098746000,9.24974609375,-0.01896907202899456,-0.014452828094363213,-0.0060068462044000626
1782984611108820200,9.2598203125,-0.027092700824141502,-0.015551494434475899,-0.000056822667829692364
1782984611118894000,9.26989404296875,-0.03269253298640251,-0.01658480055630207,-0.0034456951543688774
1782984611128968200,9.27996826171875,-0.026877950876951218,-0.009684882126748562,-0.022461844608187675
1782984611139043000,9.29004296875,-0.022477343678474426,-0.01186894066631794,-0.039239224046468735
1782984611149117200,9.3001171875,-0.021094247698783875,-0.010200770571827888,-0.04164522513747215
1782984611159191000,9.31019091796875,-0.012801962904632092,-0.025940850377082825,-0.03553113713860512
1782984611169265200,9.32026513671875,-0.009610969573259354,-0.03808753937482834,-0.024990491569042206
1782984611179339300,9.33033935546875,-0.011888504959642887,-0.024813812226057053,-0.008078888058662415
1782984611189413000,9.3404130859375,-0.01546853594481945,-0.018544888123869896,0.006546751596033573
1782984611199488300,9.35048828125,-0.02377706579864025,-0.0118907131254673,0.022334236651659012
1782984611209562000,9.36056201171875,-0.021152760833501816,-0.010670395568013191,0.03771509975194931
1782984611219636200,9.37063623046875,-0.016509005799889565,-0.007705232128500938,0.048656165599823
1782984611229710000,9.3807099609375,-0.01614202745258808,-0.0015099329175427556,0.05354851484298706
1782984611239784200,9.3907841796875,-0.00552826514467597,-0.0056370338425040245,0.04016692936420441
1782984611249858000,9.400858154296875,0.01064901240170002,-0.017028361558914185,0.016662660986185074
1782984611259933200,9.41093310546875,0.022178102284669876,-0.03608754277229309,-0.013017470017075539
1782984611270007000,9.421007080078125,0.029221704229712486,-0.0530269630253315,-0.041078027337789536
1782984611280081200,9.4310810546875,0.03333389014005661,-0.0521039143204689,-0.06228211522102356
1782984611290155300,9.4411552734375,0.02868572436273098,-0.03885418549180031,-0.07437189668416977
1782984611300229000,9.45122900390625,0.014742479659616947,-0.017477525398135185,-0.06514723598957062
1782984611310303200,9.46130322265625,0.011113195680081844,-0.029633378610014915,-0.050788965076208115
1782984611320378000,9.471378173828125,0.01036191824823618,-0.04096006974577904,-0.031237367540597916
1782984611330452200,9.4814521484375,-0.0015440317802131176,-0.03020360693335533,-0.010544770397245884
1782984611340526000,9.491526123046874,-0.005669801030308008,-0.024249844253063202,-0.012457719072699547
1782984611350600200,9.50160009765625,-0.0065931472927331924,-0.011852084659039974,-0.016307629644870758
1782984611360674000,9.511674072265626,-0.010214246809482574,-0.011734905652701855,-0.02299988642334938
1782984611370748200,9.521748046875,-0.014814225025475025,-0.004131648689508438,-0.02021939493715763
1782984611380823000,9.531822998046875,-0.018756235018372536,-0.0016418594168499112,-0.015866456553339958
1782984611390897200,9.541897216796874,-0.029093634337186813,-0.0008582352893427014,-0.006994510069489479
1782984611400971300,9.55197119140625,-0.02647681161761284,-0.0010358680738136172,-0.0027566219214349985
1782984611411045000,9.562045166015626,-0.02257244475185871,-0.003084027674049139,0.0013182752300053835
1782984611421119200,9.572119140625,-0.01950155384838581,0.0005155007820576429,-0.0013211837504059076
1782984611431194000,9.582194091796875,-0.01781691610813141,0.005246984772384167,-0.010111735202372074
1782984611441268200,9.592268310546874,-0.01566881127655506,0.001075142528861761,-0.013605003245174885
1782984611451342000,9.602342041015625,-0.016941199079155922,-0.00430536363273859,-0.007931297644972801
1782984611461416200,9.612416259765626,-0.021824637427926064,-0.0005372571758925915,0.0020116146188229322
1782984611471490000,9.622489990234374,-0.025381959974765778,0.004632726311683655,0.005570062901824713
1782984611481564200,9.632564208984375,-0.02407621033489704,0.013345790095627308,-0.002177605638280511
1782984611491639000,9.64263916015625,-0.019820600748062134,0.01758742891252041,-0.011181804351508617
1782984611501713200,9.652713134765625,-0.0078014894388616085,0.01892593316733837,-0.021364932879805565
1782984611511787300,9.662787353515625,0.002328231930732727,0.005847127176821232,-0.030864378437399864
1782984611521861000,9.672861083984374,-0.0006071042735129595,-0.007749108597636223,-0.02861667051911354
1782984611531935200,9.682935302734375,-0.0024838391691446304,-0.00787641853094101,-0.029988612979650497
1782984611542009000,9.693009033203126,-0.0051294234581291676,0.004772797226905823,-0.03295404091477394
1782984611552084200,9.703084228515625,-0.008556785061955452,0.021358421072363853,-0.03870866820216179
1782984611562158000,9.713157958984375,-0.006219860631972551,0.03530938923358917,-0.04582729563117027
1782984611572232200,9.723232177734374,-0.0007045312668196857,0.03459683805704117,-0.04974213242530823
1782984611582306000,9.73330615234375,0.0003151930868625641,0.026221729815006256,-0.03529315069317818
1782984611592380200,9.743380126953125,0.003049510531127453,0.017691724002361298,-0.012335428968071938
1782984611602454300,9.753454345703124,0.0017786500975489616,0.02072506584227085,0.004478704649955034
1782984611612529200,9.763529052734375,-0.0035531925968825817,0.0315280556678772,0.013521309942007065
1782984611622603300,9.773603271484374,0.0026596959214657545,0.03287694975733757,0.012247785925865173
1782984611632677000,9.783677001953125,0.0076753487810492516,0.02891680598258972,0.0055158985778689384
1782984611642751200,9.793751220703125,0.010129718109965324,0.020884443074464798,0.008025395683944225
1782984611652825000,9.8038251953125,0.014621409587562084,0.008904493413865566,0.011430660262703896
1782984611662899200,9.813899169921875,0.016216909512877464,0.0015770720783621073,0.019683264195919037
1782984611672974000,9.82397412109375,0.020613200962543488,0.0052137719467282295,0.017870625481009483
1782984611683048200,9.834048095703125,0.013366740196943283,0.015639515593647957,0.007706405129283667
1782984611693122000,9.8441220703125,0.011269696056842804,0.018827972933650017,-0.001771360170096159
1782984611703196200,9.854196044921874,0.006191580090671778,0.028619084507226944,-0.010893485508859158
1782984611713270300,9.864270263671875,0.008954271674156189,0.027971526607871056,-0.016761068254709244
1782984611723344100,9.87434423828125,0.01280679926276207,0.026213573291897774,-0.012555406428873539
1782984611733419300,9.884419189453125,0.010619179345667362,0.02201703190803528,-0.008652430027723312
1782984611743493000,9.8944931640625,0.012532128021121025,0.012411009520292282,-0.005156498868018389
1782984611753567200,9.904567138671876,0.008047868497669697,0.021749597042798996,0.00021904599270783365
1782984611763641000,9.91464111328125,0.005639306269586086,0.021615639328956604,-0.0013181306421756744
1782984611773715200,9.924715087890625,0.0032344558276236057,0.0261943768709898,0.004853196442127228
1782984611783789000,9.9347890625,0.002662675455212593,0.023761846125125885,0.005016182083636522
1782984611793864200,9.9448642578125,0.00545030040666461,0.02444113977253437,0.009643696248531342
1782984611803938000,9.95493798828125,0.009273800998926163,0.024523165076971054,0.014666417613625526
1782984611814012200,9.96501220703125,0.01408423949033022,0.0334676057100296,0.021478738635778427
1782984611824086300,9.975086181640625,0.013012583367526531,0.04589764028787613,0.023385562002658844
1782984611834160000,9.98516015625,0.006261815316975117,0.047950562089681625,0.029018137603998184
1782984611844234200,9.995234130859375,0.013916272670030594,0.034940753132104874,0.03857249394059181
1782984611854309000,10.00530908203125,0.009137713350355625,0.02360677160322666,0.05146890878677368
1782984611864383200,10.01538330078125,0.005368541460484266,0.013276370242238045,0.053038839250802994
1782984611874457000,10.02545703125,0.013421340845525265,0.007567752152681351,0.05024415999650955
1782984611884531200,10.03553125,0.012509740889072418,0.0073560308665037155,0.03964877128601074
1782984611894605000,10.04560498046875,0.011538286693394184,0.0184857789427042,0.027287671342492104
1782984611904679200,10.05567919921875,0.013251764699816704,0.027400709688663483,0.017661675810813904
1782984611914754000,10.065754150390624,0.016396498307585716,0.04015206918120384,0.023728730157017708
1782984611924828200,10.075828125,0.014990347437560558,0.03684442490339279,0.04144114628434181
1782984611934902300,10.08590234375,0.015391441993415356,0.031869418919086456,0.06206243485212326
1782984611944976100,10.09597607421875,0.020152375102043152,0.026130039244890213,0.08508013933897018
1782984611955050200,10.10605029296875,0.014594847336411476,0.017782805487513542,0.09045379608869553
1782984611965124000,10.1161240234375,0.023991011083126068,0.011053529568016529,0.08928307145833969
1782984611975199200,10.12619921875,0.027772866189479828,0.010935351252555847,0.07937490195035934
1782984611985273300,10.1362734375,0.03661349415779114,0.016047555953264236,0.0676407441496849
1782984611995347200,10.14634716796875,0.0426509827375412,0.02925996482372284,0.058337144553661346
1782984612005421300,10.15642138671875,0.04989051818847656,0.040356025099754333,0.05064566805958748
1782984612015495400,10.166495361328124,0.055975962430238724,0.055123232305049896,0.0477902777493
1782984612025569300,10.1765693359375,0.05559859424829483,0.06684167683124542,0.03316685929894447
1782984612035644400,10.18664453125,0.05291018262505531,0.0963064581155777,-0.0032087815925478935
1782984612045718300,10.19671826171875,0.06608723104000092,0.12405712157487869,-0.04779915139079094
1782984612055792400,10.20679248046875,0.0742911770939827,0.14459076523780823,-0.07563189417123795
1782984612065866200,10.2168662109375,0.06932464241981506,0.1621766835451126,-0.08554337918758392
1782984612075940400,10.2269404296875,0.057008083909749985,0.1254379004240036,-0.07616633921861649
1782984612086015200,10.23701513671875,0.03434991091489792,0.07198745012283325,-0.010411028750240803
1782984612096089300,10.24708935546875,-0.0009630021522752941,0.02660227194428444,0.03366812318563461
1782984612106163200,10.2571630859375,0.008047270588576794,-0.03487440198659897,0.036270830780267715
1782984612116237000,10.267237060546876,-0.006910757161676884,-0.02192661166191101,-0.004534027073532343
1782984612126311400,10.2773115234375,-0.021859345957636833,-0.0000021390151232481003,-0.045936062932014465
1782984612136385300,10.28738525390625,-0.04387378320097923,0.01828908361494541,-0.0604277104139328
1782984612146460400,10.29746044921875,-0.05076497793197632,0.0007535000331699848,-0.03502754494547844
1782984612156534300,10.3075341796875,-0.06743673980236053,-0.01417291909456253,-0.0026188914198428392
1782984612166608400,10.3176083984375,-0.07074171304702759,-0.03642816096544266,0.017887981608510017
