time,seconds_elapsed,z,y,x
1782986957569474300,0.055474365234375,0.35818931460380554,-0.060446031391620636,0.23963628709316254
1782986957579548400,0.06554833984375,0.35939839482307434,0.009426524862647057,0.12922748923301697
1782986957589622300,0.075622314453125,0.3620311915874481,0.06245991587638855,0.036922063678503036
1782986957599697400,0.085697509765625,0.3469925820827484,0.06630818545818329,-0.0249069482088089
1782986957609771300,0.095771240234375,0.33811652660369873,0.05095958709716797,-0.05847183242440224
1782986957619846400,0.105846435546875,0.3373048007488251,0.04917793348431587,-0.06263701617717743
1782986957629920300,0.115920166015625,0.33272361755371094,0.05095293000340462,-0.06019649654626846
1782986957639995400,0.125995361328125,0.32596051692962646,0.05895066633820534,-0.053223807364702225
1782986957650069200,0.1360693359375,0.3089381456375122,0.0696491152048111,-0.050826430320739746
1782986957660144400,0.146144287109375,0.2892472445964813,0.07197459042072296,-0.04448357969522476
1782986957670218200,0.15621826171875,0.27643051743507385,0.06973221153020859,-0.042569831013679504
1782986957680293400,0.16629345703125,0.2757183909416199,0.07407741993665695,-0.03390044346451759
1782986957690367200,0.1763671875,0.27347174286842346,0.07143743336200714,-0.027179157361388206
1782986957700442400,0.1864423828125,0.26637789607048035,0.09193285554647446,-0.02425740286707878
1782986957710516200,0.19651611328125,0.25855833292007446,0.11291616410017014,-0.03418566659092903
1782986957720591400,0.20659130859375,0.2461431920528412,0.11625896394252777,-0.056049421429634094
1782986957730665200,0.216665283203125,0.23383831977844238,0.09958970546722412,-0.0815659686923027
1782986957740739300,0.2267392578125,0.2205832451581955,0.07083848863840103,-0.10523241013288498
1782986957750814200,0.236814208984375,0.20297521352767944,0.05907716974616051,-0.11631782352924347
1782986957760888300,0.246888427734375,0.18396078050136566,0.06730473786592484,-0.1065879613161087
1782986957770963200,0.256963134765625,0.1691024750471115,0.0747099220752716,-0.09000552445650101
1782986957781037300,0.267037353515625,0.15101881325244904,0.0758683979511261,-0.06888532638549805
1782986957791112200,0.2771123046875,0.13002324104309082,0.08541423082351685,-0.05157903954386711
1782986957801186300,0.287186279296875,0.10778798162937164,0.09529802203178406,-0.04532061144709587
1782986957811261200,0.29726123046875,0.08935411274433136,0.0975332111120224,-0.04611103609204292
1782986957821335300,0.307335205078125,0.07122837007045746,0.09832657128572464,-0.04760294035077095
1782986957831410200,0.31741015625,0.05355696752667427,0.11061705648899078,-0.057374875992536545
1782986957841484300,0.327484375,0.03197098150849342,0.12463833391666412,-0.06742484867572784
1782986957851559200,0.33755908203125,0.021626997739076614,0.12751002609729767,-0.08405175805091858
1782986957861633300,0.34763330078125,0.015597601421177387,0.10501137375831604,-0.11546693742275238
1782986957871707100,0.35770703125,0.021854965016245842,0.06748875975608826,-0.14334703981876373
1782986957881782300,0.3677822265625,0.020778780803084373,0.03686267510056496,-0.16236254572868347
1782986957891856100,0.377856201171875,0.019419237971305847,0.005176119972020388,-0.17232143878936768
1782986957901931300,0.38793115234375,0.026219353079795837,-0.017963821068406105,-0.16782362759113312
1782986957912005000,0.398005126953125,0.03208336606621742,-0.02990623377263546,-0.14553801715373993
1782986957922080300,0.408080322265625,0.034745197743177414,-0.03277765214443207,-0.107789047062397
1782986957932154000,0.418154052734375,0.03315715491771698,-0.02989877760410309,-0.05798713490366936
1782986957942229200,0.428229248046875,0.02581428736448288,-0.019539346918463707,-0.012631372548639774
1782986957952303000,0.43830322265625,0.017900437116622925,-0.009128517471253872,0.011652927845716476
1782986957962378200,0.448378173828125,0.01907861977815628,-0.0011089402250945568,0.020729513838887215
1782986957972452000,0.4584521484375,0.0287094097584486,0.01142895594239235,0.016088688746094704
1782986957982527200,0.46852734375,0.04633473977446556,0.013887586072087288,-0.0013765880139544606
1782986957992601000,0.47860107421875,0.05927211046218872,0.006110090296715498,-0.018984610214829445
1782986958002676200,0.48867626953125,0.06120609864592552,0.00743288267403841,-0.03013846091926098
1782986958012750000,0.49875,0.06114964187145233,0.028357604518532753,-0.019777698442339897
1782986958022824200,0.50882421875,0.06245112791657448,0.040288832038640976,0.011991415172815323
1782986958032899000,0.518899169921875,0.06792445480823517,0.04785007983446121,0.057738132774829865
1782986958042973200,0.52897314453125,0.08259474486112595,0.0485805869102478,0.09814999997615814
1782986958053048000,0.539048095703125,0.11482059210538864,0.03664003685116768,0.1207682266831398
1782986958063122200,0.5491220703125,0.1531301587820053,0.02696024440228939,0.14309856295585632
1782986958073197300,0.559197265625,0.18123982846736908,0.04489343985915184,0.15024062991142273
1782986958083271200,0.569271240234375,0.20192860066890717,0.06909970939159393,0.13837411999702454
1782986958093346300,0.57934619140625,0.18749719858169556,0.06431640684604645,0.12703491747379303
1782986958103420200,0.589420166015625,0.15595178306102753,0.09203644841909409,0.09508763253688812
1782986958113495300,0.599495361328125,0.11549756675958633,-0.01780429668724537,0.054122623056173325
1782986958123568600,0.609568603515625,0.09604690223932266,-0.06794522702693939,0.026029469445347786
1782986958133643300,0.619643310546875,0.1032094731926918,-0.059485163539648056,0.027655862271785736
1782986958143717600,0.629717529296875,0.11161600798368454,-0.0181084293872118,0.0526680052280426
1782986958153791500,0.63979150390625,0.10768598318099976,0.000245543458731845,0.06410415470600128
1782986958163866600,0.64986669921875,0.10219401121139526,0.018337462097406387,0.06700699776411057
1782986958173940500,0.6599404296875,0.09561600536108017,0.0691862627863884,0.08008045703172684
1782986958184015600,0.670015625,0.09391371160745621,0.14777374267578125,0.09698886424303055
1782986958194089500,0.68008935546875,0.08852081000804901,0.2217470407485962,0.11582273989915848
1782986958204164600,0.69016455078125,0.06602508574724197,0.27653518319129944,0.13663960993289948
1782986958214238500,0.700238525390625,0.025017201900482178,0.28595104813575745,0.143569678068161
1782986958224313600,0.710313720703125,-0.02135402522981167,0.26183241605758667,0.1559656262397766
1782986958234387500,0.720387451171875,-0.05163789540529251,0.2260959893465042,0.18508809804916382
1782986958244462600,0.730462646484375,-0.0770963802933693,0.18235543370246887,0.2125585973262787
1782986958254536400,0.740536376953125,-0.08875516802072525,0.16456204652786255,0.2323637306690216
1782986958264611600,0.750611572265625,-0.07668039947748184,0.17089425027370453,0.23754385113716125
1782986958274685400,0.760685546875,-0.055153265595436096,0.2084759771823883,0.21334263682365417
1782986958284760600,0.770760498046875,-0.03359950706362724,0.2682223916053772,0.17855189740657806
1782986958294834700,0.780834716796875,-0.02004588022828102,0.33505043387413025,0.14189641177654266
1782986958304908500,0.790908447265625,-0.020127639174461365,0.36201414465904236,0.10118120908737183
1782986958314983700,0.800983642578125,-0.03575426712632179,0.32383212447166443,0.06285006552934647
1782986958325057500,0.8110576171875,-0.05187837779521942,0.26218900084495544,0.043117377907037735
1782986958335132700,0.821132568359375,-0.047623977065086365,0.21110345423221588,0.04296717420220375
1782986958345206500,0.83120654296875,-0.03486024588346481,0.1668422520160675,0.06687916815280914
1782986958355281700,0.84128173828125,-0.015089737251400948,0.12858833372592926,0.09913404285907745
1782986958365355500,0.85135546875,0.011224957183003426,0.09932072460651398,0.13336071372032166
1782986958375430700,0.8614306640625,0.03363519161939621,0.07139188796281815,0.16492344439029694
1782986958385504500,0.87150439453125,0.03849652409553528,0.03807521238923073,0.1846635937690735
1782986958395579600,0.88157958984375,0.03184102103114128,-0.010471017099916935,0.19954879581928253
1782986958405653500,0.891653564453125,0.02918984368443489,-0.03359045088291168,0.20904137194156647
1782986958415728600,0.901728759765625,0.036982253193855286,-0.02978186309337616,0.21286512911319733
1782986958425802500,0.911802490234375,0.043286751955747604,0.01703810505568981,0.20028941333293915
1782986958435877600,0.921877685546875,0.03158801794052124,-0.025127723813056946,0.1520766168832779
1782986958445951500,0.931951416015625,0.015797872096300125,-0.07970361411571503,0.08350314944982529
1782986958456025600,0.942025634765625,0.013049222528934479,-0.08907634764909744,0.019870378077030182
1782986958466100500,0.9521005859375,0.02148904651403427,-0.09450626373291016,-0.03013499826192856
1782986958476174600,0.962174560546875,0.02582307532429695,-0.10214287787675858,-0.07368087768554688
1782986958486249500,0.97224951171875,0.01960965432226658,-0.11265144497156143,-0.10241798311471939
1782986958496323600,0.982323486328125,0.007465106900781393,-0.130513533949852,-0.10097561776638031
1782986958506398500,0.9923984375,-0.009259544312953949,-0.1475955843925476,-0.07271814346313477
1782986958516472600,1.00247265625,-0.015369635075330734,-0.17886269092559814,-0.021408619359135628
1782986958526547500,1.01254736328125,-0.05047569051384926,-0.2133152037858963,0.015992814674973488
1782986958536621600,1.02262158203125,-0.0947912260890007,-0.32036149501800537,0.0472484715282917
1782986958546696400,1.032696533203125,-0.12420530617237091,-0.3405407965183258,0.07753420621156693
1782986958556770600,1.0427705078125,-0.13312849402427673,-0.29212719202041626,0.08718656748533249
1782986958566845400,1.052845458984375,-0.12544900178909302,-0.22601449489593506,0.06184019893407822
1782986958576919600,1.06291943359375,-0.10027919709682465,-0.13340066373348236,0.018556905910372734
1782986958586993400,1.072993408203125,-0.07173730432987213,-0.04896301403641701,-0.025438779965043068
1782986958597068500,1.083068603515625,-0.04761332646012306,0.017102288082242012,-0.06549085676670074
1782986958607142400,1.093142333984375,-0.045838862657547,0.059418853372335434,-0.09290943294763565
1782986958617217500,1.103217529296875,-0.05651893466711044,0.056841444224119186,-0.11698281019926071
1782986958627291400,1.11329150390625,-0.062490008771419525,0.042694468051195145,-0.12995746731758118
1782986958637366500,1.123366455078125,-0.05164242163300514,0.01435284037142992,-0.15377651154994965
1782986958647440400,1.1334404296875,-0.03303997591137886,-0.0054610781371593475,-0.1854761242866516
1782986958657515500,1.143515625,-0.012838833034038544,-0.01495178509503603,-0.21823646128177643
1782986958667589400,1.15358935546875,-0.0028280108235776424,-0.013124857097864151,-0.2607053518295288
1782986958677664500,1.16366455078125,0.00398701848462224,-0.0021433120127767324,-0.30880576372146606
1782986958687738400,1.17373828125,0.002430134452879429,-0.0043952809646725655,-0.34288305044174194
1782986958697813500,1.1838134765625,0.004524710588157177,-0.031915854662656784,-0.35530295968055725
1782986958707887400,1.193887451171875,0.01471582893282175,-0.07689344882965088,-0.338168203830719
1782986958717961500,1.20396142578125,0.02936987206339836,-0.10906150937080383,-0.2915138602256775
1782986958728036400,1.214036376953125,0.03566531836986542,-0.13203579187393188,-0.22547119855880737
1782986958738110500,1.2241103515625,0.031034614890813828,-0.1303526759147644,-0.1590690165758133
1782986958748185300,1.234185302734375,0.02027118392288685,-0.11347116529941559,-0.09801977127790451
1782986958758259500,1.244259521484375,-0.007470433134585619,-0.08381979912519455,-0.057197507470846176
1782986958768334300,1.254334228515625,-0.03593616187572479,-0.06899610906839371,-0.03319390490651131
1782986958778408400,1.264408447265625,-0.05090152844786644,-0.06426873803138733,-0.029139509424567223
1782986958788483300,1.2744833984375,-0.054496798664331436,-0.025776470080018044,-0.018851984292268753
1782986958798557400,1.284557373046875,-0.05440278723835945,0.04406199976801872,-0.008726646192371845
1782986958808632600,1.294632568359375,-0.05479826778173447,0.13554610311985016,0.008505604229867458
1782986958818706400,1.30470654296875,-0.06842699646949768,0.1991748809814453,0.04207794368267059
1782986958828781600,1.314781494140625,-0.09187692403793335,0.20016612112522125,0.07507158070802689
1782986958838855400,1.32485546875,-0.1110793799161911,0.17730394005775452,0.12363272160291672
1782986958848930600,1.3349306640625,-0.11823396384716034,0.1562063843011856,0.1797950565814972
1782986958859004400,1.34500439453125,-0.10356234759092331,0.1384260505437851,0.23926158249378204
1782986958869078300,1.355078369140625,-0.0764569565653801,0.11840999871492386,0.29355597496032715
1782986958879153400,1.3651533203125,-0.051420047879219055,0.12068114429712296,0.33758655190467834
1782986958889227300,1.375227294921875,-0.039082422852516174,0.12447241693735123,0.35945403575897217
1782986958899302400,1.385302490234375,-0.025375664234161377,0.11557266861200333,0.3576042056083679
1782986958909376300,1.395376220703125,-0.016508135944604874,0.09608791768550873,0.3361987769603729
1782986958919451400,1.405451416015625,-0.01398985181003809,0.08517055213451385,0.3113970458507538
1782986958929525500,1.415525390625,-0.015173626132309437,0.09268253296613693,0.27900394797325134
1782986958939600400,1.425600341796875,-0.024502679705619812,0.11508451402187347,0.23403486609458923
1782986958949674500,1.435674560546875,-0.05098089203238487,0.1237882524728775,0.17090196907520294
1782986958959749400,1.445749267578125,-0.05811496824026108,-0.07258738577365875,0.053458962589502335
1782986958969823500,1.455823486328125,-0.034449853003025055,-0.1163519099354744,-0.06800860911607742
1782986958979898400,1.4658984375,0.00857324805110693,-0.0884246677160263,-0.1662808507680893
1782986958989972500,1.475972412109375,0.01583275943994522,-0.04385613650083542,-0.2286672592163086
1782986959000046600,1.486046630859375,-0.016754744574427605,-0.01685781031847,-0.26781654357910156
1782986959010121500,1.49612158203125,-0.06645306199789047,-0.0059479037299752235,-0.26972389221191406
1782986959020195600,1.506195556640625,-0.10443905740976334,0.01594860665500164,-0.23394352197647095
1782986959030270500,1.5162705078125,-0.09617819637060165,0.020439760759472847,-0.17552894353866577
1782986959040344600,1.526344482421875,-0.05589469149708748,-0.02473064698278904,-0.11395026743412018
1782986959050419500,1.53641943359375,0.006446714047342539,-0.08145757764577866,-0.060335513204336166
1782986959060493600,1.54649365234375,0.05319344624876976,-0.1268053501844406,-0.02269572578370571
1782986959070568400,1.556568359375,0.06817612797021866,-0.1404266208410263,0.0010183927370235324
1782986959080642600,1.566642578125,0.054549526423215866,-0.12572330236434937,0.0062128882855176926
1782986959090717400,1.576717529296875,0.04376079514622688,-0.09523117542266846,-0.002064748667180538
1782986959100791600,1.58679150390625,0.04361032694578171,-0.0743328183889389,-0.028958680108189583
1782986959110866400,1.596866455078125,0.051715657114982605,-0.05974482372403145,-0.05680229514837265
1782986959120940500,1.6069404296875,0.054727159440517426,-0.0406012237071991,-0.07594190537929535
1782986959131015400,1.617015380859375,0.04797684773802757,-0.02604624815285206,-0.0827753096818924
1782986959141090000,1.627090087890625,0.03254808858036995,-0.012746421620249748,-0.08529545366764069
1782986959151164400,1.637164306640625,0.028963208198547363,-0.008325307630002499,-0.08231218159198761
1782986959161239000,1.647239013671875,0.028427911922335625,-0.0059694754891097546,-0.08580891042947769
1782986959171313400,1.6573134765625,0.022905848920345306,-0.009730923920869827,-0.09374459832906723
1782986959181388000,1.667387939453125,0.018978483974933624,-0.0046488139778375626,-0.1021047979593277
1782986959191462400,1.67746240234375,0.015326225198805332,-0.007877630181610584,-0.1043194830417633
1782986959201537000,1.687537109375,0.004261856433004141,-0.013440974056720734,-0.10348670929670334
1782986959211611400,1.697611328125,-0.00635004136711359,-0.020025106146931648,-0.10124299675226212
1782986959221686300,1.707686279296875,-0.010439857840538025,-0.03903261944651604,-0.0972093716263771
1782986959231760400,1.717760498046875,-0.006825948134064674,-0.07144755125045776,-0.09811857342720032
1782986959241835300,1.727835205078125,-0.0011171960504725575,-0.10149626433849335,-0.09625755995512009
1782986959251909400,1.737909423828125,0.0030605047941207886,-0.09345778077840805,-0.07852143794298172
1782986959261983200,1.747983154296875,0.0019286612514406443,-0.07054873555898666,-0.054731953889131546
1782986959272058400,1.758058349609375,-0.0025068335235118866,-0.05138622596859932,-0.036910079419612885
1782986959282132200,1.76813232421875,-0.0004058657505083829,-0.0421099029481411,-0.01967623271048069
1782986959292207400,1.778207275390625,-0.002719087526202202,-0.024599086493253708,-0.00520701240748167
1782986959302281200,1.78828125,-0.007417968939989805,-0.021978003904223442,0.0001496696495451033
1782986959312356400,1.7983564453125,-0.009851032868027687,-0.037335921078920364,0.0005946838646195829
1782986959322430200,1.80843017578125,-0.01264042779803276,-0.05516232177615166,0.015045794658362865
1782986959332505300,1.81850537109375,-0.015358982607722282,-0.058927230536937714,0.04850894585251808
1782986959342579500,1.828579345703125,-0.016585368663072586,-0.06046094745397568,0.07587079703807831
1782986959352654300,1.838654296875,-0.011789015494287014,-0.04706551134586334,0.09590043127536774
1782986959362728400,1.848728515625,-0.004481301177293062,-0.02827824279665947,0.10050157457590103
1782986959372803300,1.85880322265625,-0.0014168017078191042,-0.0175614170730114,0.0884784683585167
1782986959382877400,1.86887744140625,-0.005646966863423586,0.007748466916382313,0.07526598870754242
1782986959392951300,1.878951416015625,-0.0005254416610114276,0.019165970385074615,0.058632686734199524
1782986959403026400,1.8890263671875,0.0057066213339567184,0.008646485395729542,0.02853071130812168
1782986959413100300,1.899100341796875,0.010685933753848076,-0.027725370600819588,-0.004451207350939512
1782986959423175400,1.909175537109375,0.013541375286877155,-0.07394346594810486,-0.03179201856255531
1782986959433249300,1.919249267578125,0.013100622221827507,-0.11150948703289032,-0.04836460202932358
1782986959443324400,1.929324462890625,0.009455819614231586,-0.11555775254964828,-0.05548456311225891
1782986959453398300,1.939398193359375,-0.001395230065099895,-0.09935401380062103,-0.05528882145881653
1782986959463473400,1.949473388671875,-0.007764712441712618,-0.08653914928436279,-0.03351268544793129
1782986959473547300,1.95954736328125,-0.01501383725553751,-0.05970008298754692,-0.008325840346515179
1782986959483622400,1.969622314453125,-0.016443688422441483,-0.03516091778874397,0.028356807306408882
1782986959493696300,1.9796962890625,-0.02118890918791294,-0.033301498740911484,0.049307629466056824
1782986959503771400,1.989771484375,-0.022976689040660858,-0.041969820857048035,0.05407867953181267
1782986959513845200,1.99984521484375,-0.02804175391793251,-0.051362790167331696,0.047390684485435486
1782986959523919400,2.00991943359375,-0.025590315461158752,-0.07309392094612122,0.02754906937479973
1782986959533994200,2.019994140625,-0.021981464698910713,-0.10202330350875854,0.007054180838167667
1782986959544068400,2.030068359375,-0.01985786110162735,-0.11506853252649307,-0.005450159311294556
1782986959554143200,2.040143310546875,-0.02051166631281376,-0.1258399486541748,-0.019389942288398743
1782986959564217300,2.05021728515625,-0.023194268345832825,-0.12909087538719177,-0.023574568331241608
1782986959574292200,2.060292236328125,-0.02016572281718254,-0.13178466260433197,-0.03521604463458061
1782986959584366300,2.070366455078125,-0.01751401275396347,-0.12063080817461014,-0.04210137948393822
1782986959594441200,2.080441162109375,-0.011684885248541832,-0.09264258295297623,-0.04032585024833679
1782986959604515300,2.090515380859375,-0.014998390339314938,-0.07935447990894318,-0.02960183471441269
1782986959614590200,2.100590087890625,-0.018555574119091034,-0.06837666034698486,-0.012366654351353645
1782986959624664300,2.110664306640625,-0.01477388571947813,-0.049312688410282135,0.004531368613243103
1782986959634739200,2.1207392578125,-0.01255067903548479,-0.04079430177807808,0.01848100684583187
1782986959644813300,2.130813232421875,-0.013322995975613594,-0.052380651235580444,0.02671097218990326
1782986959654887200,2.14088720703125,-0.003966512158513069,-0.05702760070562363,0.03535852208733559
1782986959664962300,2.15096240234375,-0.0009976201690733433,-0.05410398170351982,0.026700586080551147
1782986959675036200,2.1610361328125,-0.0008817726047709584,-0.06670685857534409,0.01203828677535057
1782986959685111300,2.171111328125,-0.004150270018726587,-0.05680149793624878,-0.004170776344835758
1782986959695185200,2.18118505859375,-0.006197708658874035,-0.03658890351653099,-0.02888411283493042
1782986959705260300,2.19126025390625,-0.004606203176081181,-0.009971673600375652,-0.04459835961461067
1782986959715334100,2.201334228515625,0.00013448962999973446,0.005546299275010824,-0.04361245781183243
1782986959725409300,2.2114091796875,0.00013928332191426307,-0.0026461167726665735,-0.03058001399040222
1782986959735483100,2.221483154296875,0.005824067164212465,-0.0200437493622303,-0.0051681301556527615
1782986959745558300,2.231558349609375,0.009469402022659779,-0.029457490891218185,0.02070767432451248
1782986959755632000,2.241632080078125,0.010218016803264618,-0.031139010563492775,0.03921611234545708
1782986959765706200,2.251706298828125,0.010113620199263096,-0.050400856882333755,0.04531528428196907
1782986959775781000,2.261781005859375,0.0046940878964960575,-0.07490513473749161,0.04711158573627472
1782986959785855200,2.271855224609375,0.00006072007090551779,-0.07015512138605118,0.04561195895075798
1782986959795930000,2.28193017578125,-0.004379302263259888,-0.059914734214544296,0.0378967821598053
1782986959806004200,2.292004150390625,-0.005920207127928734,-0.05355909839272499,0.038167357444763184
1782986959816079000,2.3020791015625,-0.01474352553486824,-0.04749348387122154,0.027460120618343353
1782986959826153200,2.3121533203125,-0.023308517411351204,-0.0413823276758194,0.008579373359680176
1782986959836228000,2.32222802734375,-0.025413747876882553,-0.02629365585744381,-0.007425691932439804
1782986959846302200,2.33230224609375,-0.02106267400085926,-0.02028290182352066,-0.025845712050795555
1782986959856377300,2.34237744140625,-0.019113240763545036,-0.026667829602956772,-0.0493537001311779
1782986959866451200,2.352451171875,-0.015620770864188671,-0.035722311586141586,-0.05686115100979805
1782986959876526300,2.3625263671875,-0.017058879137039185,-0.03002740815281868,-0.04953479766845703
1782986959886600200,2.37260009765625,-0.012002067640423775,-0.02165389619767666,-0.04183586314320564
1782986959896674000,2.382674072265625,-0.011450527235865593,-0.017723070457577705,-0.029349898919463158
1782986959906749200,2.392749267578125,-0.014869227074086666,-0.031978704035282135,-0.007148989476263523
1782986959916823000,2.402822998046875,-0.014615960419178009,-0.026037726551294327,0.01022520661354065
1782986959926898200,2.412898193359375,-0.009754626080393791,-0.01581811159849167,0.03616572916507721
1782986959936972000,2.422971923828125,-0.006903179921209812,-0.014132330194115639,0.05264909565448761
1782986959947047200,2.433047119140625,-0.011424162425100803,-0.008943160995841026,0.052713543176651
1782986959957121000,2.44312109375,-0.016823986545205116,-0.002198705682530999,0.04482259973883629
1782986959967196200,2.453196044921875,-0.013099556788802147,0.009414274245500565,0.03056696429848671
1782986959977270300,2.463270263671875,-0.013074522837996483,-0.00028096348978579044,0.017667144536972046
1782986959987345200,2.47334521484375,-0.0118515994399786,-0.021654162555933,0.006763896439224482
1782986959997419300,2.483419189453125,-0.009349293075501919,-0.021518874913454056,0.008793225511908531
1782986960007493400,2.493493408203125,-0.005114068277180195,0.003284476464614272,0.018630143254995346
1782986960017568300,2.503568359375,-0.004750812891870737,0.000008255799002654385,0.02586914785206318
1782986960027642400,2.513642333984375,-0.007016896735876799,-0.016145946457982063,0.019939353689551353
1782986960037717200,2.52371728515625,-0.008072840049862862,-0.016451943665742874,0.013320066034793854
1782986960047791400,2.533791259765625,-0.0003789678157772869,0.003745469730347395,0.003817641409114003
1782986960057866200,2.5438662109375,0.0024439829867333174,0.010945325717329979,-0.006795587949454784
1782986960067940400,2.5539404296875,0.000472977408207953,0.005964415613561869,-0.013561881147325039
1782986960078015200,2.56401513671875,-0.00404507527127862,-0.003279150230810046,-0.017553959041833878
1782986960088089300,2.57408935546875,-0.005621932912617922,-0.0187209565192461,-0.016624249517917633
1782986960098164200,2.584164306640625,-0.006217415910214186,-0.015548067167401314,-0.00455826660618186
1782986960108238300,2.59423828125,0.0003834952076431364,-0.005455485545098782,0.012396481819450855
1782986960118313200,2.604313232421875,0.002642654813826084,-0.006136189214885235,0.028669195249676704
1782986960128387000,2.614386962890625,0.006325007416307926,-0.02707582525908947,0.024767398834228516
1782986960138461200,2.624461181640625,0.010495783761143684,-0.04012345150113106,0.019714049994945526
1782986960148536000,2.6345361328125,0.012826316058635712,-0.035601936280727386,0.017529726028442383
1782986960158610200,2.644610107421875,0.015224493108689785,-0.016952885314822197,0.013234845362603664
1782986960168685000,2.65468505859375,0.01594594307243824,0.00737269502133131,0.008452074602246284
1782986960178759200,2.66475927734375,0.010607902891933918,0.028569592162966728,0.0019800602458417416
1782986960188834000,2.674833984375,0.012712866067886353,0.04752464219927788,0.0008210525847971439
1782986960198908200,2.684908203125,0.014721954241394997,0.04982507973909378,-0.0019001654582098126
1782986960208983000,2.694983154296875,0.014342454262077808,0.03512842580676079,0.005086104851216078
1782986960219057200,2.70505712890625,0.023256054148077965,0.007367102429270744,0.0054392400197684765
1782986960229132000,2.715132080078125,0.019893281161785126,-0.0172002911567688,0.009851299226284027
1782986960239206100,2.7252060546875,0.015861254185438156,-0.030238330364227295,0.0067809405736625195
1782986960249280000,2.735280029296875,0.01107608713209629,-0.03551724925637245,-0.003861583536490798
1782986960259355100,2.745355224609375,0.0021116205025464296,-0.026548253372311592,-0.02310132421553135
1782986960269429000,2.755428955078125,-0.005681587848812342,-0.005970274563878775,-0.049847450107336044
1782986960279504100,2.765504150390625,-0.010296845808625221,0.023665647953748703,-0.07150374352931976
1782986960289578000,2.775577880859375,-0.013000487349927425,0.029436452314257622,-0.080881267786026
1782986960299653000,2.785653076171875,-0.014553909189999104,0.022278940305113792,-0.07557918131351471
1782986960309727000,2.79572705078125,-0.010938934050500393,0.014779744669795036,-0.05595514550805092
1782986960319802000,2.805802001953125,-0.003084739437326789,0.009092298336327076,-0.027159182354807854
1782986960329876000,2.8158759765625,0.0018298579379916191,0.0021172130946069956,-0.000791491474956274
1782986960339951000,2.825951171875,0.00863370206207037,0.010617490857839584,0.012721920385956764
1782986960350025000,2.83602490234375,0.018703646957874298,0.016800550743937492,0.014027401804924011
1782986960360100000,2.84610009765625,0.024335166439414024,0.02582280896604061,0.013479323126375675
1782986960370174000,2.856174072265625,0.02845534309744835,0.022593991830945015,0.006681338418275118
1782986960380248000,2.866248046875,0.03313504904508591,0.012375709600746632,-0.003316967049613595
1782986960390323000,2.876322998046875,0.03478274866938591,0.003826163476333022,-0.010787134058773518
1782986960400397000,2.88639697265625,0.031561389565467834,0.011439608410000801,-0.013302755542099476
1782986960410472000,2.896471923828125,0.03476383909583092,0.027357587590813637,-0.01932656019926071
1782986960420546000,2.906546142578125,0.03657159209251404,0.010900851339101791,-0.019463712349534035
1782986960430621000,2.916620849609375,0.02978798933327198,0.011297928169369698,-0.017951836809515953
1782986960440695000,2.926695068359375,0.022710904479026794,0.007925833575427532,-0.019152922555804253
1782986960450770000,2.93677001953125,0.01901550218462944,0.014119015075266361,-0.018098575994372368
1782986960460844000,2.946843994140625,0.017067933455109596,0.01113094761967659,-0.024399882182478905
1782986960470919000,2.9569189453125,0.01020017359405756,-0.0006024070316925645,-0.04126408323645592
1782986960480993000,2.966992919921875,0.002237321576103568,-0.002508697798475623,-0.05438600853085518
1782986960491067000,2.97706689453125,-0.0015952334506437182,0.0013339773286134005,-0.06201649829745293
1782986960501142000,2.98714208984375,-0.003430950455367565,0.011826831847429276,-0.05746329203248024
1782986960511215900,2.9972158203125,-0.008279767818748951,0.020833376795053482,-0.058461178094148636
1782986960521291000,3.007291015625,-0.015063904225826263,0.02876879833638668,-0.05223763734102249
1782986960531364900,3.01736474609375,-0.021280521526932716,0.03175446763634682,-0.04933479428291321
1782986960541440000,3.02743994140625,-0.0218949131667614,0.02750459499657154,-0.04037565365433693
1782986960551513900,3.037513916015625,-0.015056180767714977,0.01654861681163311,-0.025417475029826164
1782986960561589000,3.047589111328125,-0.01629854552447796,0.016476977616548538,-0.004072239622473717
1782986960571662800,3.057662841796875,-0.02262435294687748,0.00785472709685564,0.012998622842133045
1782986960581738000,3.067738037109375,-0.021381987258791924,0.005973470397293568,0.021135378628969193
1782986960591811800,3.077811767578125,-0.017014402896165848,0.014162424020469189,0.01979261264204979
1782986960601887000,3.087886962890625,-0.0067998492158949375,0.02461293525993824,0.005881324876099825
1782986960611960800,3.0979609375,0.002492984989657998,0.031003190204501152,-0.016017049551010132
1782986960622035000,3.108034912109375,0.010729077272117138,0.04111148416996002,-0.029625536873936653
1782986960632109800,3.11810986328125,0.013218333944678307,0.035891421139240265,-0.042702190577983856
1782986960642184000,3.128183837890625,0.015792544931173325,0.025256620720028877,-0.04741784930229187
1782986960652259000,3.138259033203125,0.018502578139305115,0.020655211061239243,-0.046660978347063065
1782986960662333000,3.1483330078125,0.027224697172641754,0.01762586459517479,-0.03954048454761505
1782986960672408000,3.158407958984375,0.0277437474578619,0.009601494297385216,-0.03247884660959244
1782986960682482000,3.16848193359375,0.025500832125544548,0.0012144014472141862,-0.03359684348106384
1782986960692557000,3.17855712890625,0.020917532965540886,0.01187902968376875,-0.04029469192028046
1782986960702631000,3.188630859375,0.01582769863307476,0.028958680108189583,-0.04494323953986168
1782986960712705000,3.198705078125,0.014483601786196232,0.031070834025740623,-0.053942061960697174
1782986960722780000,3.20877978515625,0.01877262257039547,0.018812835216522217,-0.06280745565891266
1782986960732854000,3.21885400390625,0.02262195572257042,0.014034059830009937,-0.05873841419816017
1782986960742929000,3.228928955078125,0.03380110487341881,0.0284137986600399,-0.0406358428299427
1782986960753003000,3.2390029296875,0.04144304618239403,0.028195951133966446,-0.017068732529878616
1782986960763078000,3.249077880859375,0.04285425692796707,0.021409684792160988,0.0014106763992458582
1782986960773152000,3.259152099609375,0.04978353530168533,0.018572885543107986,0.01563941314816475
1782986960783227000,3.269226806640625,0.04911508038640022,0.015234612859785557,0.021815016865730286
1782986960793301000,3.279301025390625,0.05287546664476395,0.015743276104331017,0.011979697272181511
1782986960803375900,3.2893759765625,0.05218224599957466,0.01926317624747753,-0.002264752285555005
1782986960813450000,3.299449951171875,0.043665189296007156,0.02309706248342991,-0.02111407369375229
1782986960823524900,3.30952490234375,0.0346948616206646,0.03056856244802475,-0.0327419675886631
1782986960833599000,3.319598876953125,0.02852405235171318,0.03075738064944744,-0.03363838791847229
1782986960843673000,3.329673095703125,0.022529277950525284,0.0162372924387455,-0.030641797930002213
1782986960853748000,3.339748046875,0.017972875386476517,0.0022130869328975677,-0.025963956490159035
1782986960863822000,3.349822021484375,0.016053801402449608,-0.0019006980583071709,-0.01588788628578186
1782986960873897000,3.35989697265625,0.013153619132936,0.0012343751732259989,-0.009104282595217228
1782986960883971000,3.36997119140625,0.009278719313442707,-0.0031854070257395506,-0.0005398227367550135
1782986960894046000,3.3800458984375,0.005215002223849297,-0.015333149582147598,0.015302257612347603
1782986960904120000,3.3901201171875,0.0005432848702184856,-0.008131429553031921,0.04303881525993347
1782986960914195000,3.40019482421875,-0.009134376421570778,0.009468070231378078,0.07235835492610931
1782986960924269000,3.41026904296875,-0.01889645867049694,0.030244188383221626,0.10246299207210541
1782986960934344000,3.420343994140625,-0.02876586839556694,0.04319753870368004,0.1114618107676506
1782986960944418000,3.43041796875,-0.03254036605358124,0.0291775930672884,0.103024922311306
1782986960954492200,3.4404921875,-0.03117336519062519,0.008959938772022724,0.06251451373100281
1782986960964567000,3.450567138671875,-0.02796958200633526,-0.010365289635956287,0.010665161535143852
1782986960974641200,3.46064111328125,-0.018695922568440437,-0.02262488566339016,-0.042630817741155624
1782986960984716000,3.470716064453125,-0.011010573245584965,-0.03188735991716385,-0.08938394486904144
1782986960994790100,3.4807900390625,-0.00917166005820036,-0.026458505541086197,-0.12391315400600433
1782986961004865000,3.490864990234375,-0.017733190208673477,-0.008859537541866302,-0.1422380954027176
1782986961014939100,3.500939208984375,-0.020265590399503708,0.00897005945444107,-0.14673404395580292
1782986961025014000,3.511013916015625,-0.01369104441255331,0.019083412364125252,-0.14077416062355042
1782986961035088100,3.521088134765625,-0.0038924762047827244,0.018800586462020874,-0.1170126423239708
1782986961045163000,3.5311630859375,0.0033358754590153694,0.01254215743392706,-0.08519425988197327
1782986961055237000,3.541237060546875,0.0080885523930192,-0.002981142606586218,-0.0502498559653759
1782986961065311000,3.55131103515625,0.016213856637477875,-0.016233565285801888,-0.01660853810608387
1782986961075386000,3.56138623046875,0.018277807161211967,-0.024146880954504013,0.004992095287889242
1782986961085460000,3.5714599609375,0.021032314747571945,-0.02827797643840313,0.01347426325082779
1782986961095535000,3.58153515625,0.019881030544638634,-0.020745757967233658,0.006397179327905178
1782986961105609000,3.59160888671875,0.023333285003900528,-0.007481085602194071,-0.006310360040515661
1782986961115684000,3.60168408203125,0.033177927136421204,-0.00014940333494450897,-0.01817607507109642
1782986961125758000,3.611758056640625,0.031385354697704315,0.014355503022670746,-0.023663517087697983
1782986961135833000,3.6218330078125,0.03111317753791809,0.019834691658616066,-0.02040860243141651
1782986961145907000,3.631906982421875,0.030011694878339767,0.024341292679309845,-0.005885319784283638
1782986961155982000,3.641982177734375,0.027514448389410973,0.016214122995734215,0.0099610211327672
1782986961166056200,3.65205615234375,0.02166268415749073,0.0049161952920258045,0.02419721521437168
1782986961176130000,3.662130126953125,0.013598366640508175,-0.000002663161012605997,0.03458354249596596
1782986961186205200,3.672205078125,0.013246296904981136,-0.008559665642678738,0.03922010585665703
1782986961196279000,3.682279052734375,0.015247396193444729,-0.019541211426258087,0.03627731278538704
1782986961206354200,3.692354248046875,0.01071150042116642,-0.029987460002303123,0.02684519626200199
1782986961216428000,3.702427978515625,0.008051268756389618,-0.028904352337121964,0.01944373920559883
1782986961226503200,3.712503173828125,-0.0012149340473115444,-0.02358335629105568,0.010715228505432606
1782986961236577000,3.722576904296875,-0.011071293614804745,-0.013305419124662876,-0.0007542071980424225
1782986961246652200,3.732652099609375,-0.017307616770267487,0.006249906495213509,-0.01907835341989994
1782986961256726000,3.74272607421875,-0.021936191245913506,0.02984071895480156,-0.034683145582675934
1782986961266801200,3.75280126953125,-0.025114141404628754,0.04499303922057152,-0.042321622371673584
1782986961276875000,3.762875,-0.03134993463754654,0.05765717104077339,-0.04549824446439743
1782986961286949000,3.77294921875,-0.027832962572574615,0.05077396333217621,-0.04959737882018089
1782986961297024000,3.78302392578125,-0.026251843199133873,0.028610872104763985,-0.05209515988826752
1782986961307098000,3.79309814453125,-0.016685502603650093,0.00842677429318428,-0.049490854144096375
1782986961317173000,3.803173095703125,-0.0031912659760564566,-0.002481533447280526,-0.04578240215778351
1782986961327247000,3.8132470703125,0.010012686252593994,-0.007438208907842636,-0.031007450073957443
1782986961337322000,3.823322021484375,0.014933941885828972,-0.006392385344952345,-0.014191452413797379
1782986961347396000,3.83339599609375,0.012534966692328453,0.0006801713607273996,0.004059989005327225
1782986961357471000,3.843470947265625,0.010402040556073189,0.008861668407917023,0.01853959634900093
1782986961367545000,3.853545166015625,0.01399011816829443,0.00785632524639368,0.02780100516974926
1782986961377620000,3.863619873046875,0.01768551953136921,0.0026764769572764635,0.03676014393568039
1782986961387694000,3.873694091796875,0.016760338097810745,0.0046541402116417885,0.04324254393577576
1782986961397769000,3.88376904296875,0.011109109967947006,0.007524495478719473,0.040220655500888824
1782986961407843000,3.893843017578125,-0.00788348913192749,0.009880860336124897,0.028432706370949745
1782986961417917000,3.9039169921875,-0.024286430329084396,0.023930899798870087,0.005884254351258278
1782986961427992000,3.913991943359375,-0.04440714418888092,0.031092138960957527,-0.03008493222296238
1782986961438066000,3.92406591796875,-0.06799742579460144,0.05270368978381157,-0.06454703211784363
1782986961448141000,3.93414111328125,-0.0839763954281807,0.11077205091714859,-0.10107122361660004
1782986961458215000,3.94421484375,-0.07542657852172852,0.13441719114780426,-0.1377357542514801
1782986961468290000,3.9542900390625,-0.04711318388581276,0.09749753028154373,-0.161856010556221
1782986961478364000,3.964364013671875,-0.01894253119826317,0.0534813329577446,-0.1492595225572586
1782986961488439000,3.97443896484375,-0.005390504375100136,0.009943976998329163,-0.11766857653856277
1782986961498513000,3.984512939453125,-0.013489177450537682,-0.009719206020236015,-0.07886125892400742
1782986961508588000,3.994588134765625,-0.01703491061925888,0.019702332094311714,-0.04159032180905342
1782986961518662000,4.004661865234375,-0.010999121703207493,0.03821023553609848,-0.023426761850714684
1782986961528736000,4.014736083984375,0.005204349290579557,0.03074326552450657,-0.017706558108329773
1782986961538811000,4.024810791015625,0.021020064130425453,0.025730663910508156,-0.01595180295407772
1782986961548885000,4.034885009765625,0.025363946333527565,0.007890147157013416,-0.02293567545711994
1782986961558959900,4.0449599609375,0.023938888683915138,-0.01613209769129753,-0.0346091091632843
1782986961569034000,4.055033935546875,0.023917583748698235,-0.03562776744365692,-0.04550916329026222
1782986961579108900,4.06510888671875,0.010784736834466457,-0.05373965948820114,-0.05830511823296547
1782986961589183000,4.075182861328125,-0.0021201425697654486,-0.035479698330163956,-0.06702723354101181
1782986961599257900,4.0852578125,-0.006313555873930454,0.0018335863715037704,-0.07852596789598465
1782986961609332000,4.09533203125,-0.0007225155713967979,0.040166594088077545,-0.0824195072054863
1782986961619406000,4.105406005859375,0.0034679684322327375,0.058453455567359924,-0.07481565326452255
1782986961629481000,4.11548095703125,0.005772934295237064,0.05469866469502449,-0.056113868951797485
1782986961639555000,4.12555517578125,0.004701011814177036,0.03177550807595253,-0.03502696007490158
1782986961649630000,4.1356298828125,0.005395031534135342,-0.003014165675267577,-0.017478859052062035
1782986961659704000,4.1457041015625,0.018256235867738724,-0.04246783256530762,-0.027599669992923737
1782986961669779000,4.155779052734375,0.035104990005493164,-0.07133836299180984,-0.04121694341301918
1782986961679853000,4.16585302734375,0.044608745723962784,-0.07167045772075653,-0.05507044121623039
1782986961689928000,4.175927978515625,0.03416063264012337,-0.04091361165046692,-0.06541282683610916
1782986961700002000,4.186001953125,0.017768077552318573,-0.006469350773841143,-0.08063119649887085
1782986961710077000,4.196076904296875,0.009610283188521862,0.023241406306624413,-0.08039550483226776
1782986961720151000,4.206151123046875,0.009395631961524487,0.03273957222700119,-0.07395731657743454
1782986961730226000,4.216225830078125,0.013538978062570095,0.030044717714190483,-0.05038780719041824
1782986961740300000,4.226300048828125,0.01474618911743164,0.0238249059766531,-0.024933045729994774
1782986961750374100,4.2363740234375,0.01185266487300396,0.013997840695083141,0.002889263443648815
1782986961760449000,4.246448974609375,0.013562413863837719,0.006253368686884642,0.023015569895505905
1782986961770523100,4.256523193359375,0.014113688841462135,0.0036538569256663322,0.03201013058423996
1782986961780598000,4.266597900390625,0.021150292828679085,-0.0019097528420388699,0.029996247962117195
1782986961790672100,4.276672119140625,0.02497459203004837,-0.008099472150206566,0.022313561290502548
1782986961800747300,4.286747314453125,0.024717863649129868,0.007562578655779362,0.014358699321746826
1782986961810821000,4.296821044921875,0.026148246601223946,0.027715783566236496,0.004823517519980669
1782986961820896300,4.306896240234375,0.030946729704737663,0.03539048135280609,0.001389104756526649
1782986961830970000,4.31697021484375,0.02695758081972599,0.021871211007237434,0.009380185976624489
1782986961841045200,4.327045166015625,0.023012641817331314,0.014935540035367012,0.0287080779671669
1782986961851119000,4.337119140625,0.01972896419465542,0.026825223118066788,0.042990077286958694
1782986961861193000,4.34719287109375,0.01829325407743454,0.03676600381731987,0.044501420110464096
1782986961871268000,4.35726806640625,0.02468244358897209,0.028679315000772476,0.029101958498358727
1782986961881342000,4.367342041015625,0.03026203252375126,0.03092382661998272,0.011871573515236378
1782986961891417000,4.3774169921875,0.030838606879115105,0.05416470021009445,0.0016519587952643633
1782986961901491000,4.387490966796875,0.026030801236629486,0.0882241353392601,-0.015338209457695484
1782986961911566000,4.397566162109375,0.028557341545820236,0.12676966190338135,-0.035059452056884766
1782986961921640200,4.40764013671875,0.033971548080444336,0.14324317872524261,-0.05083654820919037
1782986961931715000,4.417715087890625,0.03726987540721893,0.12825331091880798,-0.04898858070373535
1782986961941789200,4.4277890625,0.03617051988840103,0.1086931899189949,-0.02906573936343193
1782986961951864000,4.437864013671875,0.03128788247704506,0.08442939817905426,-0.0057412427850067616
1782986961961938200,4.447938232421875,0.023754864931106567,0.07034074515104294,0.016997626051306725
1782986961972012000,4.458011962890625,0.02153591811656952,0.06250918656587601,0.029090773314237595
1782986961982087200,4.468087158203125,0.026992468163371086,0.05516152083873749,0.034695129841566086
1782986961992161000,4.4781611328125,0.029329659417271614,0.04338875412940979,0.028681978583335876
1782986962002236200,4.488236083984375,0.030310502275824547,0.01858380436897278,0.02642015554010868
1782986962012310000,4.49831005859375,0.0226251520216465,0.015248195268213749,0.017193367704749107
1782986962022385200,4.50838525390625,0.010743990540504456,0.03875591605901718,-0.0036964674945920706
1782986962032459000,4.518458984375,0.008718656376004219,0.05926518887281418,-0.036490365862846375
1782986962042534100,4.5285341796875,0.010909106582403183,0.05554608255624771,-0.06112407520413399
1782986962052608000,4.53860791015625,0.009252620860934258,0.04336771368980408,-0.07467130571603775
1782986962062682000,4.54868212890625,0.01260926853865385,0.03075098805129528,-0.08189459890127182
1782986962072757000,4.558757080078125,0.011921374127268791,0.02286163903772831,-0.07736749202013016
1782986962082831000,4.5688310546875,0.01242151577025652,0.01569880172610283,-0.05937517434358597
1782986962092906000,4.578906005859375,0.011430819518864155,0.005562278442084789,-0.04633660614490509
1782986962102980000,4.58897998046875,0.0005185174522921443,-0.01200020406395197,-0.031182153150439262
1782986962113055000,4.599054931640625,-0.0073473951779305935,-0.01859498955309391,-0.020688766613602638
1782986962123129000,4.609129150390625,-0.01203855313360691,-0.01986664906144142,-0.007893609814345837
1782986962133204200,4.619204345703125,-0.012546684592962265,-0.021460551768541336,0.006962834391742945
1782986962143278300,4.6292783203125,-0.016330769285559654,-0.02744520641863346,0.02231542579829693
1782986962153353200,4.639353271484375,-0.020189424976706505,-0.051355332136154175,0.03491217643022537
1782986962163427300,4.64942724609375,-0.02095215395092964,-0.06948559731245041,0.0412270650267601
1782986962173502200,4.659502197265625,-0.02033190242946148,-0.07954835146665573,0.043119773268699646
1782986962183576300,4.669576416015625,-0.019841082394123077,-0.08932535350322723,0.040343958884477615
1782986962193650200,4.679650146484375,-0.015468970872461796,-0.09100261330604553,0.029086247086524963
1782986962203725300,4.689725341796875,-0.0088803106918931,-0.08298543095588684,0.013760287314653397
1782986962213799200,4.699799072265625,-0.00618172949180007,-0.07767322659492493,0.0004985437262803316
1782986962223874300,4.709874267578125,-0.007570301648229361,-0.07293066382408142,-0.007104514632374048
1782986962233948200,4.7199482421875,-0.01743891090154648,-0.07548943161964417,-0.010471017099916935
1782986962244023300,4.730023193359375,-0.02201395481824875,-0.07769905775785446,-0.006721286103129387
1782986962254097200,4.74009716796875,-0.0311089176684618,-0.08107993751764297,-0.00443895673379302
1782986962264172300,4.75017236328125,-0.038369759917259216,-0.08162855356931686,-0.0005776396137662232
1782986962274246100,4.76024609375,-0.052371859550476074,-0.06283701956272125,0.005856291390955448
1782986962284321300,4.7703212890625,-0.06058531627058983,-0.032584842294454575,0.01696220599114895
1782986962294395100,4.78039501953125,-0.07218817621469498,-0.008080297149717808,0.029500899836421013
1782986962304469200,4.79046923828125,-0.07089148461818695,0.0126968864351511,0.05004825443029404
1782986962314544000,4.800544189453125,-0.07038281857967377,0.010897921398282051,0.060074787586927414
1782986962324618200,4.8106181640625,-0.058163970708847046,-0.008584699593484402,0.06846161186695099
1782986962334693000,4.820693115234375,-0.04673527926206589,-0.029329925775527954,0.0644674077630043
1782986962344767200,4.830767333984375,-0.03620913624763489,-0.057857174426317215,0.04794595390558243
1782986962354842000,4.840842041015625,-0.027341077104210854,-0.08181124180555344,0.022763635963201523
1782986962364916200,4.850916259765625,-0.02857332117855549,-0.0852762833237648,-0.0036738307680934668
1782986962374991000,4.8609912109375,-0.034808579832315445,-0.07597891986370087,-0.019840816035866737
1782986962385065200,4.871065185546875,-0.04301537573337555,-0.0494714118540287,-0.02202940173447132
1782986962395139300,4.881139404296875,-0.04741412028670311,-0.027295270934700966,-0.013198093511164188
1782986962405214200,4.891214111328125,-0.04628414288163185,-0.021401429548859596,-0.00044474788592197
1782986962415288300,4.901288330078125,-0.037160150706768036,-0.023419572040438652,0.022537000477313995
1782986962425363200,4.91136328125,-0.03274276480078697,-0.034382209181785583,0.040098950266838074
1782986962435437300,4.921437255859375,-0.03461070731282234,-0.048398956656455994,0.05506724491715431
1782986962445512200,4.93151220703125,-0.03226099908351898,-0.058397527784109116,0.06334781646728516
1782986962455586300,4.94158642578125,-0.028917668387293816,-0.058149322867393494,0.06571350246667862
1782986962465661200,4.9516611328125,-0.028144819661974907,-0.061291053891181946,0.062254853546619415
1782986962475735300,4.9617353515625,-0.031622909009456635,-0.05745610222220421,0.05037049576640129
1782986962485810200,4.97181005859375,-0.030554713681340218,-0.041000962257385254,0.03658011555671692
1782986962495884300,4.98188427734375,-0.028899557888507843,-0.017783790826797485,0.028595158830285072
1782986962505958400,4.99195849609375,-0.026547187939286232,0.00038242992013692856,0.01649269089102745
1782986962516033300,5.002033203125,-0.02304992452263832,-0.0018341189716011286,0.010088587179780006
1782986962526107400,5.012107421875,-0.025048894807696342,-0.01540745235979557,0.001811748486943543
1782986962536182300,5.022182373046875,-0.02051139995455742,-0.029644178226590157,0.005369998048990965
1782986962546256400,5.03225634765625,-0.016651680693030357,-0.045638859272003174,0.0043982104398310184
1782986962556331300,5.042331298828125,-0.015093731693923473,-0.06398297846317291,-0.0023459785152226686
1782986962566405400,5.0524052734375,-0.015594406053423882,-0.06796760112047195,-0.013175456784665585
1782986962576480300,5.062480224609375,-0.02298654243350029,-0.04735632985830307,-0.023232351988554
1782986962586554400,5.072554443359375,-0.02689606323838234,-0.021767878904938698,-0.025241706520318985
1782986962596629200,5.082629150390625,-0.033193107694387436,-0.010460363700985909,-0.026636404916644096
1782986962606703400,5.092703369140625,-0.034159835427999496,-0.010528274811804295,-0.026223082095384598
1782986962616777200,5.102777099609375,-0.03003060258924961,-0.013937919400632381,-0.020012857392430305
1782986962626852400,5.112852294921875,-0.025797242298722267,-0.019115105271339417,-0.013094763271510601
1782986962636926200,5.12292626953125,-0.01679416000843048,-0.02901167795062065,-0.001008539111353457
1782986962647001300,5.13300146484375,-0.019332684576511383,-0.029083317145705223,0.009042496792972088
1782986962657075200,5.1430751953125,-0.02069622278213501,-0.021795842796564102,0.021864818409085274
1782986962667150300,5.153150390625,-0.021832328289747238,-0.01107528805732727,0.026093918830156326
1782986962677224200,5.16322412109375,-0.028848160058259964,-0.001725462032482028,0.02167120762169361
1782986962687299300,5.17329931640625,-0.02822258323431015,0.005339371506124735,0.01619894430041313
1782986962697373200,5.183373291015625,-0.020856812596321106,0.006344715133309364,0.005781989078968763
1782986962707447300,5.193447265625,-0.014908375218510628,0.0027116306591778994,-0.005842442624270916
1782986962717522200,5.203522216796875,-0.01155785284936428,0.009076851420104504,-0.009709618985652924
1782986962727596300,5.21359619140625,-0.01625620201230049,0.017053019255399704,-0.008971923030912876
1782986962737671200,5.223671142578125,-0.018128138035535812,0.017581390216946602,-0.0022160164080560207
1782986962747745300,5.233745361328125,-0.019365176558494568,0.021882129833102226,0.009926133789122105
1782986962757820200,5.243820068359375,-0.024385767057538033,0.02653121016919613,0.021707426756620407
1782986962767894300,5.253894287109375,-0.02791152521967888,0.03633563593029976,0.02190450020134449
1782986962777969400,5.263969482421875,-0.0303344689309597,0.04561275988817215,0.024934111163020134
1782986962788043300,5.274043212890625,-0.030305707827210426,0.05356096103787422,0.025310149416327477
1782986962798118400,5.284118408203125,-0.021753765642642975,0.05114760622382164,0.01775289885699749
1782986962808192300,5.294192138671875,-0.009464075788855553,0.05112763121724129,0.016594156622886658
1782986962818266000,5.30426611328125,0.00777722941711545,0.038122352212667465,0.011155715212225914
1782986962828341200,5.31434130859375,0.0179411843419075,0.020615795627236366,-0.0003936151915695518
1782986962838415000,5.3244150390625,0.030410369858145714,0.013924071565270424,-0.012092349119484425
1782986962848490200,5.334490234375,0.04271284118294716,0.020063189789652824,-0.020596621558070183
1782986962858564000,5.344564208984375,0.053588658571243286,0.01537869032472372,-0.029586654156446457
1782986962868639200,5.35463916015625,0.061711300164461136,0.0070275492034852505,-0.03169640898704529
1782986962878713000,5.364713134765625,0.06263994425535202,0.002810700098052621,-0.02225630357861519
1782986962888788200,5.374788330078125,0.06069610267877579,0.007880293764173985,-0.010341587476432323
1782986962898862300,5.3848623046875,0.05459879711270332,0.020846426486968994,-0.00006205165118444711
1782986962908937200,5.394937255859375,0.0480724535882473,0.02557247132062912,0.004621649626642466
1782986962919011300,5.40501123046875,0.03953728824853897,0.015792012214660645,0.009672867134213448
1782986962929085200,5.415085205078125,0.03724457323551178,0.005675196181982756,0.010318949818611145
1782986962939160300,5.425160400390625,0.037821147590875626,0.006669886875897646,0.009042763151228428
1782986962949234200,5.435234130859375,0.03508394956588745,0.006216616835445166,0.001246625673957169
1782986962959309300,5.445309326171875,0.028262531384825706,0.01417440827935934,-0.001933987601660192
1782986962969383200,5.455383056640625,0.014454839751124382,0.036795832216739655,0.001936650718562305
1782986962979458300,5.465458251953125,0.001942509668879211,0.05610241740942001,0.01949726790189743
1782986962989532200,5.4755322265625,0.003163569141179323,0.07120067626237869,0.03353585675358772
1782986962999607300,5.485607177734375,0.00806431844830513,0.07042596489191055,0.04490941762924194
1782986963009681200,5.49568115234375,0.01497921533882618,0.043595947325229645,0.04710785672068596
1782986963019756300,5.50575634765625,0.021989988163113594,0.010132262483239174,0.041846781969070435
1782986963029830100,5.515830078125,0.025665948167443275,-0.010509898886084557,0.027459321543574333
1782986963039904300,5.525904296875,0.028375182300806046,-0.019041867926716805,0.0046573360450565815
1782986963049978400,5.535978271484375,0.022948725149035454,-0.01116397138684988,-0.01889832317829132
1782986963060052200,5.54605224609375,0.017112940549850464,-0.012153868563473225,-0.037633128464221954
1782986963070127400,5.55612744140625,0.0067817396484315395,-0.008346879854798317,-0.05350743234157562
1782986963080201200,5.566201171875,0.004307396709918976,0.009984723292291164,-0.056583650410175323
1782986963090276400,5.5762763671875,0.0031931300181895494,0.021094100549817085,-0.05157637596130371
1782986963100350200,5.58635009765625,0.002418682910501957,0.02582520619034767,-0.03989974409341812
1782986963110425300,5.59642529296875,0.0029166939202696085,0.030187729746103287,-0.015626896172761917
1782986963120499200,5.606499267578125,0.012018846347928047,0.027048928663134575,0.00577826052904129
1782986963130574300,5.61657421875,0.0153738958761096,0.024690965190529823,0.013393303379416466
1782986963140647400,5.6266474609375,0.014570154249668121,0.02431945502758026,0.016336629167199135
1782986963150721500,5.636721435546875,0.018380071967840195,0.03278431296348572,0.005102350376546383
1782986963160796400,5.64679638671875,0.01841309480369091,0.05055638402700424,-0.00974290817975998
1782986963170870500,5.65687060546875,0.025479793548583984,0.07306036353111267,-0.024349814280867577
1782986963180945400,5.6669453125,0.0326189287006855,0.07149335741996765,-0.0311584509909153
1782986963191019500,5.67701953125,0.0388677716255188,0.07539115846157074,-0.018434934318065643
1782986963201094400,5.687094482421875,0.04471953585743904,0.07261135429143906,0.005219263024628162
1782986963211168500,5.69716845703125,0.051115915179252625,0.06301971524953842,0.02786651812493801
1782986963221243400,5.707243408203125,0.05652026832103729,0.04459249973297119,0.050157975405454636
1782986963231317500,5.7173173828125,0.05952431261539459,0.019930830225348473,0.04995903745293617
1782986963241392600,5.727392578125,0.06082979589700699,0.00908324308693409,0.04219352453947067
1782986963251466500,5.737466552734375,0.06685306876897812,0.011087005957961082,0.019689282402396202
1782986963261540400,5.747540283203125,0.06786533445119858,0.006779342889785767,-0.0044291033409535885
1782986963271615500,5.757615478515625,0.06123565882444382,0.004171309061348438,-0.03410337492823601
1782986963281689300,5.767689453125,0.0597381666302681,0.0027739484794437885,-0.05518921837210655
1782986963291764500,5.777764404296875,0.06000155210494995,0.013668940402567387,-0.06320453435182571
1782986963301838300,5.78783837890625,0.05374019220471382,0.019230952486395836,-0.054839279502630234
1782986963311913500,5.79791357421875,0.04842052981257439,0.013687316328287125,-0.04404895007610321
1782986963321987300,5.8079873046875,0.03951065614819527,0.019711386412382126,-0.022097311913967133
1782986963332062500,5.8180625,0.03801635652780533,0.026997262611985207,-0.003424558788537979
1782986963342136300,5.82813623046875,0.03253024443984032,0.023360982537269592,0.006082393694669008
1782986963352211500,5.83821142578125,0.03057681769132614,0.022363362833857536,0.007901065982878208
1782986963362285600,5.84828564453125,0.03026575967669487,0.021763086318969727,0.0007582019316032529
1782986963372359400,5.858359375,0.029141107574105263,0.01537576038390398,-0.007783886976540089
1782986963382434600,5.8684345703125,0.026502713561058044,0.0007384945638477802,-0.019776901230216026
1782986963392509400,5.878509521484375,0.02480175346136093,-0.010685401037335396,-0.024475514888763428
1782986963402584600,5.88858447265625,0.020749486982822418,-0.008408931083977222,-0.027156254276633263
1782986963412658400,5.898658447265625,0.02075747586786747,-0.006047772243618965,-0.02220064401626587
1782986963422733600,5.908733642578125,0.019088473170995712,-0.005653358530253172,-0.014728612266480923
1782986963432807400,5.918807373046875,0.018194450065493584,0.0003451456723269075,-0.006020075641572475
1782986963442882600,5.928882568359375,0.014360031113028526,0.013045494444668293,0.0060919807292521
1782986963452956400,5.938956298828125,0.014007960446178913,0.011185809038579464,0.019508719444274902
1782986963463030500,5.949030517578125,0.006148439832031727,0.013676663860678673,0.032595761120319366
1782986963473105400,5.95910546875,0.0039020637050271034,0.013582920655608177,0.039033420383930206
1782986963483179500,5.969179443359375,0.00048709215479902923,0.014903848059475422,0.03771275654435158
1782986963493254400,5.97925439453125,0.0023811322171241045,0.02381744794547558,0.03844166547060013
1782986963503328500,5.98932861328125,-0.0004138552176300436,0.026970364153385162,0.03978149965405464
1782986963513403400,5.9994033203125,-0.0021398498211055994,0.021740449592471123,0.04102413356304169
1782986963523477500,6.0094775390625,-0.004603540059179068,0.014958975836634636,0.049308162182569504
1782986963533552400,6.019552490234375,-0.0003789678157772869,0.011169563978910446,0.05155134201049805
1782986963543626500,6.02962646484375,0.005799033213406801,0.0018793927738443017,0.045875344425439835
1782986963553700400,6.039700439453125,0.013596768490970135,-0.0059625511057674885,0.03879772871732712
1782986963563775500,6.049775390625,0.015147261321544647,-0.008916529826819897,0.03253716975450516
1782986963573849300,6.059849365234375,0.013354421593248844,-0.013568539172410965,0.029570674523711205
1782986963583924500,6.069924560546875,0.014247911982238293,-0.008111721836030483,0.026142388582229614
1782986963593998300,6.079998291015625,0.015965916216373444,-0.0002817624481394887,0.02382384054362774
1782986963604073500,6.090073486328125,0.012345615774393082,0.0018413095967844129,0.017711352556943893
1782986963614147300,6.100147216796875,0.003626959165558219,0.005016596522182226,0.013425793498754501
1782986963624222500,6.110222412109375,0.005243497900664806,0.0013398362789303064,0.013129650615155697
1782986963634296300,6.12029638671875,0.004126567859202623,-0.004750280175358057,0.020771324634552002
1782986963644371500,6.130371337890625,0.001315068919211626,-0.009897638112306595,0.017375262454152107
1782986963654445300,6.1404453125,0.0016351809026673436,-0.011425493285059929,0.016406403854489326
1782986963664519400,6.15051953125,0.004343882203102112,-0.016098542138934135,0.004020308144390583
1782986963674594300,6.16059423828125,0.008057127706706524,-0.019893014803528786,-0.0033989925868809223
1782986963684668400,6.17066845703125,0.012495817616581917,-0.025183383375406265,-0.015725167468190193
1782986963694743300,6.180743408203125,0.010462494567036629,-0.026201510801911354,-0.019339876249432564
1782986963704817400,6.1908173828125,0.004190484061837196,-0.01623782515525818,-0.012795690447092056
1782986963714892300,6.200892333984375,-0.0036847495939582586,0.007478688843548298,-0.0017030915478244424
1782986963724966400,6.21096630859375,-0.008085889741778374,0.03397927060723305,0.015025555156171322
1782986963735041300,6.221041259765625,-0.005359877832233906,0.039985232055187225,0.02875601500272751
1782986963745115400,6.231115478515625,-0.0033340114168822765,0.023066170513629913,0.03815404325723648
1782986963755190500,6.2411904296875,0.002414954360574484,-0.008357532322406769,0.03635188192129135
1782986963765264400,6.251264404296875,0.004801413044333458,-0.039319973438978195,0.02706730365753174
1782986963775338500,6.26133837890625,0.006146309431642294,-0.06042792275547981,-0.0030186930671334267
1782986963785413400,6.271413330078125,0.006126069463789463,-0.06196989491581917,-0.03561338782310486
1782986963795487500,6.281487548828125,0.012923788279294968,-0.05161179602146149,-0.06991890072822571
1782986963805562600,6.291562744140625,0.011772769503295422,-0.034394457936286926,-0.09050460159778595
1782986963815636500,6.301636474609375,0.007981760427355766,-0.01227717287838459,-0.09005159884691238
1782986963825711600,6.311711669921875,0.005249623209238052,0.0016626114957034588,-0.06904564797878265
1782986963835785500,6.321785400390625,0.006119411438703537,0.005245628301054239,-0.034202978014945984
1782986963845860600,6.331860595703125,0.01387080829590559,-0.0099623529240489,0.003290335414931178
1782986963855934500,6.3419345703125,0.02334660105407238,-0.02533598244190216,0.03579847887158394
1782986963866008600,6.352008544921875,0.032221052795648575,-0.04030321538448334,0.0562606081366539
1782986963876083700,6.362083740234375,0.03742353990674019,-0.0388009250164032,0.05465765297412872
1782986963886157600,6.372157470703125,0.03469592705368996,-0.04854436591267586,0.0475400872528553
1782986963896232700,6.382232666015625,0.029168538749217987,-0.042333874851465225,0.030186397954821587
1782986963906306600,6.392306640625,0.02305391989648342,-0.03512443229556084,0.008973521180450916
1782986963916381700,6.402381591796875,0.025440111756324768,-0.025731462985277176,-0.012354670092463493
1782986963926455600,6.41245556640625,0.029984263703227043,-0.022829148918390274,-0.021321000531315804
1782986963936530700,6.42253076171875,0.03911011666059494,-0.016474846750497818,-0.02184431254863739
1782986963946604500,6.4326044921875,0.03578516095876694,-0.019354255869984627,-0.01495125237852335
1782986963956678400,6.442678466796875,0.0223883967846632,-0.005919674411416054,0.0001174454009742476
1782986963966753500,6.45275341796875,0.02069089747965336,-0.009181780740618706,0.008836900815367699
1782986963976827400,6.462827392578125,0.021345768123865128,-0.016499081626534462,0.009245430119335651
1782986963986902500,6.472902587890625,0.016697753220796585,-0.021749237552285194,0.007753260899335146
1782986963996976600,6.4829765625,0.012173841707408428,-0.01666153408586979,0.005403553601354361
1782986964007051500,6.493051513671875,0.008991364389657974,-0.016861004754900932,-0.000060453756304923445
1782986964017125600,6.503125732421875,0.0015598133904859424,-0.01321140956133604,-0.007240602280944586
1782986964027200500,6.513200439453125,-0.008578840643167496,-0.0010833739070221782,-0.014825019054114819
1782986964037274600,6.523274658203125,-0.011255051009356976,0.018853848800063133,-0.022159630432724953
1782986964047349500,6.533349609375,-0.012075571343302727,0.0220901221036911,-0.024460868909955025
1782986964057423600,6.543423583984375,-0.007894141599535942,0.02785826288163662,-0.016753412783145905
1782986964067497500,6.55349755859375,-0.0036719664931297302,0.02793203294277191,-0.0033185649663209915
1782986964077572600,6.563572509765625,0.000011717908819264267,0.02695917896926403,0.01215919479727745
1782986964087646500,6.573646484375,0.004832305945456028,0.0157731045037508,0.02292928472161293
1782986964097721600,6.5837216796875,0.005262938793748617,0.003204581793397665,0.022760439664125443
1782986964107795500,6.59379541015625,0.006148706190288067,-0.0023281353060156107,0.018995262682437897
1782986964117870600,6.60387060546875,0.008039284497499466,0.0018253305461257696,0.0030890004709362984
1782986964127944400,6.6139443359375,0.014689730480313301,0.014141119085252285,-0.008577508851885796
1782986964138020000,6.62402001953125,0.013594372197985649,0.017833858728408813,-0.01931670680642128
1782986964148094000,6.634093994140625,0.013465475291013718,0.011565842665731907,-0.025664882734417915
1782986964158169000,6.644169189453125,0.01281779445707798,0.007389739155769348,-0.023011043667793274
1782986964168243000,6.654242919921875,0.01474618911743164,0.0036887445021420717,-0.01555099617689848
1782986964178317000,6.664317138671875,0.019392605870962143,0.004575044382363558,-0.0011646003695204854
1782986964188392000,6.674391845703125,0.01894732564687729,-0.007385478354990482,0.00743181724101305
1782986964198466000,6.684466064453125,0.014307034201920033,-0.01518933940678835,0.013135509565472603
1782986964208541200,6.694541259765625,0.013624466024339199,-0.0048948898911476135,0.013844176195561886
1782986964218615000,6.704614990234375,0.02021206170320511,0.0013827132061123848,0.01401914656162262
1782986964228690200,6.714690185546875,0.019828299060463905,-0.003743072971701622,0.01588788628578186
1782986964238764000,6.724763916015625,0.023090405389666557,-0.00968431867659092,0.024229971691966057
1782986964248839200,6.734839111328125,0.01683623716235161,-0.0048922267742455006,0.02298547700047493
1782986964258913000,6.7449130859375,0.012300342321395874,-0.03494413569569588,0.013002084568142891
1782986964268988200,6.75498828125,0.013332050293684006,-0.03928961604833603,0.018026670441031456
1782986964279062000,6.76506201171875,0.014464160427451134,-0.021526863798499107,0.017101755365729332
1782986964289135900,6.775135986328125,0.010848918929696083,-0.02702682465314865,0.005088235717266798
1782986964299211000,6.7852109375,0.010670754127204418,-0.007792675402015448,0.0002798982313834131
1782986964309284900,6.795284912109375,0.008717059157788754,-0.008413191884756088,-0.009781524538993835
1782986964319360000,6.805360107421875,0.006222209427505732,-0.006602242588996887,-0.015194132924079895
1782986964329434000,6.81543408203125,0.008200138807296753,-0.003826429834589362,-0.017675399780273438
1782986964339509000,6.825509033203125,0.009194297716021538,-0.0041124531999230385,-0.019044797867536545
1782986964349583000,6.8355830078125,0.011305385269224644,-0.0024887239560484886,-0.016978716477751732
1782986964359658000,6.845657958984375,0.006630471907556057,0.0033830134198069572,-0.022049641236662865
1782986964369732000,6.855732177734375,0.007387608755379915,0.00902864895761013,-0.02467658370733261
1782986964379807000,6.865806884765625,0.010043579153716564,0.00797057431191206,-0.029103823006153107
1782986964389881000,6.875881103515625,0.00869362335652113,-0.0023521038237959146,-0.03271693363785744
1782986964399955000,6.885954833984375,0.005781456362456083,-0.01509959064424038,-0.03894686698913574
1782986964410030000,6.896030029296875,0.006892526987940073,-0.02020886540412903,-0.048348624259233475
1782986964420104000,6.90610400390625,0.002650910522788763,-0.01708843931555748,-0.05320356786251068
1782986964430179000,6.916178955078125,-0.0010764497565105557,0.005359345115721226,-0.045217011123895645
1782986964440253000,6.9262529296875,-0.002108957152813673,0.03328099101781845,-0.02924550324678421
1782986964450328000,6.936328125,-0.002310824813321233,0.0468873456120491,-0.014567224308848381
1782986964460402000,6.94640185546875,-0.00017656758427619934,0.044974397867918015,0.0023276028223335743
1782986964470477000,6.95647705078125,0.0010759170399978757,0.030071616172790527,0.011378621682524681
1782986964480551000,6.966551025390625,0.0036216326989233494,0.010688330978155136,0.01215466670691967
1782986964490625000,6.976625,0.0019209380261600018,-0.00487118773162365,-0.010412161238491535
1782986964500700000,6.986699951171875,0.0012122709304094315,-0.010536796413362026,-0.04815288260579109
1782986964510774000,6.99677392578125,0.002834402257576585,-0.016268186271190643,-0.08897993713617325
1782986964520849000,7.006848876953125,-0.004230697639286518,-0.007430485915392637,-0.12028486281633377
1782986964530923000,7.016923095703125,-0.012060390785336494,0.01745835319161415,-0.13490162789821625
1782986964540998000,7.026997802734375,-0.024470988661050797,0.030159765854477882,-0.13520123064517975
1782986964551072000,7.037072021484375,-0.027396203950047493,0.038297586143016815,-0.10799677670001984
1782986964561147000,7.04714697265625,-0.019267704337835312,0.02961115539073944,-0.07146992534399033
1782986964571221000,7.057220947265625,-0.007284810766577721,0.00809094961732626,-0.024232368916273117
1782986964581295900,7.0672958984375,-0.004816593136638403,-0.007180680986493826,0.022235797718167305
1782986964591370000,7.077369873046875,-0.005081577692180872,-0.012953615747392178,0.06378111243247986
1782986964601444000,7.087444091796875,-0.0017752632265910506,-0.004800880327820778,0.10125764459371567
1782986964611519000,7.09751904296875,-0.0038488004356622696,0.0026224146131426096,0.1268993616104126
1782986964621593000,7.107593017578125,0.00006151902198325843,0.0070190271362662315,0.13305258750915527
1782986964631668000,7.11766796875,0.008137554861605167,0.0015941682504490018,0.12766101956367493
1782986964641742000,7.1277421875,0.004578506574034691,-0.014063620939850807,0.11430713534355164
1782986964651817000,7.13781689453125,-0.011846273206174374,-0.01344630029052496,0.09610096365213394
1782986964661891000,7.14789111328125,-0.020236827433109283,0.0003195793251506984,0.07323107123374939
1782986964671966000,7.157966064453125,-0.02503717690706253,0.018521752208471298,0.051414720714092255
1782986964682040000,7.1680400390625,-0.022783609107136726,0.022603046149015427,0.04003290459513664
1782986964692115000,7.178114990234375,-0.02678820490837097,0.018929749727249146,0.030789071694016457
1782986964702189000,7.18818896484375,-0.03105538710951805,0.004983306862413883,0.02991262450814247
1782986964712263200,7.19826318359375,-0.03590979799628258,-0.0026021746452897787,0.0357058010995388
1782986964722338000,7.208338134765625,-0.032458074390888214,-0.0031097731553018093,0.03947789967060089
1782986964732412200,7.218412109375,-0.030472688376903534,0.000984570593573153,0.044205278158187866
1782986964742487000,7.228487060546875,-0.0374365895986557,-0.0014322480419650674,0.03778519481420517
1782986964752561200,7.23856103515625,-0.041136518120765686,0.011861186474561691,0.03506157919764519
1782986964762636000,7.248635986328125,-0.04734328016638756,0.03341441601514816,0.02821166440844536
1782986964772710100,7.258710205078125,-0.048540372401475906,0.034280743449926376,0.01950099691748619
1782986964782785000,7.268784912109375,-0.04471740499138832,0.040580980479717255,0.019032547250390053
1782986964792859100,7.278859130859375,-0.04097886011004448,0.04374588280916214,0.023062974214553833
1782986964802933000,7.28893310546875,-0.040952760726213455,0.03530818969011307,0.022879749536514282
1782986964813008100,7.299008056640625,-0.03871037811040878,0.019879166036844254,0.01702691987156868
1782986964823082000,7.30908203125,-0.0452423132956028,0.0126380305737257,0.010200971737504005
1782986964833157000,7.3191572265625,-0.04445481672883034,0.006220345385372639,-0.0016474314033985138
1782986964843231000,7.32923095703125,-0.04511421546339989,0.002139317337423563,-0.01417494099587202
1782986964853306000,7.33930615234375,-0.046972036361694336,0.0004450142150744796,-0.02960290014743805
1782986964863380000,7.3493798828125,-0.0491531640291214,0.011080614291131496,-0.045276399701833725
1782986964873455000,7.359455078125,-0.04483192041516304,0.024093085899949074,-0.049310825765132904
1782986964883529000,7.369529052734375,-0.0439181886613369,0.03485944867134094,-0.04217221960425377
1782986964893604000,7.37960400390625,-0.04350113868713379,0.03202850744128227,-0.02002723701298237
1782986964903678000,7.389677978515625,-0.03838041052222252,0.023025425150990486,0.008319448679685593
1782986964913752000,7.399751953125,-0.032391760498285294,0.01618935540318489,0.03888801112771034
1782986964923827000,7.409826904296875,-0.024025974795222282,0.008916263468563557,0.06440615653991699
1782986964933901000,7.419901123046875,-0.023438746109604836,-0.007005977910012007,0.07343214005231857
1782986964943976000,7.429975830078125,-0.02395566552877426,-0.009302155114710331,0.0635901615023613
1782986964954050000,7.440050048828125,-0.02991315722465515,0.008736765943467617,0.04168752580881119
1782986964964125200,7.450125244140625,-0.030053239315748215,0.021408086642622948,0.02008849009871483
1782986964974199000,7.460198974609375,-0.036557212471961975,0.024778051301836967,-0.0026056368369609118
1782986964984274200,7.470274169921875,-0.0380840040743351,0.024162327870726585,-0.017845842987298965
1782986964994348000,7.48034814453125,-0.038721561431884766,0.025232652202248573,-0.018604310229420662
1782986965004422000,7.490421875,-0.032100412994623184,0.027422036975622177,-0.007322361227124929
1782986965014497000,7.5004970703125,-0.028389297425746918,0.026498451828956604,0.01227344386279583
1782986965024571000,7.51057080078125,-0.021891983225941658,0.02702309563755989,0.02936614491045475
1782986965034646000,7.52064599609375,-0.023247266188263893,0.030469492077827454,0.04704181104898453
1782986965044719900,7.530719970703125,-0.022844329476356506,0.020120447501540184,0.05928888916969299
1782986965054795000,7.540794921875,-0.026756247505545616,0.007260842248797417,0.0586521290242672
1782986965064868900,7.550868896484375,-0.029622340574860573,-0.00404480891302228,0.0514482781291008
1782986965074944000,7.560944091796875,-0.02605104073882103,-0.001984054921194911,0.031260184943675995
1782986965085017900,7.571017822265625,-0.026818564161658287,0.0020658141002058983,0.014464959502220154
1782986965095093000,7.581093017578125,-0.028670260682702065,0.00130894361063838,-0.007466171868145466
1782986965105167000,7.5911669921875,-0.03044978529214859,-0.0011558119440451264,-0.02333914488554001
1782986965115241000,7.601240966796875,-0.02726570889353752,-0.0027944548055529594,-0.030848193913698196
1782986965125316000,7.611316162109375,-0.02454608865082264,-0.006653375457972288,-0.02907186560332775
1782986965135389700,7.6213896484375,-0.02901380881667137,-0.008612396195530891,-0.013855095021426678
1782986965145464600,7.631464599609375,-0.033736925572156906,0.0025481125339865685,0.012459066696465015
1782986965155538700,7.64153857421875,-0.03611539304256439,0.024923458695411682,0.036023516207933426
1782986965165613600,7.651613525390625,-0.031153392046689987,0.04698162153363228,0.06410974264144897
1782986965175687700,7.661687744140625,-0.025860359892249107,0.04333069548010826,0.0902329534292221
1782986965185762600,7.671762451171875,-0.01930924877524376,0.030521158128976822,0.10762526094913483
1782986965195836700,7.681836669921875,-0.010171410627663136,0.009212139993906021,0.11245144158601761
1782986965205911600,7.69191162109375,0.001967543503269553,-0.011395665816962719,0.10126723349094391
1782986965215985700,7.701985595703125,0.011374360881745815,-0.03696094825863838,0.06871168315410614
1782986965226059800,7.712059814453125,0.013111541047692299,-0.05365550518035889,0.030539000406861305
1782986965236134700,7.722134765625,0.009747701697051525,-0.059783440083265305,-0.009958891198039055
1782986965246208800,7.732208740234375,0.0021515677217394114,-0.04781945422291756,-0.03677026554942131
1782986965256283600,7.74228369140625,-0.00624165078625083,-0.024768728762865067,-0.0426795519888401
1782986965266357800,7.752357666015625,-0.009149822406470776,-0.004293814767152071,-0.02767636813223362
1782986965276432600,7.7624326171875,-0.00484429020434618,0.006697850301861763,0.0009946906939148903
1782986965286506800,7.7725068359375,0.00042024682625196874,-0.0060946443118155,0.04192854091525078
1782986965296581600,7.78258154296875,0.00646588858217001,-0.023446736857295036,0.08327704668045044
1782986965306655700,7.79265576171875,0.01190885715186596,-0.03761901333928108,0.11193399131298065
1782986965316730600,7.802730712890625,0.017909225076436996,-0.041251830756664276,0.12534940242767334
1782986965326804700,7.8128046875,0.021732458844780922,-0.025717880576848984,0.12648071348667145
1782986965336878800,7.82287890625,0.024812139570713043,-0.0011464908020570874,0.1153779923915863
1782986965346953700,7.83295361328125,0.021091170608997345,0.012597284279763699,0.09814147651195526
1782986965357027800,7.84302783203125,0.017736120149493217,0.017110809683799744,0.08163733780384064
1782986965367103000,7.85310302734375,0.018155567348003387,0.019895145669579506,0.06900809705257416
1782986965377176800,7.8631767578125,0.02268480509519577,0.006710100453346968,0.05674264207482338
1782986965387252000,7.873251953125,0.024995630607008934,-0.0017544905422255397,0.038239262998104095
1782986965397325800,7.883325927734375,0.03118108958005905,-0.006027265917509794,0.03073847107589245
1782986965407401000,7.89340087890625,0.033310018479824066,-0.00908297672867775,0.02750805765390396
1782986965417474800,7.903474853515625,0.03458700701594353,-0.006616090890020132,0.022730346769094467
1782986965427548700,7.913548583984375,0.03740542754530907,-0.008747951127588749,0.020415259525179863
1782986965437623800,7.923623779296875,0.041069671511650085,-0.009463543072342873,0.01411422062665224
1782986965447697700,7.93369775390625,0.039391614496707916,-0.015183746814727783,0.006551109720021486
1782986965457772800,7.943772705078125,0.03780011087656021,-0.012312859296798706,-0.003064499469473958
1782986965467846700,7.9538466796875,0.031748343259096146,-0.007382016163319349,-0.01751268096268177
1782986965477921800,7.963921875,0.03502456098794937,-0.004637628793716431,-0.02208026871085167
1782986965487996000,7.973995849609375,0.03279389813542366,-0.0018221348291262984,-0.023852601647377014
1782986965498070800,7.98407080078125,0.031869783997535706,0.0006221143994480371,-0.016977651044726372
1782986965508145000,7.994144775390625,0.028966670855879784,0.009491772390902042,-0.011079016141593456
1782986965518218800,8.00421875,0.024224646389484406,0.008954878896474838,0.0021784657146781683
1782986965528294000,8.0142939453125,0.021709023043513298,0.006178533658385277,0.015784822404384613
1782986965538367700,8.02436767578125,0.02154284343123436,-0.0011528824688866735,0.0194847509264946
1782986965548443000,8.03444287109375,0.026994599029421806,-0.003459446132183075,0.015213041566312313
1782986965558516700,8.044516845703125,0.03134966641664505,-0.005396896041929722,0.01001961063593626
1782986965568592000,8.054591796875,0.028322717174887657,-0.002101234160363674,0.0013582120882347226
1782986965578665700,8.064665771484375,0.027892084792256355,0.002445580903440714,-0.01092508528381586
1782986965588740900,8.074740966796876,0.027035612612962723,0.011064102873206139,-0.01381062064319849
1782986965598814700,8.084814697265625,0.02677302435040474,0.015928100794553757,-0.02149117738008499
1782986965608889900,8.094889892578125,0.02263393998146057,0.015217302367091179,-0.02165602706372738
1782986965618963700,8.104963623046874,0.015905197709798813,0.018040519207715988,-0.020977454259991646
1782986965629037800,8.115037841796875,0.012957343831658363,0.01720481924712658,-0.021915685385465622
1782986965639112700,8.12511279296875,0.011203652247786522,0.019334282726049423,-0.0223830696195364
1782986965649186800,8.135186767578125,0.007515174336731434,0.016267919912934303,-0.020606741309165955
1782986965659261700,8.14526171875,0.00490208063274622,0.018163025379180908,-0.018195781856775284
1782986965669335800,8.155335693359374,0.0084877610206604,0.012587164528667927,-0.01817421056330204
1782986965679410700,8.16541064453125,0.01170459296554327,0.012043346650898457,-0.020067451521754265
1782986965689484800,8.17548486328125,0.010028932243585587,0.010527742095291615,-0.017972342669963837
1782986965699559700,8.1855595703125,0.009889381937682629,0.010897122323513031,-0.02148451842367649
1782986965709633800,8.1956337890625,0.009853430092334747,0.012447881512343884,-0.018920959904789925
1782986965719707600,8.205707763671874,0.0075937374494969845,0.01269901730120182,-0.01985546387732029
1782986965729782800,8.21578271484375,0.005796636454761028,0.013130982406437397,-0.018188856542110443
1782986965739856600,8.225856689453124,0.005287440028041601,0.018985409289598465,-0.01672624982893467
1782986965749931800,8.235931884765625,0.0054331147111952305,0.0336996391415596,-0.014393586665391922
1782986965760005600,8.246005615234376,0.002653839997947216,0.03139014542102814,-0.009808422066271305
1782986965770080800,8.256080810546875,0.0026378610637038946,0.0214749313890934,-0.007232612930238247
1782986965780154600,8.266154541015625,0.005590241402387619,0.013157613575458527,-0.003573695896193385
1782986965790229800,8.276229736328125,0.008883239701390266,0.0068027786910533905,-0.004044010303914547
1782986965800303600,8.2863037109375,0.008498946204781532,0.0022623552940785885,-0.00953864399343729
1782986965810378800,8.296378662109374,0.004916994366794825,0.007764712441712618,-0.02239265665411949
1782986965820452600,8.30645263671875,0.002490854589268565,0.013794375583529472,-0.0284713227301836
1782986965830526700,8.316526611328126,0.0012186624808236957,0.019087940454483032,-0.035411521792411804
1782986965840601600,8.3266015625,0.00532552320510149,0.016762468963861465,-0.04344361275434494
1782986965850675700,8.33667578125,0.0062616243958473206,0.006794789340347052,-0.04638267681002617
1782986965860750600,8.34675048828125,0.005508216097950935,-0.004883704707026482,-0.043469980359077454
1782986965870824700,8.35682470703125,0.0008881642133928835,-0.0026138925459235907,-0.03712926059961319
1782986965880899600,8.366899658203126,-0.002061553066596389,-0.00004394215648062527,-0.03376515209674835
1782986965890973700,8.3769736328125,-0.0019419770687818527,-0.003756654914468527,-0.029757097363471985
1782986965901048600,8.387048583984376,-0.001711081014946103,-0.0014112089993432164,-0.03266500309109688
1782986965911122700,8.397122802734375,-0.004884237423539162,-0.00043809000635519624,-0.03305249288678169
1782986965921197600,8.407197509765625,-0.007518370170146227,0.0024341291282325983,-0.02996695414185524
1782986965931271700,8.417271728515624,-0.011296596378087997,-0.0010106696281582117,-0.02833390235900879
1782986965941345800,8.427345703125,-0.018689265474677086,0.0005344964447431266,-0.025198563933372498
1782986965951420700,8.437420654296876,-0.0195489339530468,0.016866331920027733,-0.011166634038090706
1782986965961494800,8.447494873046875,-0.021373199298977852,0.03482642397284508,0.005997438915073872
1782986965971569700,8.457569580078125,-0.02267308719456196,0.03550233319401741,0.01847434788942337
1782986965981643800,8.467643798828124,-0.019038937985897064,0.030760575085878372,0.025043567642569542
1782986965991718700,8.47771875,-0.008351673372089863,0.01649375632405281,0.027519509196281433
1782986966001792800,8.487792724609376,-0.0021201425697654486,0.0025680861435830593,0.021631525829434395
1782986966011867600,8.49786767578125,0.011808455921709538,-0.012575712986290455,0.006373743526637554
1782986966021941800,8.507941650390626,0.018682874739170074,-0.031091073527932167,-0.017401093617081642
1782986966032016600,8.5180166015625,0.027541613206267357,-0.05011003836989403,-0.04160124063491821
1782986966042090800,8.5280908203125,0.026516295969486237,-0.04651370644569397,-0.05348612740635872
1782986966052164900,8.538164794921874,0.021697571501135826,-0.0316665843129158,-0.05723639205098152
1782986966062239700,8.54823974609375,0.021649900823831558,-0.018093783408403397,-0.05035851150751114
1782986966072313900,8.55831396484375,0.02594371698796749,-0.016499614343047142,-0.03477129712700844
1782986966082388700,8.568388671875,0.03453667089343071,-0.025259817019104958,-0.01158741395920515
1782986966092462800,8.578462890625,0.03847149387001991,-0.030012493953108788,0.010655040852725506
1782986966102537700,8.588537841796875,0.03948508948087692,-0.03578756004571915,0.0323219858109951
1782986966112611800,8.59861181640625,0.032096948474645615,-0.03689569979906082,0.042332544922828674
1782986966122687000,8.60868701171875,0.02033296786248684,-0.03518994525074959,0.042697660624980927
1782986966132761300,8.61876123046875,0.010338923893868923,-0.02371944487094879,0.03194967657327652
1782986966142835200,8.628835205078126,0.004126301966607571,-0.006885070353746414,0.021328458562493324
1782986966152910300,8.638910400390625,-0.0032197616528719664,0.00036139096482656896,0.008219047449529171
1782986966162984200,8.648984130859375,-0.004689027555286884,0.005799299571663141,0.003079146845266223
1782986966173059300,8.659059326171874,-0.004427238833159208,0.0005853627808392048,0.003982757218182087
1782986966183133200,8.66913330078125,-0.004132693167775869,-0.008138353936374187,0.01158927846699953
1782986966193208300,8.679208251953124,-0.0005081311101093888,-0.007764978799968958,0.0262430552393198
1782986966203282200,8.6892822265625,-0.000297475082334131,-0.006393983494490385,0.04373922571539879
1782986966213357300,8.699357421875,0.002436526119709015,-0.008357532322406769,0.05458281934261322
1782986966223431200,8.70943115234375,0.006879744119942188,-0.013814881443977356,0.06018770486116409
1782986966233505000,8.719505126953125,0.008352472446858883,-0.01738458313047886,0.053046971559524536
1782986966243580200,8.729580078125,0.013943778350949287,-0.019665047526359558,0.039266180247068405
1782986966253654000,8.739654052734375,0.014216220006346703,-0.017104418948292732,0.024602282792329788
1782986966263729200,8.749729248046876,0.013401293195784092,-0.011203652247786522,0.008391886949539185
1782986966273803300,8.75980322265625,0.010175406001508236,-0.011007376946508884,0.005691175349056721
1782986966283878100,8.769878173828126,0.0037385455798357725,-0.0016948357224464417,0.002776079112663865
1782986966293952300,8.7799521484375,-0.0024229439441114664,0.002683134749531746,0.007171892561018467
1782986966304027100,8.790027099609375,-0.005215002223849297,0.0049010151997208595,0.016410132870078087
1782986966314101200,8.800101318359374,-0.0015696671325713396,0.010071275755763054,0.020668527111411095
1782986966324176100,8.810176025390625,-0.0033806166611611843,0.016655942425131798,0.03139787167310715
1782986966334250200,8.820250244140626,0.0006402239087037742,0.017948107793927193,0.044016193598508835
1782986966344324000,8.830323974609374,0.0007550061563961208,0.008116782642900944,0.05518682301044464
1782986966354399200,8.840399169921875,0.006399842444807291,-0.0041550640016794205,0.06016506999731064
1782986966364473000,8.85047314453125,0.013155749067664146,-0.01637231558561325,0.06172701343894005
1782986966374548200,8.86054833984375,0.016622386872768402,-0.017654361203312874,0.05536365509033203
1782986966384622000,8.8706220703125,0.012459333054721355,-0.018272746354341507,0.04092372953891754
1782986966394697200,8.880697265625,0.009007609449326992,-0.011023356579244137,0.01980512961745262
1782986966404771000,8.89077099609375,0.005026184022426605,-0.0041734399273991585,-0.007164435926824808
1782986966414846200,8.90084619140625,0.0027300063520669937,0.005161738954484463,-0.028374649584293365
1782986966424920000,8.910920166015625,0.003964648116379976,0.014759238809347153,-0.031680699437856674
1782986966434994200,8.920994140625,-0.00024234765442088246,0.007201986387372017,-0.017529193311929703
1782986966445069000,8.931069091796875,-0.004625910893082619,-0.01190938986837864,0.012023639865219593
1782986966455143200,8.94114306640625,0.0029606360476464033,-0.025355424731969833,0.046476688235998154
1782986966465218000,8.951218017578125,0.01613582670688629,-0.029216740280389786,0.06732151657342911
1782986966475292200,8.961292236328125,0.01296346914023161,-0.02394208498299122,0.08000561594963074
1782986966485367000,8.971366943359374,0.008082959800958633,-0.009186041541397572,0.07742980867624283
1782986966495441200,8.981441162109375,0.0008207862265408039,-0.0025449167005717754,0.06054536998271942
1782986966505516000,8.99151611328125,0.0026202842127531767,0.0027955202385783195,0.044568002223968506
1782986966515590100,9.001590087890625,-0.0006109291571192443,0.003108707955107093,0.021740449592471123
1782986966525665000,9.0116650390625,0.0004492752777878195,-0.005753759294748306,0.005742307752370834
1782986966535739100,9.0217392578125,-0.00007936220208648592,-0.01642611064016819,-0.012378105893731117
1782986966545813000,9.03181298828125,-0.002401372417807579,-0.02214471623301506,-0.0218347255140543
1782986966555888000,9.04188818359375,-0.0011102718999609351,-0.023489613085985184,-0.026515230536460876
1782986966565962000,9.0519619140625,-0.00446798512712121,-0.02678793855011463,-0.019275160506367683
1782986966576037000,9.062037109375,-0.005629922728985548,-0.02046692557632923,-0.004056793171912432
1782986966586111000,9.072111083984375,-0.008375375531613827,-0.012208196334540844,0.009795638732612133
1782986966596186000,9.08218603515625,-0.012311527505517006,-0.017365673556923866,0.01665966957807541
1782986966606260000,9.092260009765624,-0.009183910675346851,-0.01944134198129177,0.018870361149311066
1782986966616335000,9.102335205078125,-0.010469152592122555,-0.019584886729717255,0.010555705055594444
1782986966626409000,9.112408935546876,-0.011332282796502113,-0.011411379091441631,0.002374474424868822
1782986966636483000,9.122483154296875,-0.013286776840686798,-0.008007592521607876,-0.00777696305885911
1782986966646558000,9.132557861328126,-0.012179434299468994,-0.009111473336815834,-0.012573315761983395
1782986966656632000,9.142632080078124,-0.005880259443074465,-0.016325443983078003,-0.017648234963417053
1782986966666707000,9.15270703125,-0.0026498453225940466,-0.024266457185149193,-0.010202836245298386
1782986966676781000,9.162781005859374,0.0012607404496520758,-0.03538275882601738,-0.00905501376837492
1782986966686856000,9.17285595703125,0.0018402442801743746,-0.03182770311832428,-0.008048871532082558
1782986966696930000,9.182929931640626,0.005651760380715132,-0.03050144948065281,-0.008058193139731884
1782986966707005000,9.1930048828125,0.010041981004178524,-0.03328818082809448,-0.011620170436799526
1782986966717079000,9.2030791015625,0.01170699018985033,-0.03117656148970127,-0.0073109096847474575
1782986966727154000,9.21315380859375,0.008783903904259205,-0.027899008244276047,-0.004915129859000444
1782986966737228000,9.22322802734375,0.006159092765301466,-0.03314809873700142,0.002201369032263756
1782986966747302100,9.23330224609375,0.007778294384479523,-0.0453304648399353,0.01440903265029192
1782986966757377000,9.243376953125,0.0070616379380226135,-0.02714559994637966,0.03797481209039688
1782986966767451100,9.253451171875,0.006228867452591658,-0.04430434852838516,0.056825730949640274
1782986966777526000,9.263526123046875,0.0012101404136046767,-0.05437881872057915,0.06649193912744522
1782986966787600100,9.27360009765625,-0.002180862706154585,-0.053646717220544815,0.07507051527500153
1782986966797675000,9.283675048828124,-0.004772917367517948,-0.052022188901901245,0.07061771303415298
1782986966807749000,9.2937490234375,-0.010554905980825424,-0.0456543043255806,0.060692641884088516
1782986966817824000,9.303823974609376,-0.01561011839658022,-0.03603656217455864,0.059293150901794434
1782986966827898000,9.313898193359375,-0.020293287932872772,-0.00564084155485034,0.06069716811180115
1782986966837972200,9.32397216796875,-0.020441358909010887,0.013860155828297138,0.0663800910115242
1782986966848047000,9.334047119140624,-0.015542208217084408,0.013807691633701324,0.07346303015947342
1782986966858121200,9.344121337890625,-0.009032643400132656,-0.004125502891838551,0.08009883016347885
1782986966868196000,9.354196044921874,-0.00247567449696362,-0.043230026960372925,0.07249337434768677
1782986966878270200,9.364270263671875,0.00695005152374506,-0.07824873179197311,0.04338981956243515
1782986966888345000,9.374344970703126,0.016470851376652718,-0.10871928930282593,-0.0015361113473773003
1782986966898419200,9.384419189453125,0.013861486688256264,-0.1049722209572792,-0.04820481315255165
1782986966908494300,9.394494384765625,0.007822236977517605,-0.07970574498176575,-0.09048915654420853
1782986966918568200,9.404568115234374,-0.0021853898651897907,-0.04554111883044243,-0.12162630259990692
1782986966928643300,9.414643310546875,-0.0018192053539678454,-0.027710190042853355,-0.1368393450975418
1782986966938717200,9.42471728515625,0.006340986583381891,-0.013921940699219704,-0.12694010138511658
1782986966948791000,9.434791015625,0.01278663519769907,-0.013224192894995213,-0.09678220003843307
1782986966958866200,9.4448662109375,0.018247712403535843,-0.025828134268522263,-0.055321577936410904
1782986966968940000,9.45493994140625,0.020660271868109703,-0.03867362439632416,-0.018223213031888008
1782986966979015200,9.46501513671875,0.02876480296254158,-0.04147101193666458,-0.001413339632563293
1782986966989089000,9.475089111328124,0.041372474282979965,-0.026334401220083237,-0.0032176312524825335
1782986966999164200,9.4851640625,0.053949251770973206,0.0008189220097847283,-0.02564091421663761
1782986967009238000,9.495238037109376,0.06208600848913193,0.025493109598755836,-0.05549921095371246
1782986967019313200,9.505313232421875,0.06618966907262802,0.043115247040987015,-0.08467520773410797
1782986967029387300,9.51538720703125,0.06797105818986893,0.05413514003157616,-0.10151676833629608
1782986967039461000,9.525461181640624,0.06791513413190842,0.05782201886177063,-0.10667558014392853
1782986967049535000,9.535534912109375,0.06971969455480576,0.07348726689815521,-0.10117615014314651
1782986967059609000,9.545609130859376,0.06376379728317261,0.06848584860563278,-0.08999300748109818
1782986967069684000,9.55568408203125,0.03562537208199501,0.09676169604063034,-0.07208164781332016
1782986967079758000,9.565758056640625,0.017435183748602867,0.08941030502319336,-0.05860206112265587
1782986967089833000,9.5758330078125,0.014495586045086384,0.06453238427639008,-0.03699610009789467
1782986967099907000,9.585906982421875,0.015539278276264668,0.05091271549463272,-0.020486366003751755
1782986967109982000,9.59598193359375,0.008022240363061428,0.0357220433652401,-0.01008086372166872
1782986967120056000,9.60605615234375,0.00047697214176878333,0.018637865781784058,-0.012717659585177898
1782986967130131000,9.616130859375,-0.003930293023586273,0.020552679896354675,-0.014251906424760818
1782986967140204500,9.62620458984375,-0.004288754425942898,0.0070517840795218945,-0.019651198759675026
1782986967150279200,9.636279052734375,-0.002494050422683358,0.002615490462630987,-0.02870354987680912
1782986967160353500,9.646353515625,-0.004459995776414871,0.004560397006571293,-0.04030401259660721
1782986967170427400,9.656427490234375,-0.006935404147952795,0.014430604875087738,-0.050332412123680115
1782986967180502500,9.66650244140625,-0.01570359617471695,0.014809305779635906,-0.058819640427827835
1782986967190576400,9.676576416015624,-0.02213433012366295,-0.003920705523341894,-0.053405702114105225
1782986967200651500,9.686651611328125,-0.028444424271583557,-0.029342709109187126,-0.043062515556812286
1782986967210725400,9.696725341796874,-0.0349033884704113,-0.058405254036188126,-0.026854783296585083
1782986967220800500,9.706800537109375,-0.04181163012981415,-0.0857258215546608,-0.018922291696071625
1782986967230874400,9.716874267578126,-0.04962241277098656,-0.10318896919488907,-0.015546202659606934
1782986967240949500,9.726949462890625,-0.048524390906095505,-0.10182595998048782,-0.02292342483997345
1782986967251023400,9.7370234375,-0.046479884535074234,-0.07251600921154022,-0.028977589681744576
1782986967261097500,9.747097412109374,-0.03401043266057968,-0.04255358502268791,-0.043836165219545364
1782986967271172400,9.75717236328125,-0.02966894581913948,-0.023800937458872795,-0.052076250314712524
1782986967281246500,9.76724658203125,-0.02761405147612095,0.0013856426812708378,-0.05562171712517738
1782986967291321300,9.7773212890625,-0.025716815143823624,0.011549596674740314,-0.06393104791641235
1782986967301395500,9.7873955078125,-0.03316274657845497,-0.009552226401865482,-0.08227809518575668
1782986967311470300,9.79747021484375,-0.03520219400525093,-0.02064162865281105,-0.09962992370128632
1782986967321544400,9.80754443359375,-0.039746612310409546,-0.030372286215424538,-0.12633183598518372
1782986967331619300,9.817619384765624,-0.046226616948843,-0.04610437899827957,-0.1576807051897049
1782986967341693400,9.827693359375,-0.07782555371522903,-0.035965725779533386,-0.19237050414085388
1782986967351767300,9.837767333984376,-0.10574667155742645,0.0041191112250089645,-0.22374095022678375
1782986967361842400,9.847842529296875,-0.12516137957572937,0.046606115996837616,-0.2733660340309143
1782986967371916300,9.857916259765625,-0.1311202049255371,0.06319814175367355,-0.31947973370552063
1782986967381991400,9.867991455078124,-0.13423344492912292,0.08517827838659286,-0.3544566035270691
1782986967392066600,9.878066650390625,-0.13797757029533386,0.11184371262788773,-0.38326215744018555
1782986967402140400,9.888140380859374,-0.1386585533618927,0.09997692704200745,-0.38687369227409363
1782986967412215600,9.898215576171875,-0.15286651253700256,0.05578283965587616,-0.3525460660457611
1782986967422289400,9.908289306640626,-0.1923087239265442,-0.011112039908766747,-0.2998250722885132
1782986967432364500,9.918364501953125,-0.23816277086734772,-0.07806577533483505,-0.22764700651168823
1782986967442438400,9.9284384765625,-0.2685648798942566,-0.10258283466100693,-0.1289164423942566
1782986967452513500,9.938513427734375,-0.2908472716808319,-0.1439470499753952,-0.008134625852108002
1782986967462587400,9.94858740234375,-0.29153570532798767,-0.22476306557655334,0.10991717875003815
1782986967472662500,9.95866259765625,-0.27450159192085266,-0.27714797854423523,0.20234325528144836
1782986967482736400,9.968736328125,-0.2489728033542633,-0.29186487197875977,0.24463105201721191
1782986967492810500,9.978810546875,-0.21784338355064392,-0.29144251346588135,0.26923707127571106
1782986967502885400,9.988885498046875,-0.20055866241455078,-0.2722424268722534,0.2842961847782135
1782986967512959500,9.99895947265625,-0.1980813890695572,-0.2171594798564911,0.2873143255710602
1782986967523034400,10.009034423828124,-0.1846659779548645,-0.18069708347320557,0.26699042320251465
1782986967533108500,10.0191083984375,-0.16378946602344513,-0.1609065979719162,0.2310425341129303
1782986967543183400,10.029183349609376,-0.1348038911819458,-0.14048893749713898,0.18966394662857056
1782986967553257500,10.039257568359375,-0.1161108911037445,-0.14173956215381622,0.1417752504348755
1782986967563332400,10.049332275390626,-0.11878763884305954,-0.1444205641746521,0.08695833384990692
1782986967573406500,10.059406494140624,-0.13142859935760498,-0.12571612000465393,0.04675285890698433
1782986967583480300,10.069480224609375,-0.14796896278858185,-0.08603528141975403,0.021469872444868088
1782986967593555500,10.079555419921874,-0.14963796734809875,-0.0572262704372406,0.01925119198858738
1782986967603629300,10.08962939453125,-0.139348566532135,-0.04230191558599472,0.03718598559498787
1782986967613704400,10.099704345703126,-0.125377357006073,-0.04296637699007988,0.06853564828634262
1782986967623778300,10.1097783203125,-0.10925272107124329,-0.05512344092130661,0.09379999339580536
1782986967633853400,10.119853515625,-0.09291210025548935,-0.07130453735589981,0.12333551794290543
1782986967643927300,10.12992724609375,-0.08026767522096634,-0.08746326714754105,0.13765878975391388
1782986967654002400,10.14000244140625,-0.06882327049970627,-0.10621458292007446,0.1304410994052887
1782986967664076300,10.150076171875,-0.04926421865820885,-0.12538614869117737,0.11890055239200592
1782986967674151400,10.1601513671875,-0.02562520280480385,-0.11068204045295715,0.09860780090093613
1782986967684225300,10.170225341796876,-0.006055495701730251,-0.0744691714644432,0.07514774799346924
1782986967694299400,10.18029931640625,0.006370814051479101,-0.048276983201503754,0.046002112329006195
1782986967704374300,10.190374267578125,0.018086858093738556,-0.013605823740363121,0.01890098676085472
1782986967714448400,10.200448486328124,0.027003655210137367,0.017712417989969254,-0.0001675128296483308
1782986967724523300,10.210523193359375,0.023086410015821457,0.027122430503368378,-0.007334079127758741
1782986967734597400,10.220597412109376,0.017297763377428055,0.03371588513255119,0.0044378917664289474
1782986967744672300,10.23067236328125,0.013452159240841866,0.04366865009069443,0.0211886428296566
1782986967754746400,10.240746337890625,0.009220928885042667,0.036977458745241165,0.040097083896398544
1782986967764821200,10.2508212890625,0.004031493328511715,0.026013225317001343,0.0637398287653923
1782986967774895400,10.260895263671875,0.0034163030795753,0.029108883813023567,0.07885193824768066
1782986967784969200,10.27096923828125,0.0030131004750728607,0.023731961846351624,0.09207426756620407
1782986967795044400,10.28104443359375,0.004471447318792343,-0.0003904194163624197,0.0996062159538269
1782986967805118200,10.2911181640625,0.005532983224838972,-0.014973090030252934,0.09380452334880829
1782986967815193300,10.301193359375,0.010723751038312912,-0.0070520504377782345,0.09049234539270401
1782986967825267200,10.31126708984375,0.014025538228452206,0.013966682367026806,0.09299065917730331
1782986967835342300,10.32134228515625,0.01944666914641857,0.028381573036313057,0.089492067694664
1782986967845416200,10.331416259765625,0.022121280431747437,0.032702021300792694,0.08631038665771484
1782986967855491300,10.3414912109375,0.02588432841002941,0.032579515129327774,0.08476335555315018
1782986967865565200,10.351565185546875,0.03333558514714241,0.017242103815078735,0.07520446926355362
1782986967875640300,10.361640380859376,0.047020237892866135,0.006530869752168655,0.07252346724271774
1782986967885714200,10.371714111328124,0.045938462018966675,-0.00004713794987765141,0.06634467095136642
1782986967895788500,10.38178857421875,0.04422924667596817,-0.008142881095409393,0.05476018413901329
1782986967905863200,10.39186328125,0.04868657886981964,0.007767109200358391,0.04559171944856644
1782986967915937500,10.4019375,0.05188370496034622,0.03199894726276398,0.041252098977565765
1782986967926012200,10.41201220703125,0.0587751641869545,0.04693874716758728,0.019424032419919968
1782986967936086500,10.42208642578125,0.07197112590074539,0.06089317798614502,0.004884237423539162
1782986967946161200,10.4321611328125,0.0941893458366394,0.06331265717744827,-0.0059657469391822815
1782986967956235500,10.442235595703124,0.12069312483072281,0.056112006306648254,0.00845846626907587
1782986967966310100,10.45231005859375,0.13800260424613953,0.0632692500948906,0.046719569712877274
1782986967976384500,10.462384521484376,0.07095380127429962,0.01666552945971489,0.22006924450397491
1782986967986458400,10.472458251953125,-0.01555339340120554,-0.1975511610507965,0.3384198546409607
1782986967996533500,10.482533447265626,0.005496498197317123,-0.3785254657268524,0.3456284999847412
1782986968006607400,10.492607421875,0.04368329793214798,-0.33178138732910156,0.2753833830356598
1782986968016682500,10.5026826171875,0.020625116303563118,-0.171403706073761,0.14387407898902893
1782986968026756400,10.51275634765625,-0.05333033204078674,-0.04307343438267708,-0.029756564646959305
1782986968036831500,10.52283154296875,-0.12694063782691956,0.03447195515036583,-0.17676810920238495
1782986968046905300,10.5329052734375,-0.22890667617321014,0.06445515900850296,-0.24402038753032684
1782986968056980500,10.54298046875,-0.31671562790870667,0.04965810105204582,-0.18066778779029846
1782986968067054300,10.553054443359375,-0.33802279829978943,0.0035518580116331577,-0.016516393050551414
1782986968077129500,10.56312939453125,-0.31991860270500183,-0.09776091575622559,0.16889448463916779
