time,seconds_elapsed,z,y,x
1782986957584585200,0.070585205078125,0.36179599165916443,0.038263704627752304,0.07749558240175247
1782986957594660400,0.080660400390625,0.35420331358909607,0.06662982702255249,0.00469381595030427
1782986957604734200,0.090734130859375,0.34003573656082153,0.05246923863887787,-0.043783999979496
1782986957614809300,0.100809326171875,0.33346864581108093,0.0451950803399086,-0.06436916440725327
1782986957624883200,0.11088330078125,0.33618029952049255,0.046164825558662415,-0.06418665498495102
1782986957634958300,0.120958251953125,0.3284808099269867,0.05324377492070198,-0.05770505592226982
1782986957645032200,0.1310322265625,0.31681591272354126,0.05990851670503616,-0.05075136199593544
1782986957655106300,0.141106201171875,0.29819244146347046,0.06983757764101028,-0.04865758493542671
1782986957665181200,0.15118115234375,0.28237804770469666,0.07022275775671005,-0.04085630178451538
1782986957675255300,0.16125537109375,0.27669352293014526,0.0739503800868988,-0.03699152171611786
1782986957685330200,0.171330078125,0.27274635434150696,0.06608462333679199,-0.029105747118592262
1782986957695404300,0.181404296875,0.2678908705711365,0.07438410073518753,-0.025335509330034256
1782986957705479200,0.191479248046875,0.25924360752105713,0.10205567628145218,-0.02789214812219143
1782986957715553300,0.20155322265625,0.25125306844711304,0.11278075724840164,-0.04162580519914627
1782986957725628200,0.211628173828125,0.2383493334054947,0.10984935611486435,-0.06625957041978836
1782986957735702300,0.221702392578125,0.22594645619392395,0.08222305029630661,-0.09635995328426361
1782986957745777200,0.231777099609375,0.2096429318189621,0.05959012359380722,-0.11425671726465225
1782986957755851300,0.241851318359375,0.19416171312332153,0.0584271177649498,-0.11400265246629715
1782986957765926400,0.251926513671875,0.17636807262897491,0.06866981089115143,-0.10087282210588455
1782986957776000300,0.262000244140625,0.15836429595947266,0.07249091565608978,-0.08404537290334702
1782986957786075400,0.272075439453125,0.1403440237045288,0.07626603543758392,-0.05972982570528984
1782986957796149200,0.282149169921875,0.11877454072237015,0.0883093848824501,-0.04703453928232193
1782986957806223000,0.29222314453125,0.09793007373809814,0.09430170804262161,-0.04528756067156792
1782986957816298200,0.30229833984375,0.07835157960653305,0.09553688019514084,-0.04969322681427002
1782986957826372000,0.3123720703125,0.06243279203772545,0.09776008874177933,-0.053881313651800156
1782986957836447200,0.322447265625,0.04554196074604988,0.1169700026512146,-0.06047823280096054
1782986957846521000,0.33252099609375,0.024976596236228943,0.12799638509750366,-0.07717294245958328
1782986957856596200,0.34259619140625,0.018499255180358887,0.11637569963932037,-0.10044896602630615
1782986957866670000,0.352670166015625,0.016582490876317024,0.08479367941617966,-0.1283813863992691
1782986957876745200,0.3627451171875,0.018211813643574715,0.04959521442651749,-0.1542510688304901
1782986957886819300,0.3728193359375,0.015568440780043602,0.01833808235824108,-0.17259825766086578
1782986957896894200,0.382894287109375,0.020344287157058716,-0.01088611502200365,-0.17421293258666992
1782986957906968300,0.39296826171875,0.028427330777049065,-0.026676587760448456,-0.16102156043052673
1782986957917043200,0.403043212890625,0.033835411071777344,-0.035167012363672256,-0.13021650910377502
1782986957927117300,0.413117431640625,0.029801612719893456,-0.03774359077215195,-0.08557071536779404
1782986957937192200,0.423192138671875,0.02807481959462166,-0.02832186035811901,-0.03390805050730705
1782986957947266300,0.433266357421875,0.01830928772687912,-0.015688808634877205,0.00040287087904289365
1782986957957340200,0.443340087890625,0.017377447336912155,-0.006369875743985176,0.019766448065638542
1782986957967415300,0.453415283203125,0.022631410509347916,0.003119891509413719,0.020549004897475243
1782986957977489200,0.4634892578125,0.03419272601604462,0.011985820718109608,0.011004769243299961
1782986957987564300,0.473564208984375,0.050426024943590164,0.010176911018788815,-0.011013537645339966
1782986957997638100,0.48363818359375,0.061686400324106216,0.0017123203724622726,-0.026839638128876686
1782986958007713300,0.49371337890625,0.05988309904932976,0.012895871885120869,-0.02897454798221588
1782986958017787100,0.503787109375,0.05990413576364517,0.032467179000377655,-0.008294835686683655
1782986958027862300,0.5138623046875,0.06157970428466797,0.0403708815574646,0.0342792272567749
1782986958037936000,0.52393603515625,0.07124857604503632,0.04354030638933182,0.0759851261973381
1782986958048011300,0.53401123046875,0.09396567940711975,0.042630523443222046,0.11094758659601212
1782986958058085000,0.544085205078125,0.1323828399181366,0.02966039441525936,0.13454265892505646
1782986958068160300,0.55416015625,0.16783174872398376,0.028005976229906082,0.14674679934978485
1782986958078234000,0.564234130859375,0.18960867822170258,0.052586689591407776,0.14709194004535675
1782986958088308200,0.57430810546875,0.19685211777687073,0.07497159391641617,0.1316698044538498
1782986958098383000,0.584383056640625,0.17135103046894073,0.0729510560631752,0.11056400090456009
1782986958108457200,0.594457275390625,0.1365608274936676,0.040620364248752594,0.0784149318933487
1782986958118532000,0.604531982421875,0.10152001678943634,-0.05761725455522537,0.039448365569114685
1782986958128605700,0.614605712890625,0.09799088537693024,-0.07186682522296906,0.026105334982275963
1782986958138680600,0.6246806640625,0.10696493834257126,-0.039980798959732056,0.03979664668440819
1782986958148754700,0.634754638671875,0.11035194993019104,-0.008237781934440136,0.05845927819609642
1782986958158829600,0.64482958984375,0.10382293909788132,0.004387731663882732,0.06786263734102249
1782986958168903700,0.654903564453125,0.09534946084022522,0.0393192358314991,0.07353798300027847
1782986958178978600,0.664978515625,0.0950930044054985,0.10378184914588928,0.08723089098930359
1782986958189052700,0.675052734375,0.08886981755495071,0.19135478138923645,0.10477174073457718
1782986958199127600,0.68512744140625,0.07974129915237427,0.24769607186317444,0.1271952986717224
1782986958209201700,0.69520166015625,0.046774838119745255,0.2860443592071533,0.14044247567653656
1782986958219276500,0.705276611328125,-0.0006723077967762947,0.2724582254886627,0.15099285542964935
1782986958229350700,0.7153505859375,-0.03988255560398102,0.24760064482688904,0.17083749175071716
1782986958239424500,0.725424560546875,-0.06878344714641571,0.19987359642982483,0.19891999661922455
1782986958249499600,0.735499755859375,-0.08612027764320374,0.16821281611919403,0.2221006155014038
1782986958259573500,0.745573486328125,-0.08941381424665451,0.162740558385849,0.2362193763256073
1782986958269648600,0.755648681640625,-0.06743305921554565,0.18269938230514526,0.22624452412128448
1782986958279722500,0.765722412109375,-0.04303024336695671,0.23661747574806213,0.19729435443878174
1782986958289797600,0.775797607421875,-0.026323342695832253,0.29865601658821106,0.16043375432491302
1782986958299871500,0.78587158203125,-0.020818855613470078,0.3574378490447998,0.1233215406537056
1782986958309946600,0.795946533203125,-0.027950450778007507,0.3507903516292572,0.08157066255807877
1782986958320020500,0.8060205078125,-0.04602186381816864,0.28845322132110596,0.04642333462834358
1782986958330095600,0.816095703125,-0.05433216691017151,0.23521505296230316,0.04248481243848801
1782986958340169500,0.82616943359375,-0.04522788152098656,0.18572579324245453,0.052882060408592224
1782986958350244600,0.83624462890625,-0.025856051594018936,0.14558929204940796,0.08135098218917847
1782986958360318500,0.846318359375,-0.004875667858868837,0.11272749304771423,0.11468790471553802
1782986958370392600,0.856392578125,0.02154581807553768,0.08058483153581619,0.15088781714439392
1782986958380467500,0.866467529296875,0.03680120036005974,0.054898638278245926,0.17273558676242828
1782986958390541600,0.87654150390625,0.03267417475581169,0.011196640320122242,0.19120322167873383
1782986958400616400,0.886616455078125,0.028468245640397072,-0.028785929083824158,0.20213070511817932
1782986958410690600,0.896690673828125,0.030956896021962166,-0.04290488734841347,0.21167819201946259
1782986958420765400,0.906765380859375,0.039317090064287186,-0.008513091132044792,0.20792126655578613
1782986958430839600,0.916839599609375,0.037024907767772675,0.010582572780549526,0.18140017986297607
1782986958440914400,0.92691455078125,0.02068721503019333,-0.06530845910310745,0.11864624172449112
1782986958450988500,0.936988525390625,0.009912056848406792,-0.08789908140897751,0.05375451222062111
1782986958461063400,0.9470634765625,0.01723388582468033,-0.09246933460235596,-0.005762341897934675
1782986958471137500,0.957137451171875,0.022433970123529434,-0.09972529113292694,-0.05558892711997032
1782986958481212700,0.967212646484375,0.02312452904880047,-0.10887671262025833,-0.08947473019361496
1782986958491286500,0.97728662109375,0.014265894889831543,-0.12115989625453949,-0.10462667047977448
1782986958501361700,0.987361572265625,-0.004655065014958382,-0.14299942553043365,-0.08831320703029633
1782986958511435500,0.997435546875,-0.0112700080499053,-0.16020341217517853,-0.047604095190763474
1782986958521509400,1.00750927734375,-0.03330367058515549,-0.19062016904354095,-0.0007415171130560338
1782986958531584500,1.01758447265625,-0.0747540071606636,-0.26854729652404785,0.03446056321263313
1782986958541658400,1.027658447265625,-0.11374668031930923,-0.348370224237442,0.06593114137649536
1782986958551733500,1.0377333984375,-0.1331767439842224,-0.3183339238166809,0.089107945561409
1782986958561807400,1.047807373046875,-0.13267898559570312,-0.26415911316871643,0.08079328387975693
1782986958571882500,1.057882568359375,-0.1177021712064743,-0.18127532303333282,0.044476911425590515
1782986958581956400,1.067956298828125,-0.08914562314748764,-0.09195049107074738,-0.00704166991636157
1782986958592031500,1.078031494140625,-0.058736514300107956,-0.01637527346611023,-0.04506225138902664
1782986958602105300,1.088105224609375,-0.04562737047672272,0.040172427892684937,-0.0789342001080513
1782986958612180500,1.098180419921875,-0.05134321376681328,0.05802858620882034,-0.10748521238565445
1782986958622254600,1.108254638671875,-0.060442965477705,0.04849766939878464,-0.12417923659086227
1782986958632329500,1.11832958984375,-0.06259188055992126,0.026885321363806725,-0.14050708711147308
1782986958642403600,1.128403564453125,-0.04558972269296646,0.0024180617183446884,-0.16879944503307343
1782986958652477400,1.1384775390625,-0.023043308407068253,-0.0124457236379385,-0.19916202127933502
1782986958662552600,1.148552490234375,-0.006604147143661976,-0.018501220270991325,-0.23634108901023865
1782986958672626400,1.15862646484375,0.00021355180069804192,-0.010215599089860916,-0.28307557106018066
1782986958682701600,1.16870166015625,0.0015752261970192194,-0.0037537054158747196,-0.326800137758255
1782986958692775400,1.178775390625,0.002543977228924632,-0.01719709485769272,-0.34954380989074707
1782986958702850600,1.1888505859375,0.008633295074105263,-0.0560331754386425,-0.3495568633079529
1782986958712924400,1.19892431640625,0.021927623078227043,-0.09586826711893082,-0.3192296624183655
1782986958722999600,1.20899951171875,0.03135547786951065,-0.12522748112678528,-0.2595439851284027
1782986958733073400,1.219073486328125,0.03440532833337784,-0.13606682419776917,-0.19494391977787018
1782986958743148500,1.2291484375,0.024722345173358917,-0.1260027289390564,-0.12590306997299194
1782986958753222400,1.239222412109375,0.006247109267860651,-0.09985007345676422,-0.07501471042633057
1782986958763297500,1.249297607421875,-0.023576831445097923,-0.07588748633861542,-0.042345717549324036
1782986958773371400,1.259371337890625,-0.04666174203157425,-0.07064703106880188,-0.03181196004152298
1782986958783445500,1.269445556640625,-0.057652343064546585,-0.04993083328008652,-0.02489519864320755
1782986958793520400,1.279520263671875,-0.0563020221889019,0.0031794598326087,-0.015289239585399628
1782986958803594500,1.289594482421875,-0.0556279756128788,0.08490628004074097,0.0011113054351881146
1782986958813669400,1.29966943359375,-0.060310252010822296,0.17077885568141937,0.022160956636071205
1782986958823743500,1.309743408203125,-0.07884451746940613,0.20340950787067413,0.05731947347521782
1782986958833818400,1.319818359375,-0.10311585664749146,0.186751589179039,0.099503293633461
1782986958843892500,1.329892578125,-0.11845753341913223,0.16483376920223236,0.1521875411272049
1782986958853967400,1.33996728515625,-0.11454764753580093,0.14431627094745636,0.2111009657382965
1782986958864041500,1.35004150390625,-0.09112674742937088,0.12576575577259064,0.2662089467048645
1782986958874116400,1.360116455078125,-0.06435658037662506,0.1132274642586708,0.31691673398017883
1782986958884190500,1.3701904296875,-0.04484866186976433,0.12106221169233322,0.3503569960594177
1782986958894265300,1.380265380859375,-0.03401410952210426,0.1208774745464325,0.36206644773483276
1782986958904339500,1.39033935546875,-0.023126307874917984,0.10492753982543945,0.34691810607910156
1782986958914414300,1.400414306640625,-0.015359108336269855,0.0805782824754715,0.32197603583335876
1782986958924488400,1.410488525390625,-0.015122885815799236,0.08804099261760712,0.29672715067863464
1782986958934562600,1.4205625,-0.02242972142994404,0.09275517612695694,0.25350043177604675
1782986958944637400,1.430637451171875,-0.038892585784196854,0.15968626737594604,0.21353597939014435
1782986958954711600,1.440711669921875,-0.058858297765254974,0.01385707687586546,0.11724264174699783
1782986958964786400,1.450786376953125,-0.05175138637423515,-0.11543619632720947,-0.0076835788786411285
1782986958974860500,1.460860595703125,-0.012767600826919079,-0.10713337361812592,-0.12037961184978485
1782986958984935400,1.470935302734375,0.01847979985177517,-0.07150827348232269,-0.199173241853714
1782986958995009500,1.481009521484375,0.0026197992265224457,-0.027279412373900414,-0.25187304615974426
1782986959005084400,1.49108447265625,-0.04288722947239876,-0.012425897642970085,-0.26917293667793274
1782986959015158500,1.501158447265625,-0.08940885215997696,-0.0023067407310009003,-0.25688278675079346
1782986959025233400,1.5112333984375,-0.10500699281692505,0.02550172060728073,-0.20670455694198608
1782986959035307500,1.5213076171875,-0.08059599250555038,-0.0014503879938274622,-0.14508259296417236
1782986959045382400,1.53138232421875,-0.02269274927675724,-0.05795920267701149,-0.08602434396743774
1782986959055456500,1.54145654296875,0.03240174055099487,-0.11008335649967194,-0.039836835116147995
1782986959065530600,1.551530517578125,0.06414369493722916,-0.14061011373996735,-0.009022198617458344
1782986959075605500,1.56160546875,0.06148781627416611,-0.13593481481075287,0.005378959700465202
1782986959085679600,1.5716796875,0.05054116249084473,-0.11266118288040161,0.007771276868879795
1782986959095754500,1.58175439453125,0.040978193283081055,-0.08256162703037262,-0.014776937663555145
1782986959105828600,1.59182861328125,0.04653487727046013,-0.07049991190433502,-0.04590795934200287
1782986959115903500,1.601903564453125,0.05471513792872429,-0.05446135252714157,-0.06576880812644958
1782986959125978000,1.61197802734375,0.052814971655607224,-0.03440934419631958,-0.08187507092952728
1782986959136053200,1.62205322265625,0.037089262157678604,-0.019753700122237206,-0.08670604974031448
1782986959146127000,1.632127197265625,0.030774109065532684,-0.012797790579497814,-0.0864836722612381
1782986959156202200,1.6422021484375,0.02801435813307762,-0.006736494600772858,-0.08136380463838577
1782986959166276000,1.652276123046875,0.025105919688940048,-0.011058272793889046,-0.08995728939771652
1782986959176351200,1.662351318359375,0.020123062655329704,-0.010131167247891426,-0.09750809520483017
1782986959186425000,1.672425048828125,0.017057763412594795,-0.006850419566035271,-0.10159258544445038
1782986959196499500,1.68249951171875,0.008201946504414082,-0.014990991912782192,-0.10342545807361603
1782986959206574000,1.692573974609375,-0.0023138108663260937,-0.021716272458434105,-0.10083366930484772
1782986959216648400,1.7026484375,-0.01242885086685419,-0.032589543610811234,-0.099024698138237
1782986959226723000,1.71272314453125,-0.010630950331687927,-0.051731549203395844,-0.09915626049041748
1782986959236797400,1.72279736328125,-0.003981913439929485,-0.09589912742376328,-0.09835530817508698
1782986959246872000,1.7328720703125,-0.0023885443806648254,-0.10508809983730316,-0.08851919323205948
1782986959256946400,1.742946533203125,0.004031598102301359,-0.08246833086013794,-0.06574760377407074
1782986959267021000,1.75302099609375,-0.0014401327352970839,-0.061337221413850784,-0.04579147696495056
1782986959277095400,1.763095458984375,-0.00533641129732132,-0.04709261655807495,-0.029459767043590546
1782986959287170000,1.773170166015625,-0.003629324957728386,-0.03516245260834694,-0.011336156167089939
1782986959297244400,1.783244384765625,-0.006092551629990339,-0.027403725311160088,-0.002393122296780348
1782986959307319000,1.793319091796875,-0.011651366949081421,-0.027215173467993736,-0.0026128331664949656
1782986959317393400,1.803393310546875,-0.011332602240145206,-0.04711652547121048,0.005967256147414446
1782986959327467300,1.81346728515625,-0.015668494626879692,-0.05865493789315224,0.028579890727996826
1782986959337542400,1.82354248046875,-0.017792731523513794,-0.06532813608646393,0.06447891891002655
1782986959347616300,1.8336162109375,-0.017476879060268402,-0.05863641947507858,0.0877874419093132
1782986959357691400,1.84369140625,-0.01092185452580452,-0.03858097642660141,0.09958706796169281
1782986959367765200,1.85376513671875,-0.005495664197951555,-0.023621467873454094,0.09656678140163422
1782986959377840400,1.86384033203125,-0.007518413010984659,-0.00930257048457861,0.08142951875925064
1782986959387914200,1.873914306640625,-0.0058808354660868645,0.010694839060306549,0.06680956482887268
1782986959397989400,1.8839892578125,-0.0008959277765825391,0.012777341529726982,0.04291266202926636
1782986959408063200,1.894063232421875,0.005439199972897768,-0.011744246818125248,0.016120729967951775
1782986959418138400,1.904138427734375,0.011666202917695045,-0.053704746067523956,-0.01602894999086857
1782986959428212200,1.914212158203125,0.013072351925075054,-0.0976136103272438,-0.04078090190887451
1782986959438287400,1.924287353515625,0.007732161320745945,-0.12146887928247452,-0.05524319037795067
1782986959448361200,1.934361328125,0.0025200885720551014,-0.11514680087566376,-0.05528819561004639
1782986959458435300,1.944435302734375,-0.005108707118779421,-0.09690739959478378,-0.043934937566518784
1782986959468510200,1.95451025390625,-0.012828411534428596,-0.07876061648130417,-0.021269304677844048
1782986959478584300,1.964584228515625,-0.019138414412736893,-0.047272972762584686,0.011013028211891651
1782986959488659200,1.9746591796875,-0.019762659445405006,-0.03641792759299278,0.043104387819767
1782986959498733300,1.9847333984375,-0.023106509819626808,-0.04197666049003601,0.05740564316511154
1782986959508808200,1.99480810546875,-0.028805142268538475,-0.0470755472779274,0.05342208594083786
1782986959518882300,2.00488232421875,-0.02952447719871998,-0.059291284531354904,0.03800150379538536
1782986959528957200,2.014957275390625,-0.024070855230093002,-0.09005745500326157,0.01407406572252512
1782986959539031300,2.02503125,-0.02231306955218315,-0.11276034265756607,-0.00010058389307232574
1782986959549106400,2.0351064453125,-0.021598542109131813,-0.12217168509960175,-0.012767909094691277
1782986959559180300,2.04518017578125,-0.021758437156677246,-0.13165993988513947,-0.022571206092834473
1782986959569254100,2.055254150390625,-0.02279573865234852,-0.13643977046012878,-0.030426733195781708
1782986959579329300,2.065329345703125,-0.02268608659505844,-0.13123759627342224,-0.04106369987130165
1782986959589403100,2.075403076171875,-0.014749867841601372,-0.10917330533266068,-0.04212523624300957
1782986959599478300,2.085478271484375,-0.01641940325498581,-0.08636732399463654,-0.03601248189806938
1782986959609552100,2.09555224609375,-0.017250841483473778,-0.07677807658910751,-0.017008963972330093
1782986959619627300,2.105627197265625,-0.017501363530755043,-0.06188298761844635,-0.00305663188919425
1782986959629701000,2.115701171875,-0.014309830032289028,-0.0471343994140625,0.015028628520667553
1782986959639776300,2.1257763671875,-0.015248416922986507,-0.05136202275753021,0.027545632794499397
1782986959649850000,2.13585009765625,-0.009045914746820927,-0.05980557203292847,0.03141281008720398
1782986959659925200,2.14592529296875,-0.002868202282115817,-0.054681651294231415,0.03138485550880432
1782986959669999400,2.155999267578125,0.0014136279933154583,-0.06282879412174225,0.02355249971151352
1782986959680074200,2.16607421875,-0.0008617572020739317,-0.06702105700969696,0.006043626926839352
1782986959690148400,2.1761484375,-0.008578266948461533,-0.05124794691801071,-0.01878236047923565
1782986959700222200,2.18622216796875,-0.007386950775980949,-0.02586887963116169,-0.038878895342350006
1782986959710297300,2.19629736328125,-0.0029826145619153976,-0.00212600058875978,-0.0425197035074234
1782986959720371200,2.20637109375,-0.00017607794143259525,0.002009738702327013,-0.03781990706920624
1782986959730446300,2.2164462890625,0.001154703670181334,-0.011901549063622952,-0.017391066998243332
1782986959740520200,2.226520263671875,0.004044215194880962,-0.03284819796681404,0.006541615352034569
1782986959750595300,2.23659521484375,0.009350564330816269,-0.03169877827167511,0.03213486075401306
1782986959760669200,2.246669189453125,0.010532657615840435,-0.04044640436768532,0.04532075673341751
1782986959770744300,2.256744384765625,0.007692397106438875,-0.06542845070362091,0.048657167702913284
1782986959780818200,2.266818115234375,0.0014734741998836398,-0.07722542434930801,0.04593570902943611
1782986959790893300,2.276893310546875,-0.0024371114559471607,-0.06810596585273743,0.04489760845899582
1782986959800967200,2.28696728515625,-0.006797764450311661,-0.056071050465106964,0.041608959436416626
1782986959811042300,2.297042236328125,-0.008582082577049732,-0.05381961539387703,0.03274489566683769
1782986959821116200,2.3071162109375,-0.02016754448413849,-0.04726039618253708,0.02122790552675724
1782986959831190300,2.317190185546875,-0.027921870350837708,-0.0349762998521328,0.0031485045328736305
1782986959841265200,2.32726513671875,-0.024372318759560585,-0.024731623008847237,-0.019240660592913628
1782986959851339300,2.33733935546875,-0.020925655961036682,-0.024017363786697388,-0.03743777796626091
1782986959861414100,2.3474140625,-0.016945553943514824,-0.03686951473355293,-0.05038526654243469
1782986959871488300,2.35748828125,-0.017439836636185646,-0.03420662134885788,-0.0515298955142498
1782986959881563100,2.367563232421875,-0.01660992205142975,-0.027887972071766853,-0.046349745243787766
1782986959891637200,2.37763720703125,-0.014506025239825249,-0.020328588783740997,-0.03585449233651161
1782986959901712100,2.387712158203125,-0.014550507068634033,-0.02657991647720337,-0.019770681858062744
1782986959911786200,2.3977861328125,-0.015273288823664188,-0.03374728187918663,0.000703966710716486
1782986959921861000,2.407861083984375,-0.012789614498615265,-0.02392740547657013,0.024257224053144455
1782986959931935200,2.417935302734375,-0.010772270150482655,-0.015550966374576092,0.047170527279376984
1782986959942009000,2.428009033203125,-0.009883569553494453,-0.01251665037125349,0.05685076490044594
1782986959952084200,2.438084228515625,-0.0172077938914299,-0.0071304067969322205,0.052624594420194626
1782986959962158000,2.448157958984375,-0.019279640167951584,0.0009721994865685701,0.03858993947505951
1782986959972233200,2.458233154296875,-0.011989770457148552,0.004861213732510805,0.024082103744149208
1782986959982307000,2.46830712890625,-0.012190133333206177,-0.01548714004456997,0.010482464917004108
1782986959992382200,2.47838232421875,-0.011081725358963013,-0.02854248695075512,0.006017409265041351
1782986960002456000,2.4884560546875,-0.007682827301323414,-0.01320235338062048,0.017585178837180138
1782986960012531200,2.49853125,-0.004997828509658575,0.0028903295751661062,0.021250752732157707
1782986960022605000,2.50860498046875,-0.005589849315583706,-0.009539175778627396,0.023474492132663727
1782986960032680200,2.51868017578125,-0.00955316610634327,-0.021339375525712967,0.01759503223001957
1782986960042754000,2.528754150390625,-0.005215490236878395,-0.009315768256783485,0.006055520847439766
1782986960052829200,2.5388291015625,-0.00016959861386567354,0.006340689025819302,-0.0029880411457270384
1782986960062903000,2.548903076171875,0.002277664840221405,0.005641285330057144,-0.012370947748422623
1782986960072977400,2.558977294921875,-0.002804978284984827,0.0013333563692867756,-0.015810420736670494
1782986960083052000,2.569052001953125,-0.004405274987220764,-0.013105414807796478,-0.015891555696725845
1782986960093126400,2.57912646484375,-0.008266592398285866,-0.021102620288729668,-0.011865655891597271
1782986960103201000,2.589200927734375,-0.0069473497569561005,-0.011369684711098671,0.005505758803337812
1782986960113275400,2.599275390625,-0.002034883014857769,-0.0067094191908836365,0.02169697917997837
1782986960123350000,2.60935009765625,0.0028424093034118414,-0.01713498868048191,0.027002718299627304
1782986960133424000,2.619424072265625,0.004895973019301891,-0.03564182668924332,0.028216853737831116
1782986960143499000,2.6294990234375,0.009376492351293564,-0.04317706078290939,0.02016681805253029
1782986960153573000,2.639572998046875,0.010743493214249611,-0.028865765780210495,0.013072422705590725
1782986960163648000,2.64964794921875,0.01182473637163639,-0.004963628016412258,0.010354134254157543
1782986960173722000,2.65972216796875,0.012893995270133018,0.013557858765125275,0.005917574279010296
1782986960183797000,2.669796875,0.009433413855731487,0.035388730466365814,-0.00010449100227560848
1782986960193871000,2.67987109375,0.012441986240446568,0.05176636949181557,0.0007570416200906038
1782986960203945000,2.689945068359375,0.012285378761589527,0.03983346000313759,0.00275938818231225
1782986960214020000,2.70002001953125,0.017062824219465256,0.01740618608891964,0.004033178091049194
1782986960224094000,2.710093994140625,0.02169627882540226,-0.008666843175888062,0.00932553131133318
1782986960234169000,2.720169189453125,0.01454249583184719,-0.026687122881412506,0.008738038130104542
1782986960244243000,2.730242919921875,0.011016100645065308,-0.03454960510134697,0.004411178175359964
1782986960254318000,2.740318115234375,0.007333748042583466,-0.03971720114350319,-0.007587427739053965
1782986960264392000,2.750391845703125,-0.004183778539299965,-0.019406575709581375,-0.034535136073827744
1782986960274467000,2.760467041015625,-0.010758324526250362,0.00926741398870945,-0.06400727480649948
1782986960284541000,2.770541015625,-0.013202843256294727,0.025710659101605415,-0.07999547570943832
1782986960294616000,2.780615966796875,-0.014982100576162338,0.027762359008193016,-0.08265118300914764
1782986960304690000,2.79068994140625,-0.01400187611579895,0.02010582759976387,-0.07034145295619965
1782986960314764000,2.800763916015625,-0.0063791098073124886,0.011567999608814716,-0.04162885248661041
1782986960324839200,2.810839111328125,-0.002192990854382515,0.0012480465229600668,-0.015851251780986786
1782986960334913000,2.8209130859375,0.002563148271292448,0.001749253598973155,0.007163786329329014
1782986960344988200,2.83098828125,0.01149335503578186,0.012693987227976322,0.010700668208301067
1782986960355062000,2.84106201171875,0.018982695415616035,0.021044861525297165,0.012424532324075699
1782986960365137200,2.85113720703125,0.027560746297240257,0.02272966504096985,0.00981179066002369
1782986960375211000,2.8612109375,0.029007907956838608,0.01410475093871355,0.0013392106629908085
1782986960385286100,2.8712861328125,0.031858913600444794,0.005484926048666239,-0.004482697229832411
1782986960395360000,2.881360107421875,0.03280007466673851,0.002509642392396927,-0.013896172866225243
1782986960405435100,2.89143505859375,0.03334582597017288,0.023988068103790283,-0.014776308089494705
1782986960415509000,2.901509033203125,0.03512801229953766,0.017336292192339897,-0.017063165083527565
1782986960425582800,2.911582763671875,0.030499091371893883,0.008256213739514351,-0.021005475893616676
1782986960435658000,2.921657958984375,0.02477116510272026,0.00769641762599349,-0.019625427201390266
1782986960445731800,2.93173193359375,0.018433377146720886,0.007069154176861048,-0.018054518848657608
1782986960455807000,2.941806884765625,0.016861846670508385,0.010948048904538155,-0.024776337668299675
1782986960465881000,2.951881103515625,0.012686009518802166,0.00027969107031822205,-0.031277112662792206
1782986960475956000,2.9619560546875,0.004628615453839302,-0.0036306283436715603,-0.04610000178217888
1782986960486030000,2.972030029296875,-0.004994720220565796,-0.0015804375289008021,-0.05950120463967323
1782986960496105000,2.98210498046875,-0.004238915164023638,0.0033722431398928165,-0.06146954745054245
1782986960506179000,2.992178955078125,-0.006361990701407194,0.012423085048794746,-0.059349313378334045
1782986960516254000,3.00225390625,-0.013195395469665527,0.023553766310214996,-0.05930723249912262
1782986960526328000,3.012328125,-0.022580455988645554,0.031896088272333145,-0.052148159593343735
1782986960536403000,3.02240283203125,-0.02280362881720066,0.02795514278113842,-0.046073753386735916
1782986960546477000,3.03247705078125,-0.021505698561668396,0.018250910565257072,-0.03415338322520256
1782986960556551000,3.042551025390625,-0.016142891719937325,0.01643330231308937,-0.012514402158558369
1782986960566626000,3.0526259765625,-0.020458463579416275,0.010337356477975845,0.0058550527319312096
1782986960576700000,3.062699951171875,-0.027721703052520752,0.0016719619743525982,0.01955461874604225
1782986960586775000,3.072775146484375,-0.020684825256466866,0.006288907490670681,0.022962486371397972
1782986960596849000,3.082848876953125,-0.014164874330163002,0.01672903075814247,0.012702124193310738
1782986960606924000,3.092924072265625,-0.003033204935491085,0.021453093737363815,-0.0054245381616055965
1782986960616998000,3.102997802734375,0.007328622043132782,0.032927319407463074,-0.019809870049357414
1782986960627073000,3.113072998046875,0.010058443993330002,0.04028327018022537,-0.03570384904742241
1782986960637147000,3.12314697265625,0.010795073583722115,0.025444138795137405,-0.05020822212100029
1782986960647222000,3.133221923828125,0.015037665143609047,0.02075028605759144,-0.04937547817826271
1782986960657296000,3.1432958984375,0.02317575179040432,0.019294070079922676,-0.044830262660980225
1782986960667370000,3.153369873046875,0.0283065065741539,0.013419106602668762,-0.036362770944833755
1782986960677444900,3.16344482421875,0.026065457612276077,-0.0002857858780771494,-0.036844268441200256
1782986960687519000,3.17351904296875,0.021165236830711365,0.0013790444936603308,-0.03664097934961319
1782986960697593900,3.18359375,0.01692681573331356,0.01796015165746212,-0.04253828525543213
1782986960707668000,3.19366796875,0.01677759550511837,0.029317794367671013,-0.0491495244204998
1782986960717742800,3.203742919921875,0.016327254474163055,0.024765918031334877,-0.0586458258330822
1782986960727817000,3.21381689453125,0.019525181502103806,0.012556834146380424,-0.06174343824386597
1782986960737891800,3.223891845703125,0.02688908949494362,0.01921127550303936,-0.05020422860980034
1782986960747966000,3.233966064453125,0.0366792157292366,0.02957632578909397,-0.025921225547790527
1782986960758040800,3.244040771484375,0.038805752992630005,0.021241964772343636,-0.008979791775345802
1782986960768115000,3.254114990234375,0.04402129352092743,0.015749193727970123,0.010571532882750034
1782986960778189000,3.26418896484375,0.046838387846946716,0.01602429896593094,0.01876554638147354
1782986960788264000,3.274263916015625,0.05011274665594101,0.016450315713882446,0.016866624355316162
1782986960798338000,3.284338134765625,0.05025389418005943,0.01400713063776493,0.005944467149674892
1782986960808413000,3.294412841796875,0.043867453932762146,0.01614266261458397,-0.01241568848490715
1782986960818487000,3.304487060546875,0.03950519487261772,0.021949153393507004,-0.027687853202223778
1782986960828562000,3.31456201171875,0.030281782150268555,0.03294416144490242,-0.03503509983420372
1782986960838636000,3.324635986328125,0.02423267625272274,0.018156692385673523,-0.03227153792977333
1782986960848711000,3.3347109375,0.022152747958898544,0.007496324833482504,-0.027125777676701546
1782986960858785000,3.344784912109375,0.017935099080204964,-0.0001320336014032364,-0.020745109766721725
1782986960868860000,3.35485986328125,0.013160320930182934,-0.0027393579948693514,-0.010697891935706139
1782986960878934000,3.36493408203125,0.00877995416522026,-0.003814476076513529,-0.0047111064195632935
1782986960889009000,3.3750087890625,0.004832690116018057,-0.01351776160299778,0.005601666867733002
1782986960899083000,3.3850830078125,-0.00013730092905461788,-0.01598411425948143,0.02730829268693924
1782986960909157000,3.3951572265625,-0.0064848498441278934,-0.0026643734890967607,0.056372903287410736
1782986960919232000,3.40523193359375,-0.01403757557272911,0.01635752059519291,0.08816412091255188
1782986960929306000,3.41530615234375,-0.024799590930342674,0.03662731498479843,0.10871488600969315
1782986960939381000,3.425381103515625,-0.029852407053112984,0.03878394141793251,0.11152025312185287
1782986960949455000,3.435455078125,-0.0339176207780838,0.01590883731842041,0.08612233400344849
1782986960959530200,3.4455302734375,-0.031663257628679276,-0.00417352793738246,0.037452004849910736
1782986960969604000,3.45560400390625,-0.02569182775914669,-0.015878891572356224,-0.013527262955904007
1782986960979679200,3.46567919921875,-0.012866842560470104,-0.03257930651307106,-0.06794070452451706
1782986960989753000,3.475753173828125,-0.011818274855613708,-0.03473057597875595,-0.10739513486623764
1782986960999828200,3.485828125,-0.01507505401968956,-0.020146310329437256,-0.13536204397678375
1782986961009902000,3.495902099609375,-0.02219492942094803,-0.0026534844655543566,-0.1435876339673996
1782986961019976000,3.505975830078125,-0.01768326759338379,0.015107936225831509,-0.14583268761634827
1782986961030051000,3.516051025390625,-0.012233991175889969,0.018814582377672195,-0.12806881964206696
1782986961040125000,3.526125,0.0003353302599862218,0.012004081159830093,-0.10192456096410751
1782986961050200000,3.536199951171875,0.007260003127157688,0.0024088560603559017,-0.06785113364458084
1782986961060274000,3.54627392578125,0.011494428850710392,-0.013853204436600208,-0.03151470050215721
1782986961070349000,3.55634912109375,0.014053181745111942,-0.021638331934809685,-0.0028781669680029154
1782986961080423000,3.5664228515625,0.018905727192759514,-0.0281622763723135,0.009795550256967545
1782986961090498000,3.576498046875,0.01843380741775036,-0.029506197199225426,0.009061233140528202
1782986961100572200,3.586572265625,0.019009049981832504,-0.017874041572213173,-0.0007924635428935289
1782986961110647000,3.59664697265625,0.022638067603111267,-0.004923829808831215,-0.012842684052884579
1782986961120721200,3.60672119140625,0.031178560107946396,0.004905098583549261,-0.02027636393904686
1782986961130795000,3.616794921875,0.031037049368023872,0.016878463327884674,-0.01832580380141735
1782986961140870100,3.6268701171875,0.027802374213933945,0.019667325541377068,-0.014185920357704163
1782986961150944000,3.636944091796875,0.02501404844224453,0.020804939791560173,0.001528503722511232
1782986961161019100,3.64701904296875,0.023839861154556274,0.006067006383091211,0.018831593915820122
1782986961171093000,3.657093017578125,0.01689600758254528,0.001433845143765211,0.03179554641246796
1782986961181168000,3.667168212890625,0.011063683778047562,-0.006206231191754341,0.03885132446885109
1782986961191242000,3.677241943359375,0.013597073033452034,-0.015468290075659752,0.040789179503917694
1782986961201317000,3.687317138671875,0.013474567793309689,-0.028622707352042198,0.031888362020254135
1782986961211391000,3.697390869140625,0.00905230175703764,-0.03126148506999016,0.023834314197301865
1782986961221466000,3.707466064453125,0.0015371274203062057,-0.027695778757333755,0.015388364903628826
1782986961231540000,3.7175400390625,-0.007780919782817364,-0.022092636674642563,0.004686836618930101
1782986961241614000,3.727614013671875,-0.01676242984831333,-0.009236492216587067,-0.012632764875888824
1782986961251689000,3.73768896484375,-0.023243257775902748,0.0132933109998703,-0.02695176750421524
1782986961261763000,3.74776318359375,-0.02367202751338482,0.03712674230337143,-0.039918430149555206
1782986961271838000,3.757837890625,-0.028499945998191833,0.05111315846443176,-0.047523610293865204
1782986961281912000,3.767912109375,-0.03464279696345329,0.055401913821697235,-0.04666740447282791
1782986961291987000,3.777987060546875,-0.03024042584002018,0.03674360364675522,-0.050552092492580414
1782986961302061000,3.78806103515625,-0.02115425281226635,0.015050826594233513,-0.052614178508520126
1782986961312136000,3.798135986328125,-0.008943583816289902,-0.0016068643890321255,-0.04594576358795166
1782986961322210000,3.8082099609375,0.002290161559358239,-0.005639689043164253,-0.040918245911598206
1782986961332285000,3.818284912109375,0.011392239481210709,-0.011429517529904842,-0.025151127949357033
1782986961342359000,3.828359130859375,0.011979732662439346,-0.007507479749619961,-0.0021981429308652878
1782986961352433000,3.838432861328125,0.009090124629437923,0.003805774264037609,0.009825373068451881
1782986961362508000,3.848508056640625,0.010786025784909725,0.006544835865497589,0.023561691865324974
1782986961372582000,3.858581787109375,0.012970171868801117,0.003238905919715762,0.030683103948831558
1782986961382657000,3.868656982421875,0.01720566302537918,-0.001021885429508984,0.038425710052251816
1782986961392731000,3.87873095703125,0.013625119812786579,0.005529345013201237,0.04525497928261757
1782986961402806000,3.888805908203125,0.00018494564574211836,0.005110163241624832,0.03466704860329628
1782986961412880000,3.8988798828125,-0.01751362718641758,0.010400887578725815,0.016974695026874542
1782986961422955000,3.908955078125,-0.034342940896749496,0.028221430256962776,-0.009080339223146439
1782986961433028900,3.91902880859375,-0.060616880655288696,0.03616386279463768,-0.04642762616276741
1782986961443104000,3.92910400390625,-0.07910135388374329,0.07830306142568588,-0.08221864700317383
1782986961453177900,3.939177734375,-0.08450863510370255,0.13164910674095154,-0.12028960138559341
1782986961463252000,3.949251953125,-0.06761593371629715,0.11540275812149048,-0.1492682546377182
1782986961473326800,3.959326904296875,-0.03131313621997833,0.07212556898593903,-0.1608133465051651
1782986961483401000,3.96940087890625,-0.012019600719213486,0.03200583904981613,-0.1391860842704773
1782986961493476000,3.97947607421875,-0.008716495707631111,-0.006125743500888348,-0.09663853794336319
1782986961503550000,3.989550048828125,-0.01470168400555849,0.0022160757798701525,-0.05778168514370918
1782986961513625000,3.999625,-0.017294449731707573,0.03225371986627579,-0.027312608435750008
1782986961523699000,4.009698974609375,-0.005472411401569843,0.035071078687906265,-0.02057587541639805
1782986961533774000,4.019774169921875,0.013097194954752922,0.02459453046321869,-0.017708659172058105
1782986961543848000,4.029847900390625,0.022098679095506668,0.016684675589203835,-0.019518010318279266
1782986961553923000,4.039923095703125,0.025274235755205154,-0.007662298623472452,-0.030022673308849335
1782986961563997000,4.049996826171875,0.02272878587245941,-0.028069302439689636,-0.041571471840143204
1782986961574071000,4.060071044921875,0.01598353497684002,-0.04804230108857155,-0.050710201263427734
1782986961584146000,4.07014599609375,0.001871711341664195,-0.05308979004621506,-0.06251493096351624
1782986961594220000,4.080219970703125,-0.006067711394280195,-0.020699981600046158,-0.07239507883787155
1782986961604295000,4.090294921875,-0.0046703508123755455,0.02037741430103779,-0.08228658884763718
1782986961614369300,4.100369384765625,-0.00015487370546907187,0.05255064740777016,-0.07966244965791702
1782986961624444000,4.11044384765625,0.0030915196985006332,0.05401378870010376,-0.06563664972782135
1782986961634518300,4.120518310546875,0.0050563872791826725,0.043699100613594055,-0.04655322805047035
1782986961644593000,4.130593017578125,0.0012557900045067072,0.010799204930663109,-0.023654304444789886
1782986961654667300,4.140667236328125,0.009214838966727257,-0.028378140181303024,-0.020238395780324936
1782986961664742000,4.150741943359375,0.02656479924917221,-0.0627259910106659,-0.03036932647228241
1782986961674816300,4.160816162109375,0.038721781224012375,-0.07566606253385544,-0.04924211651086807
1782986961684890000,4.17089013671875,0.03988078981637955,-0.05856670066714287,-0.05885586142539978
1782986961694965200,4.18096533203125,0.021650273352861404,-0.023554421961307526,-0.07284599542617798
1782986961705039000,4.1910390625,0.010549684055149555,0.007481792010366917,-0.08141471445560455
1782986961715114200,4.2011142578125,0.007375035900622606,0.026489872485399246,-0.0793243795633316
1782986961725188000,4.21118798828125,0.010528218001127243,0.03053414821624756,-0.06619579344987869
1782986961735263200,4.22126318359375,0.011880924925208092,0.024852944537997246,-0.03711475804448128
1782986961745337000,4.231337158203125,0.009997271001338959,0.0152876703068614,-0.00640797708183527
1782986961755412200,4.241412109375,0.007853517308831215,0.0060686348006129265,0.011495151557028294
1782986961765486000,4.251486083984375,0.011320154182612896,0.0009891872759908438,0.027402477338910103
1782986961775561200,4.261561279296875,0.017414269968867302,0.0012796497903764248,0.032422181218862534
1782986961785635000,4.271635009765625,0.02167372964322567,-0.011123490519821644,0.02813076414167881
1782986961795709200,4.281709228515625,0.02267410419881344,-0.003647967940196395,0.02020229399204254
1782986961805784000,4.2917841796875,0.023738835006952286,0.014631968922913074,0.009252441115677357
1782986961815858200,4.301858154296875,0.0278026033192873,0.03239420801401138,0.0024411934427917004
1782986961825933000,4.31193310546875,0.025859294459223747,0.02967298962175846,0.004328841809183359
1782986961836007200,4.322007080078125,0.023280680179595947,0.013939252123236656,0.01700673997402191
1782986961846082000,4.33208203125,0.021338969469070435,0.01696486957371235,0.036228638142347336
1782986961856156200,4.34215625,0.019414208829402924,0.030428273603320122,0.0473782904446125
1782986961866231000,4.35223095703125,0.020160425454378128,0.031533751636743546,0.03861675411462784
1782986961876305200,4.36230517578125,0.02505805343389511,0.023572344332933426,0.02318226732313633
1782986961886380000,4.372380126953125,0.03006000444293022,0.04075239598751068,0.009789496660232544
1782986961896454100,4.3824541015625,0.02839117869734764,0.064726322889328,-0.0042489441111683846
1782986961906528000,4.392528076171875,0.025288863107562065,0.10742558538913727,-0.0270669087767601
1782986961916603100,4.40260302734375,0.02914726734161377,0.1385248303413391,-0.044775161892175674
1782986961926677000,4.412677001953125,0.03503604978322983,0.13499587774276733,-0.050860751420259476
1782986961936752000,4.422752197265625,0.038037702441215515,0.11340180784463882,-0.04154697060585022
1782986961946826000,4.432825927734375,0.03397078812122345,0.09325312823057175,-0.018294112756848335
1782986961956901000,4.442901123046875,0.025284618139266968,0.07408937811851501,0.005543400067836046
1782986961966975000,4.45297509765625,0.020333269611001015,0.0629003718495369,0.0249253548681736
1782986961977050000,4.463050048828125,0.02369542233645916,0.05715794861316681,0.03546921908855438
1782986961987124000,4.4731240234375,0.025574548169970512,0.04916899651288986,0.032780759036540985
1782986961997199000,4.48319921875,0.027645763009786606,0.02911151573061943,0.027690786868333817
1782986962007273000,4.49327294921875,0.02316392958164215,0.01002863422036171,0.023706963285803795
1782986962017347000,4.50334716796875,0.017126893624663353,0.024220027029514313,0.008320762775838375
1782986962027422000,4.513421875,0.009105718694627285,0.04928463324904442,-0.020237645134329796
1782986962037496000,4.52349609375,0.006916968151926994,0.05734347924590111,-0.05164578929543495
1782986962047571000,4.533571044921875,0.009254423901438713,0.04514380544424057,-0.0699041560292244
1782986962057645000,4.54364501953125,0.009767256677150726,0.03255128115415573,-0.07559748739004135
1782986962067720000,4.553719970703125,0.008835949003696442,0.022155635058879852,-0.08081196248531342
1782986962077794000,4.5637939453125,0.01182775292545557,0.015428581275045872,-0.06459668278694153
1782986962087869000,4.573868896484375,0.01182855200022459,0.00717437919229269,-0.050259560346603394
1782986962097943000,4.583943115234375,0.004932394251227379,-0.00511359516531229,-0.04067366197705269
1782986962108018000,4.594017822265625,-0.006558346562087536,-0.0191511157900095,-0.024644363671541214
1782986962118092000,4.604092041015625,-0.014185198582708836,-0.023069720715284348,-0.011850299313664436
1782986962128166100,4.614166259765625,-0.014368156902492046,-0.024368811398744583,0.0020804295781999826
1782986962138241300,4.6242412109375,-0.01691575162112713,-0.023990554735064507,0.013685517944395542
1782986962148315100,4.634315185546875,-0.019314726814627647,-0.03714284300804138,0.026530208066105843
1782986962158390300,4.644390380859375,-0.020042726770043373,-0.061539944261312485,0.03820668160915375
1782986962168464100,4.654464111328125,-0.01785893365740776,-0.08004145324230194,0.04279264435172081
1782986962178539300,4.664539306640625,-0.018948541954159737,-0.08542115986347198,0.04316910728812218
1782986962188613000,4.674613037109375,-0.01940154656767845,-0.0952729880809784,0.03637431561946869
1782986962198688300,4.684688232421875,-0.017295431345701218,-0.09073750674724579,0.02006630413234234
1782986962208762000,4.69476220703125,-0.007395663298666477,-0.08132483065128326,0.007449578959494829
1782986962218837200,4.704837158203125,-0.007877683266997337,-0.07624191790819168,-0.0009628215339034796
1782986962228911000,4.7149111328125,-0.011625816114246845,-0.07711730152368546,-0.006252658553421497
1782986962238985200,4.724985107421875,-0.02153836376965046,-0.07980825006961823,-0.009451204910874367
1782986962249060000,4.73506005859375,-0.026437249034643173,-0.08091559261083603,-0.005601073149591684
1782986962259134200,4.74513427734375,-0.0367208831012249,-0.08447520434856415,-0.003007176099345088
1782986962269209000,4.755208984375,-0.047053150832653046,-0.07860559225082397,0.00026851199800148606
1782986962279283200,4.765283203125,-0.05903603136539459,-0.05103326961398125,0.010621634311974049
1782986962289358000,4.775358154296875,-0.06873393803834915,-0.02530074119567871,0.021081997081637383
1782986962299432200,4.78543212890625,-0.07266297191381454,0.00033978885039687157,0.03402244299650192
1782986962309507000,4.795507080078125,-0.07297082990407944,0.010364726185798645,0.05814189091324806
1782986962319581200,4.805581298828125,-0.06548230350017548,-0.0007352392422035336,0.06890728324651718
1782986962329656300,4.81565625,-0.05188659951090813,-0.022317230701446533,0.06928518414497375
1782986962339730200,4.825730224609375,-0.04205546900629997,-0.04757213965058327,0.0591631680727005
1782986962349804300,4.83580419921875,-0.03441166505217552,-0.07159864157438278,0.036866918206214905
1782986962359879200,4.845879150390625,-0.027782773599028587,-0.08571933954954147,0.009323876351118088
1782986962369953300,4.855953369140625,-0.03466757386922836,-0.08684053272008896,-0.014487979002296925
1782986962380028200,4.866028076171875,-0.04223770275712013,-0.06636671721935272,-0.025105232372879982
1782986962390102300,4.876102294921875,-0.0506889782845974,-0.040674932301044464,-0.017236923798918724
1782986962400177200,4.88617724609375,-0.05083528161048889,-0.024574734270572662,-0.006175419315695763
1782986962410251300,4.896251220703125,-0.043328627943992615,-0.024045830592513084,0.013806011527776718
1782986962420326100,4.906326171875,-0.03827349469065666,-0.03002234548330307,0.03438067063689232
1782986962430400300,4.916400146484375,-0.03511391952633858,-0.04342284053564072,0.05080118775367737
1782986962440474400,4.926474365234375,-0.03480686992406845,-0.055751681327819824,0.05959787964820862
1782986962450549200,4.93654931640625,-0.03388994187116623,-0.0574537068605423,0.06850508600473404
1782986962460623400,4.946623291015625,-0.02772631123661995,-0.06117973476648331,0.06255931407213211
1782986962470698200,4.9566982421875,-0.029212353751063347,-0.061527010053396225,0.053549304604530334
1782986962480772400,4.9667724609375,-0.0334734208881855,-0.05319327116012573,0.044798072427511215
1782986962490847200,4.97684716796875,-0.03075965866446495,-0.03475780412554741,0.027354365214705467
1782986962500921300,4.98692138671875,-0.026908282190561295,-0.007590748369693756,0.020206056535243988
1782986962510996200,4.996996337890625,-0.024668829515576363,-0.0007368370424956083,0.013946563005447388
1782986962521070300,5.0070703125,-0.02558860182762146,-0.01254402194172144,0.0076665072701871395
1782986962531145200,5.017145263671875,-0.023993369191884995,-0.02738288976252079,0.0011422951938584447
1782986962541219300,5.02721923828125,-0.01944814808666706,-0.03679618611931801,0.004098312463611364
1782986962551293200,5.037293212890625,-0.01624782755970955,-0.053198862820863724,0.0015483357710763812
1782986962561368300,5.047368408203125,-0.015411149710416794,-0.07163365185260773,-0.008683115243911743
1782986962571442400,5.0574423828125,-0.020422419533133507,-0.06465216726064682,-0.01542970072478056
1782986962581517300,5.067517333984375,-0.025776518508791924,-0.03675052896142006,-0.024320166558027267
1782986962591591400,5.07759130859375,-0.03207436203956604,-0.018081767484545708,-0.026402492076158524
1782986962601666300,5.087666259765625,-0.038901470601558685,-0.014028644189238548,-0.025827454403042793
1782986962611740400,5.097740478515625,-0.03567345067858696,-0.01551761757582426,-0.02309691533446312
1782986962621815300,5.107815185546875,-0.027946477755904198,-0.016403622925281525,-0.017307167872786522
1782986962631889400,5.117889404296875,-0.02128484658896923,-0.02510949783027172,-0.007856407202780247
1782986962641964300,5.12796435546875,-0.019524574279785156,-0.0300737451761961,0.00658419169485569
1782986962652038400,5.138038330078125,-0.02291051670908928,-0.030604247003793716,0.015771033242344856
1782986962662112300,5.1481123046875,-0.02389456145465374,-0.01815485768020153,0.02213004231452942
1782986962672187400,5.1581875,-0.025351842865347862,-0.009826087392866611,0.02370050922036171
1782986962682261200,5.16826123046875,-0.03254184126853943,0.001082131639122963,0.018072092905640602
1782986962692336400,5.17833642578125,-0.027095144614577293,0.006226027384400368,0.008787515573203564
1782986962702410200,5.18841015625,-0.017831776291131973,0.002481297357007861,0.0002578810090199113
1782986962712485400,5.1984853515625,-0.01507647056132555,0.00248902034945786,-0.009327367879450321
1782986962722559200,5.208559326171875,-0.014054357074201107,0.0068186987191438675,-0.010361825115978718
1782986962732634400,5.21863427734375,-0.01820436120033264,0.014511507004499435,-0.007150052580982447
1782986962742708200,5.228708251953125,-0.019888190552592278,0.01420136634260416,0.006047626957297325
1782986962752783400,5.238783447265625,-0.021314578130841255,0.02108989842236042,0.014220070093870163
1782986962762857200,5.248857177734375,-0.02664017304778099,0.027659084647893906,0.023773323744535446
1782986962772931300,5.258931396484375,-0.03446347638964653,0.040998056530952454,0.023423118516802788
1782986962783006200,5.269006103515625,-0.03327669948339462,0.0488155372440815,0.027390198782086372
1782986962793080300,5.279080322265625,-0.0257378239184618,0.04797264561057091,0.021618863567709923
1782986962803155200,5.2891552734375,-0.018234092742204666,0.04963667690753937,0.015111781656742096
1782986962813229300,5.299229248046875,-0.0013901317724958062,0.04580705240368843,0.01294024009257555
1782986962823304200,5.30930419921875,0.011776262894272804,0.027060970664024353,0.004416174720972776
1782986962833378300,5.31937841796875,0.02305501513183117,0.013405880890786648,-0.005475071724504232
1782986962843453200,5.329453125,0.03736640512943268,0.015382686629891396,-0.014942139387130737
1782986962853527300,5.33952734375,0.047035276889801025,0.01936997100710869,-0.024152148514986038
1782986962863602200,5.349602294921875,0.05681280791759491,0.01095118559896946,-0.03132936730980873
1782986962873676300,5.35967626953125,0.06044589355587959,0.0033435996156185865,-0.02668454870581627
1782986962883750100,5.369750244140625,0.05912467837333679,0.000869163079187274,-0.015487098135054111
1782986962893825300,5.3798251953125,0.05936542898416519,0.012807847931981087,-0.004031776916235685
1782986962903899100,5.389899169921875,0.051402848213911057,0.022287728264927864,0.0036400738172233105
1782986962913974300,5.399974365234375,0.04349645599722862,0.01774251088500023,0.0069117676466703415
1782986962924048100,5.410048095703125,0.03470608964562416,0.0073258825577795506,0.010403487831354141
1782986962934123300,5.420123291015625,0.03350101038813591,0.0017367065884172916,0.014299426227807999
1782986962944197000,5.430197021484375,0.033472925424575806,0.005861994810402393,0.009578252211213112
1782986962954272300,5.440272216796875,0.029032638296484947,0.0056838300079107285,0.0005655829445458949
1782986962964346000,5.45034619140625,0.021844346076250076,0.019463151693344116,-0.001448995666578412
1782986962974420200,5.460420166015625,0.00953708030283451,0.04186113178730011,0.00861908495426178
1782986962984495000,5.4704951171875,-0.0015795816434547305,0.061786167323589325,0.026550743728876114
1782986962994569200,5.4805693359375,0.001394370337948203,0.07198554277420044,0.041069500148296356
1782986963004644000,5.49064404296875,0.010250895284116268,0.05889509618282318,0.047205209732055664
1782986963014718200,5.50071826171875,0.015280541032552719,0.023659877479076385,0.044804636389017105
1782986963024793000,5.51079296875,0.022424565628170967,-0.006947091780602932,0.03925587981939316
1782986963034867200,5.5208671875,0.028009479865431786,-0.018498020246624947,0.01911545917391777
1782986963044941300,5.53094140625,0.02497762069106102,-0.016120385378599167,-0.002059880644083023
1782986963055015400,5.541015380859375,0.019841182976961136,-0.013715552166104317,-0.029461411759257317
1782986963065090300,5.55109033203125,0.009554368443787098,-0.013618197292089462,-0.051576949656009674
1782986963075164400,5.561164306640625,0.0029883456882089376,-0.005037758965045214,-0.05823325738310814
1782986963085239300,5.5712392578125,-0.0004569675074890256,0.017567068338394165,-0.05408601835370064
1782986963095313400,5.5813134765625,-0.0001957113854587078,0.022662760689854622,-0.04386986419558525
1782986963105387300,5.59138720703125,0.0007779269944876432,0.025324320420622826,-0.025869283825159073
1782986963115462400,5.60146240234375,0.005012352950870991,0.02655283734202385,-0.0019865890499204397
1782986963125536300,5.611536376953125,0.010938972234725952,0.020498232915997505,0.012741833925247192
1782986963135610600,5.621610595703125,0.013199197128415108,0.02046813815832138,0.01730462722480297
1782986963145684500,5.6316845703125,0.0156528502702713,0.023725925013422966,0.012333515100181103
1782986963155759600,5.641759521484375,0.01558414101600647,0.03922738507390022,0.004694237373769283
1782986963165833500,5.65183349609375,0.02132316678762436,0.06451744586229324,-0.016401046887040138
1782986963175908600,5.66190869140625,0.027232719585299492,0.06856731325387955,-0.027743183076381683
1782986963185982500,5.671982421875,0.032275233417749405,0.07403818517923355,-0.027636980637907982
1782986963196057600,5.6820576171875,0.043651457875967026,0.06918377429246902,-0.00754050025716424
1782986963206131500,5.69213134765625,0.04883252829313278,0.07026054710149765,0.015916695818305016
1782986963216205600,5.70220556640625,0.05335404351353645,0.05104876682162285,0.03880123794078827
1782986963226280400,5.712280517578125,0.05481347069144249,0.030417796224355698,0.05396819859743118
1782986963236354600,5.7223544921875,0.05873417481780052,0.010669390670955181,0.048865046352148056
1782986963246429400,5.732429443359375,0.0600312240421772,0.007328752428293228,0.03252977877855301
1782986963256503600,5.742503662109375,0.06659192591905594,0.007440072484314442,0.00509868748486042
1782986963266578400,5.752578369140625,0.06344141811132431,0.0009835062082856894,-0.02230577915906906
1782986963276652500,5.762652587890625,0.05916145071387291,-0.001864478224888444,-0.044945843517780304
1782986963286727400,5.7727275390625,0.056641560047864914,0.006765938363969326,-0.05961834639310837
1782986963296801500,5.782801513671875,0.05671745911240578,0.013750344514846802,-0.06151771545410156
1782986963306875400,5.79287548828125,0.04971165210008621,0.01605084165930748,-0.05097765848040581
1782986963316950500,5.802950439453125,0.04248889163136482,0.014594891108572483,-0.031941916793584824
1782986963327024400,5.8130244140625,0.03605176508426666,0.021866386756300926,-0.010214783251285553
1782986963337099500,5.823099609375,0.036132726818323135,0.02243896573781967,0.004750051535665989
1782986963347173400,5.83317333984375,0.0282233115285635,0.021902041509747505,0.010023082606494427
1782986963357248500,5.84324853515625,0.030602846294641495,0.015780232846736908,0.002235999796539545
1782986963367322400,5.853322265625,0.02643021196126938,0.018689382821321487,-0.004297624807804823
1782986963377397500,5.8633974609375,0.027023563161492348,0.004550660494714975,-0.013983008451759815
1782986963387472400,5.873472412109375,0.02293357253074646,-0.010116135701537132,-0.026150697842240334
1782986963397546500,5.88354638671875,0.022229699417948723,-0.01230392325669527,-0.029470594599843025
1782986963407621400,5.893621337890625,0.017302487045526505,-0.006840923801064491,-0.0237434022128582
1782986963417695500,5.903695556640625,0.017248958349227905,-0.005535176023840904,-0.019851725548505783
1782986963427770600,5.9137705078125,0.01746467500925064,-0.004791088402271271,-0.014019935391843319
1782986963437844500,5.923844482421875,0.016039617359638214,0.0027898659463971853,0.00022797640122007579
1782986963447919600,5.933919677734375,0.012034052982926369,0.009728674776852131,0.01491551287472248
1782986963457993500,5.943993408203125,0.006927707698196173,0.00797711405903101,0.027451276779174805
1782986963468068600,5.954068603515625,0.00412447564303875,0.012138303369283676,0.03172058239579201
1782986963478142500,5.964142578125,0.0013071177527308464,0.012614743784070015,0.040180645883083344
1782986963488217600,5.974217529296875,-0.0032300222665071487,0.015091069042682648,0.04160955548286438
1782986963498291500,5.98429150390625,-0.0009556827135384083,0.022045914083719254,0.039952270686626434
1782986963508365300,5.994365234375,-0.0015001364517956972,0.024147916585206985,0.04120153561234474
1782986963518440400,6.0044404296875,-0.004765704274177551,0.013365575112402439,0.04479334130883217
1782986963528514300,6.014514404296875,-0.006470127962529659,0.006761201657354832,0.050359878689050674
1782986963538589400,6.02458935546875,-0.0023707239888608456,0.005922839045524597,0.046992845833301544
1782986963548663600,6.03466357421875,0.005872645881026983,-0.0035262047313153744,0.04154840111732483
1782986963558738400,6.044738525390625,0.012177679687738419,-0.009429367259144783,0.037133678793907166
1782986963568812500,6.0548125,0.014071641489863396,-0.01573389582335949,0.0314541831612587
1782986963578887400,6.064887451171875,0.010619651526212692,-0.015110982581973076,0.02666288986802101
1782986963588961500,6.07496142578125,0.013330221176147461,-0.005161767825484276,0.023087240755558014
1782986963599035400,6.085035400390625,0.014083629474043846,0.0014995974488556385,0.022492291405797005
1782986963609110500,6.095110595703125,0.006496091838926077,-0.000051844632253050804,0.014768716879189014
1782986963619184400,6.105184326171875,0.0029479623772203922,-0.0013011335395276546,0.010690351948142052
1782986963629259500,6.115259521484375,0.0039250715635716915,-0.0032446219120174646,0.014699033461511135
1782986963639333400,6.12533349609375,0.0015721687814220786,-0.00892514456063509,0.020613381639122963
1782986963649408500,6.135408447265625,-0.0004023727378807962,-0.011221169494092464,0.01677883416414261
1782986963659482400,6.145482421875,0.0023289653472602367,-0.017254827544093132,0.014900507405400276
1782986963669557500,6.1555576171875,0.007455458864569664,-0.02526644431054592,-0.0008910004980862141
1782986963679631400,6.16563134765625,0.011461119167506695,-0.0268827173858881,-0.007570474874228239
1782986963689706500,6.17570654296875,0.011181932874023914,-0.027027711272239685,-0.01871459186077118
1782986963699780400,6.1857802734375,0.005394351202994585,-0.022495010867714882,-0.016447443515062332
1782986963709854700,6.195854736328125,-0.0009147736709564924,-0.009435877203941345,-0.010281361639499664
1782986963719929300,6.205929443359375,-0.0068980976939201355,0.019069267436861992,0.006339692510664463
1782986963730003700,6.216003662109375,-0.010779018513858318,0.038663242012262344,0.021492302417755127
1782986963740078300,6.226078369140625,-0.007922512479126453,0.031918786466121674,0.037117600440979004
1782986963750152700,6.236152587890625,-0.004899046383798122,0.007550234906375408,0.03967442363500595
1782986963760227300,6.246227294921875,0.0006989181274548173,-0.025466836988925934,0.03527381643652916
1782986963770301700,6.2563017578125,0.0030553650576621294,-0.05291955918073654,0.013608680106699467
1782986963780376300,6.266376220703125,0.006789116188883781,-0.06896857172250748,-0.016583574935793877
1782986963790450700,6.27645068359375,0.009655137546360493,-0.06028970330953598,-0.05548183619976044
1782986963800525300,6.286525390625,0.010907622054219246,-0.04684979468584061,-0.08312917500734329
1782986963810599700,6.296599609375,0.008502778597176075,-0.025348059833049774,-0.08931577950716019
1782986963820673500,6.306673583984375,0.005012174136936665,-0.00564759224653244,-0.08306294679641724
1782986963830748700,6.316748779296875,0.003247567918151617,0.003855811432003975,-0.05286811664700508
1782986963840822500,6.326822509765625,0.009727571159601212,-0.003782666986808181,-0.0145034184679389
1782986963850897700,6.336897705078125,0.017390301451086998,-0.022605443373322487,0.02350298874080181
1782986963860971500,6.346971435546875,0.02895720861852169,-0.036249615252017975,0.04756571352481842
1782986963871046700,6.357046630859375,0.03408290445804596,-0.04185320436954498,0.057332564145326614
1782986963881120500,6.36712060546875,0.03859696164727211,-0.04778006672859192,0.053958069533109665
1782986963891195600,6.377195556640625,0.027530711144208908,-0.05186047777533531,0.036460135132074356
1782986963901269500,6.38726953125,0.02231464348733425,-0.0422762930393219,0.018934139981865883
1782986963911343600,6.397343505859375,0.023047562688589096,-0.03287089243531227,-0.00039544908213429153
1782986963921418500,6.40741845703125,0.02758958376944065,-0.026227371767163277,-0.01358022727072239
1782986963931492600,6.41749267578125,0.031152699142694473,-0.03085654228925705,-0.022262180224061012
1782986963941567500,6.4275673828125,0.03912566974759102,-0.01829174906015396,-0.02001234143972397
1782986963951641600,6.4376416015625,0.027389999479055405,-0.015383105725049973,-0.008292091079056263
1782986963961716500,6.447716552734375,0.01924126036465168,-0.009121481329202652,0.005711342673748732
1782986963971790600,6.45779052734375,0.01741345413029194,-0.01753203570842743,0.009626951068639755
1782986963981865500,6.467865478515625,0.016915176063776016,-0.021306799724698067,0.009700188413262367
1782986963991939600,6.477939697265625,0.012347518466413021,-0.020951472222805023,0.0057435790076851845
1782986964002014500,6.488014404296875,0.0058142514899373055,-0.01869923807680607,0.0029161011334508657
1782986964012088600,6.498088623046875,0.004422476515173912,-0.017283324152231216,-0.004001012071967125
1782986964022163500,6.50816357421875,-0.006371049210429192,-0.010706912726163864,-0.01209542341530323
1782986964032237600,6.518237548828125,-0.014886331744492054,0.005785480607300997,-0.01674426719546318
1782986964042311400,6.5283115234375,-0.013408809900283813,0.01679232530295849,-0.02673112042248249
1782986964052386600,6.538386474609375,-0.013006049208343029,0.02379247359931469,-0.01985001750290394
1782986964062460400,6.54846044921875,-0.0069545479491353035,0.02548118308186531,-0.010337471030652523
1782986964072535600,6.55853564453125,-0.002531840465962887,0.024879399687051773,0.007358792703598738
1782986964082609400,6.568609375,0.003319923300296068,0.019694488495588303,0.01888255588710308
1782986964092684500,6.5786845703125,0.0030266125686466694,0.008014720864593983,0.023811599239706993
1782986964102758400,6.58875830078125,0.00450599892064929,-0.0032174265943467617,0.020689576864242554
1782986964112833500,6.59883349609375,0.004883102141320705,-0.0023662804160267115,0.011397273279726505
1782986964122907400,6.608907470703125,0.00966507475823164,0.003920110873878002,0.0026011192239820957
1782986964132982000,6.61898193359375,0.010458081029355526,0.012386627495288849,-0.013775668106973171
1782986964143057200,6.62905712890625,0.010179247707128525,0.013124855235219002,-0.02349594049155712
1782986964153131000,6.639131103515625,0.011509671807289124,0.00834684818983078,-0.02501077391207218
1782986964163206100,6.6492060546875,0.014291343279182911,0.0014913391787558794,-0.020384596660733223
1782986964173280000,6.659280029296875,0.016950426623225212,0.0014876713976264,-0.0072152093052864075
1782986964183355100,6.669355224609375,0.01754591055214405,-0.0021307654678821564,0.0029700505547225475
1782986964193429000,6.679428955078125,0.013874107971787453,-0.014146005734801292,0.011979146860539913
1782986964203504000,6.689504150390625,0.009956598281860352,-0.015114064328372478,0.013278237544000149
1782986964213578000,6.699577880859375,0.012481912970542908,-0.004069368354976177,0.013293436728417873
1782986964223653000,6.709653076171875,0.02247995138168335,-0.004118637181818485,0.01618163473904133
1782986964233727000,6.71972705078125,0.020388389006257057,-0.0064665405079722404,0.01713365875184536
1782986964243801000,6.729801025390625,0.02159932814538479,-0.009898290038108826,0.022024819627404213
1782986964253876000,6.7398759765625,0.012341627851128578,-0.02176685258746147,0.01955430768430233
1782986964263950000,6.7499501953125,0.009669944643974304,-0.04067316651344299,0.013901215977966785
1782986964274025000,6.76002490234375,0.010147455148398876,-0.034746117889881134,0.01686548814177513
1782986964284099000,6.77009912109375,0.010430549271404743,-0.024993358179926872,0.013898992910981178
1782986964294174000,6.780174072265625,0.007481831591576338,-0.017664628103375435,0.0034343237057328224
1782986964304248000,6.790248046875,0.008216331712901592,-0.010159840807318687,-0.004170066677033901
1782986964314323000,6.800322998046875,0.007578588090837002,-0.009916753508150578,-0.013489055447280407
1782986964324397000,6.81039697265625,0.007746633142232895,-0.008438698947429657,-0.01745849847793579
1782986964334471000,6.820470947265625,0.00906834751367569,-0.005015208851546049,-0.016140490770339966
1782986964344546000,6.830546142578125,0.010734421201050282,-0.0027943989261984825,-0.018652915954589844
1782986964354620000,6.840619873046875,0.007933216169476509,0.00011480716057121754,-0.021185344085097313
1782986964364695000,6.850695068359375,0.005756881088018417,0.0036552136298269033,-0.02369430847465992
1782986964374769000,6.860768798828125,0.006623228546231985,0.010697770863771439,-0.027574989944696426
1782986964384844000,6.870843994140625,0.005690590012818575,0.0038451908621937037,-0.028951844200491905
1782986964394918000,6.88091796875,0.005401266273111105,-0.011417683213949203,-0.03703109547495842
1782986964404993000,6.890992919921875,0.004881417378783226,-0.021130764856934547,-0.0448480062186718
1782986964415067000,6.90106689453125,0.0024735822807997465,-0.024507058784365654,-0.05299749970436096
1782986964425142000,6.91114208984375,-0.0001735998084768653,-0.009667392820119858,-0.047901805490255356
1782986964435216000,6.9212158203125,-0.003692900761961937,0.018211401998996735,-0.03603418543934822
1782986964445290000,6.9312900390625,-0.007063663564622402,0.040470365434885025,-0.024930400773882866
1782986964455364900,6.94136474609375,-0.004697698168456554,0.047294456511735916,-0.003632577834650874
1782986964465439000,6.95143896484375,0.0013239756226539612,0.03531768545508385,0.00826962199062109
1782986964475513900,6.961513916015625,-0.0008729532710276544,0.01724296063184738,0.011072213761508465
1782986964485588000,6.971587890625,0.0010940574575215578,-0.0019549669232219458,0.004551729653030634
1782986964495662800,6.981662841796875,-0.0027625621296465397,-0.011313257738947868,-0.028213344514369965
1782986964505737000,6.991737060546875,0.0016385779017582536,-0.017682474106550217,-0.0652344822883606
1782986964515811800,7.001811767578125,-0.0010771391680464149,-0.016113102436065674,-0.1056027039885521
1782986964525886000,7.011885986328125,-0.007058599032461643,0.0010986409615725279,-0.13007448613643646
1782986964535961000,7.021961181640625,-0.02185015380382538,0.022182323038578033,-0.13860543072223663
1782986964546035000,7.032034912109375,-0.03034324012696743,0.03053453005850315,-0.12452289462089539
1782986964556109000,7.042109130859375,-0.024322807788848877,0.034003861248493195,-0.08814967423677444
1782986964566184000,7.052183837890625,-0.01435139961540699,0.020636921748518944,-0.04852130636572838
1782986964576258000,7.062258056640625,-0.006754383444786072,-0.007058151066303253,0.0022936160676181316
1782986964586333000,7.0723330078125,-0.007272101938724518,-0.015451636165380478,0.045289285480976105
1782986964596407000,7.082406982421875,-0.00236448273062706,-0.009617299772799015,0.0894227921962738
1782986964606482000,7.09248193359375,-0.005480913911014795,-0.005252378527075052,0.11510471999645233
1782986964616556000,7.10255615234375,-0.002851058030501008,0.0031647237483412027,0.13215099275112152
1782986964626631000,7.112630859375,0.002391907386481762,0.002292804652824998,0.1304425746202469
1782986964636705000,7.122705078125,0.008436578325927258,-0.009344469755887985,0.12232360243797302
1782986964646779100,7.132779052734375,-0.006182311102747917,-0.020103905349969864,0.1077454537153244
1782986964656854300,7.142854248046875,-0.019301585853099823,-0.00814072135835886,0.08526518940925598
1782986964666928000,7.15292822265625,-0.02369074337184429,0.005752724129706621,0.06340596824884415
1782986964677003300,7.163003173828125,-0.024110209196805954,0.017470447346568108,0.04434049502015114
1782986964687077000,7.1730771484375,-0.024458283558487892,0.021658800542354584,0.03273603692650795
1782986964697152300,7.18315234375,-0.026859451085329056,0.011619373224675655,0.032425910234451294
1782986964707226000,7.19322607421875,-0.033657703548669815,-0.0017060202080756426,0.032726313918828964
1782986964717301200,7.20330126953125,-0.03615966811776161,-0.007378437090665102,0.03697311878204346
1782986964727375000,7.213375,-0.033573735505342484,-0.0033328288700431585,0.040515389293432236
1782986964737450200,7.2234501953125,-0.033946484327316284,-0.003776835510507226,0.041612010449171066
1782986964747524000,7.233524169921875,-0.03939317911863327,0.0004847547970712185,0.03820209950208664
1782986964757598000,7.243597900390625,-0.0467325858771801,0.01981690712273121,0.0327969491481781
1782986964767673000,7.253673095703125,-0.049658868461847305,0.028294013813138008,0.021889174357056618
1782986964777747200,7.263747314453125,-0.04833820462226868,0.03241303563117981,0.02054338902235031
1782986964787822000,7.273822021484375,-0.047607697546482086,0.039924219250679016,0.01963684894144535
1782986964797896200,7.283896240234375,-0.04179331660270691,0.037763118743896484,0.023308876901865005
1782986964807971000,7.29397119140625,-0.04135948792099953,0.02661725878715515,0.021878493949770927
1782986964818045200,7.304045166015625,-0.04376352205872536,0.015248045325279236,0.014805229380726814
1782986964828120000,7.3141201171875,-0.04420667514204979,0.005296345334500074,0.0017791761783882976
1782986964838194200,7.324194091796875,-0.04798870533704758,0.0012065013870596886,-0.007773351389914751
1782986964848268000,7.33426806640625,-0.04989073798060417,-0.0002646287903189659,-0.022366942837834358
1782986964858343200,7.34434326171875,-0.04884299263358116,0.0019206029828637838,-0.03832366690039635
1782986964868417000,7.3544169921875,-0.047721803188323975,0.015300857834517956,-0.05043518915772438
1782986964878492200,7.3644921875,-0.04631996899843216,0.029575735330581665,-0.044351957738399506
1782986964888566000,7.37456591796875,-0.04269354045391083,0.02894962579011917,-0.03293365612626076
1782986964898641200,7.38464111328125,-0.04151741415262222,0.021796759217977524,-0.006990346591919661
1782986964908715000,7.394715087890625,-0.03782973438501358,0.014930596575140953,0.02476545050740242
1782986964918790100,7.4047900390625,-0.029677532613277435,0.011312693357467651,0.054772354662418365
1782986964928864000,7.414864013671875,-0.023778097704052925,-0.0032766361255198717,0.0730283185839653
1782986964938939100,7.424939208984375,-0.025327162817120552,-0.012164461426436901,0.06914696842432022
1782986964949013000,7.435012939453125,-0.029239080846309662,-0.004500149749219418,0.05434565246105194
1782986964959087000,7.445087158203125,-0.030016815289855003,0.014765659347176552,0.031666409224271774
1782986964969162000,7.455161865234375,-0.032265856862068176,0.023316536098718643,0.006399935577064753
1782986964979236000,7.465236083984375,-0.03923932462930679,0.021248947829008102,-0.013774228282272816
1782986964989311000,7.47531103515625,-0.0406489335000515,0.02165481075644493,-0.01935701258480549
1782986964999385000,7.485385009765625,-0.0380074568092823,0.024847378954291344,-0.012357443571090698
1782986965009460000,7.4954599609375,-0.034473709762096405,0.02548946812748909,-0.00043580259080044925
1782986965019534000,7.5055341796875,-0.027866043150424957,0.024929791688919067,0.017223462462425232
1782986965029609000,7.51560888671875,-0.023141860961914062,0.028706688433885574,0.040284574031829834
1782986965039683000,7.52568310546875,-0.02486315742135048,0.026636403053998947,0.05309737101197243
1782986965049758000,7.535758056640625,-0.026829369366168976,0.01089365966618061,0.06358862668275833
1782986965059832000,7.54583203125,-0.02977812848985195,-0.0000634205061942339,0.05804231017827988
1782986965069906000,7.555906005859375,-0.030642058700323105,-0.006523983087390661,0.03933173790574074
1782986965079981000,7.56598095703125,-0.027753854170441628,0.0009527555666863918,0.02245945669710636
1782986965090055000,7.576054931640625,-0.028387419879436493,0.0013905791565775871,0.004706026986241341
1782986965100130000,7.586130126953125,-0.03380826488137245,-0.0029685660265386105,-0.014473360031843185
1782986965110204000,7.596203857421875,-0.0309648085385561,-0.005571805872023106,-0.026501260697841644
1782986965120279000,7.606279052734375,-0.026219947263598442,-0.004729211796075106,-0.0314001739025116
1782986965130352600,7.6163525390625,-0.027494002133607864,-0.012097911909222603,-0.022922268137335777
1782986965140427800,7.626427734375,-0.031044360250234604,-0.008824297226965427,-0.0018624579533934593
1782986965150501600,7.636501708984375,-0.0371674969792366,0.006751732900738716,0.022282559424638748
1782986965160575700,7.64657568359375,-0.0366227962076664,0.035256728529930115,0.051385436207056046
1782986965170650600,7.656650634765625,-0.030414700508117676,0.0466071218252182,0.07603964954614639
1782986965180724700,7.666724853515625,-0.0245354063808918,0.0362723134458065,0.09974082559347153
1782986965190799600,7.676799560546875,-0.015708889812231064,0.018183857202529907,0.11072876304388046
1782986965200873700,7.686873779296875,-0.0070619648322463036,-0.0016319554997608066,0.11083526909351349
1782986965210948600,7.696948486328125,0.003354723332449794,-0.029846815392374992,0.08603324741125107
1782986965221022700,7.707022705078125,0.010935576632618904,-0.04889865964651108,0.049797363579273224
1782986965231097600,7.71709765625,0.009424232877790928,-0.06035664305090904,0.008249656297266483
1782986965241171700,7.727171630859375,0.00606794748455286,-0.05500667542219162,-0.022937089204788208
1782986965251246600,7.73724658203125,-0.0029284770134836435,-0.04062747210264206,-0.041871629655361176
1782986965261320700,7.74732080078125,-0.00871791411191225,-0.015617101453244686,-0.03915964812040329
1782986965271394800,7.757394775390625,-0.010092372074723244,0.0014689411036670208,-0.015973372384905815
1782986965281469700,7.7674697265625,-0.005605229642242193,-0.0013198377564549446,0.020191390067338943
1782986965291543800,7.777543701171875,0.0033424589782953262,-0.01398716401308775,0.061953749507665634
1782986965301618700,7.78761865234375,0.00966259092092514,-0.03286571800708771,0.10094781219959259
1782986965311692800,7.79769287109375,0.01675192452967167,-0.042545512318611145,0.124257393181324
1782986965321767700,7.807767578125,0.018395187333226204,-0.039281509816646576,0.1269216537475586
1782986965331841800,7.817841796875,0.020330507308244705,-0.01342354528605938,0.1212853342294693
1782986965341916700,7.827916748046875,0.020195407792925835,0.006765228696167469,0.10578641295433044
1782986965351990800,7.83799072265625,0.017248088493943214,0.012759472243487835,0.09088655561208725
1782986965362066000,7.84806591796875,0.016937464475631714,0.01788407191634178,0.07946521043777466
1782986965372139800,7.858139892578125,0.017246391624212265,0.013045907951891422,0.06449318677186966
1782986965382214000,7.8682138671875,0.02155415341258049,-0.00019547529518604279,0.04668314382433891
1782986965392288800,7.878288818359375,0.025391235947608948,-0.008608400821685791,0.03692159056663513
1782986965402363000,7.88836279296875,0.030865514650940895,-0.010378195904195309,0.027227314189076424
1782986965412437800,7.898437744140625,0.032849572598934174,-0.010964890010654926,0.022530296817421913
1782986965422511900,7.908511962890625,0.03518000990152359,-0.00982881709933281,0.02088816650211811
1782986965432586800,7.918586669921875,0.03902747854590416,-0.013465896248817444,0.01800236478447914
1782986965442660900,7.928660888671875,0.04009603336453438,-0.016664855182170868,0.010735690593719482
1782986965452735700,7.93873583984375,0.03445066511631012,-0.016900543123483658,0.004387512803077698
1782986965462809900,7.948809814453125,0.033132582902908325,-0.013353417627513409,-0.013053740374743938
1782986965472883700,7.9588837890625,0.031876105815172195,-0.0068007102236151695,-0.019444260746240616
1782986965482958800,7.968958740234375,0.03298870101571083,-0.004567054100334644,-0.0244687981903553
1782986965493032700,7.97903271484375,0.03032660484313965,-0.0013781849993392825,-0.02302589826285839
1782986965503107800,7.98910791015625,0.02758503518998623,0.004934447817504406,-0.014965678565204144
1782986965513181700,7.999181640625,0.024954630061984062,0.007977908477187157,0.00002099398261634633
1782986965523256800,8.0092568359375,0.022408125922083855,0.009363909251987934,0.011395970359444618
1782986965533330700,8.01933056640625,0.020725538954138756,0.0011057134252041578,0.019495174288749695
1782986965543405800,8.02940576171875,0.020710263401269913,-0.0050890096463263035,0.018326910212635994
1782986965553479700,8.039479736328126,0.026122605428099632,-0.003930001985281706,0.013205918483436108
1782986965563554800,8.049554931640625,0.02728419378399849,-0.005386422388255596,0.0022907417733222246
1782986965573628700,8.059628662109375,0.027059422805905342,-0.0022944926749914885,-0.006724058650434017
1782986965583702800,8.069702880859374,0.0253230482339859,0.004743888042867184,-0.014424413442611694
1782986965593777700,8.079777587890625,0.02568363957107067,0.00805899128317833,-0.016071846708655357
1782986965603851800,8.089851806640626,0.021780148148536682,0.011172549799084663,-0.0223001167178154
1782986965613926700,8.0999267578125,0.017629079520702362,0.012254059314727783,-0.023973112925887108
1782986965624000800,8.110000732421875,0.014079258777201176,0.01678726077079773,-0.02280374802649021
1782986965634075600,8.12007568359375,0.01242010947316885,0.01889568567276001,-0.02291906252503395
1782986965644149800,8.130149658203125,0.007932047359645367,0.01404328178614378,-0.0221114344894886
1782986965654224600,8.140224609375,0.003250210313126445,0.01055427361279726,-0.019475437700748444
1782986965664298800,8.150298828125,0.002315620193257928,0.017222709953784943,-0.020365051925182343
1782986965674374000,8.160373779296876,0.007417171727865934,0.01197841390967369,-0.016762327402830124
1782986965684447700,8.17044775390625,0.012684914283454418,0.009479930624365807,-0.01667090132832527
1782986965694521600,8.180521484375,0.009226000867784023,0.009988062083721161,-0.018069593235850334
1782986965704596700,8.1905966796875,0.0073791914619505405,0.00987810455262661,-0.02159159630537033
1782986965714670600,8.200670654296875,0.005927236285060644,0.011110614985227585,-0.01742854155600071
1782986965724745700,8.210745849609374,0.005284702405333519,0.009092855267226696,-0.020166952162981033
1782986965734819600,8.220819580078125,0.0029091625474393368,0.011200481094419956,-0.019640179350972176
1782986965744894700,8.230894775390626,0.00529696699231863,0.0235959030687809,-0.0160055048763752
1782986965754968600,8.240968505859374,0.0026495179627090693,0.0340738445520401,-0.00909380242228508
1782986965765043700,8.251043701171875,-0.0016225646249949932,0.02344939298927784,-0.00805944949388504
1782986965775117600,8.26111767578125,0.002809734083712101,0.011417231522500515,-0.005357406567782164
1782986965785191700,8.271191650390625,0.004520195536315441,0.008523589931428432,-0.0023247182834893465
1782986965795266600,8.2812666015625,0.007443547248840332,-0.002217737725004554,-0.004960715305060148
1782986965805340700,8.291340576171875,0.005720767192542553,0.0012402937281876802,-0.015347409062087536
1782986965815415800,8.301415771484375,0.004414220340549946,0.004992155358195305,-0.021037520840764046
1782986965825489700,8.31148974609375,0.0025739625561982393,0.011915305629372597,-0.030648859217762947
1782986965835564800,8.321564697265625,0.0030967413913458586,0.01632390171289444,-0.038588542491197586
1782986965845638700,8.331638671875,0.003085930598899722,0.008743424899876118,-0.04492240771651268
1782986965855713800,8.3417138671875,0.0029623599257320166,-0.0036330835428088903,-0.0460132397711277
1782986965865787600,8.35178759765625,0.004058413207530975,-0.00937169510871172,-0.04082595556974411
1782986965875862800,8.36186279296875,-0.0018998769810423255,-0.003970271907746792,-0.036898594349622726
1782986965885936600,8.3719365234375,-0.003466339549049735,-0.00397177878767252,-0.031626515090465546
1782986965896010800,8.3820107421875,-0.003034641034901142,-0.0036860215477645397,-0.031000671908259392
1782986965906085600,8.392085693359375,-0.006140249315649271,-0.002099785255268216,-0.029899924993515015
1782986965916159700,8.40215966796875,-0.0076209669932723045,-0.002823366317898035,-0.0332147590816021
1782986965926234600,8.412234619140625,-0.009520945139229298,0.0011513738427311182,-0.03267737105488777
1782986965936308700,8.422308837890625,-0.015621447935700417,-0.0024122020695358515,-0.029431242495775223
1782986965946383600,8.432383544921874,-0.01709861308336258,0.006325392983853817,-0.018737290054559708
1782986965956457700,8.442457763671875,-0.02305317483842373,0.02483835630118847,-0.005726417992264032
1782986965966532600,8.45253271484375,-0.020785503089427948,0.0340542234480381,0.01077586691826582
1782986965976606700,8.462606689453125,-0.023467838764190674,0.02899874374270439,0.02150813862681389
1782986965986680800,8.472680908203126,-0.014077347703278065,0.0203865859657526,0.0293085016310215
1782986965996755700,8.482755615234375,-0.005079591181129217,0.005686737596988678,0.026384351775050163
1782986966006829800,8.492829833984375,0.00253818416967988,-0.008022481575608253,0.01406532060354948
1782986966016904700,8.50290478515625,0.010565751232206821,-0.023795850574970245,-0.005197323393076658
1782986966026978800,8.512978759765625,0.021840693429112434,-0.04298119992017746,-0.031101569533348083
1782986966037053700,8.5230537109375,0.026062335819005966,-0.054257556796073914,-0.05045901983976364
1782986966047127800,8.5331279296875,0.023487064987421036,-0.040161266922950745,-0.058671239763498306
1782986966057203000,8.543202880859376,0.019495252519845963,-0.024119185283780098,-0.054619770497083664
1782986966067276800,8.55327685546875,0.023277029395103455,-0.01806889846920967,-0.04492228105664253
1782986966077351000,8.563350830078125,0.02877565659582615,-0.0248090922832489,-0.027431175112724304
1782986966087425800,8.57342578125,0.03536733239889145,-0.02998908795416355,-0.0018567184451967478
1782986966097500000,8.5835,0.04031362384557724,-0.03887685388326645,0.02121158130466938
1782986966107574800,8.59357470703125,0.037187594920396805,-0.03798585385084152,0.04009730741381645
1782986966117649000,8.60364892578125,0.023242751136422157,-0.037590108811855316,0.04197004437446594
1782986966127723800,8.613723876953125,0.01231215987354517,-0.03071051463484764,0.03909554332494736
1782986966137798100,8.623798095703124,0.002844887785613537,-0.01769591122865677,0.02702050656080246
1782986966147873300,8.633873291015625,-0.00361425057053566,-0.00682911928743124,0.016718361526727676
1782986966157947100,8.643947021484376,-0.006214560940861702,0.0014836720656603575,0.002160191535949707
1782986966168022300,8.654022216796875,-0.004695423413068056,0.0001327593345195055,0.0035931032616645098
1782986966178096000,8.66409619140625,-0.003120962530374527,-0.008042079396545887,0.006218447349965572
1782986966188170200,8.674170166015625,0.00032377964816987514,-0.01112133078277111,0.01979084126651287
1782986966198245000,8.6842451171875,-0.001390230841934681,-0.009214507415890694,0.036956511437892914
1782986966208319200,8.6943193359375,0.0024221758358180523,-0.010790269821882248,0.04989364370703697
1782986966218394000,8.70439404296875,0.005140198394656181,-0.015427365899085999,0.05952177196741104
1782986966228468200,8.71446826171875,0.003910699859261513,-0.01901417225599289,0.05564628168940544
1782986966238543000,8.724543212890625,0.010684449225664139,-0.020248547196388245,0.04757929965853691
1782986966248617200,8.7346171875,0.013141380622982979,-0.021102745085954666,0.03158824145793915
1782986966258692000,8.744692138671875,0.01401915866881609,-0.020013246685266495,0.017549652606248856
1782986966268766200,8.75476611328125,0.011809722520411015,-0.014711983501911163,0.007328671403229237
1782986966278841000,8.764841064453124,0.004809603560715914,-0.006692939437925816,0.004010905046015978
1782986966288915200,8.774915283203125,-0.0015758720692247152,-0.0036497507244348526,0.005073782056570053
1782986966298989000,8.784989013671876,-0.0040712542831897736,0.00029066228307783604,0.010673344135284424
1782986966309064200,8.795064208984375,-0.006552879698574543,0.004382045473903418,0.01763215661048889
1782986966319138000,8.805137939453125,-0.0029229915235191584,0.01096378080546856,0.02664189785718918
1782986966329213200,8.815213134765624,-0.0026475093327462673,0.018567588180303574,0.03511014208197594
1782986966339287000,8.825287109375,-0.0021066211629658937,0.011606618762016296,0.050326645374298096
1782986966349362200,8.835362060546874,0.00089215487241745,-0.000010784948244690895,0.05859057605266571
1782986966359436000,8.84543603515625,0.008574308827519417,-0.013796372339129448,0.06327161192893982
1782986966369511200,8.85551123046875,0.011989577673375607,-0.02334645390510559,0.060886200517416
1782986966379585000,8.8655849609375,0.014619182795286179,-0.023147251456975937,0.04799943044781685
1782986966389659100,8.8756591796875,0.010685431770980358,-0.01532057300209999,0.030489319935441017
1782986966399734000,8.885734130859374,0.004618484526872635,-0.009530594572424889,0.006269202101975679
1782986966409808100,8.89580810546875,0.002629003021866083,-0.002053359057754278,-0.020089277997612953
1782986966419883000,8.905883056640626,0.00436804722994566,0.011494141072034836,-0.03480510786175728
1782986966429957000,8.91595703125,0.002574674319475889,0.009076789952814579,-0.026893122121691704
1782986966440032000,8.926031982421875,-0.00614637928083539,-0.003878955729305744,-0.0016370352823287249
1782986966450106000,8.936106201171874,-0.0002359489444643259,-0.020685343071818352,0.03127727285027504
1782986966460181200,8.94618115234375,0.008546890690922737,-0.031057555228471756,0.060798414051532745
1782986966470255000,8.956255126953126,0.014295154251158237,-0.027864214032888412,0.07772593945264816
1782986966480330200,8.966330322265625,0.007148028817027807,-0.01797989197075367,0.08006765693426132
1782986966490404000,8.976404052734376,0.003598577342927456,-0.00944703258574009,0.0706995353102684
1782986966500478000,8.98647802734375,-0.0016236153896898031,-0.0006886940682306886,0.049110617488622665
1782986966510553000,8.996552978515625,-0.0027986892964690924,0.0018417234532535076,0.03122364543378353
1782986966520627000,9.006626953125,-0.002610403811559081,-0.0018483527237549424,0.011709598824381828
1782986966530702000,9.0167021484375,-0.003805717919021845,-0.012787938117980957,-0.0029592113569378853
1782986966540776000,9.02677587890625,-0.005595894530415535,-0.023856833577156067,-0.0204766858369112
1782986966550851000,9.03685107421875,-0.0017338702455163002,-0.024598820134997368,-0.02299819514155388
1782986966560925000,9.046925048828125,-0.006448996718972921,-0.026872627437114716,-0.02313055470585823
1782986966571000000,9.057,-0.005102967843413353,-0.027823710814118385,-0.011940262280404568
1782986966581074200,9.06707421875,-0.009213557466864586,-0.018491728231310844,0.002913518575951457
1782986966591148000,9.07714794921875,-0.011885588057339191,-0.01813586801290512,0.012927058152854443
1782986966601223200,9.08722314453125,-0.012891463935375214,-0.019373171031475067,0.017133520916104317
1782986966611297000,9.097297119140626,-0.01207900233566761,-0.022574758157134056,0.015309569425880909
1782986966621372200,9.1073720703125,-0.011892048642039299,-0.022104710340499878,0.004854797385632992
1782986966631446000,9.117446044921875,-0.013712875545024872,-0.013059645891189575,-0.0033504755701869726
1782986966641521200,9.127521240234374,-0.014524340629577637,-0.011218870058655739,-0.013796191662549973
1782986966651595000,9.137594970703125,-0.011578965932130814,-0.014168791472911835,-0.016257964074611664
1782986966661670100,9.147670166015626,-0.007371704094111919,-0.021674910560250282,-0.013995341956615448
1782986966671744000,9.157743896484375,-0.0013515233295038342,-0.034406114369630814,-0.012084504589438438
1782986966681819100,9.167819091796876,0.0011830071453005075,-0.03805118426680565,-0.006457511801272631
1782986966691893000,9.17789306640625,0.004454337991774082,-0.032959163188934326,-0.008198622614145279
1782986966701967400,9.18796728515625,0.005740378517657518,-0.031813472509384155,-0.008647631853818893
1782986966712042000,9.1980419921875,0.011020085774362087,-0.029830574989318848,-0.010389155708253384
1782986966722116400,9.208116455078125,0.008619512431323528,-0.030703291296958923,-0.008284992538392544
1782986966732191000,9.21819091796875,0.006173146888613701,-0.03294806554913521,-0.003916085232049227
1782986966742265300,9.228265380859375,0.004720126278698444,-0.040286142379045486,0.006403131410479546
1782986966752340000,9.238340087890625,0.0051590148359537125,-0.04017934948205948,0.026301471516489983
1782986966762414300,9.248414306640624,0.0037278321105986834,-0.037756938487291336,0.046581707894802094
1782986966772489000,9.258489013671875,0.00017268676310777664,-0.0502685010433197,0.06454789638519287
1782986966782563300,9.268563232421876,-0.0017881987150758505,-0.057076603174209595,0.06856527924537659
1782986966792637200,9.27863720703125,-0.0032131688203662634,-0.05857158452272415,0.07060244679450989
1782986966802712300,9.28871240234375,-0.009905693121254444,-0.047698430716991425,0.06794354319572449
1782986966812786200,9.2987861328125,-0.01626674085855484,-0.04565110802650452,0.059273507446050644
1782986966822861300,9.308861328125,-0.019782645627856255,-0.022581743076443672,0.057003431022167206
1782986966832935200,9.31893505859375,-0.024253293871879578,0.004622714128345251,0.06564192473888397
1782986966843010300,9.32901025390625,-0.021545657888054848,0.011457450687885284,0.06986650079488754
1782986966853084200,9.339084228515626,-0.015543147921562195,0.003273558570072055,0.07631906121969223
1782986966863159300,9.3491591796875,-0.008970731869339943,-0.024955149739980698,0.07855319231748581
1782986966873233200,9.359233154296875,0.0031515241134911776,-0.06243645027279854,0.05839602276682854
1782986966883308300,9.369308349609375,0.010842200368642807,-0.09676992148160934,0.022931773215532303
1782986966893382100,9.379382080078125,0.01597108505666256,-0.11582611501216888,-0.02583516761660576
1782986966903456300,9.389456298828126,0.00923755019903183,-0.09826096892356873,-0.07051049172878265
1782986966913531100,9.39953125,-0.0017189522041007876,-0.06239582225680351,-0.10891345888376236
1782986966923605200,9.409605224609376,-0.00370726827532053,-0.03585715591907501,-0.13324196636676788
1782986966933680000,9.41968017578125,-0.0010024122893810272,-0.01786630041897297,-0.13649937510490417
1782986966943754200,9.429754150390625,0.009139969944953918,-0.01248378586024046,-0.11204543709754944
1782986966953829000,9.4398291015625,0.015519506298005581,-0.020329389721155167,-0.07111873477697372
1782986966963903200,9.4499033203125,0.0201848316937685,-0.03588597849011421,-0.031093819066882133
1782986966973978000,9.45997802734375,0.024492673575878143,-0.044387973845005035,-0.007735352031886578
1782986966984052200,9.47005224609375,0.0340302512049675,-0.04162067919969559,0.000005658003829012159
1782986966994126000,9.4801259765625,0.047752540558576584,-0.014005626551806927,-0.014944851398468018
1782986967004201200,9.490201171875,0.056668803095817566,0.011241407133638859,-0.039302390068769455
1782986967014275000,9.500275146484375,0.0657748430967331,0.032178524881601334,-0.07087480276823044
1782986967024350200,9.51035009765625,0.06591332703828812,0.0483391173183918,-0.09447333961725235
1782986967034424000,9.520424072265625,0.06487345695495605,0.05319417640566826,-0.10389095544815063
1782986967044498200,9.530498291015626,0.06737070530653,0.06744714826345444,-0.10507206618785858
1782986967054572000,9.540572021484374,0.06591548025608063,0.06324376910924911,-0.0940357968211174
1782986967064647200,9.550647216796875,0.04998764395713806,0.08270961046218872,-0.0819530338048935
1782986967074721000,9.560720947265626,0.021258080378174782,0.09515787661075592,-0.06691963970661163
1782986967084796200,9.570796142578125,0.013709883205592632,0.07555967569351196,-0.045325927436351776
1782986967094870000,9.5808701171875,0.015054425224661827,0.054817259311676025,-0.028954261913895607
1782986967104944000,9.590944091796874,0.013005923479795456,0.040925152599811554,-0.013105259276926517
1782986967115019000,9.60101904296875,0.006413363851606846,0.02624627947807312,-0.01092525850981474
1782986967125093000,9.611093017578124,-0.0022387139033526182,0.014076966792345047,-0.012850990518927574
1782986967135167500,9.62116748046875,-0.006080332677811384,0.013533057644963264,-0.016375500708818436
1782986967145241300,9.631241455078126,-0.0043639251962304115,0.0041573988273739815,-0.026649976149201393
1782986967155316500,9.64131640625,-0.003407042706385255,-0.0016050576232373714,-0.039268750697374344
1782986967165390300,9.651390380859375,-0.007175415754318237,0.00862201303243637,-0.04741615802049637
1782986967175465500,9.661465576171874,-0.009274955838918686,0.015856698155403137,-0.05577801167964935
1782986967185539600,9.67153955078125,-0.020718293264508247,0.003469537477940321,-0.056630223989486694
1782986967195614500,9.681614501953124,-0.028293924406170845,-0.01785377226769924,-0.050459589809179306
1782986967205688600,9.6916884765625,-0.03306790441274643,-0.044353287667036057,-0.03473016247153282
1782986967215762400,9.701762451171875,-0.042137838900089264,-0.07531671226024628,-0.022506162524223328
1782986967225837600,9.711837646484375,-0.048329953104257584,-0.09763133525848389,-0.014858628623187542
1782986967235911400,9.721911376953125,-0.05351424589753151,-0.1097802072763443,-0.014161734841763973
1782986967245986600,9.731986572265624,-0.04857834428548813,-0.09234662353992462,-0.023838063701987267
1782986967256060400,9.742060302734375,-0.04193926230072975,-0.056869469583034515,-0.033408280462026596
1782986967266135600,9.752135498046876,-0.033002495765686035,-0.03655674308538437,-0.04715924710035324
1782986967276209400,9.76220947265625,-0.03072958253324032,-0.01345935557037592,-0.057199567556381226
1782986967286284500,9.772284423828125,-0.029564449563622475,0.004612588789314032,-0.058690402656793594
1782986967296358400,9.7823583984375,-0.03315943852066994,0.004599811043590307,-0.07000591605901718
1782986967306432500,9.7924326171875,-0.03817896544933319,-0.019328957423567772,-0.09004300832748413
1782986967316507400,9.80250732421875,-0.04329126700758934,-0.024987053126096725,-0.11258766800165176
1782986967326581500,9.81258154296875,-0.04249018803238869,-0.041530873626470566,-0.13929171860218048
1782986967336656400,9.822656494140626,-0.06476948410272598,-0.04610053822398186,-0.17380301654338837
1782986967346730500,9.83273046875,-0.09290578216314316,-0.021888408809900284,-0.2082507461309433
1782986967356805400,9.842805419921875,-0.11772582679986954,0.023883722722530365,-0.24860523641109467
1782986967366879500,9.85287939453125,-0.13154336810112,0.05647016316652298,-0.29855868220329285
1782986967376954400,9.862954345703125,-0.1336096227169037,0.06702341884374619,-0.339554101228714
1782986967387028500,9.873028564453126,-0.13708797097206116,0.09762366861104965,-0.368877112865448
1782986967397103400,9.883103271484375,-0.1411317139863968,0.11145994812250137,-0.38739001750946045
1782986967407178500,9.893178466796876,-0.14506679773330688,0.07608864456415176,-0.3716035783290863
1782986967417252400,9.90325244140625,-0.17059382796287537,0.02466314472258091,-0.3286053538322449
1782986967427326500,9.913326416015625,-0.21387897431850433,-0.05004864186048508,-0.2653760612010956
1782986967437401300,9.9234013671875,-0.25654032826423645,-0.09387456625699997,-0.17885223031044006
1782986967447475500,9.933475341796875,-0.2839631736278534,-0.12077596038579941,-0.06748761981725693
1782986967457550300,9.94355029296875,-0.292281836271286,-0.1829475313425064,0.05749496445059776
1782986967467624400,9.95362451171875,-0.28730225563049316,-0.26367729902267456,0.1614791452884674
1782986967477699300,9.96369921875,-0.26658889651298523,-0.2866314947605133,0.22886258363723755
1782986967487773400,9.9737734375,-0.23151665925979614,-0.29247233271598816,0.2570617198944092
1782986967497848300,9.983848388671875,-0.20847170054912567,-0.28697341680526733,0.2786698639392853
1782986967507922400,9.99392236328125,-0.20103561878204346,-0.24825449287891388,0.2867504060268402
1782986967517997300,10.003997314453125,-0.1909729391336441,-0.2004280537366867,0.28285929560661316
1782986967528071400,10.014071533203126,-0.17854291200637817,-0.17253464460372925,0.24982360005378723
1782986967538145300,10.024145263671874,-0.15163204073905945,-0.15235936641693115,0.2092660367488861
1782986967548220400,10.034220458984375,-0.12480521947145462,-0.142789825797081,0.16599233448505402
1782986967558294300,10.044294189453124,-0.11733221262693405,-0.14578920602798462,0.11454979330301285
1782986967568369400,10.054369384765625,-0.1264045387506485,-0.14525869488716125,0.0670563131570816
1782986967578443300,10.064443359375,-0.14142589271068573,-0.10776957869529724,0.03164643421769142
1782986967588518400,10.074518310546875,-0.153603196144104,-0.07206884026527405,0.016016876325011253
1782986967598592300,10.08459228515625,-0.147551029920578,-0.05114291235804558,0.030209029093384743
1782986967608667400,10.09466748046875,-0.13732954859733582,-0.044458646327257156,0.05486377328634262
1782986967618741200,10.1047412109375,-0.11765460669994354,-0.048614852130413055,0.08074213564395905
1782986967628815400,10.1148154296875,-0.104133740067482,-0.06494375318288803,0.10923609882593155
1782986967638890200,10.12489013671875,-0.08954033255577087,-0.08463025838136673,0.13181956112384796
1782986967648964400,10.13496435546875,-0.07690124213695526,-0.09831704199314117,0.13575278222560883
1782986967659039200,10.145039306640625,-0.05862823873758316,-0.11762265861034393,0.12529286742210388
1782986967669113300,10.15511328125,-0.03805398941040039,-0.12486086040735245,0.11005771905183792
1782986967679188500,10.1651884765625,-0.01713491603732109,-0.0949617549777031,0.09126250445842743
1782986967689262300,10.175262451171875,0.0005825627595186234,-0.06284695863723755,0.062235113233327866
1782986967699337500,10.18533740234375,0.009063195437192917,-0.03098292462527752,0.029883431270718575
1782986967709411300,10.195411376953125,0.021021053194999695,0.003998494707047939,0.010513728484511375
1782986967719486500,10.205486572265626,0.02368217706680298,0.02329898625612259,-0.005333117209374905
1782986967729560300,10.215560302734374,0.016685787588357925,0.025680119171738625,-0.0067009166814386845
1782986967739634200,10.22563427734375,0.011722104623913765,0.03984260559082031,0.010074656456708908
1782986967749709300,10.235709228515624,0.010213956236839294,0.04126819595694542,0.032673176378011703
1782986967759783200,10.245783203125,0.004605058580636978,0.028714844956994057,0.051893219351768494
1782986967769858300,10.2558583984375,0.0037842721212655306,0.026294033974409103,0.07186879217624664
1782986967779932200,10.26593212890625,0.0038005271926522255,0.02380060777068138,0.08756021410226822
1782986967790007300,10.27600732421875,0.0008324342779815197,0.00827251560986042,0.09353368729352951
1782986967800081200,10.2860810546875,0.0029104072600603104,-0.012380596250295639,0.09687619656324387
1782986967810156300,10.29615625,0.009320635348558426,-0.019408944994211197,0.09332434087991714
1782986967820230400,10.30623046875,0.012398174032568932,0.00018090871162712574,0.09133833646774292
1782986967830304500,10.316304443359375,0.014704471454024315,0.018347129225730896,0.089089035987854
1782986967840379400,10.32637939453125,0.016514163464307785,0.029334023594856262,0.08536623418331146
1782986967850453500,10.33645361328125,0.02364211529493332,0.03222887963056564,0.0834713950753212
1782986967860528400,10.3465283203125,0.02619408816099167,0.024760711938142776,0.08008021861314774
1782986967870602500,10.3566025390625,0.03864835947751999,0.007124193012714386,0.07439117133617401
1782986967880677400,10.366677490234375,0.04609154537320137,0.001264055259525776,0.06996674090623856
1782986967890751500,10.37675146484375,0.04126536473631859,-0.006484411656856537,0.059976693242788315
1782986967900826400,10.386826416015625,0.0454954169690609,-0.005360237322747707,0.05397826060652733
1782986967910900500,10.396900390625,0.05069630593061447,0.018140293657779694,0.0441911444067955
1782986967920975400,10.406975341796874,0.05411437526345253,0.03893724083900452,0.02822156623005867
1782986967931049500,10.417049560546875,0.0629318356513977,0.05280325561761856,0.013123839162290096
1782986967941123600,10.42712353515625,0.08274948596954346,0.06304541975259781,-0.0045852093026041985
1782986967951198500,10.437198486328125,0.10657385736703873,0.06094178557395935,-0.00022135367908049375
1782986967961272600,10.4472724609375,0.13011957705020905,0.053128138184547424,0.009176197461783886
1782986967971347500,10.457347412109375,0.11368308961391449,0.0590725801885128,0.13888439536094666
1782986967981421600,10.467421630859375,0.01896330527961254,-0.08574787527322769,0.28762632608413696
1782986967991496400,10.477496337890624,-0.01974334381520748,-0.30804431438446045,0.3555918037891388
1782986968001570600,10.487570556640625,0.02869025617837906,-0.3820187449455261,0.32183876633644104
1782986968011645400,10.4976455078125,0.041598331183195114,-0.2620398998260498,0.21487346291542053
1782986968021719600,10.507719482421875,-0.017364678904414177,-0.09802249819040298,0.060094770044088364
1782986968031793400,10.51779345703125,-0.09356996417045593,-0.004958601668477058,-0.1109510064125061
1782986968041868500,10.52786865234375,-0.17480017244815826,0.054889701306819916,-0.22869853675365448
1782986968051942400,10.5379423828125,-0.28062382340431213,0.06345150619745255,-0.22548703849315643
1782986968062017500,10.548017578125,-0.3372860550880432,0.029861314222216606,-0.10661976039409637
1782986968072091400,10.55809130859375,-0.33106091618537903,-0.04200621694326401,0.08473874628543854
