time,seconds_elapsed,z,y,x
1782986328639389700,0.0593896484375,-0.896148681640625,-0.4453887939453125,0.053131103515625
1782986328649463600,0.069463623046875,-0.8717498779296875,-0.45013427734375,0.05279541015625
1782986328659538700,0.07953857421875,-0.8606414794921875,-0.4632110595703125,0.050537109375
1782986328669612800,0.08961279296875,-0.8590240478515625,-0.4720001220703125,0.04547119140625
1782986328679687000,0.09968701171875,-0.85906982421875,-0.476806640625,0.0459747314453125
1782986328689761800,0.10976171875,-0.8585052490234375,-0.47869873046875,0.0452880859375
1782986328699836000,0.1198359375,-0.8646697998046875,-0.4747772216796875,0.04241943359375
1782986328709909800,0.12990966796875,-0.87335205078125,-0.47540283203125,0.042510986328125
1782986328719983600,0.139983642578125,-0.87738037109375,-0.4774932861328125,0.04254150390625
1782986328730058500,0.15005859375,-0.8827972412109375,-0.474853515625,0.0520172119140625
1782986328740132600,0.160132568359375,-0.88885498046875,-0.4741973876953125,0.0608673095703125
1782986328750206500,0.17020654296875,-0.8957366943359375,-0.467315673828125,0.0687713623046875
1782986328760281600,0.180281494140625,-0.8931427001953125,-0.4579620361328125,0.0775146484375
1782986328770355500,0.19035546875,-0.88458251953125,-0.4574737548828125,0.0779266357421875
1782986328780429600,0.2004296875,-0.8860321044921875,-0.4664764404296875,0.072845458984375
1782986328790504400,0.21050439453125,-0.8837432861328125,-0.470001220703125,0.068939208984375
1782986328800578600,0.22057861328125,-0.8733367919921875,-0.4676513671875,0.0674896240234375
1782986328810652400,0.23065234375,-0.8650054931640625,-0.4740447998046875,0.0726776123046875
1782986328820726500,0.2407265625,-0.8598175048828125,-0.47552490234375,0.0730438232421875
1782986328830801400,0.250801513671875,-0.8579864501953125,-0.4742431640625,0.06988525390625
1782986328840875500,0.26087548828125,-0.8488311767578125,-0.4768218994140625,0.06671142578125
1782986328850949600,0.27094970703125,-0.8474884033203125,-0.483306884765625,0.0669403076171875
1782986328861024500,0.2810244140625,-0.8484344482421875,-0.4845733642578125,0.07659912109375
1782986328871098600,0.2910986328125,-0.847869873046875,-0.479827880859375,0.0853118896484375
1782986328881172500,0.30117236328125,-0.85137939453125,-0.4766998291015625,0.080413818359375
1782986328891246600,0.31124658203125,-0.8621673583984375,-0.4759521484375,0.05938720703125
1782986328901321500,0.321321533203125,-0.8721160888671875,-0.4772796630859375,0.0458221435546875
1782986328911395600,0.3313955078125,-0.881317138671875,-0.4818267822265625,0.04339599609375
1782986328921469400,0.341469482421875,-0.8779144287109375,-0.480377197265625,0.0437774658203125
1782986328931544600,0.351544677734375,-0.8712158203125,-0.48193359375,0.0458526611328125
1782986328941618400,0.361618408203125,-0.86907958984375,-0.484832763671875,0.048583984375
1782986328951692500,0.371692626953125,-0.8654022216796875,-0.4843902587890625,0.0474090576171875
1782986328961767400,0.381767333984375,-0.859130859375,-0.48687744140625,0.044342041015625
1782986328971841500,0.391841552734375,-0.864227294921875,-0.48779296875,0.0452117919921875
1782986328981915400,0.401915283203125,-0.874053955078125,-0.489227294921875,0.0482177734375
1782986328991989500,0.411989501953125,-0.8820648193359375,-0.4915618896484375,0.0517120361328125
1782986329002064400,0.422064453125,-0.8817901611328125,-0.4926605224609375,0.0559539794921875
1782986329012138500,0.432138427734375,-0.8748321533203125,-0.4970855712890625,0.0531005859375
1782986329022212600,0.442212646484375,-0.8712310791015625,-0.50311279296875,0.048309326171875
1782986329032287500,0.45228759765625,-0.869598388671875,-0.50689697265625,0.0467529296875
1782986329042361600,0.462361572265625,-0.8685760498046875,-0.5046844482421875,0.0471038818359375
1782986329052435700,0.472435791015625,-0.8596954345703125,-0.5006256103515625,0.0632171630859375
1782986329062510600,0.482510498046875,-0.8547210693359375,-0.4970245361328125,0.0814056396484375
1782986329072584700,0.492584716796875,-0.85528564453125,-0.4947662353515625,0.0871734619140625
1782986329082658600,0.502658447265625,-0.8549957275390625,-0.4947357177734375,0.089263916015625
1782986329092732400,0.512732421875,-0.8495635986328125,-0.49542236328125,0.087554931640625
1782986329102807600,0.5228076171875,-0.846923828125,-0.4973297119140625,0.0831451416015625
1782986329112881400,0.53288134765625,-0.8497772216796875,-0.50054931640625,0.0814361572265625
1782986329122955500,0.54295556640625,-0.8539581298828125,-0.5029449462890625,0.0770263671875
1782986329133030400,0.553030517578125,-0.850311279296875,-0.5056610107421875,0.0735321044921875
1782986329143104500,0.5631044921875,-0.846771240234375,-0.4998626708984375,0.0795440673828125
1782986329153178400,0.573178466796875,-0.8453369140625,-0.497802734375,0.0828094482421875
1782986329163253500,0.58325341796875,-0.8523712158203125,-0.500518798828125,0.0802764892578125
1782986329173327400,0.593327392578125,-0.8599395751953125,-0.501251220703125,0.0783233642578125
1782986329183401500,0.6034013671875,-0.8689117431640625,-0.5012054443359375,0.0748443603515625
1782986329193475600,0.6134755859375,-0.8722076416015625,-0.4991912841796875,0.073974609375
1782986329203550500,0.623550537109375,-0.8670196533203125,-0.4969329833984375,0.073577880859375
1782986329213624600,0.63362451171875,-0.861480712890625,-0.498809814453125,0.074554443359375
1782986329223698700,0.64369873046875,-0.85888671875,-0.497894287109375,0.0765380859375
1782986329233773600,0.653773681640625,-0.8585662841796875,-0.4987030029296875,0.07891845703125
1782986329243847700,0.66384765625,-0.8629150390625,-0.5004730224609375,0.076324462890625
1782986329253921500,0.673921630859375,-0.8639068603515625,-0.49560546875,0.07525634765625
1782986329263996700,0.68399658203125,-0.864593505859375,-0.49761962890625,0.0706634521484375
1782986329274070500,0.694070556640625,-0.86669921875,-0.499481201171875,0.06646728515625
1782986329284144600,0.70414453125,-0.8636016845703125,-0.49609375,0.062713623046875
1782986329294218500,0.714218505859375,-0.856536865234375,-0.49853515625,0.0600738525390625
1782986329304293600,0.724293701171875,-0.8516998291015625,-0.50152587890625,0.0614776611328125
1782986329314367500,0.734367431640625,-0.8508758544921875,-0.50115966796875,0.0718231201171875
1782986329324441300,0.74444140625,-0.839630126953125,-0.4835205078125,0.0811309814453125
1782986329334516500,0.7545166015625,-0.84893798828125,-0.486541748046875,0.069305419921875
1782986329344590300,0.76459033203125,-0.8637542724609375,-0.4948883056640625,0.06988525390625
1782986329354664400,0.77466455078125,-0.87255859375,-0.4920654296875,0.074859619140625
1782986329364739300,0.7847392578125,-0.8759918212890625,-0.4887542724609375,0.070343017578125
1782986329374813400,0.7948134765625,-0.8728179931640625,-0.4896087646484375,0.0648651123046875
1782986329384887600,0.804887451171875,-0.86834716796875,-0.4912872314453125,0.0619964599609375
1782986329394961700,0.814961669921875,-0.872314453125,-0.4907073974609375,0.06158447265625
1782986329405036500,0.82503662109375,-0.869903564453125,-0.487457275390625,0.0642242431640625
1782986329415110700,0.835110595703125,-0.8630218505859375,-0.4873046875,0.0686187744140625
1782986329425184500,0.8451845703125,-0.8548583984375,-0.4886627197265625,0.0693359375
1782986329435259600,0.855259765625,-0.8453826904296875,-0.4867095947265625,0.069671630859375
1782986329445333500,0.86533349609375,-0.8370513916015625,-0.4884796142578125,0.070404052734375
1782986329455407600,0.87540771484375,-0.83856201171875,-0.49078369140625,0.072418212890625
1782986329465482500,0.885482421875,-0.8471527099609375,-0.4894866943359375,0.0722808837890625
1782986329475556600,0.895556640625,-0.85980224609375,-0.48931884765625,0.063262939453125
1782986329485630500,0.90563037109375,-0.8605499267578125,-0.491455078125,0.0590972900390625
1782986329495704300,0.915704345703125,-0.8567047119140625,-0.490631103515625,0.061676025390625
1782986329505779500,0.925779541015625,-0.8546295166015625,-0.491180419921875,0.0667266845703125
1782986329515853300,0.935853271484375,-0.8549041748046875,-0.4906768798828125,0.0662841796875
1782986329525927400,0.945927490234375,-0.8539886474609375,-0.493377685546875,0.0607147216796875
1782986329536002600,0.95600244140625,-0.8557586669921875,-0.495025634765625,0.060577392578125
1782986329546076400,0.966076416015625,-0.85675048828125,-0.4954376220703125,0.060791015625
1782986329556150500,0.976150634765625,-0.8565521240234375,-0.493255615234375,0.05902099609375
1782986329566225400,0.986225341796875,-0.858184814453125,-0.4918060302734375,0.05743408203125
1782986329576299500,0.996299560546875,-0.86077880859375,-0.493896484375,0.056243896484375
1782986329586373600,1.00637353515625,-0.8622589111328125,-0.4954833984375,0.0538482666015625
1782986329596447500,1.016447509765625,-0.85870361328125,-0.4931640625,0.0579833984375
1782986329606522600,1.026522705078125,-0.85595703125,-0.49029541015625,0.0630340576171875
1782986329616596500,1.036596435546875,-0.8573455810546875,-0.4913177490234375,0.0685882568359375
1782986329626670600,1.046670654296875,-0.85858154296875,-0.486541748046875,0.0690460205078125
1782986329636745500,1.056745361328125,-0.8611602783203125,-0.4847869873046875,0.06964111328125
1782986329646819600,1.066819580078125,-0.8681793212890625,-0.486114501953125,0.06109619140625
1782986329656893400,1.0768935546875,-0.87060546875,-0.4883270263671875,0.0545806884765625
1782986329666968600,1.086968505859375,-0.869964599609375,-0.4853973388671875,0.0484466552734375
1782986329677042400,1.09704248046875,-0.864715576171875,-0.484527587890625,0.041259765625
1782986329687116500,1.107116455078125,-0.8634033203125,-0.4908905029296875,0.038299560546875
1782986329697190400,1.1171904296875,-0.8624114990234375,-0.48858642578125,0.035858154296875
1782986329707265500,1.127265625,-0.856719970703125,-0.488494873046875,0.035675048828125
1782986329717340200,1.137340087890625,-0.8554840087890625,-0.4927520751953125,0.0345306396484375
1782986329727414300,1.147414306640625,-0.8541107177734375,-0.491668701171875,0.0330810546875
1782986329737489200,1.1574892578125,-0.852203369140625,-0.49310302734375,0.036834716796875
1782986329747563300,1.167563232421875,-0.84857177734375,-0.4929962158203125,0.0379486083984375
1782986329757637400,1.177637451171875,-0.84503173828125,-0.491790771484375,0.034271240234375
1782986329767712300,1.187712158203125,-0.846282958984375,-0.4863433837890625,0.0372314453125
1782986329777786400,1.197786376953125,-0.8576507568359375,-0.48760986328125,0.0399932861328125
1782986329787860200,1.207860107421875,-0.86798095703125,-0.489654541015625,0.0483551025390625
1782986329797934300,1.217934326171875,-0.8734130859375,-0.488006591796875,0.0583953857421875
1782986329808009500,1.228009521484375,-0.8777008056640625,-0.4810333251953125,0.063568115234375
1782986329818083300,1.238083251953125,-0.8802032470703125,-0.481414794921875,0.0653076171875
1782986329828157200,1.2481572265625,-0.8799591064453125,-0.482025146484375,0.061309814453125
1782986329838232300,1.258232421875,-0.8687591552734375,-0.4841766357421875,0.058380126953125
1782986329848306200,1.26830615234375,-0.8502960205078125,-0.4900360107421875,0.0620574951171875
1782986329858380300,1.27838037109375,-0.847503662109375,-0.4908294677734375,0.0636138916015625
1782986329868454100,1.2884541015625,-0.865386962890625,-0.4946441650390625,0.068145751953125
1782986329878529300,1.298529296875,-0.8716583251953125,-0.5000457763671875,0.0845947265625
1782986329888603100,1.30860302734375,-0.8825225830078125,-0.499786376953125,0.10870361328125
1782986329898677200,1.31867724609375,-0.8945465087890625,-0.5018310546875,0.126617431640625
1782986329908752100,1.328752197265625,-0.9065093994140625,-0.5057830810546875,0.13409423828125
1782986329918826200,1.338826171875,-0.903289794921875,-0.510650634765625,0.1286163330078125
1782986329928900400,1.348900390625,-0.8920440673828125,-0.5164642333984375,0.125457763671875
1782986329938975200,1.358975341796875,-0.876007080078125,-0.5223541259765625,0.1207275390625
1782986329949049300,1.36904931640625,-0.8586883544921875,-0.5216217041015625,0.117218017578125
1782986329959123500,1.37912353515625,-0.842681884765625,-0.5187225341796875,0.1104278564453125
1782986329969197300,1.389197265625,-0.833526611328125,-0.5187530517578125,0.1094207763671875
1782986329979272400,1.3992724609375,-0.8238372802734375,-0.52197265625,0.1073455810546875
1782986329989346300,1.40934619140625,-0.8219146728515625,-0.5242462158203125,0.1047821044921875
1782986329999420200,1.419420166015625,-0.8223114013671875,-0.5262603759765625,0.1012420654296875
1782986330009495300,1.429495361328125,-0.822021484375,-0.5240325927734375,0.1046142578125
1782986330019569200,1.439569091796875,-0.821197509765625,-0.52215576171875,0.1065673828125
1782986330029643300,1.449643310546875,-0.82647705078125,-0.52001953125,0.102935791015625
1782986330039718400,1.459718505859375,-0.838836669921875,-0.5188446044921875,0.0970916748046875
1782986330049792300,1.469792236328125,-0.844329833984375,-0.51947021484375,0.097137451171875
1782986330059866000,1.4798662109375,-0.841949462890625,-0.5228424072265625,0.100250244140625
1782986330069940200,1.489940185546875,-0.8394317626953125,-0.523712158203125,0.1006927490234375
1782986330080015000,1.50001513671875,-0.831512451171875,-0.524688720703125,0.0914154052734375
1782986330090089200,1.510089111328125,-0.836395263671875,-0.5220947265625,0.088348388671875
1782986330100163300,1.520163330078125,-0.84747314453125,-0.518768310546875,0.0859222412109375
1782986330110238200,1.53023828125,-0.8520050048828125,-0.519866943359375,0.0873260498046875
1782986330120312300,1.540312255859375,-0.8535614013671875,-0.519073486328125,0.0888214111328125
1782986330130386400,1.550386474609375,-0.8522491455078125,-0.5172576904296875,0.08966064453125
1782986330140460300,1.560460205078125,-0.8516082763671875,-0.5172882080078125,0.089996337890625
1782986330150535400,1.570535400390625,-0.8533172607421875,-0.5161895751953125,0.08917236328125
1782986330160609300,1.580609375,-0.8538055419921875,-0.5168609619140625,0.0868682861328125
1782986330170683400,1.590683349609375,-0.8477630615234375,-0.517730712890625,0.08697509765625
1782986330180758300,1.60075830078125,-0.83758544921875,-0.52239990234375,0.0843963623046875
1782986330190832400,1.610832275390625,-0.8358154296875,-0.5286407470703125,0.0880279541015625
1782986330200906200,1.62090625,-0.8315582275390625,-0.52685546875,0.09100341796875
1782986330210981400,1.6309814453125,-0.8271484375,-0.5305023193359375,0.0888519287109375
1782986330221055200,1.64105517578125,-0.82135009765625,-0.52996826171875,0.086334228515625
1782986330231129000,1.651129150390625,-0.8169097900390625,-0.5306549072265625,0.081512451171875
1782986330241203200,1.661203125,-0.8156280517578125,-0.5342864990234375,0.0823974609375
1782986330251278000,1.671278076171875,-0.8145294189453125,-0.53619384765625,0.0836639404296875
1782986330261352200,1.681352294921875,-0.8172149658203125,-0.5372314453125,0.081146240234375
1782986330271426300,1.69142626953125,-0.83184814453125,-0.5360260009765625,0.078582763671875
1782986330281501200,1.701501220703125,-0.8426513671875,-0.535552978515625,0.0792999267578125
1782986330291575300,1.7115751953125,-0.8507080078125,-0.53662109375,0.0799713134765625
1782986330301649400,1.7216494140625,-0.852630615234375,-0.538726806640625,0.085968017578125
1782986330311724300,1.731724365234375,-0.8470611572265625,-0.5371856689453125,0.09259033203125
1782986330321798400,1.74179833984375,-0.8416595458984375,-0.5376739501953125,0.09356689453125
1782986330331872300,1.751872314453125,-0.830841064453125,-0.5361328125,0.0956268310546875
1782986330341946400,1.7619462890625,-0.8253936767578125,-0.5382080078125,0.0929412841796875
1782986330352021200,1.772021240234375,-0.8171539306640625,-0.5360107421875,0.08953857421875
1782986330362095400,1.782095458984375,-0.8123321533203125,-0.536163330078125,0.08270263671875
1782986330372169200,1.792169189453125,-0.816986083984375,-0.5363311767578125,0.07781982421875
1782986330382244400,1.802244384765625,-0.8248443603515625,-0.5352783203125,0.0706329345703125
1782986330392318200,1.812318115234375,-0.8326416015625,-0.5424957275390625,0.0580596923828125
1782986330402392300,1.822392333984375,-0.8366546630859375,-0.5435943603515625,0.0540008544921875
1782986330412466200,1.832466064453125,-0.8351898193359375,-0.545654296875,0.056549072265625
1782986330422541300,1.842541259765625,-0.8375244140625,-0.547027587890625,0.0605926513671875
1782986330432615200,1.852615234375,-0.8413543701171875,-0.54547119140625,0.0616302490234375
1782986330442689300,1.862689208984375,-0.84136962890625,-0.5459747314453125,0.0643768310546875
1782986330452764200,1.87276416015625,-0.8433074951171875,-0.5455322265625,0.0667572021484375
1782986330462838300,1.88283837890625,-0.8491668701171875,-0.54620361328125,0.0665283203125
1782986330472912400,1.892912353515625,-0.85040283203125,-0.5468902587890625,0.0688018798828125
1782986330482987300,1.9029873046875,-0.84478759765625,-0.54376220703125,0.069122314453125
1782986330493061400,1.913061279296875,-0.8389892578125,-0.5460205078125,0.0735626220703125
1782986330503135200,1.92313525390625,-0.8356781005859375,-0.5487518310546875,0.0799102783203125
1782986330513209300,1.933209228515625,-0.8318634033203125,-0.548248291015625,0.083160400390625
1782986330523284200,1.9432841796875,-0.8257293701171875,-0.548828125,0.0806427001953125
1782986330533358300,1.9533583984375,-0.82427978515625,-0.5489501953125,0.0743865966796875
1782986330543432200,1.96343212890625,-0.82611083984375,-0.5476837158203125,0.0669097900390625
1782986330553507300,1.97350732421875,-0.8274688720703125,-0.5476531982421875,0.07061767578125
1782986330563581200,1.983581298828125,-0.8264923095703125,-0.5489501953125,0.077667236328125
1782986330573655300,1.9936552734375,-0.821258544921875,-0.549224853515625,0.083587646484375
1782986330583729200,2.003729248046875,-0.811920166015625,-0.54949951171875,0.085784912109375
1782986330593804300,2.01380419921875,-0.8083953857421875,-0.551239013671875,0.08270263671875
1782986330603878100,2.023878173828125,-0.809783935546875,-0.551788330078125,0.0766448974609375
1782986330613952300,2.0339521484375,-0.8163604736328125,-0.552947998046875,0.0731964111328125
1782986330624027100,2.044027099609375,-0.81689453125,-0.5540313720703125,0.0702667236328125
1782986330634101200,2.054101318359375,-0.8160858154296875,-0.5544281005859375,0.0688018798828125
1782986330644175400,2.06417529296875,-0.8199615478515625,-0.5563812255859375,0.075408935546875
1782986330654250500,2.07425048828125,-0.825653076171875,-0.5556488037109375,0.0783538818359375
1782986330664324400,2.084324462890625,-0.825958251953125,-0.5545196533203125,0.08209228515625
1782986330674398200,2.094398193359375,-0.8293609619140625,-0.553619384765625,0.083831787109375
1782986330684472300,2.104472412109375,-0.8345184326171875,-0.5530548095703125,0.0804443359375
1782986330694547200,2.114547119140625,-0.8288116455078125,-0.5547637939453125,0.07696533203125
1782986330704621300,2.124621337890625,-0.8190460205078125,-0.5572357177734375,0.079986572265625
1782986330714694700,2.134694580078125,-0.8162384033203125,-0.5590362548828125,0.0804901123046875
1782986330724769800,2.144769775390625,-0.809295654296875,-0.558074951171875,0.0762786865234375
1782986330734843600,2.15484375,-0.802337646484375,-0.5593109130859375,0.0739593505859375
1782986330744917800,2.164917724609375,-0.799285888671875,-0.55706787109375,0.075042724609375
1782986330754992600,2.17499267578125,-0.805084228515625,-0.5565948486328125,0.0745086669921875
1782986330765066800,2.185066650390625,-0.819793701171875,-0.5572509765625,0.0711822509765625
1782986330775140900,2.195140869140625,-0.835784912109375,-0.5548858642578125,0.065826416015625
1782986330785214700,2.205214599609375,-0.839630126953125,-0.554046630859375,0.0644378662109375
1782986330795289900,2.215289794921875,-0.833892822265625,-0.5546112060546875,0.0674285888671875
1782986330805363700,2.22536376953125,-0.8350830078125,-0.5575714111328125,0.0705413818359375
1782986330815437800,2.235437744140625,-0.8362274169921875,-0.559051513671875,0.0717010498046875
1782986330825513000,2.245512939453125,-0.8313751220703125,-0.5572662353515625,0.0709381103515625
1782986330835586800,2.2555869140625,-0.827301025390625,-0.5571746826171875,0.070709228515625
1782986330845660700,2.26566064453125,-0.81585693359375,-0.559356689453125,0.074005126953125
1782986330855734800,2.27573486328125,-0.8115692138671875,-0.56072998046875,0.0738983154296875
1782986330865809700,2.2858095703125,-0.8158111572265625,-0.55975341796875,0.0725555419921875
1782986330875883800,2.2958837890625,-0.8202667236328125,-0.557037353515625,0.0722808837890625
1782986330885957600,2.30595751953125,-0.8212432861328125,-0.5563507080078125,0.0741424560546875
1782986330896032800,2.31603271484375,-0.821746826171875,-0.559539794921875,0.0747222900390625
1782986330906106600,2.326106689453125,-0.8178253173828125,-0.5588226318359375,0.0750885009765625
1782986330916180700,2.3361806640625,-0.8090972900390625,-0.5586090087890625,0.0797271728515625
1782986330926254800,2.3462548828125,-0.8082275390625,-0.5583953857421875,0.08294677734375
1782986330936329700,2.356329833984375,-0.804595947265625,-0.5597076416015625,0.0810394287109375
1782986330946403800,2.36640380859375,-0.802337646484375,-0.563201904296875,0.0777435302734375
1782986330956478000,2.37647802734375,-0.804931640625,-0.5645599365234375,0.076873779296875
1782986330966552800,2.386552734375,-0.8064117431640625,-0.5617523193359375,0.0758819580078125
1782986330976627000,2.396626953125,-0.8114776611328125,-0.5604095458984375,0.0736236572265625
1782986330986700800,2.40670068359375,-0.8122711181640625,-0.561737060546875,0.0729522705078125
1782986330996776000,2.41677587890625,-0.8156280517578125,-0.563812255859375,0.07427978515625
1782986331006849800,2.426849853515625,-0.821685791015625,-0.5646514892578125,0.07427978515625
1782986331016923600,2.436923583984375,-0.825714111328125,-0.5659027099609375,0.07147216796875
1782986331026997800,2.446997802734375,-0.82623291015625,-0.5641326904296875,0.0744476318359375
1782986331037072600,2.45707275390625,-0.822357177734375,-0.5622711181640625,0.0766448974609375
1782986331047146800,2.467146728515625,-0.8228912353515625,-0.56317138671875,0.080780029296875
1782986331057220600,2.477220703125,-0.8218841552734375,-0.5640411376953125,0.08319091796875
1782986331067295700,2.487295654296875,-0.821136474609375,-0.564056396484375,0.090179443359375
1782986331077369600,2.49736962890625,-0.817626953125,-0.5626220703125,0.09820556640625
1782986331087443700,2.507443603515625,-0.8091888427734375,-0.561859130859375,0.10028076171875
1782986331097518600,2.5175185546875,-0.800018310546875,-0.56219482421875,0.0965576171875
1782986331107592700,2.5275927734375,-0.7932891845703125,-0.5610504150390625,0.08612060546875
1782986331117666800,2.537666748046875,-0.7874603271484375,-0.5598602294921875,0.077484130859375
1782986331127741000,2.547740966796875,-0.79302978515625,-0.563629150390625,0.07159423828125
1782986331137815800,2.55781591796875,-0.803558349609375,-0.5670623779296875,0.0689239501953125
1782986331147890000,2.567889892578125,-0.8109283447265625,-0.5649871826171875,0.0645599365234375
1782986331157963800,2.5779638671875,-0.8154449462890625,-0.5639190673828125,0.066864013671875
1782986331168039000,2.588038818359375,-0.822967529296875,-0.5659637451171875,0.0730133056640625
1782986331178112800,2.59811279296875,-0.8303375244140625,-0.5689239501953125,0.074951171875
1782986331188187000,2.608186767578125,-0.8315887451171875,-0.568756103515625,0.0760345458984375
1782986331198260700,2.6182607421875,-0.82904052734375,-0.56878662109375,0.0778656005859375
1782986331208336000,2.6283359375,-0.8250274658203125,-0.5704193115234375,0.07757568359375
1782986331218409700,2.63840966796875,-0.8231201171875,-0.569976806640625,0.07940673828125
1782986331228483600,2.648483642578125,-0.8190460205078125,-0.5701446533203125,0.0825958251953125
1782986331238558700,2.658558837890625,-0.8131866455078125,-0.571197509765625,0.084747314453125
1782986331248632600,2.668632568359375,-0.81134033203125,-0.5719146728515625,0.08343505859375
1782986331258706700,2.678706787109375,-0.812774658203125,-0.5704345703125,0.0834503173828125
1782986331268781600,2.688781494140625,-0.8096160888671875,-0.5671234130859375,0.0825347900390625
1782986331278855700,2.698855712890625,-0.8050537109375,-0.5655364990234375,0.0796051025390625
1782986331288929800,2.7089296875,-0.8090057373046875,-0.5644378662109375,0.077056884765625
1782986331299004000,2.71900390625,-0.8129730224609375,-0.5643768310546875,0.078521728515625
1782986331309078800,2.729078857421875,-0.8140716552734375,-0.564422607421875,0.0821685791015625
1782986331319153000,2.73915283203125,-0.8089447021484375,-0.56597900390625,0.090240478515625
1782986331329226800,2.749226806640625,-0.8033294677734375,-0.5692596435546875,0.0941619873046875
1782986331339302000,2.759302001953125,-0.8044281005859375,-0.5731201171875,0.0938720703125
1782986331349375700,2.769375732421875,-0.808807373046875,-0.57330322265625,0.091217041015625
1782986331359449900,2.779449951171875,-0.812408447265625,-0.5733184814453125,0.08416748046875
1782986331369523700,2.789523681640625,-0.8111724853515625,-0.5729522705078125,0.08306884765625
1782986331379598800,2.799598876953125,-0.810455322265625,-0.572723388671875,0.0848541259765625
1782986331389672700,2.809672607421875,-0.8142852783203125,-0.5716552734375,0.086517333984375
1782986331399746600,2.81974658203125,-0.8143463134765625,-0.57269287109375,0.0898895263671875
1782986331409821700,2.82982177734375,-0.8156280517578125,-0.5733642578125,0.09259033203125
1782986331419895800,2.839895751953125,-0.8158721923828125,-0.5737457275390625,0.086395263671875
1782986331429969700,2.8499697265625,-0.8145294189453125,-0.5733184814453125,0.085174560546875
1782986331440044800,2.860044921875,-0.81280517578125,-0.5737152099609375,0.0876922607421875
1782986331450118700,2.87011865234375,-0.809539794921875,-0.57452392578125,0.086700439453125
1782986331460192800,2.88019287109375,-0.807037353515625,-0.5741729736328125,0.0853729248046875
1782986331470267000,2.890266845703125,-0.798492431640625,-0.5733642578125,0.086273193359375
1782986331480341800,2.900341796875,-0.8018035888671875,-0.5727081298828125,0.0870361328125
1782986331490415900,2.910415771484375,-0.8118438720703125,-0.5729827880859375,0.0838775634765625
1782986331500489700,2.92048974609375,-0.8107452392578125,-0.571075439453125,0.0847625732421875
1782986331510564900,2.93056494140625,-0.8101654052734375,-0.5667877197265625,0.0859222412109375
1782986331520638700,2.940638671875,-0.815399169921875,-0.5678253173828125,0.08612060546875
1782986331530712800,2.950712890625,-0.82257080078125,-0.569915771484375,0.0843963623046875
1782986331540786700,2.96078662109375,-0.8230133056640625,-0.5699005126953125,0.0831451416015625
1782986331550861800,2.97086181640625,-0.817901611328125,-0.5704193115234375,0.0832672119140625
1782986331560935700,2.980935791015625,-0.8119659423828125,-0.570526123046875,0.081634521484375
1782986331571009800,2.991009765625,-0.8060150146484375,-0.5710296630859375,0.0811004638671875
1782986331581084700,3.001084716796875,-0.798614501953125,-0.571990966796875,0.0805206298828125
1782986331591158800,3.01115869140625,-0.796661376953125,-0.570709228515625,0.081085205078125
1782986331601232600,3.021232666015625,-0.7953033447265625,-0.571044921875,0.0814666748046875
1782986331611307800,3.031307861328125,-0.79376220703125,-0.5701141357421875,0.0813140869140625
1782986331621381600,3.041381591796875,-0.7967681884765625,-0.5688323974609375,0.082275390625
1782986331631455700,3.051455810546875,-0.80291748046875,-0.5670928955078125,0.082733154296875
1782986331641529900,3.06152978515625,-0.80755615234375,-0.56689453125,0.0809326171875
1782986331651604700,3.071604736328125,-0.8126373291015625,-0.56805419921875,0.084564208984375
1782986331661678800,3.081678955078125,-0.8145751953125,-0.569000244140625,0.0877838134765625
1782986331671752700,3.091752685546875,-0.81695556640625,-0.56903076171875,0.09375
1782986331681827800,3.101827880859375,-0.816802978515625,-0.5696563720703125,0.0934906005859375
1782986331691901700,3.111901611328125,-0.817657470703125,-0.5712432861328125,0.0892333984375
1782986331701975800,3.121975830078125,-0.8133087158203125,-0.5738067626953125,0.0835418701171875
1782986331712049700,3.132049560546875,-0.809326171875,-0.57440185546875,0.0835723876953125
1782986331722125300,3.142125244140625,-0.8050079345703125,-0.5756988525390625,0.085845947265625
1782986331732199200,3.15219921875,-0.8015289306640625,-0.5768280029296875,0.0845947265625
1782986331742273300,3.162273193359375,-0.7984619140625,-0.574432373046875,0.08660888671875
1782986331752348200,3.17234814453125,-0.804656982421875,-0.5741729736328125,0.0945587158203125
1782986331762422300,3.18242236328125,-0.8187255859375,-0.572662353515625,0.0918426513671875
1782986331772496100,3.19249609375,-0.831451416015625,-0.570068359375,0.0891571044921875
1782986331782570200,3.2025703125,-0.8353271484375,-0.5702972412109375,0.092254638671875
1782986331792645000,3.21264501953125,-0.827850341796875,-0.569061279296875,0.09490966796875
1782986331802719200,3.22271923828125,-0.8211517333984375,-0.569580078125,0.0970001220703125
1782986331812793300,3.23279345703125,-0.81170654296875,-0.5701751708984375,0.0943145751953125
1782986331822868200,3.2428681640625,-0.80511474609375,-0.569580078125,0.0892791748046875
1782986331832942300,3.2529423828125,-0.8031005859375,-0.57073974609375,0.0855712890625
1782986331843016400,3.263016357421875,-0.8004913330078125,-0.5708465576171875,0.0851287841796875
1782986331853091300,3.27309130859375,-0.7974700927734375,-0.5713653564453125,0.08447265625
1782986331863165400,3.28316552734375,-0.8010711669921875,-0.5700225830078125,0.08392333984375
1782986331873239300,3.2932392578125,-0.805023193359375,-0.5692596435546875,0.085601806640625
1782986331883313200,3.303313232421875,-0.80694580078125,-0.5702972412109375,0.0855255126953125
1782986331893388300,3.31338818359375,-0.80340576171875,-0.567779541015625,0.09100341796875
1782986331903462100,3.323462158203125,-0.8075714111328125,-0.56561279296875,0.09619140625
1782986331913536300,3.333536376953125,-0.8220977783203125,-0.564483642578125,0.093994140625
1782986331923611100,3.343611083984375,-0.832366943359375,-0.5637054443359375,0.0871429443359375
1782986331933685200,3.353685302734375,-0.83148193359375,-0.564300537109375,0.0846405029296875
1782986331943759000,3.363759033203125,-0.824554443359375,-0.566650390625,0.0877532958984375
1782986331953833200,3.373833251953125,-0.8140411376953125,-0.5677947998046875,0.0899505615234375
1782986331963908000,3.383908203125,-0.804107666015625,-0.5689697265625,0.0930023193359375
1782986331973982200,3.393982177734375,-0.7965087890625,-0.5704803466796875,0.089447021484375
1782986331984056300,3.404056396484375,-0.7961273193359375,-0.57275390625,0.09039306640625
1782986331994131200,3.414131103515625,-0.8064117431640625,-0.5726470947265625,0.08740234375
1782986332004205300,3.424205322265625,-0.814971923828125,-0.571929931640625,0.087310791015625
1782986332014279400,3.434279541015625,-0.8159332275390625,-0.5682830810546875,0.0821685791015625
1782986332024354300,3.444354248046875,-0.814666748046875,-0.5699310302734375,0.074615478515625
1782986332034428400,3.454428466796875,-0.8149261474609375,-0.5723419189453125,0.0709381103515625
1782986332044502300,3.464502197265625,-0.8130340576171875,-0.5755157470703125,0.070281982421875
1782986332054576000,3.474576171875,-0.806610107421875,-0.5792388916015625,0.0705413818359375
1782986332064651300,3.4846513671875,-0.810943603515625,-0.578125,0.0717010498046875
1782986332074725400,3.494725341796875,-0.8133544921875,-0.5766754150390625,0.06427001953125
1782986332084799200,3.50479931640625,-0.813018798828125,-0.57550048828125,0.0727386474609375
1782986332094874400,3.514874267578125,-0.813751220703125,-0.578033447265625,0.077056884765625
1782986332104948200,3.5249482421875,-0.811248779296875,-0.578338623046875,0.0849151611328125
1782986332115022000,3.53502197265625,-0.8103790283203125,-0.57989501953125,0.092742919921875
1782986332125096400,3.545096435546875,-0.8078155517578125,-0.581207275390625,0.1077423095703125
1782986332135171000,3.555171142578125,-0.8019561767578125,-0.5789794921875,0.1175689697265625
1782986332145245400,3.565245361328125,-0.7956390380859375,-0.5723114013671875,0.1212158203125
1782986332155319300,3.5753193359375,-0.7927398681640625,-0.5718994140625,0.112518310546875
1782986332165394400,3.58539453125,-0.79351806640625,-0.5688018798828125,0.106201171875
1782986332175468300,3.59546826171875,-0.8016510009765625,-0.568756103515625,0.09722900390625
1782986332185542400,3.60554248046875,-0.8108673095703125,-0.568511962890625,0.086181640625
1782986332195617300,3.6156171875,-0.814727783203125,-0.5712890625,0.08251953125
1782986332205691400,3.62569140625,-0.8162841796875,-0.576019287109375,0.08587646484375
1782986332215765200,3.63576513671875,-0.81622314453125,-0.576507568359375,0.0880584716796875
1782986332225839400,3.64583935546875,-0.8077392578125,-0.5792236328125,0.0943145751953125
1782986332235914200,3.655914306640625,-0.8030242919921875,-0.57843017578125,0.0934600830078125
1782986332245988400,3.66598828125,-0.8020782470703125,-0.57708740234375,0.086395263671875
1782986332256062200,3.676062255859375,-0.8037567138671875,-0.5772552490234375,0.084320068359375
1782986332266137300,3.686137451171875,-0.8075408935546875,-0.575714111328125,0.083282470703125
1782986332276211200,3.696211181640625,-0.812652587890625,-0.57354736328125,0.0843048095703125
1782986332286285000,3.70628515625,-0.8165740966796875,-0.570159912109375,0.0896148681640625
1782986332296359400,3.716359375,-0.8159332275390625,-0.566070556640625,0.09649658203125
1782986332306434000,3.72643408203125,-0.8142242431640625,-0.5705718994140625,0.1000213623046875
1782986332316508400,3.73650830078125,-0.8118438720703125,-0.5694122314453125,0.102020263671875
1782986332326582300,3.746582275390625,-0.81005859375,-0.5689239501953125,0.0989990234375
1782986332336657400,3.756657470703125,-0.8081512451171875,-0.5716552734375,0.0944671630859375
1782986332346731300,3.766731201171875,-0.804229736328125,-0.573272705078125,0.09112548828125
1782986332356805400,3.776805419921875,-0.8017730712890625,-0.5749359130859375,0.09490966796875
1782986332366879200,3.786879150390625,-0.7962493896484375,-0.5759429931640625,0.100128173828125
1782986332376954400,3.796954345703125,-0.7909698486328125,-0.5749053955078125,0.1030120849609375
1782986332387028200,3.8070283203125,-0.795379638671875,-0.5765380859375,0.1023712158203125
1782986332397102300,3.817102294921875,-0.8019256591796875,-0.5767822265625,0.098724365234375
1782986332407177200,3.82717724609375,-0.8039398193359375,-0.57354736328125,0.0978240966796875
1782986332417251300,3.837251220703125,-0.7989349365234375,-0.57757568359375,0.0904541015625
1782986332427325200,3.8473251953125,-0.7960968017578125,-0.5796356201171875,0.0902099609375
1782986332437400300,3.857400390625,-0.797210693359375,-0.580718994140625,0.09228515625
1782986332447474200,3.86747412109375,-0.79779052734375,-0.580352783203125,0.091583251953125
1782986332457548300,3.87754833984375,-0.805633544921875,-0.57861328125,0.0896453857421875
1782986332467622400,3.887622314453125,-0.810150146484375,-0.5794219970703125,0.0930023193359375
1782986332477697300,3.897697265625,-0.808929443359375,-0.5790863037109375,0.0926513671875
1782986332487771400,3.907771484375,-0.807769775390625,-0.579742431640625,0.0908050537109375
1782986332497845200,3.91784521484375,-0.80657958984375,-0.5821075439453125,0.09405517578125
1782986332507920400,3.92792041015625,-0.805999755859375,-0.584197998046875,0.0964508056640625
1782986332517994200,3.937994140625,-0.801055908203125,-0.5829620361328125,0.0939483642578125
1782986332528068400,3.948068359375,-0.799346923828125,-0.5814056396484375,0.0940399169921875
1782986332538142200,3.95814208984375,-0.7989501953125,-0.582061767578125,0.0978546142578125
1782986332548217300,3.96821728515625,-0.79888916015625,-0.5845794677734375,0.09478759765625
1782986332558291200,3.978291259765625,-0.7909698486328125,-0.580047607421875,0.08892822265625
1782986332568365300,3.988365234375,-0.7836151123046875,-0.5785064697265625,0.09210205078125
1782986332578439200,3.998439208984375,-0.7889404296875,-0.5858612060546875,0.096527099609375
1782986332588513300,4.00851318359375,-0.808502197265625,-0.588897705078125,0.101226806640625
1782986332598587400,4.01858740234375,-0.8274383544921875,-0.590179443359375,0.0980072021484375
1782986332608662300,4.028662353515625,-0.837310791015625,-0.5922698974609375,0.089874267578125
1782986332618736400,4.038736328125,-0.8409271240234375,-0.584930419921875,0.0900726318359375
1782986332628810200,4.048810302734375,-0.83734130859375,-0.579620361328125,0.093780517578125
1782986332638885400,4.058885498046875,-0.8254852294921875,-0.5704498291015625,0.0974273681640625
1782986332648959200,4.068959228515625,-0.8134765625,-0.5587310791015625,0.09136962890625
1782986332659033300,4.079033447265625,-0.8053436279296875,-0.5602874755859375,0.081146240234375
1782986332669107200,4.089107177734375,-0.8009796142578125,-0.5690460205078125,0.079132080078125
1782986332679182300,4.099182373046875,-0.7928314208984375,-0.5798797607421875,0.0856781005859375
1782986332689256200,4.109256103515625,-0.78814697265625,-0.58056640625,0.0913238525390625
1782986332699330300,4.119330322265625,-0.7847747802734375,-0.570831298828125,0.0933990478515625
1782986332709405200,4.1294052734375,-0.7846221923828125,-0.568115234375,0.0953216552734375
1782986332719479300,4.139479248046875,-0.786285400390625,-0.568389892578125,0.09600830078125
1782986332729553200,4.14955322265625,-0.78839111328125,-0.571380615234375,0.0949554443359375
1782986332739627300,4.159627197265625,-0.78546142578125,-0.56817626953125,0.0955657958984375
1782986332749702100,4.1697021484375,-0.78765869140625,-0.5665435791015625,0.096832275390625
1782986332759776300,4.1797763671875,-0.7924346923828125,-0.5664825439453125,0.0963134765625
1782986332769850400,4.189850341796875,-0.8002166748046875,-0.570281982421875,0.096923828125
1782986332779925200,4.19992529296875,-0.80517578125,-0.5731048583984375,0.0913848876953125
1782986332789999400,4.209999267578125,-0.810455322265625,-0.571685791015625,0.089752197265625
1782986332800074200,4.22007421875,-0.8172454833984375,-0.576263427734375,0.0902862548828125
1782986332810148400,4.2301484375,-0.8199310302734375,-0.573272705078125,0.0946197509765625
1782986332820222500,4.240222412109375,-0.8173675537109375,-0.57196044921875,0.094696044921875
1782986332830297300,4.25029736328125,-0.8138427734375,-0.5709991455078125,0.0964813232421875
1782986332840371500,4.260371337890625,-0.812774658203125,-0.5740509033203125,0.0973052978515625
1782986332850445300,4.2704453125,-0.80841064453125,-0.572540283203125,0.097442626953125
1782986332860520400,4.2805205078125,-0.8119049072265625,-0.5695648193359375,0.0924530029296875
1782986332870594300,4.29059423828125,-0.8203277587890625,-0.5624542236328125,0.0887451171875
1782986332880668200,4.300668212890625,-0.8257598876953125,-0.5594635009765625,0.0858612060546875
1782986332890742300,4.3107421875,-0.8264007568359375,-0.5612335205078125,0.085662841796875
1782986332900817200,4.320817138671875,-0.822601318359375,-0.5599212646484375,0.087127685546875
1782986332910891300,4.330891357421875,-0.8154144287109375,-0.5615234375,0.08807373046875
1782986332920965000,4.340965087890625,-0.8087005615234375,-0.562408447265625,0.0864410400390625
1782986332931040300,4.351040283203125,-0.8016357421875,-0.5619049072265625,0.083526611328125
1782986332941114000,4.361114013671875,-0.793121337890625,-0.5613250732421875,0.0822296142578125
1782986332951188200,4.371188232421875,-0.7877044677734375,-0.5631256103515625,0.0851593017578125
1782986332961263000,4.38126318359375,-0.792633056640625,-0.5621337890625,0.090057373046875
1782986332971337200,4.391337158203125,-0.798980712890625,-0.558319091796875,0.0874176025390625
1782986332981411300,4.401411376953125,-0.8103790283203125,-0.556976318359375,0.083038330078125
1782986332991485400,4.4114853515625,-0.8245391845703125,-0.555450439453125,0.0836181640625
1782986333001560300,4.421560302734375,-0.8338623046875,-0.5537872314453125,0.0842742919921875
1782986333011634400,4.431634521484375,-0.841461181640625,-0.5523223876953125,0.0905303955078125
1782986333021708300,4.441708251953125,-0.8434600830078125,-0.55413818359375,0.098541259765625
1782986333031783400,4.451783447265625,-0.842254638671875,-0.5531463623046875,0.1107177734375
1782986333041857300,4.461857177734375,-0.836395263671875,-0.5491943359375,0.1173553466796875
1782986333051931400,4.471931396484375,-0.82696533203125,-0.5473480224609375,0.1122283935546875
1782986333062005200,4.482005126953125,-0.8157501220703125,-0.5475006103515625,0.1027679443359375
1782986333072080400,4.492080322265625,-0.8090667724609375,-0.55078125,0.09320068359375
1782986333082154200,4.502154296875,-0.8058929443359375,-0.5518035888671875,0.084259033203125
1782986333092228000,4.51222802734375,-0.8052978515625,-0.551513671875,0.0781402587890625
1782986333102303200,4.52230322265625,-0.8099365234375,-0.5514068603515625,0.075653076171875
1782986333112377000,4.532377197265625,-0.829864501953125,-0.552398681640625,0.07965087890625
1782986333122451200,4.542451171875,-0.844390869140625,-0.553497314453125,0.082305908203125
1782986333132525300,4.552525390625,-0.8484039306640625,-0.5543365478515625,0.0849609375
1782986333142600200,4.56260009765625,-0.8441314697265625,-0.5566558837890625,0.0836944580078125
1782986333152674300,4.57267431640625,-0.836761474609375,-0.5576019287109375,0.08404541015625
1782986333162748400,4.58274853515625,-0.83001708984375,-0.5592498779296875,0.0865478515625
1782986333172823300,4.5928232421875,-0.8242645263671875,-0.56103515625,0.08184814453125
1782986333182897400,4.6028974609375,-0.8148956298828125,-0.5602264404296875,0.078887939453125
1782986333192971300,4.61297119140625,-0.810638427734375,-0.55999755859375,0.08367919921875
1782986333203046400,4.62304638671875,-0.813323974609375,-0.560577392578125,0.0899810791015625
1782986333213120300,4.633120361328125,-0.820465087890625,-0.5599212646484375,0.089691162109375
1782986333223194400,4.6431943359375,-0.827789306640625,-0.5582275390625,0.08868408203125
1782986333233268200,4.653268310546875,-0.8314666748046875,-0.55572509765625,0.083038330078125
1782986333243343400,4.66334326171875,-0.8321075439453125,-0.556304931640625,0.082183837890625
1782986333253417200,4.673417236328125,-0.8290863037109375,-0.5550537109375,0.0858154296875
1782986333263491000,4.683490966796875,-0.82159423828125,-0.553924560546875,0.0890655517578125
1782986333273566200,4.693566162109375,-0.8118133544921875,-0.554229736328125,0.0914306640625
1782986333283640300,4.703640380859375,-0.80596923828125,-0.556915283203125,0.0931243896484375
1782986333293714200,4.713714111328125,-0.8066558837890625,-0.55645751953125,0.091033935546875
1782986333303788300,4.723788330078125,-0.8084716796875,-0.5545196533203125,0.0890960693359375
1782986333313863200,4.73386328125,-0.812835693359375,-0.556610107421875,0.0817413330078125
1782986333323937300,4.743937255859375,-0.812896728515625,-0.555267333984375,0.077423095703125
1782986333334011400,4.754011474609375,-0.8186492919921875,-0.5547027587890625,0.0767974853515625
1782986333344086300,4.764086181640625,-0.82537841796875,-0.55792236328125,0.078155517578125
1782986333354160400,4.774160400390625,-0.8299713134765625,-0.556182861328125,0.0799560546875
1782986333364234200,4.784234130859375,-0.8321380615234375,-0.5549163818359375,0.08221435546875
1782986333374309400,4.794309326171875,-0.83160400390625,-0.55517578125,0.0845794677734375
1782986333384383200,4.80438330078125,-0.83221435546875,-0.5555267333984375,0.08587646484375
1782986333394457300,4.814457275390625,-0.8312530517578125,-0.5558013916015625,0.0843505859375
1782986333404531200,4.82453125,-0.823638916015625,-0.557373046875,0.08331298828125
1782986333414606300,4.8346064453125,-0.8206939697265625,-0.558868408203125,0.08367919921875
1782986333424680200,4.84468017578125,-0.820343017578125,-0.56097412109375,0.0839996337890625
1782986333434754300,4.85475439453125,-0.819549560546875,-0.5601654052734375,0.086517333984375
1782986333444829200,4.8648291015625,-0.8219451904296875,-0.5601348876953125,0.0828857421875
1782986333454903300,4.8749033203125,-0.81964111328125,-0.558074951171875,0.0800933837890625
1782986333464977200,4.88497705078125,-0.8179473876953125,-0.5582122802734375,0.0810394287109375
1782986333475051300,4.89505126953125,-0.8155670166015625,-0.5608673095703125,0.0824432373046875
1782986333485126100,4.905126220703125,-0.818450927734375,-0.5602264404296875,0.0797882080078125
1782986333495200300,4.9152001953125,-0.821258544921875,-0.56097412109375,0.075592041015625
1782986333505274400,4.9252744140625,-0.81689453125,-0.559783935546875,0.073394775390625
1782986333515349500,4.935349609375,-0.8113555908203125,-0.560699462890625,0.07305908203125
1782986333525423400,4.94542333984375,-0.81182861328125,-0.5593109130859375,0.069091796875
1782986333535497200,4.955497314453125,-0.812774658203125,-0.5602264404296875,0.0667572021484375
1782986333545572400,4.965572265625,-0.81689453125,-0.560516357421875,0.06622314453125
1782986333555646200,4.975646240234375,-0.8199005126953125,-0.5596466064453125,0.0661773681640625
1782986333565720300,4.98572021484375,-0.8209381103515625,-0.5588531494140625,0.0707855224609375
1782986333575794200,4.995794189453125,-0.8177947998046875,-0.56011962890625,0.071014404296875
1782986333585869300,5.005869384765625,-0.8153228759765625,-0.5625152587890625,0.071929931640625
1782986333595943200,5.015943115234375,-0.8145599365234375,-0.5625457763671875,0.0733489990234375
1782986333606017300,5.026017333984375,-0.8172149658203125,-0.564117431640625,0.0736846923828125
1782986333616092200,5.036092041015625,-0.8187408447265625,-0.5651702880859375,0.073699951171875
1782986333626166300,5.046166259765625,-0.817138671875,-0.562164306640625,0.0743255615234375
1782986333636240100,5.056240234375,-0.8147430419921875,-0.5599822998046875,0.07623291015625
1782986333646314500,5.066314453125,-0.813995361328125,-0.5593414306640625,0.0777130126953125
1782986333656389000,5.07638916015625,-0.8154144287109375,-0.559783935546875,0.077728271484375
1782986333666463500,5.08646337890625,-0.818389892578125,-0.5579986572265625,0.0783843994140625
1782986333676537300,5.096537353515625,-0.8206329345703125,-0.557037353515625,0.078857421875
1782986333686612500,5.106612548828125,-0.82794189453125,-0.555816650390625,0.074676513671875
1782986333696686300,5.116686279296875,-0.82861328125,-0.5548553466796875,0.07806396484375
1782986333706760200,5.12676025390625,-0.827545166015625,-0.5558319091796875,0.0808258056640625
1782986333716835300,5.13683544921875,-0.8267669677734375,-0.5567779541015625,0.081756591796875
1782986333726908700,5.14690869140625,-0.8233184814453125,-0.557586669921875,0.0852813720703125
1782986333736982500,5.156982421875,-0.8181304931640625,-0.5592498779296875,0.0842132568359375
1782986333747056600,5.167056640625,-0.81524658203125,-0.5635833740234375,0.0825042724609375
1782986333757131500,5.177131591796875,-0.8106231689453125,-0.565521240234375,0.0818023681640625
1782986333767205600,5.18720556640625,-0.807891845703125,-0.5670928955078125,0.08050537109375
1782986333777279500,5.197279541015625,-0.8117523193359375,-0.566650390625,0.0839996337890625
1782986333787354600,5.207354736328125,-0.812652587890625,-0.5612640380859375,0.0859375
1782986333797428500,5.217428466796875,-0.8173980712890625,-0.5588531494140625,0.0830535888671875
1782986333807502800,5.2275029296875,-0.822265625,-0.5575408935546875,0.0849456787109375
1782986333817576700,5.23757666015625,-0.8262939453125,-0.5566253662109375,0.080291748046875
1782986333827651800,5.24765185546875,-0.83135986328125,-0.5548248291015625,0.074371337890625
1782986333837725700,5.2577255859375,-0.8355865478515625,-0.5567626953125,0.0721588134765625
1782986333847799600,5.267799560546875,-0.8336334228515625,-0.555908203125,0.07537841796875
1782986333857874700,5.277874755859375,-0.8262939453125,-0.555511474609375,0.08026123046875
1782986333867948500,5.287948486328125,-0.815704345703125,-0.551849365234375,0.0843963623046875
1782986333878022700,5.298022705078125,-0.8124237060546875,-0.552032470703125,0.086334228515625
1782986333888096500,5.308096435546875,-0.8134307861328125,-0.5531463623046875,0.0894012451171875
1782986333898171600,5.318171630859375,-0.811279296875,-0.5514373779296875,0.0903472900390625
1782986333908245500,5.32824560546875,-0.804412841796875,-0.547698974609375,0.0876312255859375
1782986333918319600,5.338319580078125,-0.8036651611328125,-0.5464019775390625,0.0815887451171875
1782986333928394500,5.34839453125,-0.8113861083984375,-0.5469512939453125,0.072021484375
1782986333938468600,5.358468505859375,-0.8197479248046875,-0.5486907958984375,0.062652587890625
1782986333948542700,5.368542724609375,-0.8258819580078125,-0.5526885986328125,0.060150146484375
1782986333958617600,5.37861767578125,-0.8327484130859375,-0.553955078125,0.0604400634765625
1782986333968691700,5.388691650390625,-0.8350067138671875,-0.554931640625,0.063690185546875
1782986333978765800,5.398765869140625,-0.8304290771484375,-0.5548858642578125,0.0682525634765625
1782986333988839700,5.408839599609375,-0.8257904052734375,-0.55712890625,0.072021484375
1782986333998914800,5.418914794921875,-0.823638916015625,-0.560516357421875,0.0699462890625
1782986334008988700,5.42898876953125,-0.8270111083984375,-0.5612030029296875,0.0709075927734375
1782986334019062800,5.439062744140625,-0.830474853515625,-0.556976318359375,0.068695068359375
1782986334029137700,5.4491376953125,-0.8300628662109375,-0.5575408935546875,0.06964111328125
1782986334039211800,5.459211669921875,-0.8292999267578125,-0.55706787109375,0.0748748779296875
1782986334049285600,5.46928564453125,-0.828765869140625,-0.558929443359375,0.0783843994140625
1782986334059359500,5.479359375,-0.8273468017578125,-0.5579833984375,0.0842132568359375
1782986334069434600,5.4894345703125,-0.8225555419921875,-0.557861328125,0.08563232421875
1782986334079508500,5.499508544921875,-0.8211517333984375,-0.5579071044921875,0.0841217041015625
1782986334089582600,5.50958251953125,-0.822174072265625,-0.55596923828125,0.079925537109375
1782986334099657500,5.519657470703125,-0.82080078125,-0.5548248291015625,0.0782623291015625
1782986334109731600,5.529731689453125,-0.8206939697265625,-0.5529327392578125,0.079681396484375
1782986334119805700,5.5398056640625,-0.82073974609375,-0.5518341064453125,0.08203125
1782986334129880600,5.549880615234375,-0.8179168701171875,-0.55206298828125,0.0821685791015625
1782986334139954700,5.55995458984375,-0.8151702880859375,-0.555023193359375,0.0837249755859375
1782986334150028800,5.57002880859375,-0.8121490478515625,-0.556549072265625,0.079833984375
1782986334160102700,5.5801025390625,-0.8107147216796875,-0.5558013916015625,0.0758514404296875
1782986334170177800,5.590177734375,-0.8150177001953125,-0.5555267333984375,0.071319580078125
1782986334180251600,5.600251708984375,-0.819580078125,-0.5550994873046875,0.067962646484375
1782986334190325800,5.61032568359375,-0.8203887939453125,-0.5531158447265625,0.0675811767578125
1782986334200400600,5.620400634765625,-0.822662353515625,-0.5545501708984375,0.065216064453125
1782986334210474800,5.630474853515625,-0.8256988525390625,-0.5555419921875,0.0643463134765625
1782986334220548600,5.640548583984375,-0.8323974609375,-0.555084228515625,0.06591796875
1782986334230622500,5.65062255859375,-0.841217041015625,-0.555633544921875,0.0675048828125
1782986334240697600,5.660697509765625,-0.842987060546875,-0.555816650390625,0.0690155029296875
1782986334250771700,5.670771728515625,-0.8388824462890625,-0.555023193359375,0.07318115234375
1782986334260845600,5.680845458984375,-0.8341217041015625,-0.5531768798828125,0.077239990234375
1782986334270920700,5.690920654296875,-0.8294677734375,-0.5534820556640625,0.0797882080078125
1782986334280994600,5.70099462890625,-0.8220367431640625,-0.550628662109375,0.0785369873046875
1782986334291068700,5.711068603515625,-0.813385009765625,-0.548187255859375,0.0738677978515625
1782986334301142800,5.721142822265625,-0.8079833984375,-0.54803466796875,0.0730133056640625
1782986334311217700,5.7312177734375,-0.8023681640625,-0.547088623046875,0.0703887939453125
1782986334321291800,5.741291748046875,-0.8033447265625,-0.5471038818359375,0.0692291259765625
1782986334331365600,5.75136572265625,-0.8104705810546875,-0.5459442138671875,0.07269287109375
1782986334341440800,5.761440673828125,-0.820159912109375,-0.544403076171875,0.071624755859375
1782986334351514600,5.7715146484375,-0.8314361572265625,-0.5448455810546875,0.074310302734375
1782986334361588700,5.781588623046875,-0.8426666259765625,-0.548431396484375,0.076568603515625
1782986334371663600,5.79166357421875,-0.8503875732421875,-0.5516357421875,0.075927734375
1782986334381737700,5.80173779296875,-0.8484039306640625,-0.5503692626953125,0.076141357421875
1782986334391811600,5.8118115234375,-0.84686279296875,-0.55169677734375,0.0729217529296875
1782986334401885700,5.8218857421875,-0.8382568359375,-0.5525970458984375,0.07293701171875
1782986334411960600,5.831960693359375,-0.8286590576171875,-0.5545806884765625,0.07623291015625
1782986334422034700,5.84203466796875,-0.82635498046875,-0.5565032958984375,0.0785980224609375
1782986334432108500,5.852108642578125,-0.821380615234375,-0.55523681640625,0.0797576904296875
1782986334442183700,5.86218359375,-0.819366455078125,-0.55267333984375,0.083648681640625
1782986334452257500,5.872257568359375,-0.8197174072265625,-0.552490234375,0.084197998046875
1782986334462331600,5.88233154296875,-0.824798583984375,-0.551788330078125,0.080657958984375
1782986334472405800,5.89240576171875,-0.8245849609375,-0.551666259765625,0.0797576904296875
1782986334482480600,5.902480712890625,-0.8243408203125,-0.552032470703125,0.0828399658203125
1782986334492554800,5.9125546875,-0.821075439453125,-0.549957275390625,0.0850372314453125
1782986334502628600,5.922628662109375,-0.8243865966796875,-0.54742431640625,0.085113525390625
1782986334512703700,5.932703857421875,-0.8272857666015625,-0.5481109619140625,0.0826873779296875
1782986334522777600,5.942777587890625,-0.82318115234375,-0.548095703125,0.088165283203125
1782986334532851700,5.952851806640625,-0.8179779052734375,-0.54913330078125,0.09735107421875
1782986334542926600,5.962926513671875,-0.81597900390625,-0.5499114990234375,0.099609375
1782986334553000700,5.973000732421875,-0.8156280517578125,-0.549835205078125,0.0912628173828125
1782986334563074600,5.983074462890625,-0.8166351318359375,-0.5500335693359375,0.087860107421875
1782986334573148700,5.993148681640625,-0.8131256103515625,-0.5505218505859375,0.0884552001953125
1782986334583223600,6.0032236328125,-0.8127899169921875,-0.54840087890625,0.087982177734375
1782986334593297700,6.013297607421875,-0.8230743408203125,-0.5471954345703125,0.0855865478515625
1782986334603371500,6.02337158203125,-0.829620361328125,-0.5445098876953125,0.081146240234375
1782986334613446700,6.03344677734375,-0.830230712890625,-0.54168701171875,0.0732574462890625
1782986334623520500,6.0435205078125,-0.831268310546875,-0.5432281494140625,0.072296142578125
1782986334633594600,6.0535947265625,-0.8304290771484375,-0.5467987060546875,0.07489013671875
1782986334643668700,6.063668701171875,-0.8253631591796875,-0.54791259765625,0.0761260986328125
1782986334653743600,6.07374365234375,-0.8204345703125,-0.5462646484375,0.0767974853515625
1782986334663817700,6.083817626953125,-0.8167266845703125,-0.5471343994140625,0.0852508544921875
1782986334673891600,6.0938916015625,-0.8182830810546875,-0.545654296875,0.0862579345703125
1782986334683966700,6.103966796875,-0.8281707763671875,-0.5435638427734375,0.0877532958984375
1782986334694040600,6.11404052734375,-0.835662841796875,-0.5421142578125,0.0879058837890625
1782986334704114700,6.12411474609375,-0.8346710205078125,-0.5367584228515625,0.086822509765625
1782986334714188500,6.1341884765625,-0.829925537109375,-0.535919189453125,0.080657958984375
1782986334724264400,6.144264404296875,-0.83154296875,-0.536346435546875,0.07391357421875
1782986334734338300,6.15433837890625,-0.83172607421875,-0.53521728515625,0.06304931640625
1782986334744412400,6.164412353515625,-0.83026123046875,-0.5387725830078125,0.0583648681640625
1782986334754487300,6.1744873046875,-0.8297119140625,-0.541961669921875,0.0592498779296875
1782986334764561400,6.1845615234375,-0.8333587646484375,-0.54693603515625,0.062469482421875
1782986334774635300,6.19463525390625,-0.837738037109375,-0.55157470703125,0.06591796875
1782986334784710400,6.20471044921875,-0.833404541015625,-0.5484161376953125,0.0706939697265625
1782986334794784300,6.2147841796875,-0.8319091796875,-0.548919677734375,0.0756988525390625
1782986334804858000,6.224858154296875,-0.8338165283203125,-0.5494842529296875,0.0730133056640625
1782986334814932200,6.23493212890625,-0.8361968994140625,-0.5476531982421875,0.068939208984375
1782986334825007000,6.245007080078125,-0.8400115966796875,-0.5474395751953125,0.0672760009765625
1782986334835081200,6.255081298828125,-0.840301513671875,-0.5457611083984375,0.069549560546875
1782986334845155300,6.2651552734375,-0.8376922607421875,-0.5447235107421875,0.0733489990234375
1782986334855230200,6.275230224609375,-0.8343048095703125,-0.547515869140625,0.078033447265625
1782986334865304300,6.28530419921875,-0.8265380859375,-0.548614501953125,0.0824737548828125
1782986334875378400,6.29537841796875,-0.820556640625,-0.548004150390625,0.0814971923828125
1782986334885452300,6.305452392578125,-0.8189697265625,-0.5462799072265625,0.0789794921875
1782986334895527400,6.31552734375,-0.81988525390625,-0.546173095703125,0.07720947265625
1782986334905601300,6.325601318359375,-0.8231353759765625,-0.54656982421875,0.0778045654296875
1782986334915675400,6.33567529296875,-0.825347900390625,-0.545440673828125,0.080902099609375
1782986334925750300,6.345750244140625,-0.8248138427734375,-0.5430450439453125,0.08343505859375
1782986334935824400,6.355824462890625,-0.823394775390625,-0.543243408203125,0.0806121826171875
1782986334945898200,6.365898193359375,-0.822967529296875,-0.5443572998046875,0.0735321044921875
1782986334955973400,6.375973388671875,-0.8233642578125,-0.545074462890625,0.07135009765625
1782986334966047200,6.386047119140625,-0.82720947265625,-0.543487548828125,0.0737457275390625
1782986334976121300,6.396121337890625,-0.8272552490234375,-0.5437164306640625,0.075775146484375
1782986334986195200,6.4061953125,-0.830169677734375,-0.5457763671875,0.0751190185546875
1782986334996270300,6.416270263671875,-0.833709716796875,-0.549285888671875,0.0738677978515625
1782986335006344200,6.42634423828125,-0.8333740234375,-0.54876708984375,0.0754852294921875
1782986335016418300,6.436418212890625,-0.8345489501953125,-0.54913330078125,0.07635498046875
1782986335026493200,6.4464931640625,-0.8363037109375,-0.549774169921875,0.0769805908203125
1782986335036567300,6.4565673828125,-0.834014892578125,-0.55419921875,0.0790557861328125
1782986335046641400,6.466641357421875,-0.8319854736328125,-0.5544281005859375,0.0823211669921875
1782986335056715300,6.47671533203125,-0.8312530517578125,-0.55633544921875,0.08447265625
1782986335066790400,6.486790283203125,-0.8304901123046875,-0.55755615234375,0.088714599609375
1782986335076864300,6.4968642578125,-0.83306884765625,-0.5544891357421875,0.0904998779296875
1782986335086938400,6.5069384765625,-0.835174560546875,-0.555755615234375,0.0860137939453125
1782986335097013200,6.51701318359375,-0.831512451171875,-0.5565338134765625,0.0812835693359375
1782986335107087400,6.52708740234375,-0.83062744140625,-0.55596923828125,0.0758056640625
1782986335117161200,6.5371611328125,-0.830810546875,-0.5577392578125,0.0726776123046875
1782986335127235300,6.5472353515625,-0.825531005859375,-0.554962158203125,0.0687713623046875
1782986335137310200,6.557310302734375,-0.8209075927734375,-0.5554351806640625,0.06756591796875
1782986335147384300,6.56738427734375,-0.817230224609375,-0.5550537109375,0.0654144287109375
1782986335157458400,6.57745849609375,-0.8120574951171875,-0.5564117431640625,0.065643310546875
1782986335167533300,6.587533203125,-0.812408447265625,-0.5562744140625,0.0656585693359375
1782986335177607400,6.597607421875,-0.8168182373046875,-0.555633544921875,0.0654449462890625
1782986335187681300,6.607681396484375,-0.8223724365234375,-0.5536346435546875,0.0664520263671875
1782986335197756400,6.61775634765625,-0.8280487060546875,-0.5516510009765625,0.0650787353515625
1782986335207830500,6.62783056640625,-0.8335418701171875,-0.5509185791015625,0.06817626953125
1782986335217904400,6.637904296875,-0.8337249755859375,-0.5497894287109375,0.07305908203125
1782986335227978200,6.647978271484375,-0.8309478759765625,-0.5468902587890625,0.0753631591796875
1782986335238053400,6.658053466796875,-0.829803466796875,-0.5458831787109375,0.0782928466796875
1782986335248127200,6.668127197265625,-0.82769775390625,-0.5432281494140625,0.077056884765625
1782986335258201300,6.678201416015625,-0.8233489990234375,-0.543914794921875,0.073150634765625
1782986335268276200,6.688276123046875,-0.81793212890625,-0.54498291015625,0.0718841552734375
1782986335278350300,6.698350341796875,-0.8104248046875,-0.546783447265625,0.0711822509765625
1782986335288424200,6.708424072265625,-0.8066253662109375,-0.5449676513671875,0.0692901611328125
1782986335298498300,6.718498291015625,-0.807525634765625,-0.5452728271484375,0.067840576171875
1782986335308573200,6.7285732421875,-0.813385009765625,-0.548492431640625,0.070159912109375
1782986335318647300,6.738647216796875,-0.81793212890625,-0.5484161376953125,0.068572998046875
1782986335328721400,6.748721435546875,-0.8222503662109375,-0.5499267578125,0.0686187744140625
1782986335338796300,6.75879638671875,-0.8216094970703125,-0.5486297607421875,0.0692138671875
1782986335348870400,6.768870361328125,-0.818695068359375,-0.546600341796875,0.0682525634765625
1782986335358944500,6.778944580078125,-0.810760498046875,-0.5499114990234375,0.06658935546875
1782986335369018400,6.789018310546875,-0.8104095458984375,-0.550994873046875,0.0626678466796875
1782986335379093500,6.799093505859375,-0.813232421875,-0.5529022216796875,0.059539794921875
1782986335389167400,6.80916748046875,-0.8118438720703125,-0.55316162109375,0.0621337890625
1782986335399241200,6.8192412109375,-0.809173583984375,-0.5543060302734375,0.0605926513671875
1782986335409316400,6.82931640625,-0.812408447265625,-0.55810546875,0.0621337890625
1782986335419390200,6.83939013671875,-0.81854248046875,-0.5610504150390625,0.0702362060546875
1782986335429464300,6.84946435546875,-0.8180389404296875,-0.5587158203125,0.0753021240234375
1782986335439539200,6.859539306640625,-0.8165740966796875,-0.55767822265625,0.07940673828125
1782986335449613300,6.86961328125,-0.814117431640625,-0.5577850341796875,0.079559326171875
1782986335459687200,6.879687255859375,-0.8088836669921875,-0.5555419921875,0.07501220703125
1782986335469761300,6.88976123046875,-0.8049774169921875,-0.5516815185546875,0.0700836181640625
1782986335479836200,6.899836181640625,-0.8075714111328125,-0.5488128662109375,0.0635528564453125
1782986335489910300,6.90991015625,-0.8190460205078125,-0.5480499267578125,0.0506744384765625
1782986335499984400,6.919984375,-0.8373260498046875,-0.544342041015625,0.04583740234375
1782986335510059300,6.930059326171875,-0.8457489013671875,-0.543853759765625,0.0501708984375
1782986335520133400,6.94013330078125,-0.8469390869140625,-0.54632568359375,0.05584716796875
1782986335530207500,6.95020751953125,-0.8488922119140625,-0.5471954345703125,0.065948486328125
1782986335540281300,6.96028125,-0.8499908447265625,-0.5458984375,0.0686492919921875
1782986335550356500,6.9703564453125,-0.848175048828125,-0.5465087890625,0.064300537109375
1782986335560430300,6.980430419921875,-0.84674072265625,-0.5457305908203125,0.062469482421875
1782986335570504400,6.99050439453125,-0.8453826904296875,-0.549072265625,0.05810546875
1782986335580579300,7.000579345703125,-0.840789794921875,-0.549224853515625,0.0580291748046875
1782986335590653400,7.0106533203125,-0.8368682861328125,-0.5505828857421875,0.0579071044921875
1782986335600727300,7.020727294921875,-0.833221435546875,-0.55133056640625,0.0589752197265625
1782986335610801200,7.03080126953125,-0.8314666748046875,-0.552093505859375,0.0644073486328125
1782986335620876300,7.040876220703125,-0.8351898193359375,-0.549591064453125,0.0692901611328125
1782986335630950100,7.0509501953125,-0.8400115966796875,-0.5482025146484375,0.0659637451171875
1782986335641024300,7.061024169921875,-0.8381500244140625,-0.546844482421875,0.06048583984375
1782986335651099100,7.07109912109375,-0.8370513916015625,-0.547576904296875,0.056365966796875
1782986335661173200,7.08117333984375,-0.83050537109375,-0.5498046875,0.0590667724609375
1782986335671247400,7.091247314453125,-0.829071044921875,-0.54876708984375,0.0648040771484375
1782986335681322200,7.101322265625,-0.8278350830078125,-0.548187255859375,0.0673065185546875
1782986335691396400,7.111396240234375,-0.82110595703125,-0.550537109375,0.064910888671875
1782986335701470500,7.121470458984375,-0.8151397705078125,-0.551666259765625,0.0624237060546875
1782986335711544300,7.13154443359375,-0.8121490478515625,-0.5533905029296875,0.0594024658203125
1782986335721618700,7.14161865234375,-0.8122100830078125,-0.55133056640625,0.0587005615234375
1782986335731692500,7.151692626953125,-0.813873291015625,-0.546173095703125,0.06005859375
1782986335741766700,7.1617666015625,-0.8166046142578125,-0.5440673828125,0.0619049072265625
1782986335751841500,7.171841552734375,-0.8213958740234375,-0.5446014404296875,0.0646514892578125
1782986335761915600,7.18191552734375,-0.8297119140625,-0.543212890625,0.06866455078125
1782986335771989500,7.191989501953125,-0.8321990966796875,-0.5419769287109375,0.071197509765625
1782986335782063600,7.202063720703125,-0.8365020751953125,-0.538238525390625,0.0731964111328125
1782986335792138500,7.212138427734375,-0.8409576416015625,-0.5387420654296875,0.073272705078125
1782986335802212600,7.222212646484375,-0.8453521728515625,-0.540496826171875,0.069854736328125
1782986335812286700,7.23228662109375,-0.8483123779296875,-0.540771484375,0.0658721923828125
1782986335822361600,7.242361572265625,-0.845703125,-0.5377655029296875,0.062957763671875
1782986335832435700,7.252435791015625,-0.845062255859375,-0.5363311767578125,0.06719970703125
1782986335842509800,7.262509765625,-0.8417816162109375,-0.5340423583984375,0.0701751708984375
1782986335852584700,7.272584716796875,-0.83673095703125,-0.5319671630859375,0.0735321044921875
1782986335862658800,7.282658935546875,-0.8344573974609375,-0.5320281982421875,0.0732574462890625
1782986335872732700,7.292732666015625,-0.8305206298828125,-0.5326080322265625,0.0699920654296875
1782986335882806500,7.302806640625,-0.8287506103515625,-0.5336761474609375,0.0683441162109375
1782986335892881700,7.312881591796875,-0.8242645263671875,-0.5328826904296875,0.0681304931640625
1782986335902955500,7.32295556640625,-0.8235931396484375,-0.5313262939453125,0.0677642822265625
1782986335913029600,7.333029541015625,-0.8217010498046875,-0.5297088623046875,0.0684051513671875
1782986335923104800,7.343104736328125,-0.8224334716796875,-0.53094482421875,0.0681610107421875
1782986335933178600,7.3531787109375,-0.82244873046875,-0.532745361328125,0.069366455078125
1782986335943252500,7.36325244140625,-0.8219451904296875,-0.5361328125,0.067962646484375
1782986335953326600,7.37332666015625,-0.8214111328125,-0.53558349609375,0.0637969970703125
1782986335963401500,7.3834013671875,-0.8208160400390625,-0.5386810302734375,0.0675506591796875
1782986335973475600,7.3934755859375,-0.8208465576171875,-0.5407257080078125,0.069305419921875
1782986335983549700,7.4035498046875,-0.823638916015625,-0.53814697265625,0.0694732666015625
1782986335993624600,7.41362451171875,-0.822845458984375,-0.5394439697265625,0.06707763671875
1782986336003698700,7.42369873046875,-0.8240966796875,-0.5420684814453125,0.0674285888671875
1782986336013772800,7.433772705078125,-0.82598876953125,-0.54376220703125,0.066558837890625
1782986336023846700,7.4438466796875,-0.827056884765625,-0.5450286865234375,0.0640411376953125
1782986336033921800,7.453921875,-0.8275299072265625,-0.54779052734375,0.0638580322265625
1782986336043995600,7.46399560546875,-0.830047607421875,-0.5469512939453125,0.0657958984375
1782986336054069800,7.47406982421875,-0.83544921875,-0.5486907958984375,0.0665283203125
1782986336064144600,7.48414453125,-0.8375244140625,-0.548858642578125,0.0642242431640625
1782986336074218800,7.49421875,-0.831298828125,-0.5511016845703125,0.05963134765625
1782986336084292600,7.504292724609375,-0.825927734375,-0.5498504638671875,0.05731201171875
1782986336094367700,7.51436767578125,-0.8223724365234375,-0.54840087890625,0.05389404296875
1782986336104441600,7.524441650390625,-0.8227691650390625,-0.5471954345703125,0.0512237548828125
1782986336114515500,7.534515380859375,-0.8267364501953125,-0.5463409423828125,0.0487823486328125
1782986336124589600,7.544589599609375,-0.829620361328125,-0.5480499267578125,0.051849365234375
1782986336134664400,7.55466455078125,-0.8275604248046875,-0.5485076904296875,0.056854248046875
1782986336144738600,7.564738525390625,-0.82550048828125,-0.547454833984375,0.0644378662109375
1782986336154812700,7.574812744140625,-0.82647705078125,-0.547607421875,0.0684661865234375
1782986336164887600,7.584887451171875,-0.8223419189453125,-0.5423126220703125,0.070892333984375
1782986336174961700,7.594961669921875,-0.820220947265625,-0.5373382568359375,0.0755157470703125
1782986336185035800,7.605035888671875,-0.8260498046875,-0.533966064453125,0.0712738037109375
1782986336195109600,7.615109619140625,-0.8388824462890625,-0.53143310546875,0.06500244140625
1782986336205184800,7.625184814453125,-0.8438568115234375,-0.5320587158203125,0.0541839599609375
1782986336215258600,7.635258544921875,-0.8462982177734375,-0.5313568115234375,0.0493927001953125
1782986336225332700,7.645332763671875,-0.84722900390625,-0.534149169921875,0.0532073974609375
1782986336235407600,7.65540771484375,-0.847137451171875,-0.537506103515625,0.0517425537109375
1782986336245481700,7.665481689453125,-0.8441925048828125,-0.5388336181640625,0.0536956787109375
1782986336255555600,7.6755556640625,-0.8447418212890625,-0.5391387939453125,0.0596160888671875
1782986336265629400,7.68562939453125,-0.8493499755859375,-0.537017822265625,0.064056396484375
1782986336275704600,7.69570458984375,-0.85308837890625,-0.5331878662109375,0.06353759765625
1782986336285778700,7.70577880859375,-0.8524627685546875,-0.5362701416015625,0.0637664794921875
1782986336295852500,7.7158525390625,-0.84600830078125,-0.534027099609375,0.0634307861328125
1782986336305927700,7.725927734375,-0.839324951171875,-0.5349884033203125,0.056060791015625
1782986336316001500,7.73600146484375,-0.8370819091796875,-0.533172607421875,0.05572509765625
1782986336326075600,7.74607568359375,-0.8375701904296875,-0.530059814453125,0.05645751953125
1782986336336149800,7.756149658203125,-0.8370819091796875,-0.528778076171875,0.0604248046875
1782986336346224600,7.766224609375,-0.8379058837890625,-0.5279693603515625,0.06304931640625
1782986336356298800,7.776298828125,-0.8405609130859375,-0.5252532958984375,0.0615234375
1782986336366372600,7.78637255859375,-0.8403778076171875,-0.5252838134765625,0.056396484375
1782986336376447700,7.79644775390625,-0.8387908935546875,-0.5272674560546875,0.059722900390625
1782986336386521600,7.806521484375,-0.835479736328125,-0.52618408203125,0.064483642578125
1782986336396595700,7.816595703125,-0.8338165283203125,-0.5246734619140625,0.069091796875
1782986336406670600,7.826670654296875,-0.83380126953125,-0.5252685546875,0.067626953125
1782986336416744700,7.83674462890625,-0.8353118896484375,-0.5266876220703125,0.0631103515625
1782986336426818600,7.846818603515625,-0.840484619140625,-0.532318115234375,0.061676025390625
1782986336436892700,7.856892578125,-0.8553466796875,-0.5336761474609375,0.0580902099609375
1782986336446967600,7.866967529296875,-0.8689727783203125,-0.5330810546875,0.04876708984375
1782986336457041700,7.877041748046875,-0.8677215576171875,-0.5328216552734375,0.04632568359375
1782986336467115500,7.887115478515625,-0.8563690185546875,-0.534912109375,0.0513916015625
1782986336477190700,7.897190673828125,-0.8434906005859375,-0.5359649658203125,0.0544891357421875
1782986336487264500,7.907264404296875,-0.83514404296875,-0.5381622314453125,0.0468597412109375
1782986336497338600,7.917338623046875,-0.8280029296875,-0.53997802734375,0.0431365966796875
1782986336507412700,7.927412841796875,-0.826416015625,-0.541168212890625,0.0385284423828125
1782986336517487900,7.93748779296875,-0.82757568359375,-0.5429534912109375,0.0381622314453125
1782986336527561700,7.947561767578125,-0.83026123046875,-0.543792724609375,0.03814697265625
1782986336537635600,7.957635498046875,-0.8375396728515625,-0.5411376953125,0.0404815673828125
1782986336547710700,7.967710693359375,-0.844268798828125,-0.5408477783203125,0.0417938232421875
1782986336557784600,7.97778466796875,-0.84613037109375,-0.5415191650390625,0.042022705078125
1782986336567858700,7.987858642578125,-0.8452301025390625,-0.543914794921875,0.0442352294921875
1782986336577932500,7.9979326171875,-0.8404693603515625,-0.5430755615234375,0.0431671142578125
1782986336588007700,8.008007568359375,-0.8403472900390625,-0.544952392578125,0.0421295166015625
1782986336598081500,8.01808154296875,-0.8330230712890625,-0.5463409423828125,0.0417022705078125
1782986336608155600,8.02815576171875,-0.82501220703125,-0.548004150390625,0.0383148193359375
1782986336618229500,8.0382294921875,-0.8201141357421875,-0.5491485595703125,0.0385589599609375
1782986336628303600,8.0483037109375,-0.819580078125,-0.546051025390625,0.041229248046875
1782986336638378500,8.05837841796875,-0.823699951171875,-0.545318603515625,0.040130615234375
1782986336648452900,8.068452880859375,-0.8262939453125,-0.5438232421875,0.0417022705078125
1782986336658526700,8.078526611328124,-0.8286590576171875,-0.541717529296875,0.0455474853515625
1782986336668601900,8.088601806640625,-0.838134765625,-0.541595458984375,0.0515289306640625
1782986336678675700,8.09867578125,-0.8397674560546875,-0.539154052734375,0.053131103515625
1782986336688749600,8.10874951171875,-0.8375091552734375,-0.5347900390625,0.05853271484375
1782986336698823700,8.11882373046875,-0.8365325927734375,-0.5346832275390625,0.056243896484375
1782986336708898600,8.128898681640624,-0.8357391357421875,-0.535736083984375,0.056182861328125
1782986336718972700,8.13897265625,-0.8320770263671875,-0.53619384765625,0.05706787109375
1782986336729046800,8.149046875,-0.82818603515625,-0.5377197265625,0.057281494140625
1782986336739122000,8.159121826171875,-0.827911376953125,-0.5349273681640625,0.057403564453125
1782986336749195800,8.16919580078125,-0.8272247314453125,-0.5315093994140625,0.0576324462890625
1782986336759269600,8.17926953125,-0.8237457275390625,-0.5291290283203125,0.052032470703125
1782986336769343700,8.18934375,-0.8181915283203125,-0.52740478515625,0.054290771484375
1782986336779418600,8.199418701171876,-0.8145294189453125,-0.5284271240234375,0.0541534423828125
1782986336789492700,8.20949267578125,-0.8144989013671875,-0.52716064453125,0.051788330078125
1782986336799566800,8.21956689453125,-0.816253662109375,-0.527252197265625,0.047332763671875
1782986336809641700,8.229641845703124,-0.8191680908203125,-0.527923583984375,0.042938232421875
1782986336819715800,8.2397158203125,-0.8276214599609375,-0.5249481201171875,0.04522705078125
1782986336829790000,8.2497900390625,-0.8395538330078125,-0.52374267578125,0.0502777099609375
1782986336839864800,8.25986474609375,-0.85009765625,-0.524261474609375,0.0545654296875
1782986336849939000,8.26993896484375,-0.851226806640625,-0.5242462158203125,0.0523223876953125
1782986336860012800,8.2800126953125,-0.850982666015625,-0.5219268798828125,0.0576629638671875
1782986336870087000,8.2900869140625,-0.851837158203125,-0.5213470458984375,0.06634521484375
1782986336880161800,8.300161865234376,-0.849334716796875,-0.520660400390625,0.0672760009765625
1782986336890236000,8.31023583984375,-0.8389129638671875,-0.5182952880859375,0.061004638671875
1782986336900309800,8.320309814453125,-0.82794189453125,-0.5206298828125,0.0508270263671875
1782986336910385000,8.330385009765624,-0.82452392578125,-0.5261077880859375,0.04327392578125
1782986336920458800,8.340458740234375,-0.824432373046875,-0.532470703125,0.0364990234375
1782986336930532600,8.35053271484375,-0.8271026611328125,-0.5352020263671875,0.0336151123046875
1782986336940606700,8.360606689453125,-0.8334197998046875,-0.537200927734375,0.0340728759765625
1782986336950681900,8.370681884765625,-0.8438262939453125,-0.541748046875,0.0421905517578125
1782986336960755700,8.380755615234374,-0.8526458740234375,-0.5412750244140625,0.04400634765625
1782986336970830800,8.390830810546875,-0.8596954345703125,-0.538482666015625,0.048126220703125
1782986336980904700,8.40090478515625,-0.8650360107421875,-0.536590576171875,0.0511627197265625
1782986336990978800,8.410978759765625,-0.8648529052734375,-0.534912109375,0.0536956787109375
1782986337001053000,8.421052978515625,-0.8585357666015625,-0.540374755859375,0.0550689697265625
1782986337011127800,8.4311279296875,-0.8572540283203125,-0.541473388671875,0.048553466796875
1782986337021202000,8.441201904296875,-0.8560028076171875,-0.5397796630859375,0.0464935302734375
1782986337031275800,8.45127587890625,-0.854339599609375,-0.5390777587890625,0.052276611328125
1782986337041351000,8.461350830078125,-0.8555145263671875,-0.5380096435546875,0.0545501708984375
1782986337051424800,8.4714248046875,-0.8498992919921875,-0.53643798828125,0.0491790771484375
1782986337061499000,8.481498779296874,-0.8451080322265625,-0.5385589599609375,0.0478057861328125
1782986337071572700,8.49157275390625,-0.8429718017578125,-0.5390625,0.0463409423828125
1782986337081647900,8.50164794921875,-0.83843994140625,-0.5393829345703125,0.0454559326171875
1782986337091721700,8.5117216796875,-0.8343353271484375,-0.5394287109375,0.049468994140625
1782986337101795800,8.5217958984375,-0.833343505859375,-0.53765869140625,0.0543365478515625
1782986337111870700,8.53187060546875,-0.8325653076171875,-0.533782958984375,0.0548248291015625
1782986337121944800,8.54194482421875,-0.8325653076171875,-0.5333709716796875,0.050689697265625
1782986337132018700,8.552018798828126,-0.8285980224609375,-0.5328521728515625,0.0449981689453125
1782986337142093800,8.56209375,-0.828033447265625,-0.5359649658203125,0.044952392578125
1782986337152167700,8.572167724609375,-0.8287353515625,-0.5345916748046875,0.046600341796875
1782986337162241800,8.58224169921875,-0.8305816650390625,-0.534210205078125,0.05108642578125
1782986337172316000,8.59231591796875,-0.8343658447265625,-0.5338134765625,0.0551910400390625
1782986337182391000,8.60239111328125,-0.8352203369140625,-0.5367279052734375,0.0579986572265625
1782986337192465000,8.61246484375,-0.8339385986328125,-0.538299560546875,0.05841064453125
1782986337202538800,8.622538818359375,-0.832183837890625,-0.536102294921875,0.0532073974609375
1782986337212614000,8.63261376953125,-0.8282470703125,-0.535919189453125,0.0512542724609375
1782986337222687700,8.642687744140625,-0.8297119140625,-0.5377655029296875,0.051055908203125
1782986337232761900,8.652761962890626,-0.830230712890625,-0.536834716796875,0.0533294677734375
1782986337242835700,8.662835693359375,-0.8306427001953125,-0.5345916748046875,0.0526580810546875
1782986337252910800,8.672910888671876,-0.829681396484375,-0.5341339111328125,0.051177978515625
1782986337262984700,8.682984619140624,-0.8317413330078125,-0.5345611572265625,0.0498199462890625
1782986337273058800,8.693058837890625,-0.837738037109375,-0.5319061279296875,0.0440826416015625
1782986337283133700,8.7031337890625,-0.8374481201171875,-0.5323944091796875,0.04180908203125
1782986337293207800,8.713207763671875,-0.8419342041015625,-0.53973388671875,0.040802001953125
1782986337303281700,8.72328173828125,-0.8469390869140625,-0.542510986328125,0.0375518798828125
1782986337313356800,8.733356689453124,-0.8408355712890625,-0.5359039306640625,0.0352630615234375
1782986337323430700,8.7434306640625,-0.838714599609375,-0.54150390625,0.035125732421875
1782986337333505000,8.753505126953126,-0.8425140380859375,-0.549102783203125,0.04376220703125
1782986337343579000,8.763578857421875,-0.8551483154296875,-0.561004638671875,0.0496826171875
1782986337353654000,8.773654052734376,-0.8528594970703125,-0.546875,0.054901123046875
1782986337363728000,8.783727783203124,-0.843536376953125,-0.5291290283203125,0.0528564453125
1782986337373801700,8.7938017578125,-0.846435546875,-0.531768798828125,0.0623626708984375
1782986337383876900,8.803876953125,-0.8569488525390625,-0.52911376953125,0.0808868408203125
1782986337393950700,8.81395068359375,-0.8685455322265625,-0.52056884765625,0.0853118896484375
1782986337404024800,8.82402490234375,-0.87322998046875,-0.5140838623046875,0.0659942626953125
1782986337414098700,8.8340986328125,-0.8795013427734375,-0.509063720703125,0.051025390625
1782986337424173800,8.844173828125,-0.8853759765625,-0.504669189453125,0.0503692626953125
1782986337434247700,8.85424755859375,-0.8850250244140625,-0.501312255859375,0.0489349365234375
1782986337444321800,8.86432177734375,-0.8804931640625,-0.5045623779296875,0.0424041748046875
1782986337454396700,8.874396728515626,-0.8676300048828125,-0.506378173828125,0.0319671630859375
1782986337464470800,8.884470703125,-0.8545684814453125,-0.5135650634765625,0.0328369140625
1782986337474544600,8.894544677734375,-0.840118408203125,-0.5166168212890625,0.0322418212890625
1782986337484619000,8.904618896484376,-0.8235015869140625,-0.512451171875,0.02996826171875
1782986337494693600,8.914693603515625,-0.8105926513671875,-0.5085296630859375,0.0305023193359375
1782986337504768000,8.92476806640625,-0.7995147705078125,-0.5054168701171875,0.0395355224609375
1782986337514841900,8.934841796875,-0.795928955078125,-0.5021820068359375,0.04351806640625
1782986337524917000,8.9449169921875,-0.80010986328125,-0.49810791015625,0.0485382080078125
1782986337534990800,8.954990966796874,-0.8092041015625,-0.4940643310546875,0.0478363037109375
1782986337545065000,8.96506494140625,-0.8218231201171875,-0.4941253662109375,0.049896240234375
1782986337555138800,8.975138916015625,-0.84051513671875,-0.495086669921875,0.060760498046875
1782986337565214000,8.9852138671875,-0.86016845703125,-0.4946441650390625,0.06500244140625
1782986337575287800,8.995287841796875,-0.8704071044921875,-0.48944091796875,0.053558349609375
1782986337585361700,9.005361572265626,-0.866912841796875,-0.4898681640625,0.042266845703125
1782986337595436800,9.015436767578125,-0.8654937744140625,-0.49200439453125,0.0375518798828125
1782986337605510700,9.0255107421875,-0.8676910400390625,-0.4962158203125,0.0389556884765625
1782986337615584800,9.035584716796874,-0.8644561767578125,-0.499053955078125,0.0333251953125
1782986337625659600,9.04565966796875,-0.8614349365234375,-0.5069427490234375,0.0287933349609375
1782986337635733800,9.055733642578126,-0.86090087890625,-0.512359619140625,0.0335693359375
1782986337645807600,9.0658076171875,-0.86505126953125,-0.511993408203125,0.035614013671875
1782986337655882000,9.075882080078125,-0.869476318359375,-0.51019287109375,0.02874755859375
1782986337665956600,9.08595654296875,-0.8661651611328125,-0.5060272216796875,0.0227203369140625
1782986337676031000,9.096031005859375,-0.8622589111328125,-0.5072174072265625,0.0248260498046875
1782986337686104800,9.106104736328126,-0.8591766357421875,-0.513671875,0.0312347412109375
1782986337696180000,9.116179931640625,-0.8547821044921875,-0.515350341796875,0.0284881591796875
1782986337706253800,9.12625390625,-0.85015869140625,-0.515960693359375,0.029266357421875
1782986337716328000,9.136327880859374,-0.847198486328125,-0.51153564453125,0.0329742431640625
1782986337726402300,9.14640234375,-0.84857177734375,-0.5107574462890625,0.0319061279296875
1782986337736477200,9.156477294921874,-0.845672607421875,-0.5098724365234375,0.0263519287109375
1782986337746551300,9.16655126953125,-0.8471527099609375,-0.508148193359375,0.02545166015625
1782986337756625200,9.176625244140626,-0.850860595703125,-0.509613037109375,0.0247344970703125
1782986337766700300,9.1867001953125,-0.8559112548828125,-0.5110626220703125,0.0241546630859375
1782986337776774100,9.196774169921875,-0.8624267578125,-0.5080108642578125,0.024169921875
1782986337786848300,9.20684814453125,-0.8632354736328125,-0.5022430419921875,0.0274505615234375
1782986337796923100,9.216923095703125,-0.86175537109375,-0.5055999755859375,0.02606201171875
1782986337806997200,9.226997314453126,-0.8618927001953125,-0.5100860595703125,0.0287017822265625
1782986337817071000,9.237071044921874,-0.860687255859375,-0.5120849609375,0.0335540771484375
1782986337827145200,9.247145263671875,-0.8545684814453125,-0.5082550048828125,0.0296783447265625
1782986337837220000,9.25722021484375,-0.8466644287109375,-0.5041656494140625,0.0235748291015625
1782986337847294200,9.267294189453125,-0.84368896484375,-0.50555419921875,0.0263671875
1782986337857368300,9.277368408203126,-0.8473968505859375,-0.508514404296875,0.0300750732421875
1782986337867442200,9.287442138671874,-0.8578033447265625,-0.506744384765625,0.02960205078125
1782986337877517300,9.297517333984375,-0.863739013671875,-0.5033416748046875,0.031097412109375
1782986337887591200,9.307591064453124,-0.870849609375,-0.499908447265625,0.0366058349609375
1782986337897665300,9.317665283203125,-0.8772735595703125,-0.499755859375,0.0392608642578125
1782986337907740200,9.327740234375,-0.874114990234375,-0.5008544921875,0.0355224609375
1782986337917814300,9.337814208984375,-0.8673095703125,-0.5017547607421875,0.0333709716796875
1782986337927888100,9.34788818359375,-0.85858154296875,-0.499542236328125,0.03668212890625
1782986337937963300,9.35796337890625,-0.8497161865234375,-0.5025634765625,0.038238525390625
1782986337948037000,9.368037109375,-0.8447418212890625,-0.5028839111328125,0.035430908203125
1782986337958111200,9.378111328125,-0.845062255859375,-0.5048675537109375,0.0323486328125
1782986337968185000,9.38818505859375,-0.8451080322265625,-0.50604248046875,0.03448486328125
1782986337978260200,9.39826025390625,-0.848541259765625,-0.5078277587890625,0.036468505859375
1782986337988334000,9.408333984375,-0.8515625,-0.5048065185546875,0.0373687744140625
1782986337998408200,9.418408203125,-0.85479736328125,-0.5000152587890625,0.038299560546875
1782986338008483000,9.428483154296876,-0.8594970703125,-0.5008392333984375,0.0377655029296875
1782986338018557200,9.43855712890625,-0.8628997802734375,-0.5019378662109375,0.0373992919921875
1782986338028631300,9.44863134765625,-0.8642578125,-0.5028839111328125,0.0374298095703125
1782986338038705200,9.458705078125,-0.8634796142578125,-0.5071563720703125,0.0338592529296875
1782986338048780300,9.4687802734375,-0.8605194091796875,-0.508270263671875,0.03057861328125
1782986338058854100,9.478854248046876,-0.85369873046875,-0.507293701171875,0.02728271484375
1782986338068928300,9.48892822265625,-0.8477325439453125,-0.5107269287109375,0.0238800048828125
1782986338079003100,9.499003173828125,-0.8452301025390625,-0.51141357421875,0.02301025390625
1782986338089077200,9.5090771484375,-0.8372650146484375,-0.5095977783203125,0.0257720947265625
1782986338099151000,9.519151123046875,-0.8341522216796875,-0.509368896484375,0.02740478515625
1782986338109226200,9.529226318359376,-0.840545654296875,-0.51116943359375,0.027587890625
1782986338119300000,9.539300048828125,-0.847869873046875,-0.5095977783203125,0.0213165283203125
1782986338129374200,9.549374267578125,-0.853485107421875,-0.50823974609375,0.018524169921875
1782986338139448000,9.559447998046876,-0.85986328125,-0.5075225830078125,0.0216064453125
1782986338149523200,9.569523193359375,-0.86517333984375,-0.508056640625,0.0231170654296875
1782986338159597000,9.57959716796875,-0.8609619140625,-0.5101165771484375,0.02056884765625
1782986338169671400,9.58967138671875,-0.85791015625,-0.5119171142578125,0.020843505859375
1782986338179746000,9.59974609375,-0.856903076171875,-0.510772705078125,0.0217132568359375
1782986338189820400,9.6098203125,-0.8580780029296875,-0.5074462890625,0.0149688720703125
1782986338199894300,9.619894287109375,-0.861236572265625,-0.507354736328125,0.0123291015625
1782986338209968000,9.629968017578125,-0.865478515625,-0.508758544921875,0.0176239013671875
1782986338220043300,9.640043212890625,-0.8647003173828125,-0.5101318359375,0.020050048828125
1782986338230117000,9.6501171875,-0.8625946044921875,-0.5104522705078125,0.025238037109375
1782986338240191200,9.660191162109374,-0.8568878173828125,-0.5086517333984375,0.0326080322265625
1782986338250266000,9.67026611328125,-0.854583740234375,-0.508087158203125,0.0391387939453125
1782986338260340200,9.68034033203125,-0.8528289794921875,-0.5052337646484375,0.0413818359375
1782986338270414000,9.6904140625,-0.847900390625,-0.5024261474609375,0.0418243408203125
1782986338280488200,9.70048828125,-0.8440093994140625,-0.5019073486328125,0.0383758544921875
1782986338290563000,9.71056298828125,-0.8434295654296875,-0.5030670166015625,0.0289764404296875
1782986338300637200,9.72063720703125,-0.8438568115234375,-0.504730224609375,0.0186614990234375
1782986338310711000,9.7307109375,-0.8465423583984375,-0.504058837890625,0.0139312744140625
1782986338320786200,9.7407861328125,-0.8491363525390625,-0.504547119140625,0.015380859375
1782986338330860000,9.750860107421875,-0.8474273681640625,-0.5100250244140625,0.0154266357421875
1782986338340934400,9.760934326171874,-0.8474273681640625,-0.511474609375,0.0222930908203125
1782986338351009000,9.771009033203125,-0.84979248046875,-0.5116119384765625,0.0258026123046875
1782986338361083400,9.78108349609375,-0.852020263671875,-0.51202392578125,0.0236358642578125
1782986338371157200,9.7911572265625,-0.85284423828125,-0.511077880859375,0.020721435546875
1782986338381231000,9.801231201171875,-0.85394287109375,-0.5138397216796875,0.01959228515625
1782986338391306200,9.81130615234375,-0.857757568359375,-0.5154266357421875,0.0211029052734375
1782986338401380400,9.82138037109375,-0.8600921630859375,-0.515106201171875,0.0217437744140625
1782986338411454200,9.8314541015625,-0.86370849609375,-0.5124664306640625,0.025390625
1782986338421529300,9.841529296875,-0.8673095703125,-0.51007080078125,0.027923583984375
1782986338431603200,9.851603271484375,-0.868194580078125,-0.50994873046875,0.0267181396484375
1782986338441677000,9.861677001953124,-0.86749267578125,-0.5103607177734375,0.024810791015625
1782986338451751200,9.871751220703125,-0.86346435546875,-0.510711669921875,0.0233612060546875
1782986338461826000,9.881825927734376,-0.860748291015625,-0.5121002197265625,0.024078369140625
1782986338471900200,9.891900146484375,-0.8576507568359375,-0.5121307373046875,0.0294342041015625
1782986338481974000,9.90197412109375,-0.8548431396484375,-0.51165771484375,0.034088134765625
1782986338492049200,9.912049072265624,-0.84869384765625,-0.5104522705078125,0.034393310546875
1782986338502123000,9.922123046875,-0.84356689453125,-0.509765625,0.0364837646484375
1782986338512197400,9.932197265625,-0.8368072509765625,-0.509185791015625,0.0368499755859375
1782986338522272000,9.94227197265625,-0.837188720703125,-0.510467529296875,0.0322418212890625
1782986338532346400,9.952346435546875,-0.8396453857421875,-0.5117950439453125,0.02911376953125
1782986338542420200,9.962420166015624,-0.8458099365234375,-0.5084228515625,0.0294952392578125
1782986338552494300,9.972494384765625,-0.8490447998046875,-0.5098114013671875,0.0319366455078125
1782986338562569200,9.9825693359375,-0.852935791015625,-0.5123138427734375,0.033050537109375
1782986338572643300,9.992643310546875,-0.85546875,-0.5140380859375,0.0371551513671875
1782986338582717200,10.00271728515625,-0.8554534912109375,-0.512969970703125,0.0374908447265625
1782986338592792300,10.012792236328124,-0.8560943603515625,-0.511322021484375,0.033050537109375
1782986338602866200,10.0228662109375,-0.8540802001953125,-0.5119171142578125,0.0315704345703125
1782986338612940000,10.03293994140625,-0.8514556884765625,-0.5130462646484375,0.0333709716796875
1782986338623014100,10.04301416015625,-0.846649169921875,-0.51544189453125,0.0359344482421875
1782986338633089300,10.05308935546875,-0.838623046875,-0.5126495361328125,0.0360260009765625
1782986338643163100,10.0631630859375,-0.8353118896484375,-0.5151519775390625,0.0325775146484375
1782986338653237000,10.073237060546875,-0.834136962890625,-0.5167999267578125,0.030517578125
1782986338663312100,10.08331201171875,-0.8348541259765625,-0.515838623046875,0.028076171875
1782986338673386000,10.093385986328125,-0.8369293212890625,-0.517364501953125,0.020721435546875
1782986338683460400,10.10346044921875,-0.8479156494140625,-0.5194244384765625,0.026031494140625
1782986338693534200,10.1135341796875,-0.8586883544921875,-0.516754150390625,0.0279998779296875
1782986338703609300,10.123609375,-0.86181640625,-0.515228271484375,0.0207672119140625
1782986338713683200,10.13368310546875,-0.864959716796875,-0.5113067626953125,0.0177154541015625
1782986338723757300,10.14375732421875,-0.862518310546875,-0.5108184814453125,0.020965576171875
1782986338733832000,10.15383203125,-0.858551025390625,-0.5136260986328125,0.01763916015625
1782986338743905800,10.16390576171875,-0.8638153076171875,-0.515533447265625,0.0190277099609375
1782986338753979600,10.173979736328125,-0.8671722412109375,-0.5166015625,0.015869140625
1782986338764053800,10.1840537109375,-0.867401123046875,-0.511962890625,0.0203094482421875
1782986338774128600,10.194128662109375,-0.863861083984375,-0.5068206787109375,0.0210113525390625
1782986338784202800,10.20420263671875,-0.8583526611328125,-0.507720947265625,0.0237274169921875
1782986338794276600,10.214276611328126,-0.85089111328125,-0.512786865234375,0.0235595703125
1782986338804351700,10.224351806640625,-0.85125732421875,-0.5171661376953125,0.02349853515625
1782986338814425600,10.234425537109376,-0.8514556884765625,-0.511138916015625,0.0223388671875
1782986338824500000,10.2445,-0.8589935302734375,-0.499298095703125,0.018524169921875
1782986338834574600,10.25457470703125,-0.863311767578125,-0.502288818359375,0.015899658203125
1782986338844649000,10.26464892578125,-0.853668212890625,-0.5080718994140625,0.0329742431640625
1782986338854722800,10.274722900390625,-0.849456787109375,-0.525360107421875,0.0525054931640625
1782986338864797000,10.284796875,-0.8466949462890625,-0.5396728515625,0.03125
1782986338874871800,10.294871826171875,-0.83251953125,-0.53521728515625,-0.016021728515625
1782986338884946000,10.30494580078125,-0.8276214599609375,-0.55859375,-0.037750244140625
1782986338895019800,10.315019775390626,-0.849609375,-0.5472564697265625,-0.015228271484375
1782986338905095000,10.325094970703125,-0.878662109375,-0.4858551025390625,0.0249176025390625
1782986338915168800,10.335168701171876,-0.8941802978515625,-0.4396514892578125,0.054229736328125
