time,seconds_elapsed,z,y,x
1782986328663315700,0.083315673828125,-0.06137419864535332,-0.03632275387644768,0.1846626102924347
1782986328673389600,0.0933896484375,-0.07222171127796173,-0.016440529376268387,0.15264780819416046
1782986328683464000,0.1034638671875,-0.07551071792840958,-0.001981428824365139,0.12714964151382446
1782986328693538600,0.11353857421875,-0.07303077727556229,0.011123986914753914,0.11670658737421036
1782986328703613000,0.123613037109375,-0.07976751029491425,0.023104749619960785,0.11529485136270523
1782986328713686800,0.133686767578125,-0.09677200019359589,0.049410343170166016,0.10641834139823914
1782986328723760600,0.1437607421875,-0.10649120807647705,0.06692542135715485,0.1035517156124115
1782986328733835500,0.15383544921875,-0.11610278487205505,0.05891984701156616,0.09467105567455292
1782986328743909600,0.16390966796875,-0.10980920493602753,0.04406260326504707,0.10090737789869308
1782986328753983500,0.1739833984375,-0.09872942417860031,0.050359759479761124,0.1097523495554924
1782986328764058600,0.18405859375,-0.09116045385599136,0.0495711974799633,0.11564353108406067
1782986328774132500,0.194132568359375,-0.08594554662704468,0.05258845537900925,0.1164880245923996
1782986328784206600,0.20420654296875,-0.0801856592297554,0.05934995412826538,0.11772266030311584
1782986328794281500,0.214281494140625,-0.08095967024564743,0.057057738304138184,0.1114606186747551
1782986328804355600,0.22435546875,-0.08091598749160767,0.05054284632205963,0.10397820174694061
1782986328814429400,0.234429443359375,-0.07262003421783447,0.04648849368095398,0.0933542400598526
1782986328824503300,0.24450341796875,-0.05975218117237091,0.0390460230410099,0.09085166454315186
1782986328834578400,0.254578369140625,-0.05388728901743889,0.038420576602220535,0.09314769506454468
1782986328844652300,0.26465234375,-0.055133648216724396,0.005379802081733942,0.08863949775695801
1782986328854726700,0.2747265625,-0.052848394960165024,-0.044429387897253036,0.08048062026500702
1782986328864801300,0.28480126953125,-0.043583258986473083,-0.07165993750095367,0.06662020087242126
1782986328874875600,0.294875732421875,-0.04335829243063927,-0.09229069203138351,0.05014871433377266
1782986328884949500,0.304949462890625,-0.048039063811302185,-0.1270984709262848,0.03277744725346565
1782986328895023600,0.315023681640625,-0.0530824214220047,-0.12076219916343689,0.032089751213788986
1782986328905098500,0.325098388671875,-0.06249057129025459,-0.07580031454563141,0.05040298029780388
1782986328915172600,0.335172607421875,-0.07180684059858322,-0.051833733916282654,0.06039675697684288
1782986328925246500,0.34524658203125,-0.07994972169399261,-0.04326288029551506,0.0700770765542984
1782986328935321600,0.355321533203125,-0.08046696335077286,-0.0443563312292099,0.07770242542028427
1782986328945395500,0.3653955078125,-0.07528099417686462,-0.04085586965084076,0.0874147042632103
1782986328955469600,0.375469482421875,-0.07575805485248566,-0.037037644535303116,0.09881876409053802
1782986328965544400,0.38554443359375,-0.07819324731826782,-0.04946022480726242,0.10879603028297424
1782986328975618600,0.39561865234375,-0.08120503276586533,-0.058032646775245667,0.12000512331724167
1782986328985692400,0.4056923828125,-0.08080875873565674,-0.05281897634267807,0.13109320402145386
1782986328995766500,0.4157666015625,-0.0740659311413765,-0.03617936372756958,0.1384652853012085
1782986329005841400,0.42584130859375,-0.07428190857172012,-0.030669284984469414,0.14356204867362976
1782986329015915500,0.43591552734375,-0.07803706079721451,-0.02002234198153019,0.14043202996253967
1782986329025989600,0.44598974609375,-0.08344034850597382,-0.0009418576955795288,0.13669535517692566
1782986329036064500,0.456064453125,-0.09037568420171738,0.028253085911273956,0.1316746026277542
1782986329046138600,0.466138671875,-0.08441340178251266,0.05118156969547272,0.11711110174655914
1782986329056212500,0.47621240234375,-0.06889305263757706,0.04553595930337906,0.09296141564846039
1782986329066287600,0.48628759765625,-0.04972947761416435,0.029514385387301445,0.07276879251003265
1782986329076361500,0.496361572265625,-0.037881553173065186,0.01024254597723484,0.06054867431521416
1782986329086435600,0.506435546875,-0.030726969242095947,-0.0092283571138978,0.054689984768629074
1782986329096509400,0.516509521484375,-0.024922801181674004,-0.027095643803477287,0.05368821695446968
1782986329106584600,0.52658447265625,-0.028711147606372833,-0.045625653117895126,0.04891769960522652
1782986329116658400,0.536658447265625,-0.034736841917037964,-0.050349634140729904,0.045371536165475845
1782986329126732500,0.546732666015625,-0.03868257999420166,-0.05542748421430588,0.0345095694065094
1782986329136807400,0.556807373046875,-0.03757840767502785,-0.04956952854990959,0.017194924876093864
1782986329146881500,0.566881591796875,-0.0256210807710886,-0.03229866176843643,-0.0034975712187588215
1782986329156955400,0.576955322265625,-0.022445587441325188,-0.008079825900495052,-0.024626638740301132
1782986329167030500,0.587030517578125,-0.012726115062832832,0.0067257508635520935,-0.03972490131855011
1782986329177104400,0.5971044921875,-0.0032487662974745035,0.019791778177022934,-0.043729428201913834
1782986329187178500,0.607178466796875,0.002806995529681444,0.03769594058394432,-0.02841225638985634
1782986329197252600,0.617252685546875,0.014265064150094986,0.043863773345947266,-0.00844054576009512
1782986329207327500,0.627327392578125,0.023230861872434616,0.02988617494702339,0.012493498623371124
1782986329217401600,0.637401611328125,0.027669692412018776,0.016012243926525116,0.02378043904900551
1782986329227475500,0.647475341796875,0.02750564180314541,-0.013277732767164707,0.023759666830301285
1782986329237550600,0.657550537109375,0.030399935320019722,-0.028559813275933266,0.021498212590813637
1782986329247624700,0.667624755859375,0.03954603150486946,-0.018025679513812065,0.027007760480046272
1782986329257698600,0.677698486328125,0.03704805672168732,-0.003296231385320425,0.02315266616642475
1782986329267773700,0.687773681640625,0.03675004839897156,0.008240848779678345,0.01240334939211607
1782986329277847600,0.69784765625,0.031315602362155914,0.02505684643983841,0.006961446721106768
1782986329287921400,0.70792138671875,0.02267284505069256,0.03373049572110176,-0.005028903018683195
1782986329297995500,0.71799560546875,0.01648651249706745,0.021516844630241394,-0.011309819296002388
1782986329308070400,0.7280703125,-0.0009598564938642085,0.05030960962176323,-0.015196702443063259
1782986329318144500,0.73814453125,0.008262746967375278,0.07112634181976318,-0.02444680966436863
1782986329328218400,0.74821826171875,0.01576167717576027,0.00869731418788433,-0.056624189019203186
1782986329338293500,0.75829345703125,0.025678230449557304,-0.02873811684548855,-0.07980405539274216
1782986329348367400,0.768367431640625,0.03341870754957199,-0.01786762662231922,-0.07311899214982986
1782986329358441500,0.77844140625,0.044153597205877304,0.004316706210374832,-0.047590676695108414
1782986329368516400,0.788516357421875,0.04887804388999939,0.011043318547308445,-0.021055741235613823
1782986329378590500,0.798590576171875,0.049450334161520004,0.016368605196475983,-0.0009306481224484742
1782986329388664600,0.80866455078125,0.04658503830432892,0.02580951154232025,0.00871265772730112
1782986329398738700,0.81873876953125,0.05436529591679573,0.035330407321453094,0.01926570013165474
1782986329408813600,0.8288134765625,0.06409302353858948,0.03757678344845772,0.02196401357650757
1782986329418887700,0.8388876953125,0.07310596853494644,0.03678032383322716,0.022909188643097878
1782986329428961500,0.84896142578125,0.08256419003009796,0.03777182102203369,0.016578588634729385
1782986329439036700,0.85903662109375,0.08648370951414108,0.03136344254016876,-0.0027727726846933365
1782986329449110500,0.869110595703125,0.088302381336689,0.004611455835402012,-0.023869268596172333
1782986329459184400,0.879184326171875,0.09137057512998581,-0.0023596102837473154,-0.04145938158035278
1782986329469259500,0.889259521484375,0.09188829362392426,0.0001754527911543846,-0.04781368374824524
1782986329479333600,0.899333740234375,0.08397457748651505,0.010225501842796803,-0.037488676607608795
1782986329489407500,0.909407470703125,0.08001551777124405,0.013396261259913445,-0.03144756332039833
1782986329499481300,0.9194814453125,0.07309294492006302,0.011590078473091125,-0.023931123316287994
1782986329509556500,0.929556396484375,0.07136721909046173,0.00671516265720129,-0.027839045971632004
1782986329519630300,0.93963037109375,0.06470882892608643,-0.0032498796936124563,-0.031210938468575478
1782986329529704400,0.949704345703125,0.06085735931992531,-0.010487819090485573,-0.034924451261758804
1782986329539779300,0.959779296875,0.060408804565668106,-0.024545975029468536,-0.03806496411561966
1782986329549853400,0.969853515625,0.0635252371430397,-0.01626700535416603,-0.04035022482275963
1782986329559927600,0.979927490234375,0.06545013189315796,0.0026783039793372154,-0.04281916096806526
1782986329570002400,0.99000244140625,0.07062305510044098,0.021164368838071823,-0.037664879113435745
1782986329580076500,1.00007666015625,0.07027512788772583,0.04754599183797836,-0.032840896397829056
1782986329590150700,1.010150634765625,0.06997152417898178,0.0666336640715599,-0.02913776971399784
1782986329600224500,1.020224609375,0.07128572463989258,0.06501122564077377,-0.03643200173974037
1782986329610299600,1.030299560546875,0.07387325167655945,0.03461470454931259,-0.04346940293908119
1782986329620373500,1.04037353515625,0.07819895446300507,0.012117878533899784,-0.05744151026010513
1782986329630447600,1.050447509765625,0.07777577638626099,-0.00963109266012907,-0.05993902310729027
1782986329640522500,1.0605224609375,0.07858321070671082,-0.03084545210003853,-0.05955171585083008
1782986329650596600,1.0705966796875,0.072992704808712,-0.029068857431411743,-0.05095263570547104
1782986329660670500,1.08067041015625,0.06963351368904114,-0.011484435759484768,-0.03177835792303085
1782986329670745600,1.09074560546875,0.06446538120508194,0.010075450874865055,-0.021328646689653397
1782986329680819500,1.1008193359375,0.057061485946178436,0.025270672515034676,-0.014843250624835491
1782986329690893300,1.110893310546875,0.05432455614209175,0.04552001878619194,-0.0033192201517522335
1782986329700967400,1.120967529296875,0.05215670168399811,0.06953670084476471,-0.004319969564676285
1782986329711042300,1.131042236328125,0.04747912287712097,0.08739292621612549,-0.00427735922858119
1782986329721117200,1.1411171875,0.04777892306447029,0.12038883566856384,-0.0014603842282667756
1782986329731191000,1.15119091796875,0.04877867177128792,0.14243873953819275,-0.003478261409327388
1782986329741266200,1.16126611328125,0.05096979811787605,0.1715555042028427,-0.0009618914336897433
1782986329751340300,1.17134033203125,0.049007847905159,0.2050119936466217,-0.0002295222075190395
1782986329761414400,1.181414306640625,0.04703129455447197,0.2566962242126465,0.003758229548111558
1782986329771489300,1.1914892578125,0.04553486406803131,0.28055283427238464,0.005996616557240486
1782986329781563400,1.2015634765625,0.046048976480960846,0.28725263476371765,0.009423356503248215
1782986329791637200,1.21163720703125,0.05142536386847496,0.295860230922699,0.029633553698658943
1782986329801711400,1.22171142578125,0.06130379065871239,0.3000239431858063,0.06012629717588425
1782986329811786200,1.2317861328125,0.06752520054578781,0.30004817247390747,0.10170196741819382
1782986329821860400,1.2418603515625,0.0584772489964962,0.3122553825378418,0.1356566846370697
1782986329831934200,1.251934326171875,0.042500149458646774,0.3396763503551483,0.1599969118833542
1782986329842009300,1.26200927734375,0.0308325607329607,0.35549482703208923,0.16174912452697754
1782986329852083200,1.272083251953125,0.01394651923328638,0.38099434971809387,0.15186506509780884
1782986329862157300,1.2821572265625,0.006876116618514061,0.42778125405311584,0.14483101665973663
1782986329872231200,1.292231201171875,0.00235699862241745,0.42526775598526,0.14502835273742676
1782986329882306300,1.302306396484375,0.0034930515103042126,0.35782262682914734,0.15427038073539734
1782986329892380200,1.312380126953125,0.0071740723215043545,0.2831651568412781,0.18757639825344086
1782986329902454300,1.322454345703125,0.021509842947125435,0.188411146402359,0.23135459423065186
1782986329912529200,1.332529052734375,0.02491442859172821,0.10033082962036133,0.2799932658672333
1782986329922603300,1.342603271484375,0.018727604299783707,0.04333503544330597,0.3011859655380249
1782986329932677400,1.352677490234375,0.01146383211016655,0.008669732138514519,0.29425564408302307
1782986329942752300,1.362752197265625,0.010112354531884193,-0.014934270642697811,0.2647106349468231
1782986329952826400,1.372826416015625,0.007337341550737619,-0.026352839544415474,0.21484027802944183
1782986329962900200,1.382900146484375,0.007417348213493824,-0.02207978442311287,0.16679182648658752
1782986329972974300,1.392974365234375,0.006748096086084843,-0.012655656784772873,0.11464127153158188
1782986329983049200,1.40304931640625,0.010152027942240238,-0.004502224735915661,0.07354918122291565
1782986329993123300,1.413123291015625,0.01227217074483633,-0.008582720533013344,0.04545709118247032
1782986330003197200,1.423197265625,0.015820728614926338,-0.020501885563135147,0.022438840940594673
1782986330013272300,1.433272216796875,0.022400332614779472,-0.022911781445145607,0.010091893374919891
1782986330023346200,1.44334619140625,0.026453958824276924,-0.04641038551926613,-0.0006908143986947834
1782986330033420300,1.453420166015625,0.02425392158329487,-0.07812117785215378,-0.00023328332463279366
1782986330043495200,1.4634951171875,0.021036934107542038,-0.0893370658159256,0.005395073909312487
1782986330053569300,1.4735693359375,0.022655338048934937,-0.09828715026378632,0.00883401371538639
1782986330063643100,1.48364306640625,0.02819744497537613,-0.10357534885406494,0.009781131520867348
1782986330073717200,1.49371728515625,0.027310345321893692,-0.10179848968982697,0.00895661674439907
1782986330083792100,1.503792236328125,0.016954196617007256,-0.09882698953151703,0.0015334577765315771
1782986330093866200,1.5138662109375,0.014221527613699436,-0.07951188087463379,0.007630764972418547
1782986330103940400,1.5239404296875,0.013611748814582825,-0.06465016305446625,0.026922306045889854
1782986330114015200,1.53401513671875,0.007910186424851418,-0.05707107111811638,0.05462264269590378
1782986330124089300,1.54408935546875,0.006279035937041044,-0.06458209455013275,0.07661280781030655
1782986330134163500,1.55416357421875,0.00605825986713171,-0.07313430309295654,0.10092427581548691
1782986330144237300,1.5642373046875,0.0043017929419875145,-0.08115416020154953,0.12333154678344727
1782986330154312400,1.5743125,0.004461582750082016,-0.08494250476360321,0.14154250919818878
1782986330164386300,1.58438623046875,-0.0027828330639749765,-0.07499928027391434,0.15485337376594543
1782986330174460200,1.594460205078125,-0.0005766705144196749,-0.05967279151082039,0.16290144622325897
1782986330184535300,1.604535400390625,-0.0020556277595460415,-0.07638750970363617,0.1597708910703659
1782986330194609200,1.614609130859375,0.003913581371307373,-0.0505167618393898,0.14927910268306732
1782986330204683300,1.624683349609375,0.011004170402884483,-0.058257900178432465,0.13850757479667664
1782986330214758100,1.634758056640625,0.012814320623874664,-0.05322825908660889,0.1233278214931488
1782986330224832300,1.644832275390625,0.0072917933575809,-0.05557579547166824,0.10583388060331345
1782986330234906000,1.654906005859375,-0.0008220592280849814,-0.06179587543010712,0.0832609310746193
1782986330244980200,1.664980224609375,-0.006015825551003218,-0.0678415521979332,0.053169507533311844
1782986330255055000,1.67505517578125,-0.008941840380430222,-0.07417108863592148,0.02660420723259449
1782986330265129200,1.685129150390625,-0.011101237498223782,-0.0686020776629448,0.010154643096029758
1782986330275203300,1.695203369140625,-0.008315837010741234,-0.04695163667201996,0.01467376109212637
1782986330285278200,1.7052783203125,-0.011564591899514198,-0.016432728618383408,0.028445415198802948
1782986330295352300,1.715352294921875,-0.005348241422325373,0.004024077672511339,0.05058959871530533
1782986330305426400,1.725426513671875,0.006464475765824318,-0.00018078740686178207,0.07071351259946823
1782986330315501300,1.735501220703125,0.013270716182887554,-0.01819387450814247,0.08582136034965515
1782986330325575400,1.745575439453125,0.019469860941171646,-0.04479653760790825,0.09748921543359756
1782986330335649300,1.755649169921875,0.021627288311719894,-0.07592808455228806,0.09468890726566315
1782986330345723100,1.76572314453125,0.023761693388223648,-0.09775838255882263,0.07467865943908691
1782986330355798300,1.77579833984375,0.0235891193151474,-0.11509236693382263,0.05056719481945038
1782986330365872400,1.785872314453125,0.02771763689815998,-0.11884241551160812,0.03377343714237213
1782986330375946200,1.7959462890625,0.029498757794499397,-0.10650612413883209,0.023583650588989258
1782986330386021400,1.806021484375,0.021145865321159363,-0.07877301424741745,0.025857755914330482
1782986330396095200,1.81609521484375,0.009351790882647038,-0.061182573437690735,0.03443979471921921
1782986330406169000,1.826169189453125,0.0003314753994345665,-0.05355435609817505,0.04640815779566765
1782986330416243200,1.8362431640625,-0.010358985513448715,-0.034388650208711624,0.05154139921069145
1782986330426318000,1.846318115234375,-0.009707381017506123,-0.01387728564441204,0.048352696001529694
1782986330436392200,1.85639208984375,-0.0018808827735483646,-0.0036608672235161066,0.048240579664707184
1782986330446466300,1.86646630859375,-0.00001800834434106946,-0.00295868213288486,0.05563003197312355
1782986330456541200,1.876541259765625,0.001030744519084692,0.007005535066127777,0.07353632897138596
1782986330466615300,1.886615234375,0.0036902891006320715,0.017868047580122948,0.09092201292514801
1782986330476689400,1.896689453125,0.0022644326090812683,0.01933012343943119,0.11385662108659744
1782986330486764300,1.906764404296875,-0.00413639098405838,0.010948042385280132,0.11533240973949432
1782986330496838400,1.91683837890625,-0.0012987926602363586,-0.012462208978831768,0.11335794627666473
1782986330506912300,1.926912353515625,0.0037965914234519005,-0.015838272869586945,0.10534242540597916
1782986330516986400,1.936986328125,0.010036110877990723,-0.008546272292733192,0.0885903462767601
1782986330527061200,1.947061279296875,0.01566816307604313,-0.0026212718803435564,0.07573526352643967
1782986330537135400,1.95713525390625,0.009403876960277557,0.01806243509054184,0.06936445087194443
1782986330547209200,1.967209228515625,0.0014236088609322906,0.026774248108267784,0.06622723489999771
1782986330557284400,1.977284423828125,-0.00257060001604259,0.024894054979085922,0.06624161452054977
1782986330567358200,1.987358154296875,0.0001928791170939803,0.015154656022787094,0.06621165573596954
1782986330577432000,1.99743212890625,0.004456866066902876,-0.006857435218989849,0.06563694030046463
1782986330587506200,2.007506103515625,0.009324549697339535,-0.015989921987056732,0.05826964229345322
1782986330597581300,2.017581298828125,0.008444641716778278,-0.029483359307050705,0.04271837696433067
1782986330607655200,2.0276552734375,0.008398540318012238,-0.01453456562012434,0.033225107938051224
1782986330617729300,2.037729248046875,0.005853889975696802,0.00018659024499356747,0.02338925562798977
1782986330627804200,2.04780419921875,0.001990595832467079,0.016110684722661972,0.01668498106300831
1782986330637878300,2.057878173828125,0.0006030889926478267,0.02638276293873787,0.010732815600931644
1782986330647952400,2.067952392578125,-0.0012271535815671086,0.030688725411891937,0.011460874229669571
1782986330658027300,2.07802734375,0.003112201113253832,0.030056223273277283,0.01232986431568861
1782986330668101400,2.088101318359375,0.005344679579138756,0.01874225027859211,0.018931355327367783
1782986330678175200,2.09817529296875,0.009495748206973076,0.019870098680257797,0.03613191470503807
1782986330688249300,2.108249267578125,0.010508728213608265,0.02242492325603962,0.052314743399620056
1782986330698324200,2.11832421875,0.009563571773469448,0.007694980129599571,0.0663037896156311
1782986330708398300,2.1283984375,0.004367846064269543,0.008011223748326302,0.06798069924116135
1782986330718471700,2.1384716796875,0.0025608912110328674,0.004683870356529951,0.058689456433057785
1782986330728546800,2.148546875,-0.001317828195169568,-0.0007290451321750879,0.037848472595214844
1782986330738620700,2.15862060546875,0.0040250057354569435,-0.008331304416060448,0.015851827338337898
1782986330748694800,2.16869482421875,0.005106831900775433,-0.0070284223183989525,-0.0024673081934452057
1782986330758769700,2.178769775390625,0.002279086969792843,-0.007930967956781387,-0.013438466005027294
1782986330768843800,2.18884375,-0.0002759495400823653,0.004577367566525936,-0.012495175004005432
1782986330778918000,2.19891796875,-0.0008868786972016096,0.022179530933499336,0.006846032105386257
1782986330788991700,2.20899169921875,-0.0054448372684419155,0.024286866188049316,0.027161357924342155
1782986330799067000,2.21906689453125,-0.009791914373636246,0.01715864986181259,0.046174462884664536
1782986330809140700,2.229140625,-0.004312236327677965,0.022304965183138847,0.05733450502157211
1782986330819214800,2.23921484375,-0.0019422894110903144,0.01992250233888626,0.06690484285354614
1782986330829289700,2.249289794921875,-0.003352097002789378,0.01958484947681427,0.07253459841012955
1782986330839363800,2.25936376953125,-0.0020463489927351475,0.015413540415465832,0.07152632623910904
1782986330849437700,2.269437744140625,-0.003256730269640684,0.0045226095244288445,0.058782730251550674
1782986330859511800,2.27951171875,-0.0005235280259512365,0.012819686904549599,0.04998844116926193
1782986330869586700,2.289586669921875,-0.0023481203243136406,0.021354900673031807,0.04326095059514046
1782986330879660800,2.299660888671875,-0.0025939298793673515,0.02768656611442566,0.0387016199529171
1782986330889734700,2.309734619140625,-0.005732535384595394,0.03113958239555359,0.044198546558618546
1782986330899809800,2.319809814453125,-0.007887565530836582,0.0346514955163002,0.049424998462200165
1782986330909883600,2.329883544921875,-0.00958633329719305,0.023449920117855072,0.047363266348838806
1782986330919957800,2.339957763671875,-0.01262047328054905,0.007840601727366447,0.04366040602326393
1782986330930031900,2.350031982421875,-0.010423421859741211,-0.00008455314673483372,0.04334208741784096
1782986330940106800,2.360106689453125,-0.009781068190932274,-0.01238835696130991,0.030709918588399887
1782986330950180900,2.370180908203125,-0.008016090840101242,-0.01580057293176651,0.024559881538152695
1782986330960254700,2.380254638671875,-0.00672445772215724,-0.012727550230920315,0.009958035312592983
1782986330970329900,2.390329833984375,-0.012873003259301186,-0.004929203540086746,0.005438102409243584
1782986330980403700,2.40040380859375,-0.017665361985564232,0.003287447150796652,-0.00048796378541737795
1782986330990477800,2.410477783203125,-0.021214444190263748,0.009092351421713829,0.00035043267416767776
1782986331000552700,2.420552734375,-0.026022247970104218,0.010913687758147717,0.004245571792125702
1782986331010626800,2.430626708984375,-0.03147955611348152,0.014203201048076153,0.012714623473584652
1782986331020700700,2.44070068359375,-0.03494326397776604,0.02618875540792942,0.023350223898887634
1782986331030774800,2.45077490234375,-0.03524987772107124,0.03676075488328934,0.03191481903195381
1782986331040849700,2.460849609375,-0.03763899952173233,0.05812942981719971,0.04074239730834961
1782986331050923800,2.470923828125,-0.03368420526385307,0.0723738819360733,0.05560416728258133
1782986331060997600,2.48099755859375,-0.025260893628001213,0.06422966718673706,0.05886467546224594
1782986331071072800,2.49107275390625,-0.01635807380080223,0.04243309795856476,0.0626838430762291
1782986331081146600,2.501146728515625,-0.00744900107383728,0.015200680121779442,0.05926807224750519
1782986331091220700,2.511220703125,-0.0022673073690384626,-0.022128291428089142,0.05472511053085327
1782986331101295600,2.521295654296875,-0.00008404790423810482,-0.044414687901735306,0.039008729159832
1782986331111369700,2.53136962890625,-0.006193759851157665,-0.05005258694291115,0.011202431283891201
1782986331121443800,2.54144384765625,-0.005102396011352539,-0.044675666838884354,-0.01856505125761032
1782986331131518000,2.55151806640625,-0.014099557884037495,-0.015291196294128895,-0.04128040373325348
1782986331141592800,2.5615927734375,-0.017454607412219048,0.018446527421474457,-0.04591643437743187
1782986331151667000,2.5716669921875,-0.020867526531219482,0.02368457242846489,-0.04120834916830063
1782986331161740800,2.58174072265625,-0.021626794710755348,0.02778477594256401,-0.026505567133426666
1782986331171816000,2.59181591796875,-0.01668674126267433,0.024092553183436394,-0.005387798883020878
1782986331181889800,2.601889892578125,-0.01158918533474207,0.011880629695951939,0.014949430711567402
1782986331191963600,2.611963623046875,-0.013975895009934902,0.0029150100890547037,0.030175024643540382
1782986331202037800,2.622037841796875,-0.011081305332481861,-0.0049168141558766365,0.04231477901339531
1782986331212112600,2.632112548828125,-0.009721264243125916,-0.006843761540949345,0.047058749943971634
1782986331222186800,2.642186767578125,-0.009372124448418617,-0.001798136392608285,0.04365229979157448
1782986331232260600,2.652260498046875,-0.009677287191152573,0.004924631677567959,0.03106531873345375
1782986331242335700,2.662335693359375,-0.0031837010756134987,0.005211720243096352,0.02174132503569126
1782986331252409600,2.67240966796875,-0.0011111240601167083,0.0078103551641106606,0.009259904734790325
1782986331262483700,2.682483642578125,0.0011674766428768635,0.008608770556747913,-0.0024359000381082296
1782986331272558600,2.69255859375,-0.0001987532014027238,0.021695483475923538,0.0018228611443191767
1782986331282632700,2.7026328125,-0.0024150358512997627,0.029008522629737854,0.01236152183264494
1782986331292706800,2.712706787109375,-0.011141009628772736,0.03800661861896515,0.02613585628569126
1782986331302781000,2.722781005859375,-0.014883816242218018,0.03829743713140488,0.03899599611759186
1782986331312855800,2.732855712890625,-0.009971104562282562,0.026759855449199677,0.050409622490406036
1782986331322930000,2.742929931640625,-0.006689824163913727,0.00004755030386149883,0.05101575702428818
1782986331333003800,2.753003662109375,-0.004325748421251774,-0.021663788706064224,0.04173966497182846
1782986331343079000,2.763078857421875,-0.0028796521946787834,-0.01940888911485672,0.030771171674132347
1782986331353152800,2.77315283203125,-0.0027281532529741526,-0.004637551493942738,0.015727590769529343
1782986331363226600,2.7832265625,-0.004134568385779858,0.007781567983329296,0.007018521893769503
1782986331373300700,2.79330078125,-0.00897098146378994,0.022090986371040344,0.0034898004960268736
1782986331383376000,2.8033759765625,-0.004011376295238733,0.030639201402664185,0.0005704432260245085
1782986331393449700,2.81344970703125,-0.004268224351108074,0.02500784397125244,0.001239112694747746
1782986331403523600,2.823523681640625,0.000001355423592031002,0.019214671105146408,0.010086932219564915
1782986331413598700,2.8335986328125,0.0037604421377182007,0.011847454123198986,0.024158725515007973
1782986331423672600,2.843672607421875,-0.0013674746733158827,0.00549261923879385,0.03421402350068092
1782986331433746700,2.85374658203125,-0.00012788496678695083,0.0004243438597768545,0.04303198307752609
1782986331443821600,2.863821533203125,-0.0007729025674052536,0.0016110485885292292,0.03423050045967102
1782986331453895700,2.873895751953125,0.0024281118530780077,-0.000359879108145833,0.026706522330641747
1782986331463969800,2.8839697265625,0.003419873071834445,0.0024327116552740335,0.014985417947173119
1782986331474044000,2.8940439453125,0.0024416353553533554,0.003382509807124734,-0.0021847495809197426
1782986331484118800,2.904118896484375,-0.0018820064142346382,0.010164516046643257,-0.01197959017008543
1782986331494193000,2.91419287109375,-0.0020058434456586838,0.00768537912517786,-0.015823597088456154
1782986331504266800,2.924266845703125,-0.0034452821128070354,0.0022088547702878714,-0.010250399820506573
1782986331514342000,2.934341796875,-0.0029006069526076317,-0.0013513739686459303,-0.00017276188009418547
1782986331524415700,2.944415771484375,-0.001983148045837879,0.0029464352410286665,0.016045089811086655
1782986331534489900,2.95448974609375,0.00174613855779171,-0.006033795885741711,0.030271247029304504
1782986331544563700,2.964563720703125,-0.0020776279270648956,-0.005903034470975399,0.03704046830534935
1782986331554638800,2.974638916015625,0.0015758161898702383,-0.005756193306297064,0.035759005695581436
1782986331564712700,2.984712646484375,0.003185431007295847,-0.010425513610243797,0.027950618416070938
1782986331574786600,2.99478662109375,0.0030525107868015766,-0.0060971383936703205,0.012337669730186462
1782986331584861700,3.00486181640625,0.0020674075931310654,0.003130714874714613,-0.004518009256571531
1782986331594935600,3.014935546875,0.0028154405299574137,0.005544271320104599,-0.017352530732750893
1782986331605010000,3.025010009765625,-0.0010045976378023624,0.005837218835949898,-0.02805311232805252
1782986331615084800,3.035084716796875,-0.00012135697761550546,0.011492522433400154,-0.03664187714457512
1782986331625159000,3.045158935546875,-0.002457748167216778,0.01466328278183937,-0.0429258719086647
1782986331635232800,3.055232666015625,-0.004497474059462547,0.012893457897007465,-0.041098807007074356
1782986331645307000,3.065306884765625,-0.012465652078390121,0.008569816127419472,-0.032840609550476074
1782986331655381800,3.0753818359375,-0.014324656687676907,0.005982451140880585,-0.02192489616572857
1782986331665455900,3.085455810546875,-0.007304830476641655,0.002344839507713914,-0.016436653211712837
1782986331675529700,3.09552978515625,-0.0041086082346737385,-0.007866374216973782,0.00003669015131890774
1782986331685604900,3.10560498046875,0.00002248713281005621,-0.01218708697706461,0.00428656255826354
1782986331695678700,3.1156787109375,-0.0028663882985711098,-0.005827093962579966,0.010303760878741741
1782986331705752800,3.1257529296875,-0.008758099749684334,0.000803111819550395,0.005579579621553421
1782986331715826700,3.13582666015625,-0.014093458652496338,0.012581915594637394,-0.003957963082939386
1782986331725902300,3.14590234375,-0.012804755941033363,0.015763593837618828,-0.010350614786148071
1782986331735976200,3.15597607421875,-0.014429206028580666,0.016285700723528862,-0.030725011602044106
1782986331746050300,3.16605029296875,-0.00891966000199318,0.019195204600691795,-0.05122682452201843
1782986331756125200,3.176125244140625,-0.006786768790334463,0.02190481871366501,-0.04956359788775444
1782986331766199300,3.18619921875,-0.005481021013110876,0.02088909037411213,-0.04000790789723396
1782986331776273200,3.196273193359375,-0.006972089409828186,0.01860984042286873,-0.01264134980738163
1782986331786347300,3.20634716796875,-0.00728101609274745,0.014455841854214668,0.01787528209388256
1782986331796422100,3.216422119140625,-0.0005838954821228981,0.012369293719530106,0.03815454989671707
1782986331806496300,3.226496337890625,0.006603443995118141,0.004499119706451893,0.04711848497390747
1782986331816570400,3.2365703125,0.006056739017367363,0.0030945437029004097,0.0423702709376812
1782986331826645200,3.246645263671875,0.005273503251373768,0.004243431147187948,0.03130163997411728
1782986331836719400,3.25671923828125,0.0009291658643633127,0.013115612789988518,0.02113620564341545
1782986331846793200,3.266793212890625,-0.0006836444954387844,0.0189676433801651,0.010491017252206802
1782986331856868400,3.276868408203125,-0.005613446235656738,0.02627832256257534,0.0013319883728399873
1782986331866942200,3.286942138671875,-0.006521850824356079,0.03753150999546051,-0.015616902150213718
1782986331877016300,3.297016357421875,-0.006350627169013023,0.04326155409216881,-0.02954208478331566
1782986331887090200,3.307090087890625,-0.006307483650743961,0.046496495604515076,-0.03731345757842064
1782986331897165300,3.317165283203125,0.00021677021868526936,0.02378343790769577,-0.04425930976867676
1782986331907239200,3.3272392578125,0.006175060290843248,0.014554785564541817,-0.030491037294268608
1782986331917313300,3.337313232421875,0.007037511095404625,0.02288179285824299,-0.010443774983286858
1782986331927388200,3.34738818359375,0.006523254327476025,0.027031531557440758,0.015299138613045216
1782986331937462300,3.357462158203125,0.005750144366174936,0.02758289873600006,0.03818422928452492
1782986331947536100,3.3675361328125,0.010555019602179527,0.022449389100074768,0.042394157499074936
1782986331957610500,3.377610595703125,0.021775972098112106,0.017757249996066093,0.03758285567164421
1782986331967685000,3.38768505859375,0.024699322879314423,0.005935477092862129,0.023002581670880318
1782986331977759500,3.397759521484375,0.025576001033186913,-0.0041071888990700245,-0.0017612710362300277
1782986331987833300,3.407833251953125,0.03006875328719616,-0.016715392470359802,-0.014784661121666431
1782986331997908500,3.417908447265625,0.03277665376663208,-0.010676408186554909,-0.018501633778214455
1782986332007982300,3.427982421875,0.0387708954513073,-0.005899230018258095,-0.010515880770981312
1782986332018056200,3.43805615234375,0.03399059921503067,-0.009526328183710575,0.007327948231250048
1782986332028131300,3.44813134765625,0.02526315487921238,-0.004762731492519379,0.021908754482865334
1782986332038205400,3.458205322265625,0.01833837479352951,-0.006646976340562105,0.03237241506576538
1782986332048279300,3.468279296875,0.007955508306622505,0.0015723379328846931,0.03133084997534752
1782986332058353200,3.478353271484375,-0.0014716318110004067,0.026697710156440735,0.031821008771657944
1782986332068428300,3.48842822265625,-0.017105719074606895,0.02702687680721283,0.032849520444869995
1782986332078502100,3.498502197265625,-0.024447254836559296,0.04385938495397568,0.03942779451608658
1782986332088576300,3.508576171875,-0.02349943481385708,0.0698249414563179,0.054511141031980515
1782986332098651100,3.518651123046875,-0.027458183467388153,0.0920838788151741,0.06710196286439896
1782986332108725200,3.528725341796875,-0.02623659186065197,0.09186284244060516,0.06908521801233292
1782986332118799000,3.538799072265625,-0.01899397000670433,0.0797949880361557,0.058538004755973816
1782986332128873500,3.54887353515625,-0.012077209539711475,0.050505269318819046,0.043845344334840775
1782986332138948000,3.558947998046875,-0.0044822306372225285,0.011851841583848,0.02443581074476242
1782986332149022500,3.5690224609375,0.004076370038092136,-0.023622263222932816,0.006645895540714264
1782986332159096300,3.579096435546875,0.012682709842920303,-0.039707716554403305,-0.00575315160676837
1782986332169171500,3.58917138671875,0.014941869303584099,-0.055844876915216446,-0.010785195045173168
1782986332179245300,3.599245361328125,0.005963540636003017,-0.03655920550227165,-0.006326396018266678
1782986332189319400,3.6093193359375,-0.0024650979321449995,-0.010751844383776188,0.0027930664364248514
1782986332199394300,3.619394287109375,-0.0011409602593630552,-0.0005587160121649504,0.01884966343641281
1782986332209468400,3.629468505859375,0.0016359178116545081,0.0033617231529206038,0.028805091977119446
1782986332219542300,3.639542236328125,0.007360481191426516,-0.003044646233320236,0.03051314502954483
1782986332229616000,3.6496162109375,0.017081284895539284,-0.01335320994257927,0.026669403538107872
1782986332239691300,3.659691162109375,0.019132403656840324,-0.016631096601486206,0.0133653674274683
1782986332249765000,3.66976513671875,0.019445326179265976,-0.012201993726193905,0.00037100561894476414
1782986332259839200,3.679839111328125,0.01863515004515648,0.005121894180774689,-0.004450581502169371
1782986332269914400,3.689914306640625,0.012419331818819046,0.02503461390733719,-0.0010891396086663008
1782986332279988200,3.69998828125,0.008011618629097939,0.03179579973220825,0.011812678538262844
1782986332290062000,3.71006201171875,0.008926414884626865,0.023689137771725655,0.03274485841393471
1782986332300136400,3.720136474609375,0.01156222727149725,0.012628184631466866,0.03939969837665558
1782986332310211000,3.730211181640625,0.015615558251738548,-0.005129240453243256,0.04819745197892189
1782986332320285400,3.740285400390625,0.017041563987731934,-0.010755007155239582,0.045510537922382355
1782986332330359300,3.750359375,0.014090780168771744,-0.005074217915534973,0.04688606038689613
1782986332340434400,3.760434326171875,0.01572035439312458,0.01632623001933098,0.043732576072216034
1782986332350508300,3.77050830078125,0.010770070366561413,0.03196297958493233,0.0390094630420208
1782986332360582400,3.78058251953125,0.013797775842249393,0.03350524231791496,0.03490026667714119
1782986332370656300,3.79065625,0.020816270262002945,0.023003602400422096,0.02713635563850403
1782986332380731400,3.8007314453125,0.025864573195576668,-0.0036454088985919952,0.02080126293003559
1782986332390805200,3.81080517578125,0.029693400487303734,-0.012451684102416039,0.021552007645368576
1782986332400879400,3.82087939453125,0.030271798372268677,-0.0004064480308443308,0.02389458939433098
1782986332410954200,3.830954345703125,0.02209615893661976,0.002706521190702915,0.023322543129324913
1782986332421028400,3.8410283203125,0.015805920585989952,0.008707320317626,0.017378583550453186
1782986332431102200,3.851102294921875,0.014828273095190525,0.019456103444099426,0.006477733142673969
1782986332441177300,3.86117724609375,0.013056935742497444,0.027076169848442078,-0.005376096349209547
1782986332451251200,3.871251220703125,0.008404925465583801,0.023434296250343323,-0.011493643745779991
1782986332461325000,3.881324951171875,0.011009755544364452,0.027723228558897972,-0.0063231335952878
1782986332471399400,3.8913994140625,0.015455370768904686,0.03750475123524666,0.006739138625562191
1782986332481474000,3.90147412109375,0.016029126942157745,0.04435042291879654,0.020288003608584404
1782986332491548400,3.91154833984375,0.011431978084146976,0.04448757320642471,0.030889248475432396
1782986332501622300,3.921622314453125,0.01179829053580761,0.04917173460125923,0.03583347424864769
1782986332511697400,3.931697509765625,0.012846244499087334,0.054309237748384476,0.033886440098285675
1782986332521771300,3.941771240234375,0.01554321963340044,0.04971599206328392,0.02910631336271763
1782986332531845400,3.951845458984375,0.011290950700640678,0.03535756096243858,0.020554637536406517
1782986332541919200,3.961919189453125,0.007818764075636864,0.03400970995426178,0.00945637933909893
1782986332551994400,3.971994384765625,-0.004562272224575281,0.054741621017456055,-0.007411550264805555
1782986332562068200,3.982068115234375,-0.004276431631296873,0.041746944189071655,-0.03243154659867287
1782986332572142300,3.992142333984375,-0.010392647236585617,0.016232261434197426,-0.05604473128914833
1782986332582217200,4.00221728515625,-0.021743785589933395,-0.016057107597589493,-0.0710129663348198
1782986332592291300,4.012291259765625,-0.03806736320257187,-0.03248641639947891,-0.06931520253419876
1782986332602365200,4.022365234375,-0.06578370183706284,-0.04123443365097046,-0.0651019811630249
1782986332612440300,4.0324404296875,-0.08826983720064163,-0.04589097201824188,-0.06332911550998688
1782986332622514200,4.04251416015625,-0.09426700323820114,-0.04196218401193619,-0.05902915075421333
1782986332632588300,4.05258837890625,-0.0847584530711174,-0.025564035400748253,-0.061149828135967255
1782986332642662400,4.062662353515625,-0.0728730633854866,-0.027277301996946335,-0.06471330672502518
1782986332653943300,4.073943359375,-0.059738889336586,-0.002174879191443324,-0.06752987205982208
1782986332664070400,4.0840703125,-0.04692453145980835,0.021117359399795532,-0.05929122492671013
1782986332674145300,4.094145263671875,-0.03296743705868721,0.026615189388394356,-0.04343423247337341
1782986332684219400,4.104219482421875,-0.016200432553887367,0.02450845204293728,-0.02267514169216156
1782986332694293200,4.114293212890625,0.004113893024623394,0.003649776102975011,-0.006619475781917572
1782986332704367000,4.1243671875,0.02128143422305584,-0.01694515347480774,0.0005529653280973434
1782986332714442200,4.134442138671875,0.030656559392809868,-0.03432467579841614,0.009431411512196064
1782986332724516000,4.14451611328125,0.032238394021987915,-0.040268804877996445,0.009992940351366997
1782986332734590200,4.154590087890625,0.025545870885252953,-0.0475887693464756,-0.0017875530757009983
1782986332744665300,4.164665283203125,0.025871843099594116,-0.05536520108580589,-0.02542364038527012
1782986332754739200,4.1747392578125,0.02553734928369522,-0.04854431375861168,-0.04082869365811348
1782986332764813300,4.184813232421875,0.022116370499134064,-0.03774029761552811,-0.05798552557826042
1782986332774887400,4.194887451171875,0.019243085756897926,-0.031050436198711395,-0.0679582729935646
1782986332784962300,4.20496240234375,0.00629896717146039,-0.028455762192606926,-0.07426291704177856
1782986332795036400,4.215036376953125,-0.004647157620638609,-0.027595294639468193,-0.07643712311983109
1782986332805111300,4.225111328125,-0.013478423468768597,-0.026180647313594818,-0.08076190203428268
1782986332815185400,4.235185302734375,-0.013638213276863098,-0.023828810080885887,-0.08101329952478409
1782986332825260300,4.24526025390625,-0.010645121335983276,-0.0312059186398983,-0.09175054728984833
1782986332835334400,4.25533447265625,-0.009970275685191154,-0.0352291539311409,-0.1035374328494072
1782986332845408300,4.265408203125,-0.00597615260630846,-0.04896515607833862,-0.12074504792690277
1782986332855482400,4.275482421875,-0.0037348358891904354,-0.0631084069609642,-0.13350611925125122
1782986332865557200,4.28555712890625,0.0037113281432539225,-0.05143539234995842,-0.12404568493366241
1782986332875631400,4.29563134765625,0.0034093253780156374,-0.0357925184071064,-0.09803938865661621
1782986332885705200,4.305705322265625,0.00539185106754303,-0.02967306599020958,-0.06787180155515671
1782986332895780400,4.3157802734375,0.0083157354965806,-0.033134642988443375,-0.0371282696723938
1782986332905854200,4.325854248046875,0.006611517630517483,-0.03593224287033081,-0.014600936323404312
1782986332915928300,4.33592822265625,0.006209646817296743,-0.03575247898697853,-0.00753317354246974
1782986332926003200,4.346003173828125,-0.002345456974580884,-0.03410036861896515,-0.0197257399559021
1782986332936077300,4.356077392578125,-0.010091260075569153,-0.04383581876754761,-0.038951363414525986
1782986332946151200,4.366151123046875,-0.020816033706068993,-0.05437610298395157,-0.07036394625902176
1782986332956225300,4.376225341796875,-0.025704266503453255,-0.057856589555740356,-0.10752063989639282
1782986332966300200,4.386300048828125,-0.02958822064101696,-0.044924546033144,-0.1383374035358429
1782986332976374300,4.396374267578125,-0.029904071241617203,-0.02284534089267254,-0.154692143201828
1782986332986448400,4.406448486328125,-0.031914833933115005,0.009940707124769688,-0.1466923952102661
1782986332996523300,4.416523193359375,-0.031470887362957,0.0339277982711792,-0.11948740482330322
1782986333006597400,4.426597412109375,-0.03302937373518944,0.03779461979866028,-0.07364802807569504
1782986333016671200,4.436671142578125,-0.032061584293842316,0.012144383043050766,-0.024209370836615562
1782986333026745300,4.446745361328125,-0.026598704978823662,-0.017168710008263588,0.017391784116625786
1782986333036820200,4.4568203125,-0.011232264339923859,-0.04925873503088951,0.039840102195739746
1782986333046894300,4.466894287109375,0.005157200153917074,-0.07236439734697342,0.03533777967095375
1782986333056968200,4.47696826171875,0.01056022197008133,-0.08856759965419769,0.010457195341587067
1782986333067043300,4.487043212890625,0.007805223111063242,-0.08281227201223373,-0.019988927990198135
1782986333077117200,4.4971171875,-0.0023661875165998936,-0.05432257428765297,-0.05525663495063782
1782986333087191300,4.50719140625,-0.004569651558995247,-0.017942311242222786,-0.08345799893140793
1782986333097265200,4.51726513671875,-0.004353669472038746,-0.002079990692436695,-0.09833015501499176
1782986333107340300,4.52734033203125,-0.0029078044462949038,-0.00891883671283722,-0.09641436487436295
1782986333117414100,4.5374140625,0.0031950953416526318,0.007117121480405331,-0.06320474296808243
1782986333127488300,4.54748828125,0.006931866053491831,0.0058023640885949135,-0.015315364114940166
1782986333137563100,4.557563232421875,0.01454850658774376,-0.013432582840323448,0.025041380897164345
1782986333147637200,4.56763720703125,0.01979415863752365,-0.028825687244534492,0.050264060497283936
1782986333157711400,4.57771142578125,0.01725856214761734,-0.024346251040697098,0.05196555703878403
1782986333167786200,4.5877861328125,0.018164534121751785,-0.012949137017130852,0.04585208743810654
1782986333177860400,4.5978603515625,0.015995657071471214,-0.0022677313536405563,0.034825801849365234
1782986333187934200,4.607934326171875,0.011111194267868996,0.0038212959188967943,0.012360108084976673
1782986333198008300,4.61800830078125,0.009885608218610287,-0.008973062969744205,-0.009646391496062279
1782986333208083200,4.628083251953125,0.01469508744776249,-0.015899818390607834,-0.01917666383087635
1782986333218157300,4.6381572265625,0.020524214953184128,-0.020251423120498657,-0.018287701532244682
1782986333228231200,4.648231201171875,0.014621310867369175,-0.018152408301830292,-0.01045882236212492
1782986333238306300,4.658306396484375,0.008463016711175442,-0.008494988083839417,0.003943552728742361
1782986333248380200,4.668380126953125,0.011167990043759346,0.00043938448652625084,0.020417068153619766
1782986333258454300,4.678454345703125,0.011903022415935993,0.007604086771607399,0.029483266174793243
1782986333268528000,4.688528076171875,0.018057063221931458,-0.004449290223419666,0.037845078855752945
1782986333278603300,4.698603271484375,0.021272029727697372,-0.028965285047888756,0.031880661845207214
1782986333288677000,4.708677001953125,0.021898621693253517,-0.04196770116686821,0.023777242749929428
1782986333298751200,4.718751220703125,0.023469621315598488,-0.05094362050294876,0.008936779573559761
1782986333308826000,4.728826171875,0.016433170065283775,-0.04933987930417061,-0.0013055048184469342
1782986333318900200,4.738900146484375,0.007492139935493469,-0.04085478186607361,-0.008349299430847168
1782986333328974300,4.748974365234375,0.005124029703438282,-0.028566483408212662,-0.01025176141411066
1782986333339048400,4.75904833984375,0.005432690493762493,-0.01043994352221489,-0.006746775005012751
1782986333349123300,4.769123291015625,0.00312559911981225,0.004607542417943478,0.007051610853523016
1782986333359197400,4.779197509765625,0.005814326461404562,0.012083301320672035,0.021864114329218864
1782986333369271300,4.789271240234375,0.006635455880314112,0.008685236796736717,0.03611799702048302
1782986333379346400,4.799346435546875,0.00974150002002716,-0.0008480815449729562,0.0471394881606102
1782986333389420300,4.809420166015625,0.013411136344075203,-0.0011602618033066392,0.0623699314892292
1782986333399494100,4.819494140625,0.008556459099054337,-0.013574587181210518,0.06605121493339539
1782986333409569300,4.8295693359375,0.006813770160079002,-0.019077790901064873,0.06442175805568695
1782986333419643100,4.83964306640625,0.0054305242374539375,-0.01622874103486538,0.048933614045381546
1782986333429717200,4.84971728515625,0.0070940470322966576,-0.015310738235712051,0.029435046017169952
1782986333439791000,4.859791015625,0.01005814503878355,-0.010609193705022335,0.016635095700621605
1782986333449866200,4.8698662109375,0.005097475368529558,-0.004699905402958393,0.010949780233204365
1782986333459940000,4.879940185546875,0.007416289299726486,-0.007969468832015991,0.009443229995667934
1782986333470014200,4.89001416015625,0.009636981412768364,-0.016965996474027634,0.009895384311676025
1782986333480089000,4.900089111328125,0.012609334662556648,-0.022983141243457794,0.013436057604849339
1782986333490163200,4.9101630859375,0.015240805223584175,-0.018877346068620682,0.014261105097830296
1782986333500237300,4.9202373046875,0.01846589334309101,-0.017317267134785652,0.01667392998933792
1782986333510312200,4.930312255859375,0.018659615889191628,-0.02425745129585266,0.015494448132812977
1782986333520386300,4.94038623046875,0.014726128429174423,-0.02443029172718525,0.015713360160589218
1782986333530460400,4.95046044921875,0.01075973454862833,-0.022402990609407425,0.01795845478773117
1782986333540534300,4.9605341796875,0.003834716510027647,-0.02525949664413929,0.018870586529374123
1782986333550609400,4.970609375,-0.004544996656477451,-0.013771013356745243,0.024491870775818825
1782986333560683300,4.980683349609375,-0.007312553469091654,-0.005673672072589397,0.029488494619727135
1782986333570757400,4.99075732421875,-0.002718986477702856,-0.0040457844734191895,0.028940366581082344
1782986333580832300,5.000832275390625,-0.00678669847548008,-0.010466932319104671,0.027562713250517845
1782986333590906400,5.01090625,-0.006630174815654755,-0.018237007781863213,0.02186983823776245
1782986333600980200,5.020980224609375,-0.009608919732272625,-0.021193649619817734,0.00980066042393446
1782986333611054000,5.03105419921875,-0.01823166199028492,-0.017421305179595947,-0.004899257328361273
1782986333621129200,5.041129150390625,-0.018808769062161446,-0.014441492967307568,-0.017506394535303116
1782986333631203000,5.051203125,-0.022898558527231216,-0.01166615355759859,-0.024791039526462555
1782986333641277400,5.06127734375,-0.017962388694286346,-0.012101846747100353,-0.03155094012618065
1782986333651352000,5.07135205078125,-0.016462601721286774,-0.0190222579985857,-0.03822057694196701
1782986333661426400,5.081426513671875,-0.014286000281572342,-0.015962019562721252,-0.0408797450363636
1782986333671500300,5.091500244140625,-0.014800752513110638,-0.012452887371182442,-0.040504585951566696
1782986333681574400,5.101574462890625,-0.017470305785536766,-0.002670831046998501,-0.03581928834319115
1782986333691649300,5.111649169921875,-0.016713127493858337,0.006576440297067165,-0.026658879593014717
1782986333701723400,5.121723388671875,-0.01931237243115902,0.00114998291246593,-0.007983730174601078
1782986333711797200,5.13179736328125,-0.02019825205206871,-0.0027872459031641483,0.007394393440335989
1782986333721871600,5.14187158203125,-0.01526048593223095,-0.0128896813839674,0.021943509578704834
1782986333731945700,5.15194580078125,-0.014254391193389893,-0.01588260941207409,0.022736648097634315
1782986333742019600,5.16201953125,-0.017690667882561684,-0.016818711534142494,0.01157081313431263
1782986333752094700,5.1720947265625,-0.018477289006114006,-0.015797793865203857,-0.009172964841127396
1782986333762168600,5.18216845703125,-0.017992326989769936,-0.014308554120361805,-0.03904777020215988
1782986333772242400,5.192242431640625,-0.01811634749174118,-0.013090471737086773,-0.06353674083948135
1782986333782316800,5.20231689453125,-0.01805855706334114,-0.014833244495093822,-0.07310973852872849
1782986333792391400,5.212391357421875,-0.013251530937850475,-0.024567659944295883,-0.07915336638689041
1782986333802465800,5.2224658203125,-0.010652018710970879,-0.031319305300712585,-0.07442571967840195
1782986333812539600,5.23253955078125,-0.01041506603360176,-0.035998519510030746,-0.06288927048444748
1782986333822614800,5.24261474609375,-0.015023666433990002,-0.03461846709251404,-0.04539204016327858
1782986333832688600,5.252688720703125,-0.017696646973490715,-0.025930285453796387,-0.018985016271471977
1782986333842762800,5.2627626953125,-0.020755553618073463,-0.014166569337248802,0.006789322942495346
1782986333852836600,5.272836669921875,-0.02193295769393444,-0.0050806328654289246,0.026439573615789413
1782986333862911700,5.282911865234375,-0.017887616530060768,-0.009032230824232101,0.04123929142951965
1782986333872985600,5.292985595703125,-0.013958962634205818,-0.00896722637116909,0.034847505390644073
1782986333883059700,5.303059814453125,-0.007501330226659775,-0.02593103051185608,0.021856073290109634
1782986333893134600,5.313134521484375,-0.0018025925382971764,-0.045602817088365555,0.0018325814744457603
1782986333903208700,5.323208740234375,0.0009031790541484952,-0.06432057917118073,-0.02006153203547001
1782986333913282600,5.333282470703125,0.002662042621523142,-0.07012758404016495,-0.041377972811460495
1782986333923357700,5.343357666015625,0.001683330861851573,-0.06270988285541534,-0.056007251143455505
1782986333933431600,5.353431640625,-0.002586893504485488,-0.03702450916171074,-0.05760757625102997
1782986333943505700,5.363505615234375,-0.008005361072719097,-0.01517992839217186,-0.04456980526447296
1782986333953579800,5.373579833984375,-0.009644263423979282,-0.005526411347091198,-0.027520496398210526
1782986333963654700,5.383654541015625,-0.011001144535839558,0.003322473494336009,-0.0022012917324900627
1782986333973728800,5.393728759765625,-0.0035421624779701233,-0.001342052943073213,0.01699237711727619
1782986333983802600,5.403802734375,0.003977539017796516,-0.012789118103682995,0.02547454461455345
1782986333993877800,5.413877685546875,0.004839568864554167,-0.024025678634643555,0.0190444253385067
1782986334003951600,5.42395166015625,0.002866432536393404,-0.01899736374616623,0.006872713565826416
1782986334014025700,5.434025634765625,0.001596406800672412,-0.0007244658190757036,0.0005372368614189327
1782986334024099600,5.444099609375,-0.007889772765338421,0.014564741402864456,-0.0007096551707945764
1782986334034174700,5.4541748046875,-0.010045505128800869,0.015636233612895012,-0.0011594650568440557
1782986334044248600,5.46424853515625,-0.008345875889062881,0.021904515102505684,0.006425484083592892
1782986334054322700,5.47432275390625,-0.004438281059265137,0.013420798815786839,0.0019659397657960653
1782986334064397600,5.4843974609375,-0.0039762225933372974,0.0015473621897399426,-0.0046725221909582615
1782986334074471700,5.4944716796875,-0.005088393576443195,-0.011488163843750954,-0.010167605243623257
1782986334084545500,5.504545654296875,0.0003215514589101076,-0.0020099736284464598,-0.014413483440876007
1782986334094619600,5.51461962890625,0.0006430773064494133,0.01207064650952816,-0.012675371952354908
1782986334104694500,5.524694580078125,-0.0006653337040916085,0.018735740333795547,-0.008876373060047626
1782986334114768600,5.5347685546875,-0.0025072998832911253,0.018396256491541862,0.0011871146271005273
1782986334124842800,5.5448427734375,0.0029732193797826767,0.018456175923347473,0.005275599658489227
1782986334134917600,5.554917724609375,0.00907544419169426,0.0036273605655878782,0.002395190065726638
1782986334144991700,5.56499169921875,0.010996915400028229,-0.0137755973264575,-0.008759194053709507
1782986334155065600,5.575065673828125,0.015402423217892647,-0.023534568026661873,-0.02506251633167267
1782986334165140700,5.585140625,0.010290485806763172,-0.017768291756510735,-0.036350853741168976
1782986334175214600,5.595214599609375,0.008137550204992294,-0.010823716409504414,-0.04744337126612663
1782986334185288700,5.605288818359375,0.0025499723851680756,-0.0019255628576502204,-0.0480942465364933
1782986334195362600,5.615362548828125,0.0033412384800612926,0.012680254876613617,-0.044004231691360474
1782986334205437700,5.625437744140625,0.0007457216270267963,0.01854746602475643,-0.04308784008026123
1782986334215511600,5.635511474609375,0.0024962048046290874,0.027729328721761703,-0.03967183455824852
1782986334225585700,5.645585693359375,-0.00036988925421610475,0.03311637043952942,-0.030812030658125877
1782986334235660500,5.65566064453125,-0.0028652583714574575,0.03256474435329437,-0.02581857144832611
1782986334245734700,5.665734619140625,-0.0013371366076171398,0.029397448524832726,-0.01283992175012827
1782986334255808500,5.67580859375,0.0038516337517648935,0.02746530808508396,-0.0028438305016607046
1782986334265882600,5.685882568359375,0.007751299999654293,0.02691030502319336,0.0022028598468750715
1782986334275957500,5.69595751953125,0.012553337961435318,0.01926041580736637,-0.0009389867191202939
1782986334286031600,5.706031494140625,0.012634564191102982,0.022778185084462166,-0.010019300505518913
1782986334296105700,5.716105712890625,0.012227745726704597,0.028691213577985764,-0.026620881631970406
1782986334306180600,5.7261806640625,0.008006368763744831,0.032851070165634155,-0.04227094352245331
1782986334316254700,5.736254638671875,0.0010692131472751498,0.03623010218143463,-0.057640016078948975
1782986334326328800,5.746328857421875,-0.00393433403223753,0.038831744343042374,-0.07211136817932129
1782986334336403700,5.75640380859375,-0.007067052647471428,0.032088909298181534,-0.07281917333602905
1782986334346477800,5.766477783203125,-0.005239058285951614,0.024583857506513596,-0.054409001022577286
1782986334356551700,5.7765517578125,-0.007897153496742249,0.00928222294896841,-0.027821585536003113
1782986334366625500,5.78662548828125,-0.007721117697656155,0.003308486193418503,0.003180540632456541
1782986334376700700,5.79670068359375,-0.0050429608672857285,0.0011028116568922997,0.03244401887059212
1782986334386774500,5.8067744140625,-0.004482632502913475,0.010403635911643505,0.05284383147954941
1782986334396848600,5.8168486328125,-0.003127502743154764,0.011609526351094246,0.05885755270719528
1782986334406923500,5.826923583984375,-0.002535215811803937,0.014851657673716545,0.05440074950456619
1782986334416997600,5.83699755859375,-0.00910421647131443,0.01832647994160652,0.03933210298418999
1782986334427071500,5.847071533203125,-0.012615328654646873,0.02025434374809265,0.022121159359812737
1782986334437145600,5.8571455078125,-0.008334794081747532,0.016865624114871025,0.003962577786296606
1782986334447220500,5.867220458984375,-0.0029938246589154005,0.021734947338700294,-0.008075974881649017
1782986334457294600,5.877294677734375,-0.005270681343972683,0.02103389985859394,-0.008706130087375641
1782986334467368700,5.88736865234375,-0.010301925241947174,0.019968636333942413,-0.0007150491583161056
1782986334477443600,5.897443603515625,-0.01543138362467289,0.021803978830575943,0.00951145589351654
1782986334487517700,5.907517578125,-0.01537599042057991,0.026679161936044693,0.01943785697221756
1782986334497591800,5.917591796875,-0.015731871128082275,0.03220020607113838,0.027385130524635315
1782986334507665700,5.927665771484375,-0.017465855926275253,0.02466053143143654,0.02380610816180706
1782986334517740800,5.93774072265625,-0.018648985773324966,0.016409536823630333,0.018517902120947838
1782986334527814700,5.947814697265625,-0.01771128550171852,0.01831289939582348,0.00511021725833416
1782986334537888500,5.957888427734375,-0.006109526846557856,0.014117470011115074,-0.007606560364365578
1782986334547963600,5.967963623046875,-0.0037765977904200554,0.007073675282299519,-0.025949083268642426
1782986334558037800,5.978037841796875,0.004394441843032837,0.0057870675809681416,-0.03971932455897331
1782986334568111600,5.988111572265625,0.009111698716878891,0.0012442474253475666,-0.04747951030731201
1782986334578186800,5.998186767578125,0.010466299951076508,-0.005414880812168121,-0.060433607548475266
1782986334588260600,6.008260498046875,0.010593333281576633,-0.007538485806435347,-0.06483741104602814
1782986334598334500,6.01833447265625,0.014264747500419617,0.006230047903954983,-0.06457380205392838
1782986334608408600,6.02840869140625,0.014623475261032581,0.014162273146212101,-0.050139740109443665
1782986334618483500,6.0384833984375,0.009174134582281113,0.026405632495880127,-0.030506335198879242
1782986334628557600,6.0485576171875,0.009692385792732239,0.03194554150104523,-0.017545528709888458
1782986334638631700,6.058631591796875,0.011692941188812256,0.039531901478767395,-0.01062107551842928
1782986334648706600,6.06870654296875,0.015410181134939194,0.046452391892671585,-0.007848192006349564
1782986334658780700,6.07878076171875,0.019316814839839935,0.04104401916265488,-0.01389283500611782
1782986334668854800,6.088854736328125,0.02194109372794628,0.024190470576286316,-0.01990918256342411
1782986334678928600,6.0989287109375,0.026714583858847618,0.008315877988934517,-0.026405498385429382
1782986334689003800,6.109003662109375,0.026980100199580193,-0.010944103822112083,-0.0334295853972435
1782986334699077600,6.11907763671875,0.030858412384986877,-0.033747486770153046,-0.034914780408144
1782986334709151700,6.12915185546875,0.03419854864478111,-0.043008364737033844,-0.03845944628119469
1782986334719226600,6.1392265625,0.03417074680328369,-0.03917013853788376,-0.03940248861908913
1782986334729301200,6.14930126953125,0.030819693580269814,-0.026094015687704086,-0.036270879209041595
1782986334739375400,6.159375244140625,0.02854914590716362,-0.01150953397154808,-0.029484795406460762
1782986334749450200,6.1694501953125,0.027859121561050415,0.0012992052361369133,-0.01929634064435959
1782986334759524400,6.1795244140625,0.026993850246071815,0.009983953088521957,-0.010220838710665703
1782986334769598200,6.18959814453125,0.03400062769651413,0.008716288954019547,-0.0038119410164654255
1782986334779672300,6.19967236328125,0.037242285907268524,-0.002670970279723406,-0.005114790052175522
1782986334789747200,6.209747314453125,0.045790765434503555,-0.008950703777372837,-0.007665032986551523
1782986334799821300,6.2198212890625,0.043435193598270416,-0.009112448431551456,-0.014090457931160927
1782986334809895200,6.229895263671875,0.04593456909060478,-0.007107621058821678,-0.007043201941996813
1782986334819970300,6.23997021484375,0.04009011760354042,0.005345422774553299,0.005908066872507334
1782986334830044200,6.250044189453125,0.030468380078673363,0.01973528228700161,0.015781737864017487
1782986334840118500,6.260118408203125,0.0263532642275095,0.01564306765794754,0.03139957785606384
1782986334850192400,6.2701923828125,0.02455935813486576,0.00149449217133224,0.03570724278688431
1782986334860267500,6.280267578125,0.027091002091765404,-0.01679452508687973,0.027344848960638046
1782986334870341400,6.29034130859375,0.03633216768503189,-0.021141868084669113,0.01907253824174404
1782986334880415200,6.300415283203125,0.04275353625416756,-0.015561812557280064,0.0001726661721477285
1782986334890490400,6.310490478515625,0.04186670482158661,-0.007458613254129887,-0.0047752209939062595
1782986334900564200,6.320564208984375,0.04092700034379959,0.0009569036774337292,-0.008401580154895782
1782986334910638300,6.330638427734375,0.044309213757514954,-0.0037028291262686253,0.00034983325167559087
1782986334920712200,6.340712158203125,0.04710538312792778,-0.015197459608316422,0.0047685992904007435
1782986334930787300,6.350787353515625,0.04543744772672653,-0.031229689717292786,0.013637457974255085
1782986334940861200,6.360861083984375,0.0373212993144989,-0.039779141545295715,0.014929357916116714
1782986334950935300,6.370935302734375,0.028258293867111206,-0.03190603852272034,0.0062085711397230625
1782986334961010200,6.38101025390625,0.026770588010549545,-0.020080748945474625,-0.004045481327921152
1782986334971084300,6.391084228515625,0.02981537953019142,-0.014776263386011124,-0.009418142959475517
1782986334981158100,6.401158203125,0.027295902371406555,-0.009977443143725395,-0.010776154696941376
1782986334991233300,6.4112333984375,0.028521224856376648,-0.007364349439740181,0.0004956746124662459
1782986335001307100,6.42130712890625,0.028350362554192543,-0.00031281914561986923,0.011081772856414318
1782986335011381500,6.431381591796875,0.02639853209257126,-0.0018015261739492416,0.021193530410528183
1782986335021455400,6.441455322265625,0.024821190163493156,0.011478126980364323,0.024877430871129036
1782986335031530500,6.451530517578125,0.02412983402609825,0.020561637356877327,0.029365921393036842
1782986335041604400,6.461604248046875,0.014395907521247864,0.024451948702335358,0.027933306992053986
1782986335051678500,6.471678466796875,0.012330092489719391,0.024211732670664787,0.027262456715106964
1782986335061753300,6.48175341796875,0.01732320711016655,0.01036215852946043,0.0214562825858593
1782986335071827500,6.491827392578125,0.023492420092225075,-0.003009839216247201,0.018894322216510773
1782986335081901300,6.5019013671875,0.030299844220280647,-0.019773535430431366,0.021153531968593597
1782986335091975200,6.51197509765625,0.028060659766197205,-0.025373630225658417,0.027591191232204437
1782986335102050300,6.52205029296875,0.030000202357769012,-0.022509552538394928,0.03267018869519234
1782986335112124200,6.532124267578125,0.02649947628378868,-0.019186459481716156,0.038250043988227844
1782986335122198300,6.5421982421875,0.0275360569357872,-0.012963855639100075,0.041681110858917236
1782986335132273200,6.552273193359375,0.021311184391379356,-0.015537002123892307,0.04042036831378937
1782986335142347300,6.56234716796875,0.019020143896341324,-0.016395477578043938,0.04110944643616676
1782986335152421000,6.572421142578125,0.014000351540744305,-0.01978594809770584,0.030370250344276428
1782986335162496300,6.582496337890625,0.007967108860611916,-0.01762755960226059,0.02526092529296875
1782986335172570000,6.592570068359375,0.0028559695929288864,-0.013441070914268494,0.01677529513835907
1782986335182644500,6.60264453125,-0.0014520015101879835,-0.0054129487834870815,0.012303914874792099
1782986335192718300,6.61271826171875,-0.007735996041446924,-0.0010847795056179166,0.00933076161891222
1782986335202793500,6.62279345703125,-0.009045124053955078,0.007414918392896652,0.014701158739626408
1782986335212867300,6.632867431640625,-0.00887308269739151,0.007623177953064442,0.021862931549549103
1782986335222941400,6.64294140625,-0.005479156505316496,-0.0027600470930337906,0.0279421117156744
1782986335233016300,6.653016357421875,0.002543083392083645,-0.013985803350806236,0.035919081419706345
1782986335243090400,6.66309033203125,0.005734650883823633,-0.014470081776380539,0.04230445623397827
1782986335253164300,6.673164306640625,0.010422613471746445,-0.0076185669749975204,0.03712194412946701
1782986335263238400,6.68323828125,0.009325893595814705,-0.0037703574635088444,0.036795806139707565
1782986335273313300,6.693313232421875,0.012103836983442307,-0.002017198596149683,0.028871571645140648
1782986335283387400,6.703387451171875,0.011910135857760906,-0.010283693671226501,0.017247257754206657
1782986335293461200,6.713461181640625,0.014254515990614891,-0.015384445898234844,0.008221271447837353
1782986335303536400,6.723536376953125,0.014360180124640465,-0.01951788365840912,0.004158535972237587
1782986335313610200,6.7336103515625,0.009573414921760559,-0.01668907329440117,-0.0015659285709261894
1782986335323684000,6.74368408203125,0.008085758425295353,-0.009225213900208473,-0.002375829266384244
1782986335333758500,6.753758544921875,0.0023722134064882994,-0.0035087389405816793,0.003083917312324047
1782986335343833000,6.7638330078125,-0.000875340192578733,-0.012869483791291714,0.003270885907113552
1782986335353907500,6.773907470703125,-0.007004339247941971,-0.03332282975316048,0.001613334403373301
1782986335363981300,6.783981201171875,-0.010068843141198158,-0.044492755085229874,-0.008619876578450203
1782986335374056400,6.794056396484375,-0.015571998432278633,-0.0429111048579216,-0.023803090676665306
1782986335384130300,6.80413037109375,-0.019770547747612,-0.02619669772684574,-0.03225022181868553
1782986335394204400,6.814204345703125,-0.019034452736377716,-0.00985607411712408,-0.03802262246608734
1782986335404279300,6.824279296875,-0.01658632606267929,0.00005184556357562542,-0.03595312684774399
1782986335414353400,6.834353515625,-0.011897297576069832,0.004582415334880352,-0.036487091332674026
1782986335424427300,6.84442724609375,-0.006653338670730591,-0.005285163410007954,-0.037856325507164
1782986335434501400,6.85450146484375,-0.0022553945891559124,-0.028890356421470642,-0.04764450713992119
1782986335444576300,6.864576171875,0.0057900152169167995,-0.0642843022942543,-0.05907053500413895
1782986335454650400,6.874650390625,0.005811320152133703,-0.09081976860761642,-0.08279290795326233
1782986335464724200,6.88472412109375,0.008250894024968147,-0.10756909102201462,-0.1119089350104332
1782986335474799400,6.89479931640625,0.00462712999433279,-0.09722217172384262,-0.1420854777097702
1782986335484873200,6.904873291015625,-0.008420813828706741,-0.08898011595010757,-0.15851208567619324
1782986335494947000,6.914947021484375,-0.024275410920381546,-0.053891371935606,-0.15749849379062653
1782986335505021400,6.925021484375,-0.034783054143190384,-0.019791264086961746,-0.1384943574666977
1782986335515096300,6.935096435546875,-0.03465122729539871,-0.013604739680886269,-0.11057352274656296
1782986335525170400,6.94517041015625,-0.02867814153432846,-0.01778707280755043,-0.08039196580648422
1782986335535244300,6.955244384765625,-0.017642801627516747,-0.031009932979941368,-0.049541372805833817
1782986335545319400,6.9653193359375,-0.014269648119807243,-0.03153147175908089,-0.023508194833993912
1782986335555393300,6.975393310546875,-0.01298866793513298,-0.03510543331503868,-0.009196633473038673
1782986335565467400,6.98546728515625,-0.016159867867827415,-0.029952339828014374,-0.0065439618192613125
1782986335575541200,6.995541259765625,-0.019647810608148575,-0.01561521366238594,-0.009771446697413921
1782986335585616400,7.005616455078125,-0.023348931223154068,-0.00008048932068049908,-0.01679348386824131
1782986335595690200,7.015690185546875,-0.025143902748823166,0.006727881729602814,-0.021038828417658806
1782986335605764400,7.025764404296875,-0.023761792108416557,-0.000249635661020875,-0.022120971232652664
1782986335615839200,7.035839111328125,-0.017749972641468048,-0.016389191150665283,-0.020698310807347298
1782986335625913300,7.045913330078125,-0.012660721316933632,-0.020834872499108315,-0.008973161689937115
1782986335635987200,7.0559873046875,-0.014201892539858818,-0.015097890049219131,0.004914690740406513
1782986335646061300,7.066061279296875,-0.017494535073637962,-0.00850918609648943,0.022133242338895798
1782986335656136200,7.07613623046875,-0.022138820961117744,-0.004094197880476713,0.0387100875377655
1782986335666210300,7.086210205078125,-0.019001392647624016,-0.005846002139151096,0.049482908099889755
1782986335676284400,7.096284423828125,-0.012572521343827248,-0.01655590534210205,0.056511521339416504
1782986335686359300,7.106359375,-0.022069308906793594,-0.03494895622134209,0.05155080184340477
1782986335696433400,7.116433349609375,-0.024429667741060257,-0.04640161246061325,0.04143291711807251
1782986335706507300,7.12650732421875,-0.03211336210370064,-0.05248096212744713,0.02229204960167408
1782986335716582400,7.13658251953125,-0.03814435750246048,-0.04143789783120155,0.0064654164016246796
1782986335726655700,7.14665576171875,-0.0441373735666275,-0.030301278457045555,-0.011387899518013
1782986335736729600,7.1567294921875,-0.04971909150481224,-0.031503960490226746,-0.017971498891711235
1782986335746803700,7.1668037109375,-0.04931395500898361,-0.03924466669559479,-0.01708057150244713
1782986335756878600,7.176878662109375,-0.04502227157354355,-0.04311317577958107,-0.01321020070463419
1782986335766952700,7.18695263671875,-0.04039406776428223,-0.051065828651189804,-0.006267090328037739
1782986335777026600,7.197026611328125,-0.030888181179761887,-0.0588260143995285,-0.002334666671231389
1782986335787101700,7.207101806640625,-0.028727179393172264,-0.05599932372570038,0.0021205691155046225
1782986335797175600,7.217175537109375,-0.025106079876422882,-0.05301205441355705,0.0012622321955859661
1782986335807249700,7.227249755859375,-0.029895052313804626,-0.03719566762447357,0.0065234568901360035
1782986335817323800,7.23732373046875,-0.03213370591402054,-0.02304842509329319,0.00886011403053999
1782986335827398700,7.247398681640625,-0.034620024263858795,-0.007679132279008627,0.013078324496746063
1782986335837472800,7.25747265625,-0.03216512128710747,0.002734626643359661,0.02010773867368698
1782986335847546600,7.267546630859375,-0.027587339282035828,-0.0021534771658480167,0.020832499489188194
1782986335857621800,7.277621826171875,-0.024036280810832977,-0.010770134627819061,0.02538330852985382
1782986335867695600,7.287695556640625,-0.02305898442864418,-0.011483381502330303,0.026141632348299026
1782986335877769700,7.297769775390625,-0.02058304287493229,-0.006432963069528341,0.02032741904258728
1782986335887844600,7.3078447265625,-0.020785486325621605,0.0029341967310756445,0.018672864884138107
1782986335897918700,7.317918701171875,-0.01654093898832798,0.009791836142539978,0.011905239894986153
1782986335907992600,7.32799267578125,-0.014931213110685349,0.01622151769697666,0.011698344722390175
1782986335918066700,7.338066650390625,-0.011001186445355415,0.01597890444099903,0.012200617231428623
1782986335928141600,7.3481416015625,-0.006762533914297819,0.009863070212304592,0.01950974576175213
1782986335938215700,7.358215576171875,-0.005404321942478418,0.007977819070219994,0.017860716208815575
1782986335948289500,7.36828955078125,-0.0018201982602477074,0.008599110879004002,0.015092293731868267
1782986335958364700,7.37836474609375,-0.001693964353762567,0.007895770482718945,0.009579816833138466
1782986335968438500,7.3884384765625,-0.002448699437081814,0.00638558529317379,0.0017781018977984786
1782986335978512600,7.3985126953125,0.003233154769986868,0.0063115498051047325,-0.00496528809890151
1782986335988586800,7.408586669921875,0.004545064177364111,0.0012136099394410849,-0.011910628527402878
1782986335998661600,7.41866162109375,0.0016201144317165017,0.0035406802780926228,-0.014219323173165321
1782986336008735700,7.42873583984375,0.0027132174000144005,0.01207777950912714,-0.0257551372051239
1782986336018809600,7.4388095703125,-0.0000072015682235360146,0.017312223091721535,-0.0319531112909317
1782986336028884700,7.448884765625,-0.004887023940682411,0.006831073202192783,-0.036099955439567566
1782986336038958600,7.45895849609375,-0.0023594172671437263,-0.00603625550866127,-0.03438540920615196
1782986336049032700,7.46903271484375,0.0015243974048644304,-0.010686106979846954,-0.025916745886206627
1782986336059106600,7.4791064453125,0.003737484570592642,-0.020975762978196144,-0.01829078420996666
1782986336069181700,7.489181640625,0.003447652328759432,-0.0341048389673233,-0.01280320342630148
1782986336079255600,7.499255615234375,0.0008952786447480321,-0.041389383375644684,-0.011496124789118767
1782986336089329700,7.50932958984375,-0.0041332305409014225,-0.041304126381874084,-0.018982969224452972
1782986336099404500,7.519404541015625,-0.010389529168605804,-0.03683561086654663,-0.029538141563534737
1782986336109478700,7.529478759765625,-0.015128357335925102,-0.0150458924472332,-0.04045630246400833
1782986336119552500,7.539552490234375,-0.020429112017154694,-0.0006658876081928611,-0.04326380789279938
1782986336129627600,7.549627685546875,-0.020926930010318756,0.0039370860904455185,-0.04106733575463295
1782986336139701500,7.559701416015625,-0.021943992003798485,-0.006076665595173836,-0.04252781346440315
1782986336149775600,7.569775634765625,-0.021832823753356934,-0.023070551455020905,-0.044672686606645584
1782986336159849700,7.579849609375,-0.017586147412657738,-0.05181138589978218,-0.05595064163208008
1782986336169924900,7.5899248046875,-0.00861433707177639,-0.07812342792749405,-0.07872442901134491
1782986336179998700,7.599998779296875,-0.003178026294335723,-0.07918230444192886,-0.10095249861478806
1782986336190072600,7.610072509765625,-0.0037745742592960596,-0.07056457549333572,-0.11862310767173767
1782986336200147700,7.620147705078125,-0.010381877422332764,-0.054042328149080276,-0.12663257122039795
1782986336210221600,7.6302216796875,-0.016774145886301994,-0.03700757771730423,-0.12014426290988922
1782986336220295700,7.640295654296875,-0.01982213370501995,-0.01793614774942398,-0.10572110861539841
1782986336230369500,7.65036962890625,-0.019845543429255486,-0.005864076316356659,-0.09015478193759918
1782986336240444700,7.660444580078125,-0.014960240572690964,0.004983778111636639,-0.072777658700943
1782986336250518500,7.6705185546875,-0.006200683768838644,0.000948543893173337,-0.06102222949266434
1782986336260592600,7.680592529296875,0.0010178141528740525,-0.017796646803617477,-0.05034748092293739
1782986336270667500,7.69066748046875,0.009572231210768223,-0.02940470725297928,-0.03680838644504547
1782986336280741600,7.70074169921875,0.018946824595332146,-0.02850455790758133,-0.026719268411397934
1782986336290815500,7.7108154296875,0.017274819314479828,-0.03236670792102814,-0.02145962417125702
1782986336300889900,7.720889892578125,0.008312217891216278,-0.02842443250119686,-0.021989593282341957
1782986336310964500,7.730964599609375,0.004541448317468166,-0.023990269750356674,-0.0266991276293993
1782986336321038800,7.741038818359375,-0.0019340277649462223,-0.015078533440828323,-0.030817972496151924
1782986336331112700,7.75111279296875,-0.0029476399067789316,-0.013843274675309658,-0.033021774142980576
1782986336341187800,7.761187744140625,-0.003930079750716686,-0.018296614289283752,-0.0335426889359951
1782986336351261700,7.77126171875,0.0006441726582124829,-0.015604600310325623,-0.02728796936571598
1782986336361335800,7.781335693359375,0.0005019598174840212,-0.015578500926494598,-0.017505113035440445
1782986336371410700,7.79141064453125,-0.004642042331397533,-0.01876196265220642,-0.0032156738452613354
1782986336381484800,7.80148486328125,-0.0010129529982805252,-0.012848945334553719,0.002039275597780943
1782986336391558700,7.81155859375,0.0035667256452143192,-0.02069603092968464,0.008172286674380302
1782986336401632500,7.821632568359375,0.014486485160887241,-0.0330301970243454,0.009167510084807873
1782986336411707600,7.831707763671875,0.017050042748451233,-0.048479992896318436,0.006173850502818823
1782986336421781500,7.841781494140625,0.019360601902008057,-0.05657440423965454,0.010755552910268307
1782986336431855600,7.851855712890625,0.020978251472115517,-0.05646594241261482,0.016646413132548332
1782986336441930500,7.861930419921875,0.022101307287812233,-0.044510748237371445,0.03494046628475189
1782986336452004600,7.872004638671875,0.019763048738241196,-0.02219434827566147,0.059237536042928696
1782986336462078500,7.882078369140625,0.023319965228438377,-0.01775432750582695,0.07709137350320816
1782986336472152800,7.89215283203125,0.02594938687980175,-0.030420098453760147,0.08697555214166641
1782986336482227500,7.9022275390625,0.027179766446352005,-0.030588677152991295,0.08152059465646744
1782986336492301800,7.9123017578125,0.023424969986081123,-0.031664688140153885,0.0680316686630249
1782986336502375700,7.922375732421875,0.018433675169944763,-0.03025720827281475,0.048281408846378326
1782986336512450800,7.932450927734375,0.01049974374473095,-0.023778719827532768,0.027388090267777443
1782986336522524700,7.942524658203125,0.004520946182310581,-0.01650722324848175,0.006583475507795811
1782986336532598800,7.952598876953125,-0.0014957126695662737,-0.010941289365291595,-0.001870943233370781
1782986336542672600,7.962672607421875,-0.002186802914366126,-0.007887708954513073,0.0024050280917435884
1782986336552747800,7.972747802734375,-0.0051933578215539455,-0.012430007569491863,0.01369972713291645
1782986336562821600,7.982821533203125,-0.010144440457224846,-0.02261739782989025,0.03326224535703659
1782986336572895500,7.9928955078125,-0.015111123211681843,-0.03883044421672821,0.04556528106331825
1782986336582970600,8.002970703125,-0.018542341887950897,-0.0394405759871006,0.052023980766534805
1782986336593044700,8.013044677734374,-0.02212120220065117,-0.030636347830295563,0.05018424987792969
1782986336603118600,8.02311865234375,-0.02539156563580036,-0.024755556136369705,0.039579808712005615
1782986336613192400,8.0331923828125,-0.029927881434559822,-0.024295616894960403,0.021054627373814583
1782986336623266800,8.043266845703124,-0.03443102166056633,-0.023477492853999138,0.008136698976159096
1782986336633340700,8.053340576171875,-0.03818806633353233,-0.022702177986502647,-0.002363944426178932
1782986336643415800,8.063415771484374,-0.04677010327577591,-0.02439674735069275,-0.002928268164396286
1782986336653489700,8.07348974609375,-0.05229650437831879,-0.019444992765784264,0.001117489766329527
1782986336663563800,8.083563720703125,-0.057772763073444366,-0.024388086050748825,0.0057418025098741055
1782986336673638700,8.093638671875,-0.052913058549165726,-0.031637534499168396,0.006884131580591202
1782986336683712800,8.103712646484375,-0.047250643372535706,-0.03142901137471199,0.009692435152828693
1782986336693786600,8.11378662109375,-0.04493985325098038,-0.029763618484139442,0.011337552219629288
1782986336703861800,8.12386181640625,-0.04653162509202957,-0.031226493418216705,0.012921600602567196
1782986336713935600,8.133935546875,-0.04438013955950737,-0.038507796823978424,0.014819237403571606
1782986336724009700,8.144009765625,-0.04490425065159798,-0.03909369185566902,0.005930404178798199
1782986336734083800,8.154083740234375,-0.04252992942929268,-0.04075176268815994,-0.0028193779289722443
1782986336744158700,8.16415869140625,-0.041898492723703384,-0.041920360177755356,-0.014671243727207184
1782986336754232800,8.17423291015625,-0.0393315851688385,-0.03751390427350998,-0.015837475657463074
1782986336764306700,8.184306640625,-0.042793162167072296,-0.036950647830963135,-0.028125034645199776
1782986336774381800,8.1943818359375,-0.044108498841524124,-0.04511190578341484,-0.0347491130232811
1782986336784455700,8.20445556640625,-0.0454091839492321,-0.05345665290951729,-0.047679826617240906
1782986336794529800,8.21452978515625,-0.04675320163369179,-0.053716354072093964,-0.06293481588363647
1782986336804604000,8.22460400390625,-0.05428861454129219,-0.055846087634563446,-0.08155722916126251
1782986336814678800,8.2346787109375,-0.058155711740255356,-0.04859523847699165,-0.09176208078861237
1782986336824753000,8.2447529296875,-0.05669603496789932,-0.03895273059606552,-0.09142279624938965
1782986336834826800,8.25482666015625,-0.05377873778343201,-0.042302150279283524,-0.07895511388778687
1782986336844902000,8.26490185546875,-0.05380323901772499,-0.03350866213440895,-0.05966396629810333
1782986336854975700,8.274975830078125,-0.05906907096505165,-0.034352466464042664,-0.047618571668863297
1782986336865049900,8.2850498046875,-0.05294619873166084,-0.0467153936624527,-0.03393737971782684
1782986336875125000,8.295125,-0.036385416984558105,-0.05630592256784439,-0.034591056406497955
1782986336885198800,8.30519873046875,-0.029211657121777534,-0.07121482491493225,-0.04453902691602707
1782986336895272700,8.315272705078126,-0.0252397283911705,-0.07779119163751602,-0.05441175028681755
1782986336905346800,8.325346923828125,-0.02500217594206333,-0.07233171164989471,-0.07344642281532288
1782986336915421700,8.335421630859376,-0.02643715962767601,-0.05429602041840553,-0.0811806172132492
1782986336925495800,8.345495849609375,-0.03999264910817146,-0.03874662145972252,-0.08895944058895111
1782986336935569700,8.355569580078125,-0.04089208319783211,-0.02768176794052124,-0.08482636511325836
1782986336945644800,8.365644775390624,-0.03278222680091858,-0.00620097853243351,-0.07727204263210297
1782986336955718700,8.37571875,-0.024197254329919815,-0.009168712422251701,-0.06208481639623642
1782986336965792800,8.385792724609376,-0.021843820810317993,-0.013325374573469162,-0.043394751846790314
1782986336975867600,8.39586767578125,-0.00891218800097704,-0.01346791721880436,-0.01759238727390766
1782986336985941800,8.405941650390625,-0.0004523904644884169,-0.015831738710403442,0.01120836939662695
1782986336996015900,8.416015869140624,0.008925845846533775,-0.02702585607767105,0.034608885645866394
1782986337006090800,8.4260908203125,0.00704379053786397,-0.019957294687628746,0.0538901723921299
1782986337016164900,8.436164794921876,0.002210234757512808,-0.009639453142881393,0.07058060169219971
1782986337026239000,8.446239013671875,0.0018770730821415782,-0.00015860004350543022,0.07758231461048126
1782986337036312800,8.456312744140625,0.00487650977447629,0.004695055540651083,0.07430596649646759
1782986337046388000,8.466387939453124,0.011708583682775497,0.015792448073625565,0.07213309407234192
1782986337056461800,8.4764619140625,0.02078867144882679,0.018918976187705994,0.07695814222097397
1782986337066535700,8.48653564453125,0.020394790917634964,0.02341705560684204,0.08634898066520691
1782986337076610800,8.49661083984375,0.014498728327453136,0.021590081974864006,0.09326745569705963
1782986337086684700,8.5066845703125,0.00937187671661377,0.017001455649733543,0.09380355477333069
1782986337096758800,8.5167587890625,0.010347595438361168,0.007678051013499498,0.0886814072728157
1782986337106833700,8.526833740234375,0.01661374606192112,-0.0033897804096341133,0.08454418927431107
1782986337116907800,8.53690771484375,0.011859359219670296,-0.006785321980714798,0.08564724028110504
1782986337126981600,8.546981689453125,0.005043264478445053,-0.010149426758289337,0.07806388288736343
1782986337137056000,8.557055908203125,-0.006710330490022898,-0.005661201663315296,0.06746397167444229
1782986337147130600,8.567130615234374,-0.011549826711416245,0.006698528304696083,0.05692904070019722
1782986337157205000,8.577205078125,-0.005623720120638609,0.012131355702877045,0.046316273510456085
1782986337167278800,8.58727880859375,0.001011013169772923,0.007349384017288685,0.042949773371219635
1782986337177354000,8.59735400390625,0.009008670225739479,-0.0058169737458229065,0.042801301926374435
1782986337187427800,8.607427734375,0.01088300347328186,0.0005935211665928364,0.03627336397767067
1782986337197502000,8.617501953125,0.016697565093636513,0.0012110637035220861,0.025667188689112663
1782986337207575800,8.627575927734375,0.01800251379609108,0.00593364704400301,0.0135197127237916
1782986337217651000,8.63765087890625,0.015437996946275234,0.013009583577513695,-0.0012775909854099154
1782986337227724800,8.647724853515625,0.01791287213563919,0.008645194582641125,-0.01811942271888256
1782986337237799000,8.657798828125,0.022873926907777786,0.01032096054404974,-0.025465702638030052
1782986337247873800,8.667873779296874,0.026600755751132965,-0.001240354496985674,-0.03176647424697876
1782986337257948000,8.677947998046875,0.027350660413503647,-0.010868990793824196,-0.0373702310025692
1782986337268021800,8.688021728515626,0.02713760733604431,-0.005746133625507355,-0.0335288867354393
1782986337278095600,8.698095703125,0.025131138041615486,0.007480745203793049,-0.03472697734832764
1782986337288170800,8.708170654296875,0.006741213612258434,0.0033123658504337072,-0.03811398521065712
1782986337298244600,8.71824462890625,-0.005265985615551472,0.020276401191949844,-0.04383934661746025
1782986337308319000,8.728319091796875,-0.014647236093878746,0.05663707107305527,-0.057098425924777985
1782986337318393600,8.7383935546875,-0.04357247054576874,0.039801180362701416,-0.0870097428560257
1782986337328468000,8.748468017578125,-0.04321374371647835,0.024382280185818672,-0.1285499930381775
1782986337338541800,8.758541748046875,-0.04944801330566406,-0.006029549054801464,-0.1640513837337494
1782986337348617000,8.768616943359374,-0.07824370265007019,0.017510930076241493,-0.1737668514251709
1782986337358690800,8.77869091796875,-0.11756844073534012,-0.0027149238158017397,-0.1952056586742401
1782986337368765000,8.788764892578126,-0.14985501766204834,-0.0872654989361763,-0.22713616490364075
1782986337378838800,8.7988388671875,-0.15282009541988373,-0.15276359021663666,-0.25458818674087524
1782986337388914000,8.808913818359375,-0.14550864696502686,-0.18622247874736786,-0.25909316539764404
1782986337398987800,8.81898779296875,-0.15326210856437683,-0.20676100254058838,-0.251725435256958
1782986337409062000,8.829061767578125,-0.16504952311515808,-0.23338383436203003,-0.22322401404380798
1782986337419136800,8.83913671875,-0.1695019155740738,-0.24372152984142303,-0.18289262056350708
1782986337429211000,8.8492109375,-0.16612929105758667,-0.24568641185760498,-0.1267113834619522
1782986337439284700,8.85928466796875,-0.1663418561220169,-0.22360408306121826,-0.06687729060649872
1782986337449358600,8.869358642578124,-0.16686436533927917,-0.20005667209625244,-0.018128395080566406
1782986337459433700,8.879433837890625,-0.1660533845424652,-0.18742497265338898,0.009176947176456451
1782986337469507600,8.889507568359376,-0.1668214350938797,-0.17843866348266602,0.0242626890540123
1782986337479582000,8.89958203125,-0.16960927844047546,-0.14455248415470123,0.025120576843619347
1782986337489656800,8.90965673828125,-0.17020156979560852,-0.11745961755514145,0.0004306770279072225
1782986337499731000,8.91973095703125,-0.16125032305717468,-0.10007002204656601,-0.04660088196396828
1782986337509804800,8.9298046875,-0.1500948816537857,-0.09447311609983444,-0.09572236239910126
1782986337519879000,8.93987890625,-0.1399288773536682,-0.07426997274160385,-0.1390180140733719
1782986337529953800,8.949953857421875,-0.1287798285484314,-0.046490006148815155,-0.16096486151218414
1782986337540028000,8.96002783203125,-0.10496416687965393,-0.03939300775527954,-0.17328695952892303
1782986337550101800,8.970101806640624,-0.08034909516572952,-0.06558120250701904,-0.16630122065544128
1782986337560177000,8.980177001953125,-0.04638945311307907,-0.09299902617931366,-0.1417137086391449
1782986337570250800,8.990250732421876,-0.019678747281432152,-0.08276290446519852,-0.10448005795478821
1782986337580324900,9.000324951171875,-0.01427526492625475,-0.06431761384010315,-0.061992090195417404
1782986337590399700,9.010399658203125,-0.007223214488476515,-0.06923594325780869,-0.02729775756597519
1782986337600473900,9.020473876953124,0.0043081846088171005,-0.06207580864429474,0.010871317237615585
1782986337610547700,9.030547607421875,0.007230204995721579,-0.038601912558078766,0.0363662913441658
1782986337620621800,9.040621826171876,0.004074974916875362,-0.029969587922096252,0.03789614513516426
1782986337630696700,9.05069677734375,0.00014654628466814756,-0.048089999705553055,0.02915298566222191
1782986337640770800,9.060770751953125,-0.00015548488590866327,-0.047802604734897614,0.023584427312016487
1782986337650845000,9.070844970703124,-0.0010215449146926403,-0.027704257518053055,0.016357673332095146
1782986337660919800,9.080919921875,0.0035023235250264406,-0.006370817311108112,0.01741047389805317
1782986337670994000,9.090993896484376,0.0026623625308275223,-0.017203491181135178,0.01904512196779251
1782986337681067800,9.10106787109375,0.005669947247952223,-0.022687343880534172,0.02402401901781559
1782986337691142000,9.111141845703125,0.002158569172024727,-0.023732369765639305,0.019897717982530594
1782986337701216800,9.121216796875,0.0018340375972911716,-0.028559699654579163,0.014142111875116825
1782986337711291000,9.131290771484375,0.005853280425071716,-0.029838815331459045,0.0020606813486665487
1782986337721364700,9.14136474609375,0.007517228368669748,-0.03060171566903591,-0.003973493352532387
1782986337731440400,9.1514404296875,0.008850939571857452,-0.03157190605998039,-0.015892203897237778
1782986337741514200,9.16151416015625,0.008517737500369549,-0.027300972491502762,-0.02301769144833088
1782986337751588000,9.171588134765624,0.005411426071077585,-0.02428094670176506,-0.02391517534852028
1782986337761662200,9.181662109375,-0.003368826350197196,-0.01490861177444458,-0.02950073964893818
1782986337771737000,9.191737060546876,0.004967400338500738,0.012991995550692081,-0.02066650241613388
1782986337781811200,9.201811279296875,0.013578582555055618,0.02530176378786564,-0.0067003038711845875
1782986337791885000,9.211885009765625,0.014950377866625786,0.010586732998490334,0.010844867676496506
1782986337801960200,9.221960205078124,0.012308362871408463,-0.005985667929053307,0.018539289012551308
1782986337812034000,9.232033935546875,0.008356232196092606,-0.023669589310884476,0.022674113512039185
1782986337822108200,9.242108154296876,0.006279350258409977,-0.02410144917666912,0.01946425624191761
1782986337832183000,9.25218310546875,0.006969641428440809,-0.017326368018984795,0.012952560558915138
1782986337842257200,9.262257080078125,0.004445638507604599,-0.014182435348629951,-0.0016211222391575575
1782986337852331300,9.272331298828124,0.00363896694034338,-0.007511483039706945,-0.012137413024902344
1782986337862405400,9.2824052734375,0.003074419219046831,0.007061841897666454,-0.01684514805674553
1782986337872480300,9.292480224609376,0.0030363360419869423,0.010764434933662415,-0.012119635939598083
1782986337882554400,9.302554443359375,0.013354185968637466,0.0024477646220475435,0.009749260731041431
1782986337892628200,9.312628173828125,0.023628927767276764,0.00020671449601650238,0.04112635925412178
1782986337902703400,9.322703369140624,0.020597118884325027,-0.008900970220565796,0.06555784493684769
1782986337912777200,9.332777099609375,0.019145429134368896,-0.016832662746310234,0.07364240288734436
1782986337922851000,9.34285107421875,0.021103031933307648,-0.014906180091202259,0.0744425356388092
1782986337932925200,9.35292529296875,0.020499026402831078,-0.006551577243953943,0.057791389524936676
1782986337943000000,9.363,0.017972497269511223,-0.007575375959277153,0.041084080934524536
1782986337953074200,9.37307421875,0.017671292647719383,-0.008974334225058556,0.02165605127811432
1782986337963148000,9.38314794921875,0.017662694677710533,-0.006102775223553181,-0.000612884119618684
1782986337973223200,9.39322314453125,0.016728723421692848,-0.004364796448498964,-0.014241344295442104
1782986337983297000,9.403297119140625,0.019211044535040855,0.0014710684772580862,-0.022970685735344887
1782986337993371100,9.41337109375,0.02158738486468792,0.001806360436603427,-0.02082843892276287
1782986338003446000,9.423446044921874,0.022684864699840546,-0.007728644646704197,-0.013842185959219933
1782986338013520100,9.43352001953125,0.02385505847632885,-0.009458634071052074,-0.001786055974662304
1782986338023594200,9.44359423828125,0.02776508964598179,-0.011228007264435291,0.009165777824819088
1782986338033668400,9.45366845703125,0.027735793963074684,-0.014068535529077053,0.012721897102892399
1782986338043743200,9.4637431640625,0.03198535740375519,-0.012353436090052128,0.025065183639526367
1782986338053817300,9.4738173828125,0.03188229352235794,-0.0038808556273579597,0.03224319964647293
1782986338063891200,9.48389111328125,0.03339017555117607,0.004984807688742876,0.03412525728344917
1782986338073966300,9.49396630859375,0.03392919898033142,0.0006110980175435543,0.030237840488553047
1782986338084040200,9.504040283203125,0.03471628576517105,-0.00392522569745779,0.02250087633728981
1782986338094114300,9.5141142578125,0.03147228807210922,-0.0067891888320446014,0.0063352202996611595
1782986338104188200,9.524188232421874,0.032257918268442154,-0.0068166195414960384,-0.0163224209100008
1782986338114263300,9.53426318359375,0.03321399539709091,0.000925722299143672,-0.025361722335219383
1782986338124337200,9.544337158203126,0.028106121346354485,-0.001652716426178813,-0.03189701959490776
1782986338134411000,9.554410888671875,0.021004268899559975,-0.0017547155730426311,-0.023444944992661476
1782986338144486100,9.564486083984375,0.020821571350097656,-0.00019499310292303562,-0.008056684397161007
1782986338154560000,9.57456005859375,0.017731238156557083,-0.01155444048345089,0.0016609240556135774
1782986338164634000,9.584634033203125,0.012527582235634327,-0.019566215574741364,0.0018806182779371738
1782986338174708200,9.594708251953126,0.012959280051290989,-0.020402181893587112,0.0032910285517573357
1782986338184783000,9.604783203125,0.010376930236816406,-0.013056810945272446,-0.0023004955146461725
1782986338194857200,9.614857177734375,0.0051456838846206665,-0.0005988096818327904,0.0035837588366121054
1782986338204931300,9.624931396484374,0.003227521665394306,0.01309224497526884,0.020365435630083084
1782986338215006200,9.635006103515625,0.00046822032891213894,0.029264027252793312,0.04075752571225166
1782986338225080300,9.645080322265626,-0.006125044543296099,0.040632933378219604,0.0595843605697155
1782986338235154200,9.655154296875,-0.004763104021549225,0.03285703435540199,0.06139397621154785
1782986338245228300,9.665228271484375,0.0001008457038551569,0.014390874654054642,0.050409022718667984
1782986338255303200,9.67530322265625,-0.00026880105724558234,-0.008869973942637444,0.030308280140161514
1782986338265377300,9.685377197265625,0.010478433221578598,-0.03039676882326603,0.006325666792690754
1782986338275451100,9.695451171875,0.018625576049089432,-0.04778002202510834,-0.015129557810723782
1782986338285526300,9.7055263671875,0.0193609818816185,-0.04895881563425064,-0.029652556404471397
1782986338295600000,9.71560009765625,0.008607136085629463,-0.032312460243701935,-0.03154846280813217
1782986338305674000,9.725674072265624,0.0028635740745812654,-0.011747936718165874,-0.028981590643525124
1782986338315749000,9.7357490234375,0.0053586894646286964,0.013425859622657299,-0.018230142071843147
1782986338325823000,9.745822998046876,0.0076448661275208,0.024160899221897125,-0.006361715495586395
1782986338335897000,9.75589697265625,0.009999632835388184,0.012320218607783318,0.011455897241830826
1782986338345971200,9.76597119140625,0.013325735926628113,-0.00028350227512419224,0.024430152028799057
1782986338356046000,9.776046142578124,0.01066656969487667,-0.010723093524575233,0.030898969620466232
1782986338366120200,9.7861201171875,0.006119785830378532,-0.016072528436779976,0.028273792937397957
1782986338376194300,9.7961943359375,0.0005117012187838554,-0.008973075076937675,0.013898848555982113
1782986338386269200,9.806269287109375,-0.0050523229874670506,-0.005565188825130463,0.0058737280778586864
1782986338396343300,9.81634326171875,-0.012780549935996532,-0.0015589959220960736,0.004453198052942753
1782986338406417200,9.826417236328124,-0.019112559035420418,0.00014583230949938297,0.01262685563415289
1782986338416491300,9.8364912109375,-0.019571421667933464,-0.005905402358621359,0.022909054532647133
1782986338426566100,9.846566162109376,-0.02005740813910961,-0.01486110221594572,0.030871039256453514
1782986338436640300,9.85664013671875,-0.01722433790564537,-0.009799231775105,0.04656797647476196
1782986338446714000,9.866714111328125,-0.019051531329751015,-0.0011189250508323312,0.05760544538497925
1782986338456789200,9.876789306640624,-0.019530102610588074,0.0016180055681616068,0.06368598341941833
1782986338466863000,9.886863037109375,-0.021377235651016235,0.015404274687170982,0.05776622146368027
1782986338476937200,9.896937255859376,-0.015001626685261726,0.023910943418741226,0.04584431275725365
1782986338487011000,9.907010986328125,-0.00826729740947485,0.017483578994870186,0.02717846818268299
1782986338497086200,9.917086181640625,-0.004309839569032192,0.017180245369672775,0.014017659239470959
1782986338507160000,9.92716015625,0.0037709600292146206,0.020172515884041786,0.0035893514286726713
1782986338517234200,9.937234130859375,0.0041142413392663,0.015237145125865936,-0.0006735704955644906
1782986338527309000,9.94730908203125,0.0006838953122496605,0.01420573703944683,-0.002772573148831725
1782986338537383200,9.957383056640625,0.005372124258428812,0.021862324327230453,0.003086647717282176
1782986338547457300,9.967457275390625,0.0033071141224354506,0.027757856994867325,0.007322687190026045
1782986338557532200,9.9775322265625,-0.0005795033648610115,0.01821974664926529,0.008657197467982769
1782986338567606300,9.987606201171875,0.004178121220320463,0.011841464787721634,0.005496256984770298
1782986338577680100,9.99768017578125,0.010274896398186684,0.015572554431855679,0.01659977436065674
1782986338587754200,10.007754150390625,0.010869001038372517,0.02529781311750412,0.021991662681102753
1782986338597829000,10.0178291015625,0.008339264430105686,0.01824922487139702,0.02570730447769165
1782986338607903200,10.0279033203125,0.00817343220114708,0.02537100575864315,0.024631518870592117
1782986338617977000,10.03797705078125,0.008187014609575272,0.02440720796585083,0.027144212275743484
1782986338628052200,10.04805224609375,0.013659922406077385,0.017710167914628983,0.02520865947008133
1782986338638126000,10.0581259765625,0.01953938417136669,0.007214382290840149,0.012693401426076889
1782986338648200200,10.0682001953125,0.027312148362398148,0.0022169051226228476,-0.0030125074554234743
1782986338658274000,10.078274169921874,0.03212155029177666,0.01343360636383295,-0.020177112892270088
1782986338668349200,10.08834912109375,0.02445215731859207,0.017982587218284607,-0.04257364943623543
1782986338678423000,10.098423095703126,0.018342332914471626,0.01577083207666874,-0.06020217761397362
1782986338688497400,10.108497314453125,0.026672275736927986,0.017866656184196472,-0.058514516800642014
1782986338698572000,10.118572021484376,0.024318041279911995,0.018675725907087326,-0.059070851653814316
1782986338708646400,10.128646484375,0.018757129088044167,0.01956031285226345,-0.04911976307630539
1782986338718720300,10.13872021484375,0.017308369278907776,0.016110720112919807,-0.04177077114582062
1782986338728793900,10.1487939453125,0.009768541902303696,0.013257419690489769,-0.040838100016117096
1782986338738868700,10.15886865234375,0.0017215334810316563,0.0170524250715971,-0.041738782078027725
1782986338748942800,10.16894287109375,-0.007072366774082184,0.010945195332169533,-0.042592260986566544
1782986338759016700,10.1790166015625,-0.008211666718125343,0.01893121562898159,-0.03232763707637787
1782986338769091800,10.189091796875,-0.0011612143134698272,0.02109796367585659,-0.013907883316278458
1782986338779165700,10.199165771484376,0.001799954567104578,0.005049754865467548,0.002246319316327572
1782986338789239800,10.20923974609375,-0.00016185396816581488,-0.020102933049201965,0.006206640973687172
1782986338799314700,10.219314697265625,-0.0026527084410190582,-0.03618922457098961,-0.006401828955858946
1782986338809388800,10.229388916015624,0.012653990648686886,-0.01627032831311226,-0.017223719507455826
1782986338819462700,10.239462646484375,-0.004550029523670673,0.03441016003489494,0.05520174652338028
1782986338829536800,10.249536865234376,-0.047726478427648544,0.008269434794783592,0.1640043407678604
1782986338839611600,10.259611572265625,-0.03779635205864906,-0.087443508207798,0.21750564873218536
1782986338849685800,10.269685791015625,0.005549862515181303,-0.16956870257854462,0.1767394095659256
1782986338859759900,10.279759765625,0.0059738378040492535,-0.1312420815229416,0.06788855791091919
1782986338869834800,10.289834716796875,-0.050800569355487823,-0.03048763796687126,-0.0875283032655716
1782986338879908900,10.299908935546876,-0.16698496043682098,-0.0007055083988234401,-0.2653971016407013
1782986338889982700,10.309982666015625,-0.24793146550655365,0.05867280811071396,-0.3335374891757965
1782986338900056800,10.320056884765625,-0.23067817091941833,0.15274816751480103,-0.2523568868637085
1782986338910131700,10.330131591796874,-0.15996962785720825,0.2124786376953125,-0.04140854999423027
