time,seconds_elapsed,z,y,x
1782987772393662200,0.080662109375,2.228392673796415,-1.7841949083402753,1.0399106189817189
1782987772403736300,0.090736328125,2.4839140797853467,-1.8606179305464028,1.1363839110478757
1782987772413811200,0.100811279296875,2.378875496208668,-1.8638819007784126,1.173156913780421
1782987772423885300,0.11088525390625,1.9936475138545036,-1.7336898789837956,0.9799098853968083
1782987772433960200,0.120960205078125,1.5033996526241302,-1.50774557287395,0.6206139244176447
1782987772444034300,0.131034423828125,0.9733265614837407,-1.2790426157057284,0.3539725739993155
1782987772454109200,0.141109130859375,0.4186678951412439,-1.1184221378996968,0.2704731836661696
1782987772464183300,0.151183349609375,0.01540916605591774,-0.9943775328189134,0.2466138769119978
1782987772474258200,0.161258056640625,-0.20665362244546412,-0.8977084259197116,0.24558636049516497
1782987772484332300,0.171332275390625,-0.13417173908054827,-0.8646393922716379,0.2382564559984952
1782987772494407200,0.1814072265625,0.19023089543282984,-0.895350172355771,0.2502778793122619
1782987772504481300,0.191481201171875,0.5863982049524784,-0.9428180259734391,0.3584524958923459
1782987772514556200,0.20155615234375,0.9143763598650694,-0.9946572265431284,0.4819630671616643
1782987772524630300,0.21163037109375,1.206390051949024,-1.0666258996888995,0.6132593238711357
1782987772534705200,0.221705078125,1.351674136674404,-1.157564353981614,0.6072799572005868
1782987772544780300,0.2317802734375,1.425726045835018,-1.2322490080878137,0.5995524316884577
1782987772554854100,0.241854248046875,1.2870417977660893,-1.2725915398702026,0.6037297173731029
1782987772564929300,0.25192919921875,1.0370341867625712,-1.3086805058613418,0.5529954823706299
1782987772575003100,0.262003173828125,0.7735843258619308,-1.335991706635058,0.44458596105612813
1782987772585078300,0.272078369140625,0.5170879373610019,-1.3733067072898149,0.302178016288951
1782987772595152100,0.282152099609375,0.27445523903965946,-1.4442781860917806,0.162559994501248
1782987772605227300,0.292227294921875,0.023458616998791693,-1.5248074745729565,0.008028188959136606
1782987772615301000,0.302301025390625,-0.14478957920670507,-1.6183713089331984,-0.0687422584451735
1782987772625376300,0.312376220703125,-0.24934827031195161,-1.7116525269597769,-0.16416684517599642
1782987772635450400,0.322450439453125,-0.2812473833978176,-1.7568553582549093,-0.23971016193814573
1782987772645525200,0.332525146484375,-0.2271329313725233,-1.7160665440097451,-0.27934659127779304
1782987772655599400,0.342599365234375,-0.12770517341494558,-1.6673752860769628,-0.26981384297460315
1782987772665674200,0.35267431640625,-0.01104863275885582,-1.6566107309564948,-0.19316439160145818
1782987772675748400,0.362748291015625,0.13060790911912917,-1.65649821049273,-0.11548983496427535
1782987772685823200,0.3728232421875,0.21374562653303145,-1.6313400960996747,-0.058921706176549196
1782987772695897300,0.3828974609375,0.10777940671741962,-1.5713585056066512,-0.01810264292359352
1782987772705972200,0.39297216796875,-0.1722112546175718,-1.4497121938392519,-0.033564927406236525
1782987772716046300,0.40304638671875,-0.5027209738343954,-1.2492054035857318,-0.0621736937098205
1782987772726121200,0.413121337890625,-0.7465817526459694,-1.13322457023412,-0.030768282425031063
1782987772736195300,0.4231953125,-0.7176134323149919,-1.2365224476233123,0.06738492555208504
1782987772746270200,0.433270263671875,-0.5704103622257709,-1.3135787992969155,0.050006359119340774
1782987772756344300,0.44334423828125,-0.4818324995845556,-1.4094433118149636,0.005828194696828722
1782987772766419200,0.453419189453125,-0.46917818519473076,-1.4145672306999564,-0.11988061726912855
1782987772776493300,0.463493408203125,-0.5594698660165072,-1.172096737203002,-0.29409941231682896
1782987772786568200,0.473568115234375,-0.8590969557136297,-0.7885723438963294,-0.3534277265328914
1782987772796642300,0.483642333984375,-1.0883306587576866,-0.41927521338462825,-0.42890572297386825
1782987772806717200,0.49371728515625,-1.2101397598713635,-0.08883914392590522,-0.5091968918502331
1782987772816791300,0.503791259765625,-1.2001555414736271,0.11576777512282133,-0.5520480454526842
1782987772826866200,0.5138662109375,-1.0743377892404795,0.20537118141949176,-0.4381489868111908
1782987772836940300,0.523940185546875,-1.0011766914397477,0.1901198362737894,-0.21889343775026499
1782987772847015200,0.53401513671875,-0.9535223753392695,0.20298662437051535,-0.01675254348888993
1782987772857089300,0.54408935546875,-1.0367255592048168,0.30901217315793034,0.10335727942623198
1782987772867164200,0.5541640625,-1.1683821005940436,0.39440088436901566,0.2150596317410469
1782987772877238300,0.56423828125,-1.2657114249676464,0.5501365127429366,0.2525825760580599
1782987772887313400,0.5743134765625,-1.2264292158931493,0.7535021995589136,0.08357420913502574
1782987772897387300,0.58438720703125,-1.0782517478138207,0.9080787210255861,-0.21144553289711474
1782987772907462400,0.59446240234375,-0.9436492161005735,0.9921361836329102,-0.4291337595760822
1782987772917536300,0.604536376953125,-0.7697276504337787,0.9506152557209133,-0.517343008100614
1782987772927611400,0.614611328125,-0.542826774251461,0.8998229338556527,-0.6336264776606112
1782987772937685200,0.624685302734375,-0.2496019528120756,0.8728308820337056,-0.7340506262443959
1782987772947760400,0.634760498046875,0.051905543804168695,0.8555378019273281,-0.8327639523223042
1782987772957834200,0.644834228515625,0.37537002068459985,0.8206605498135089,-0.8409704204577952
1782987772967909400,0.654909423828125,0.7151870819509029,0.7395096223026514,-0.8063150674663484
1782987772977984300,0.664984375,1.103988246616721,0.7063163777530193,-0.7170294218819588
1782987772988058400,0.675058349609375,1.400345520862937,0.7011416054636239,-0.5371023321900517
1782987772998130700,0.685130615234375,1.6158493892401455,0.7115572010159492,-0.34891200267411765
1782987773008204800,0.695204833984375,1.7371867811888455,0.7623352020949125,-0.15778350081443784
1782987773018279700,0.70527978515625,1.7384125235915182,0.8257914829611778,0.017565321176499126
1782987773028353800,0.715353759765625,1.7086229500055312,0.8344909222453832,0.17543211636021733
1782987773038428700,0.7254287109375,1.7240893992066382,0.8149456792980432,0.3273107770450413
1782987773048502800,0.735502685546875,1.7299942393362522,0.7583043391436338,0.4523982422422617
1782987773058577700,0.74557763671875,1.7933353693902492,0.657317661306262,0.5325573091715574
1782987773068651800,0.75565185546875,1.8776736947655677,0.5630208364963531,0.5907785389285535
1782987773078726700,0.7657265625,1.9794903936862944,0.45776539529860016,0.5606477506894618
1782987773088800800,0.77580078125,1.9421692555516956,0.3932219037175178,0.4928445266600698
1782987773098875600,0.785875732421875,1.736995642530918,0.323724004599452,0.3491884815279394
1782987773108949800,0.79594970703125,1.3948855018913746,0.23312778787314892,0.12962218601740896
1782987773119024600,0.806024658203125,1.0287731388956307,0.20579495978951454,-0.07634908018708228
1782987773129098800,0.8160986328125,0.7285480833053588,0.23252456128299234,-0.29267215599268676
1782987773139173600,0.826173583984375,0.5914426288604736,0.19464462022185325,-0.4555073872387409
1782987773149247700,0.836247802734375,0.5864210013061761,0.08815700688064097,-0.49910285640247165
1782987773159322600,0.846322509765625,0.6544803920537233,-0.05164367799758911,-0.4497625599764287
1782987773169396700,0.856396728515625,0.7642863361626863,-0.19953648391664028,-0.3323726635444909
1782987773179471600,0.8664716796875,0.937374373614788,-0.3450362572193146,-0.11861030507236718
1782987773189545700,0.876545654296875,1.124906531482935,-0.4226712855637073,0.010363500038906931
1782987773199620600,0.88662060546875,1.2701292414098977,-0.5153764572679996,0.07556435955017804
1782987773209694700,0.89669482421875,1.331213532447815,-0.6303863997608423,0.15164470579847691
1782987773219769600,0.90676953125,1.2780278857052325,-0.7141711829066276,0.14510814363658428
1782987773229843700,0.91684375,1.1930261279851198,-0.7295704120904207,0.14206651091836392
1782987773239918600,0.926918701171875,0.966322820201516,-0.774434220689535,0.11781995841227472
1782987773249992700,0.93699267578125,0.7721937482863664,-0.8723825537443161,0.10856339670196175
1782987773260067600,0.947067626953125,0.7122913605093956,-0.9136492146342993,0.13328918409235774
1782987773270141700,0.9571416015625,0.6799819130569696,-0.9605261166214942,0.15211948370337486
1782987773280216600,0.967216552734375,0.7144289570599794,-1.0862304716080426,0.3080685356322676
1782987773290290700,0.977290771484375,0.6801467482298612,-1.230471184760332,0.47489108294881877
1782987773300365600,0.987365478515625,0.6065004972606897,-1.3956746064424514,0.610733970111981
1782987773310440000,0.99743994140625,0.468940869307518,-1.5155366651415825,0.7620715827226638
1782987773320514600,1.0075146484375,0.32949849634766576,-1.6050994471669195,0.8636598797149956
1782987773330589000,1.0175888671875,0.2830477108180523,-1.6414292361766099,0.8567139330346136
1782987773340663600,1.02766357421875,0.3125076140582561,-1.6473814225792884,0.8156651526790112
1782987773350738000,1.037738037109375,0.3122697136491537,-1.6580495315879582,0.8388757862661034
1782987773360812500,1.0478125,0.3615414018183946,-1.8561802403599024,1.1052534442469477
1782987773370887000,1.057886962890625,0.4953881467282772,-2.1472288868039846,1.4511507022097705
1782987773380961500,1.06796142578125,0.5448427902489901,-2.357268644556403,1.4604880010060965
1782987773391036700,1.07803662109375,0.31500761418044565,-2.4330764574736357,1.1353744417443872
1782987773401110500,1.088110595703125,-0.2874544213443994,-2.289075398296118,0.6965281933840364
1782987773411185700,1.098185546875,-1.2446353191912174,-1.9934055217921733,0.3985114614930004
1782987773421259500,1.108259521484375,-2.4155144972980023,-1.5559265431970357,0.28372444103583694
1782987773431334700,1.118334716796875,-3.4365205093234774,-0.9777823718488216,0.17295951570160686
1782987773441408500,1.128408447265625,-3.972464538323879,-0.27771453309655186,-0.03153225253485143
1782987773451483600,1.138483642578125,-3.9587113227814434,0.3213151898920536,-0.25190087740421296
1782987773461557500,1.1485576171875,-3.3742829565972086,0.726742495188117,-0.28149302872195836
1782987773471632600,1.158632568359375,-2.4260569341003895,0.7843839522957802,0.02633884861022234
1782987773481706500,1.16870654296875,-1.27461953856647,0.5855886421352624,0.5013027045343071
1782987773491781600,1.17878173828125,-0.10718903960883616,0.43194706343114375,0.7766961742721498
1782987773501855500,1.18885546875,0.9191565798789262,0.4135457298219204,0.8908822331614792
1782987773511930600,1.1989306640625,1.7256231846451757,0.44538697524070736,0.8878827590845525
1782987773522004500,1.20900439453125,2.205036348128319,0.5655594150632619,0.8546060740351676
1782987773532079600,1.21907958984375,2.4342402405560013,0.7065075164109468,0.8677275675453245
1782987773542153500,1.229153564453125,2.521206576347351,0.8137661141246557,0.9097245885364711
1782987773552228600,1.239228515625,2.4244173501998185,0.8906172986149787,0.9594881518758833
1782987773562302700,1.249302734375,2.1164543938338753,0.9484890573471784,0.9795717394836246
1782987773572377600,1.259377685546875,1.7418378218650816,0.9536310964107513,0.9035958765231072
1782987773582451700,1.26945166015625,1.4058371040165423,0.9528355621188879,0.6664250968694686
1782987773592526600,1.279526611328125,1.03009883454144,0.9293266762375831,0.330545228921622
1782987773602600700,1.2896005859375,0.6834978122234344,0.8694552681207657,-0.011874123797565698
1782987773612675600,1.299675537109375,0.3331494200706482,0.8259411205649375,-0.24488705311939118
1782987773622749700,1.309749755859375,0.02258826390504837,0.7503606866627931,-0.36140374691337346
1782987773632824600,1.319824462890625,-0.22347674695253372,0.6658376523703337,-0.36198826880306
1782987773642898700,1.329898681640625,-0.3344523193627596,0.6230044728159904,-0.35080950685851275
1782987773652973600,1.3399736328125,-0.35547172651588915,0.6671727003663778,-0.3948891793426126
1782987773663047700,1.350047607421875,-0.2827969509273767,0.8001853325396776,-0.46388234380893406
1782987773673122600,1.36012255859375,-0.20747546022236346,0.8602315127015113,-0.5533159464966505
1782987773683196700,1.37019677734375,-0.1089829372882843,0.8598007200688124,-0.5829880311828106
1782987773693271600,1.380271484375,0.0007195464462041854,0.8465414255231618,-0.538107490644604
1782987773703345700,1.390345703125,0.19765549247562883,0.8222919504076242,-0.4680141098514199
1782987773713420500,1.400420654296875,0.5373135637879372,0.8216635893762111,-0.37618141013272105
1782987773723494700,1.41049462890625,0.8807365405917167,0.8245897059559821,-0.22795506141036748
1782987773733569500,1.420569580078125,1.1888766070902348,0.7804951281636953,0.02676065421886742
1782987773743643600,1.4306435546875,1.3648136042326688,0.6828244430065155,0.33145547563433647
1782987773753718500,1.440718505859375,1.3813701867580412,0.5587906515806913,0.6313889278668909
1782987773763792600,1.450792724609375,1.330557114365697,0.47942193131148814,0.8820352021001279
1782987773773867500,1.460867431640625,1.2323217810630798,0.41413142075538634,0.9809994341991841
1782987773783941600,1.470941650390625,1.0549392612874506,0.36774960880875585,0.9776200208939612
1782987773794016500,1.4810166015625,0.8621551742404698,0.2931979334324598,0.9650964202117174
1782987773804090600,1.491090576171875,0.8009878810942173,0.2196259167432785,0.8849569347657262
1782987773814165500,1.50116552734375,0.8460112641692161,0.10904665017426013,0.8279868741136044
1782987773824239600,1.511239501953125,0.938683702647686,-0.052584173718094825,0.8191385278780012
1782987773834314800,1.521314697265625,0.9478028286486864,-0.24703064101934433,0.8744320336200296
1782987773844388600,1.531388671875,0.8740747446149587,-0.3875485342562198,0.943844519476965
1782987773854463700,1.541463623046875,0.712333446085453,-0.487576011672616,0.9732629216630011
1782987773864537600,1.55153759765625,0.49797348704636096,-0.5548141491651535,0.97694592102468
1782987773874612700,1.56161279296875,0.20870295619070528,-0.5804594625532626,0.935449177705869
1782987773884687600,1.5716875,-0.15115151545405386,-0.5765981109499931,0.8359657440382987
1782987773894761700,1.58176171875,-0.6259697523623704,-0.6019160920798778,0.6437357106775045
1782987773904836600,1.591836669921875,-1.1290203965425492,-0.6077583883672952,0.4430959416940808
1782987773914910700,1.60191064453125,-1.458574422469735,-0.5854021796524524,0.2621105020556599
1782987773924985600,1.611985595703125,-1.5045125823020935,-0.5203454778522253,0.1140096794091165
1782987773935059700,1.622059814453125,-1.3508353477627038,-0.5102718276053667,0.04845335752367973
1782987773945134600,1.632134521484375,-1.0403776519715786,-0.5988046820610762,0.16620105441734193
1782987773955208700,1.642208740234375,-0.645862785834074,-0.7414934895962476,0.3653790802851319
1782987773965283600,1.65228369140625,-0.3128729402393102,-0.8776566947549581,0.47345673929676413
1782987773975357700,1.662357666015625,-0.06774784058034419,-0.9396499173313378,0.4646684526853263
1782987773985432600,1.6724326171875,0.022550854504108427,-1.0484721110999584,0.5875083581514656
1782987773995506200,1.682506103515625,0.06652209817767143,-1.4026193110138176,0.857183304112032
1782987774005581300,1.692581298828125,0.2392594224959612,-1.7143302217364311,0.934111426296085
1782987774015655200,1.7026552734375,0.3109410953938961,-1.8884288975358008,0.6392889604017138
1782987774025730300,1.712730224609375,0.10101882654130458,-1.906071521732211,0.21078860335834324
1782987774035804200,1.72280419921875,-0.48079848036170003,-1.7841390864998101,-0.062030631977319714
1782987774045879300,1.73287939453125,-1.3967770147264003,-1.4567594820022582,-0.3788322169024497
1782987774055953200,1.742953125,-2.399727730101347,-0.882933173853159,-0.7407941822204739
1782987774066028300,1.7530283203125,-3.086294282245636,-0.2050064397603273,-1.0336403796058147
1782987774076102100,1.76310205078125,-3.2826094660282132,0.49475218691229816,-1.1032660698220134
1782987774086177300,1.77317724609375,-2.99934022141397,0.9860539411097764,-0.9726104491036385
1782987774096251100,1.783251220703125,-2.3103537486463783,1.1331330925583838,-0.6147442286666482
1782987774106326300,1.793326171875,-1.5417232457995413,0.8410206162750721,0.009761077166348695
1782987774116400000,1.803400146484375,-0.9472790970355272,0.37861528621613977,0.6178740511249751
1782987774126475300,1.813475341796875,-0.44220951424837107,0.026382395491003987,1.0728788226038217
1782987774136549000,1.823549072265625,-0.08692600378096103,-0.04392155931293964,1.192390314299613
1782987774146624300,1.833624267578125,0.1346376030266285,0.08875205016434193,1.030564260096103
1782987774156698000,1.843697998046875,0.31664485999345776,0.2307622277855873,0.7041258089061826
1782987774166773200,1.853773193359375,0.4381488406807184,0.21078794577121734,0.4036673829514533
1782987774176847000,1.86384716796875,0.4186041822552681,0.06311258199512958,0.11270619559511541
1782987774186922200,1.873922119140625,0.3109522013098001,-0.048504210928082464,-0.30719277571104464
1782987774196996400,1.883996337890625,0.2305190666794777,-0.10599778399765492,-0.7691395483475179
1782987774207071200,1.8940712890625,0.1686824959695339,-0.1415302851498127,-1.2460977929592132
1782987774217145300,1.904145263671875,0.19974165109992026,-0.11473229459524154,-1.5241189077869057
1782987774227220200,1.91422021484375,0.3223953863441944,-0.03241290782690048,-1.554312678259611
1782987774237294300,1.92429443359375,0.5428039778977632,0.10091595068871974,-1.2946950889982283
1782987774247369200,1.934369140625,0.8523252696216106,0.2468044310480356,-0.9100506056204438
1782987774257443300,1.944443359375,1.118533489319682,0.43293665899038314,-0.5023321206472814
1782987774267518200,1.954518310546875,1.3454910641252993,0.6035930853813887,-0.14344744388274847
1782987774277592300,1.96459228515625,1.6336603557407856,0.7244938394784927,0.13863741325251758
1782987774287667200,1.974667236328125,1.8666069418281315,0.7573059757560491,0.33570173490196464
1782987774297741300,1.9847412109375,1.9728619154572486,0.7510089214384555,0.5441127224087715
1782987774307816200,1.994816162109375,1.9308815533399581,0.6901040786206721,0.7126240265298635
1782987774317890300,2.004890380859375,1.8335662574917078,0.6791875478088856,0.761405885355547
1782987774327965200,2.014965087890625,1.7685966494530438,0.7312795540958642,0.7063763643119484
1782987774338039300,2.025039306640625,1.7265549125373363,0.7278729605227708,0.5979993570275605
1782987774348114200,2.0351142578125,1.649092318150401,0.6630746173977852,0.5185366017993539
1782987774358188300,2.045188232421875,1.5679489894241094,0.5391740969628095,0.41437246296964586
1782987774368263200,2.05526318359375,1.4383943887501953,0.4328945734143257,0.25537154918946325
1782987774378337300,2.065337158203125,1.2837503550052642,0.3495347376823425,0.06479746634215117
1782987774388412200,2.075412109375,1.0732798046201466,0.2615554254561663,-0.053847544717416165
1782987774398487300,2.0854873046875,0.88625092009902,0.23340309768319129,-0.07614376687332987
1782987774408561200,2.09556103515625,0.6826315507829189,0.2052344032973051,-0.008855433563515543
1782987774418636300,2.10563623046875,0.5559492906749248,0.1355611476123333,-0.0015391192007809876
1782987774428710100,2.115710205078125,0.48658875420093534,0.05504968704879284,0.046885085293650625
1782987774438785300,2.125785400390625,0.453955481621623,-0.08523089030086993,0.12187427530437707
1782987774448859400,2.135859375,0.45377135722637174,-0.21368775886595248,0.20743110962398348
1782987774458934300,2.145934326171875,0.4830968204319477,-0.3342284474790096,0.28797501115240154
1782987774469008400,2.15600830078125,0.4506061711937189,-0.4468383430927992,0.34668007890358565
1782987774479083300,2.166083251953125,0.31796587946414945,-0.540917141237855,0.35085743765346705
1782987774489157400,2.176157470703125,0.0645277094900608,-0.6202396842777729,0.2860959924727678
1782987774499232300,2.186232177734375,-0.24015841716229913,-0.6884791077673434,0.1628605118177831
1782987774509306400,2.196306396484375,-0.4905453828722238,-0.7274778237253428,0.05886719951033592
1782987774519381200,2.20638134765625,-0.642106648170948,-0.7335206110209226,-0.005230594129860401
1782987774529455400,2.216455322265625,-0.5829395889312029,-0.7623410473138094,0.008259805757924914
1782987774539530200,2.2265302734375,-0.3631336394459009,-0.7812105829566717,0.10273206019997597
1782987774549604400,2.236604248046875,-0.13538520652353764,-0.804129101729393,0.23420951869525014
1782987774559679200,2.24667919921875,-0.054288055026531216,-0.7767512654602527,0.3622013270318508
1782987774569753300,2.25675341796875,-0.044909985828399654,-0.8155944985955953,0.5396200871646404
1782987774579828200,2.266828125,0.11380465835630893,-1.0730787290900945,0.8913128796637058
1782987774589902300,2.27690234375,0.3029220395892858,-1.3963222566962241,1.133434998114407
1782987774599977200,2.286977294921875,0.3466939612984657,-1.5106997465044258,1.077437362691015
1782987774610051300,2.29705126953125,0.05698796163499355,-1.4223556926190852,0.8225193294227123
1782987774620126200,2.307126220703125,-0.6759393596678972,-1.1362719751060009,0.47306949354484673
1782987774630200300,2.317200439453125,-1.7032324891388415,-0.8430997606366872,0.16430559605956077
1782987774640275200,2.327275146484375,-2.7697809396773576,-0.5150310048311948,-0.1303779728207737
1782987774650349300,2.337349365234375,-3.4116204613447185,-0.07833820817768573,-0.4236741059307009
1782987774660424200,2.347424072265625,-3.4308582457780834,0.3352040145128965,-0.636395138656348
1782987774670498300,2.357498291015625,-2.8313316791832444,0.5472334847778082,-0.5904772909596562
1782987774680573200,2.3675732421875,-1.8024930738359688,0.378944956561923,-0.23477117116600274
1782987774690647300,2.377647216796875,-0.7098229245692491,0.03536006719470024,0.20843276094719768
1782987774700722200,2.38772216796875,0.2367132451444864,-0.26953181116282937,0.5774339772522449
1782987774710796300,2.39779638671875,1.0306441934645176,-0.35676118180453775,0.7618338284440338
1782987774720871400,2.407871337890625,1.5819845290392636,-0.2924760488986969,0.7196341244876384
1782987774730945300,2.4179453125,1.9041870231598614,-0.15217735137045382,0.5576404586322605
1782987774741020400,2.4280205078125,1.9301912329882382,0.05692424874901771,0.4051572561830282
1782987774751094300,2.43809423828125,1.694355939722061,0.31900925103724,0.2507590138927102
1782987774761169400,2.44816943359375,1.2677671884536743,0.6018664077192545,0.07199994506686926
1782987774771243300,2.4582431640625,0.6533925968170166,0.8484995738536119,-0.13993600169569254
1782987774781318400,2.468318359375,0.028665537992119787,1.0605834046542644,-0.3565798338882625
1782987774791392300,2.478392333984375,-0.45059623432159424,1.211577099198103,-0.5522099580161273
1782987774801467400,2.48846728515625,-0.736750094461441,1.2382196069300173,-0.6555573736354708
1782987774811541200,2.498541259765625,-0.7899889326959848,1.1453566143155098,-0.6839208599410951
1782987774821616400,2.508616455078125,-0.601080225777626,1.0642267295926808,-0.574337764802575
1782987774831690200,2.518690185546875,-0.3593722410857677,1.012416462856531,-0.3816612297832966
1782987774841765400,2.528765380859375,-0.17174889780282973,1.003351112869382,-0.22203553516827523
1782987774851839200,2.538839111328125,0.0030611411362886426,1.0708990469634532,-0.13863755938299
1782987774861914400,2.548914306640625,0.12566519201993942,1.2006886254370213,-0.14736659008786082
1782987774871988200,2.55898828125,0.2851338694423437,1.2805921832352876,-0.2639426128536463
1782987774882063400,2.5690634765625,0.5217722957849502,1.2747867118269205,-0.424255339884758
1782987774892137200,2.57913720703125,0.8142951064348221,1.191854161596298,-0.5651148861661554
1782987774902212400,2.58921240234375,1.124993625244498,1.0331401019334792,-0.6492832618020474
1782987774912286200,2.5992861328125,1.3647025450736283,0.8697580504596233,-0.7002760746754706
1782987774922361300,2.609361328125,1.5646394264847039,0.6836918734908104,-0.741093676623702
1782987774932435200,2.619435302734375,1.6972119136750696,0.5744377180457115,-0.7477542304914444
1782987774942510300,2.62951025390625,1.7960200784295797,0.4777396773129701,-0.5998239421062171
1782987774952584200,2.639584228515625,1.7750930257350206,0.4030430405080318,-0.320140812350437
1782987774962659300,2.649659423828125,1.5956231782913206,0.31530805843174453,-0.12112784085124731
1782987774972733200,2.659733154296875,1.3297148183226584,0.3051321168541908,-0.08203019456341862
1782987774982808300,2.669808349609375,1.129941603040695,0.31147885553240773,-0.1454545459214598
1782987774992883500,2.679883544921875,1.0044845008134842,0.22676409806013106,-0.2308736522708088
1782987775002957600,2.68995751953125,0.9291314459264278,0.016229834789037705,-0.26599004690274597
1782987775013032700,2.70003271484375,0.7955021431595086,-0.13712240557968616,-0.3236276315528899
1782987775023106600,2.7101064453125,0.5721358708441258,-0.21922551924884318,-0.31469847516603766
1782987775033180400,2.720180419921875,0.42136312557458877,-0.24224925196170805,-0.27636889064125714
1782987775043255600,2.730255615234375,0.38465398185849187,-0.26471593531370163,-0.2853849946592003
1782987775053330700,2.74033056640625,0.4236187955468893,-0.3211269738435745,-0.29125395975783464
1782987775063404500,2.750404541015625,0.3575783434063196,-0.39632688399553295,-0.2297664947465062
1782987775073479700,2.760479736328125,0.2244885543435812,-0.4562900620490312,-0.17348624298945067
1782987775083553500,2.770553466796875,0.12022621583640575,-0.5089455474376678,-0.08713621246553957
1782987775093628700,2.780628662109375,0.03485971645712852,-0.5528378806561232,-0.004859276599436998
1782987775103702500,2.79070263671875,-0.08589023099243641,-0.6177005211889743,0.10254625530429184
1782987775113777700,2.800777587890625,-0.2659855168581009,-0.7786001081973314,0.15978833783082663
1782987775123851500,2.8108515625,-0.42388066135346886,-0.861220523738861,0.07495974472053349
1782987775133926700,2.8209267578125,-0.5247732311666011,-0.968029624119401,-0.05869739590138197
1782987775144000500,2.83100048828125,-0.6516723488956689,-1.0227204147279263,-0.25363529998138545
1782987775154075600,2.84107568359375,-0.8053507524788379,-1.144052545979619,-0.37162871526442465
1782987775164149500,2.8511494140625,-0.8188052773356437,-1.4238245961278677,-0.3256560686405748
1782987775174224600,2.861224609375,-0.7531348275512456,-1.7225778255999087,-0.4470080005712807
1782987775184298500,2.871298583984375,-0.7695558009982109,-1.9254758949041366,-0.6753429281447082
1782987775194373600,2.88137353515625,-1.070783896151185,-1.9898656572282314,-0.946545010607317
1782987775204447500,2.891447509765625,-1.7749726142257451,-1.849724196088314,-1.2069312461536377
1782987775214522600,2.901522705078125,-2.499885555899143,-1.5154530785113571,-1.357730514103919
1782987775224596500,2.911596435546875,-2.9243846414119004,-1.0269570293843746,-1.6022503413461149
1782987775234671600,2.921671630859375,-3.051138797712326,-0.450178885692358,-1.8731540253840386
1782987775244745500,2.931745361328125,-2.960948239177465,0.06957564052939415,-2.058631588809937
1782987775254820600,2.941820556640625,-2.777363942152262,0.46025487402677534,-2.014519621491432
1782987775264894500,2.95189453125,-2.361348022824526,0.6971452293038368,-1.726037026143074
1782987775274969600,2.961969482421875,-1.784439530751109,0.810264828005433,-1.279078856062889
1782987775285043500,2.97204345703125,-1.094674474826455,0.8984551526337862,-0.9431064144607633
1782987775295118600,2.98211865234375,-0.37018180439174175,0.9850561622440814,-0.7931652246445416
1782987775305192400,2.9921923828125,0.16422610108256339,1.004509050732851,-0.6447219452358782
1782987775315267600,3.002267578125,0.4267857351452112,0.9458212994426488,-0.44965953799337144
1782987775325341700,3.012341796875,0.5207102195113897,0.9386176516741513,-0.3211991622969508
1782987775335416600,3.02241650390625,0.4381739751219749,1.0065350036025047,-0.41057701620943843
1782987775345490700,3.03249072265625,0.2690653626948595,1.1012275497317314,-0.720418625928834
1782987775355565600,3.042565673828125,0.07943652480840682,1.1619950299054385,-1.0948159291237591
1782987775365639700,3.0526396484375,-0.1344493869781494,1.1163374405801296,-1.4033397342428564
1782987775375714600,3.062714599609375,-0.2268926928758621,0.9416595035880804,-1.6379259042307734
1782987775385788700,3.07278857421875,-0.10742694001793861,0.7336275785267352,-1.6567086383730172
1782987775395863600,3.082863525390625,0.14114566974639892,0.6024819092690944,-1.5416542722165583
1782987775405937700,3.092937744140625,0.5353086537063122,0.5302221442222594,-1.338923083911836
1782987775416012500,3.103012451171875,0.9705945061713457,0.48841889223754403,-1.0581530357021838
1782987775426086700,3.113086669921875,1.2931833692610264,0.4179395808666944,-0.7729374062605202
1782987775436161500,3.12316162109375,1.4187211355090141,0.2768383347839117,-0.493895058626309
1782987775446235600,3.133235595703125,1.3445745338022708,0.14902093316614626,-0.2817635892916471
1782987775456310500,3.143310546875,1.0916706168353556,0.15404139167666434,-0.14472776601687073
1782987775466384600,3.153384521484375,0.7288081955462694,0.31270693602263927,-0.11266783634610474
1782987775476459500,3.16345947265625,0.3265221108853817,0.4964759419649839,-0.17311346415430307
1782987775486533600,3.17353369140625,-0.036486440876126285,0.5639940654426813,-0.21235950593687591
1782987775496608500,3.1836083984375,-0.3615437399059534,0.5399158552408218,-0.23919863221943377
1782987775506682600,3.1936826171875,-0.5867869120091199,0.42673897339403627,-0.27780761820748445
1782987775516757500,3.203757568359375,-0.6481564497292042,0.3477536994844675,-0.32429807816036044
1782987775526831600,3.21383154296875,-0.5472130265116691,0.3169318602412939,-0.3976237919382751
1782987775536906500,3.223906494140625,-0.35392391255199906,0.27435294770896435,-0.44279812779128547
1782987775546980600,3.233980712890625,-0.08112403950393199,0.1922194389015436,-0.46526327677331863
1782987775557055500,3.244055419921875,0.11466741266548633,0.08923252715766429,-0.44876974954679605
1782987775567129600,3.254129638671875,0.3065443217396736,0.0063064066678285595,-0.40569107079878447
1782987775577204500,3.26420458984375,0.42577509679794306,0.02374795533418655,-0.395045977339521
1782987775587278600,3.274278564453125,0.5507365244626998,0.08079086202681064,-0.4388434718813747
1782987775597353700,3.284353759765625,0.6554220568180084,0.1404974349707365,-0.5412305180359631
1782987775607427600,3.294427490234375,0.7536006914973259,0.12360709044635296,-0.6339039794277399
1782987775617502700,3.304502685546875,0.8716343657255172,0.03323240751624107,-0.6946279857859015
1782987775627577600,3.31457763671875,1.1258248153716326,-0.06933715559840202,-0.6405728627324104
1782987775637651700,3.324651611328125,1.3672118975460528,-0.19051029689610002,-0.4527005131244659
1782987775647726600,3.3347265625,1.5706009652376174,-0.32645956704318524,-0.17047697817087173
1782987775657800700,3.34480078125,1.7489193045586346,-0.43649990442991254,0.05926730474382639
1782987775667875600,3.35487548828125,1.7412959700733421,-0.4791185644507408,0.23430194621905684
1782987775677949700,3.36494970703125,1.5632658000439406,-0.5024257902801037,0.30152020996734497
1782987775688024600,3.375024658203125,1.1912661325752734,-0.5179004227876662,0.23387875237092373
1782987775698098700,3.3850986328125,0.7277543025791645,-0.4731733923107385,0.08052008226141333
1782987775708173600,3.395173583984375,0.28532734618782996,-0.47280689708590506,0.07124240469783544
1782987775718247700,3.40524755859375,-0.11546528504490852,-0.46099955491423605,0.21833704597651957
1782987775728322600,3.415322509765625,-0.5142705418527126,-0.396084307411313,0.3819255798079073
1782987775738396700,3.425396728515625,-0.7180331190317869,-0.30937106959819793,0.6158316585771739
1782987775748471600,3.435471435546875,-0.8031710703521966,-0.19359774151742457,0.8906592380605638
1782987775758545700,3.445545654296875,-0.7111433595180511,-0.1891781715095043,1.0949844175584613
1782987775768620500,3.45562060546875,-0.4518547099500894,-0.2500035193502903,1.2952728888861835
1782987775778694700,3.465694580078125,-0.2644657599449158,-0.41622576268613337,1.396913062196225
1782987775788769500,3.47576953125,-0.13095569964349268,-0.6408014107912778,1.4606180571265517
1782987775798843600,3.48584375,0.03912555720806122,-1.043644544813037,1.6726631633520126
1782987775808918500,3.49591845703125,0.4195575374573469,-1.3799299248218535,1.8918124024942515
1782987775818992600,3.50599267578125,0.7881412590026855,-1.5253531257569788,1.9791393882915376
1782987775829067500,3.516067626953125,1.3966279616445303,-1.363080496829748,1.9294617496699094
1782987775839141600,3.5261416015625,0.8864800526797771,-0.9941998381644487,1.7377201574131846
1782987775849216800,3.536216796875,-0.08026186971664429,-0.7340846746444701,1.3232013447754085
1782987775859290600,3.54629052734375,-1.4151473686754703,-0.660792059418559,1.136104655715078
1782987775869365800,3.55636572265625,-2.5821499976098536,-0.6814502320438623,0.6305610256753862
1782987775879439600,3.566439697265625,-3.3533114802390336,-0.6473392881274223,0.001542261005938053
1782987775889514800,3.5765146484375,-3.463530096802115,-0.3670972823798656,-0.5774765012197196
1782987775899588600,3.586588623046875,-2.707915727394819,0.208214880412817,-0.9243662773512303
1782987775909663700,3.596663818359375,-1.4399439562797545,0.7762269493252039,-1.0377234842009841
1782987775919737600,3.606737548828125,0.03185936559736729,0.9827636673927307,-0.7726562512315809
1782987775929812700,3.616812744140625,1.3045932365477084,0.8932301114618778,-0.2773788714013994
1782987775939886600,3.626886474609375,2.0558464881360528,0.7538210562497377,0.167058840290457
1782987775949961700,3.636961669921875,1.9900772541522977,0.6516214954912662,0.47971039286404843
1782987775960035600,3.64703564453125,1.2675947544962167,0.7650327706158161,0.4858081252172589
1782987775970110700,3.65711083984375,0.3626443946242332,1.0437713860630988,0.24316943554654716
1782987775980184600,3.6671845703125,-0.4406675455033779,1.2317179699510334,0.05732347719967365
1782987775990259700,3.677259765625,-0.9158090230166912,1.1522726773142813,0.043903000742942094
1782987776000333800,3.687333740234375,-1.0890209791094063,0.8434270928949117,0.11268033050149678
1782987776010409000,3.697408935546875,-0.943976548358798,0.5606067610919475,0.18264409356564282
1782987776020482800,3.70748291015625,-0.5345382538557052,0.39117432353794573,0.31385186827406286
1782987776030558000,3.717557861328125,0.05906769051849842,0.3244254308670759,0.5810233800463378
1782987776040631800,3.7276318359375,0.6519301230490208,0.29692718308866023,0.962054787493497
1782987776050707000,3.73770703125,1.187010813218355,0.3020785745024681,1.34452499557212
1782987776060780800,3.74778076171875,1.6043430758416652,0.3100613899499178,1.6268283177636562
1782987776070856000,3.75785595703125,1.8540514116376636,0.27980186076462266,1.7591805863320826
1782987776080929800,3.7679296875,1.9041846850723028,0.2146101344078779,1.7182805667974055
1782987776091005000,3.7780048828125,1.6691379118353127,0.16046762533187867,1.5680305302277207
1782987776101078800,3.788078857421875,1.3625544271290302,0.23942542671263217,1.3452918882913887
1782987776111154000,3.79815380859375,0.9621054947674273,0.3468547048181295,1.0761530950341374
1782987776121227800,3.808227783203125,0.6215250479131936,0.46722529756128783,0.9557597059372812
1782987776131303000,3.818302978515625,0.4094675205975771,0.5279769956439733,0.96852076863721
1782987776141376800,3.828376708984375,0.3129658792197704,0.5775076270103454,1.1327124559935182
1782987776151452000,3.838451904296875,0.2672574364900589,0.6472808359384536,1.344746821629256
1782987776161525800,3.84852587890625,0.09941957465112208,0.745192928636074,1.5121530140526591
1782987776171601000,3.858600830078125,-0.24946575921177863,0.8203940078318118,1.6291414170116185
1782987776181674800,3.8686748046875,-0.7490881825089454,0.8382108195513487,1.6515031786844134
1782987776191750000,3.87875,-1.2973685459911823,0.900152604201436,1.5624673431426286
1782987776201824000,3.888823974609375,-1.754940464544296,0.9007955782800913,1.4539391638845205
1782987776211899000,3.89889892578125,-1.8934487715244293,0.9232388807564973,1.3868755061760545
1782987776221973000,3.908972900390625,-1.7922773847699165,0.9561211596608161,1.354524265408516
1782987776232047900,3.9190478515625,-1.4290554825186728,0.9462994383484125,1.4049758110120891
1782987776242122000,3.9291220703125,-0.9005091625541448,0.8435568567544222,1.5952224885359405
1782987776252196900,3.93919677734375,-0.3572282147943973,0.7211036125183105,1.816356617885083
1782987776262271000,3.94927099609375,0.2017220112621784,0.6420978803426027,1.894487759183347
1782987776272345900,3.959345947265625,0.7189899813652039,0.543550412350893,1.8678809072867035
1782987776282420000,3.969419921875,1.1485633014023304,0.33424013791680335,1.8071537591233848
1782987776292494800,3.979494873046875,1.367791743260622,0.13894845196306704,1.6928813371248543
1782987776302569000,3.98956884765625,1.412199040263891,-0.040649990296363826,1.605759080119431
1782987776312643800,3.999643798828125,1.2912708136379718,-0.2196738475382328,1.5749636904917657
1782987776322718000,4.009718017578125,1.0429553935050964,-0.32449323540627956,1.517122765289247
1782987776332792800,4.019792724609375,0.5447925213664769,-0.3428782024025917,1.373155316120386
1782987776342868000,4.029867919921875,0.06561316663920878,-0.3624047406494617,1.273301149444282
1782987776352941800,4.03994189453125,-0.3287053001433611,-0.4329594553440809,1.1977440233524888
1782987776363017000,4.050016845703125,-0.6021411330074071,-0.4827069443315267,1.1394723785825074
1782987776373090800,4.0600908203125,-0.8736275853693485,-0.5195879374831914,1.1086549963187426
1782987776383166000,4.070166015625,-1.0686842935234309,-0.5279781646877527,1.1157480233196169
1782987776393239800,4.08023974609375,-1.1434919894874096,-0.4890647889256477,1.1347310292743147
1782987776403315000,4.09031494140625,-1.134604334154725,-0.4005295963823795,1.1174825920272617
1782987776413388800,4.100388916015625,-1.0712252101778983,-0.359595528447628,1.1424706836156546
1782987776423464000,4.1104638671875,-0.969969067749381,-0.3772954357892275,1.1854476555548608
1782987776433537800,4.120537841796875,-0.8221919971644878,-0.4634720825076103,1.2453802923396229
1782987776443613000,4.130613037109375,-0.6366787779033184,-0.5529056851953268,1.246055122861266
1782987776453687000,4.14068701171875,-0.5501122550845146,-0.5810235261768102,1.1675575594034044
1782987776463762000,4.150761962890625,-0.6754787564188242,-0.5060615164339543,0.9831114579170942
1782987776473836000,4.1608359375,-0.9402472987025976,-0.29231004468202587,0.6712913877315819
1782987776483911000,4.170910888671875,-1.3222376143097876,-0.08897124587297439,0.3407373909816146
1782987776493985000,4.180985107421875,-1.5857167013049125,0.09522446104884147,0.09967102866154164
1782987776504060000,4.191059814453125,-1.5837094531357288,0.32644495399594303,-0.08605320300180465
1782987776514134000,4.201134033203125,-1.334213883307576,0.5145008434772491,-0.18578315877635032
1782987776524209000,4.211208984375,-0.9139707016736268,0.6030260991483927,-0.09984123412929474
1782987776534283000,4.221282958984375,-0.44666883174479005,0.5626596019685268,0.1496712137684226
1782987776544358000,4.23135791015625,0.022645547050237653,0.5238216295301914,0.41363465021438894
1782987776554432000,4.241431884765625,0.4492231924027204,0.5840799911379814,0.5817827105136588
1782987776564507000,4.2515068359375,0.7769464957714081,0.6586749211341142,0.6751940942585468
1782987776574581000,4.2615810546875,0.9952917250543832,0.7050573176026343,0.6822768190611154
1782987776584656000,4.27165576171875,1.1093249314695597,0.750004712831974,0.6398933560356498
1782987776594730000,4.28172998046875,1.1072551394581793,0.8023895645856857,0.5460999507032335
1782987776604804900,4.291804931640625,0.9643278469920158,0.8848895686179399,0.4276464436277747
1782987776614879000,4.30187890625,0.537634466305375,0.9501835863053798,0.29658889104500413
1782987776624953900,4.311953857421875,0.022515198668837545,1.0621797339349985,0.17713406143989413
1782987776635028000,4.322028076171875,-0.2920440872222185,1.183241816073656,0.08993066548965871
1782987776645102800,4.332102783203125,-0.40599136891961096,1.2353192093133927,0.1527151480415836
1782987776655177000,4.342177001953125,-0.4642331300079822,1.2655004125654696,0.3405654319481924
1782987776665251800,4.352251953125,-0.5882815344810486,1.3206418695509432,0.49717342270985243
1782987776675326000,4.362325927734375,-0.4844236851215362,1.3322002053976059,0.6879010886836796
1782987776685400800,4.37240087890625,-0.19262334352731703,1.2978975383013487,0.8574444392662495
1782987776695475000,4.382474853515625,0.21395196276009082,1.1973644494503737,0.9279898746758699
1782987776705549800,4.3925498046875,0.657925564071536,1.0770920563846826,0.9864670519553125
1782987776715624000,4.4026240234375,1.1016519126236437,0.9505892444968222,1.0696537230774759
1782987776725699000,4.412698974609375,1.4919061987072229,0.7911462860375642,1.1098160759873688
1782987776735773000,4.42277294921875,1.7942799567639827,0.6536883648931979,1.0828943859878928
1782987776745848000,4.43284814453125,2.0345096855968237,0.5407686726778745,0.9915363180436193
1782987776755922000,4.442921875,2.12623753670156,0.467062800475955,0.9010193040333687
1782987776765997000,4.4529970703125,2.134012846878171,0.4515864144027233,0.8335356673471629
1782987776776071000,4.46307080078125,1.9565029013305901,0.45183191359639163,0.8308456976108253
1782987776786146000,4.47314599609375,1.594602603071928,0.5204734881460666,0.8824510894246399
1782987776796220000,4.483219970703125,1.3276076169103384,0.6203548350900411,0.9006143764942884
1782987776806295000,4.493294921875,1.1562135238945483,0.6896803002506494,0.9174224495626986
1782987776816369000,4.503368896484375,0.9829209037810563,0.6772346601754426,0.9699203332368284
1782987776826444000,4.513444091796875,0.8009235836863517,0.637899259608984,1.0573634196944535
1782987776836518000,4.523517822265625,0.6681564507067204,0.5510030664443969,1.18878973252438
1782987776846593000,4.533593017578125,0.6005488953799009,0.4623264196038246,1.2945000048175452
1782987776856667000,4.5436669921875,0.6038806701511145,0.4356605309963226,1.4211024776875971
1782987776866742000,4.553741943359375,0.6393114644944667,0.3672375676333904,1.5296533071689307
1782987776876816000,4.56381591796875,0.6651368106245994,0.30611645171642304,1.6410184634186327
1782987776886891000,4.57389111328125,0.713098000717163,0.2195692181199789,1.6532883085355161
1782987776896964900,4.58396484375,0.689198069691658,0.08516542384922504,1.5982294152669607
1782987776907040000,4.5940400390625,0.5797551136761904,-0.035550621330738066,1.52488492372334
1782987776917113900,4.60411376953125,0.42955753794610496,-0.13717150541841983,1.4323191604897378
1782987776927189000,4.61418896484375,0.24945523781776427,-0.23371523237228392,1.3819357116863131
1782987776937262800,4.624262939453125,0.05425999797582626,-0.31905951991975307,1.3016297105669974
1782987776947338000,4.634337890625,-0.11825170089304446,-0.4207867869913578,1.2515271245315671
1782987776957411800,4.644411865234375,-0.2654062556654215,-0.5188391649425029,1.2008228462759405
1782987776967487000,4.654487060546875,-0.385500369554758,-0.6619272009283304,1.0550859762817622
1782987776977560800,4.664560791015625,-0.45189211935102935,-0.7240057637006044,0.8912664101734757
1782987776987636000,4.674635986328125,-0.6265256326794624,-0.7653437362611293,0.7150719311386347
1782987776997709800,4.684709716796875,-0.8370201484620571,-0.8058996185332536,0.555231278598681
1782987777007784400,4.694784423828125,-0.9953022464483976,-0.8397831834346056,0.4343493753325194
1782987777017858300,4.7048583984375,-1.0806477030396462,-0.8714765448153018,0.35741117014586926
1782987777027933400,4.714933349609375,-1.276049863630533,-0.8674801686555147,0.31143278790097684
1782987777038008600,4.725008544921875,-1.545946416452527,-0.8652215760737657,0.27143117851074783
1782987777048082400,4.73508251953125,-1.7064415143132208,-0.8247977957487106,0.2509320689046755
1782987777058157600,4.745157470703125,-1.78723529894948,-0.8226350647568702,0.2891762036357075
1782987777068231400,4.7552314453125,-1.8134511057019234,-0.9370189843058585,0.37732626931890845
1782987777078306600,4.765306640625,-1.639185256642103,-1.2305424964308738,0.712454076790437
1782987777088380400,4.77538037109375,-1.235564708507061,-1.5236849002838133,1.1185559203471989
1782987777098455600,4.78545556640625,-0.9720189860165118,-1.7489608056128023,1.399782334022224
1782987777108529400,4.795529296875,-0.9832932442247867,-1.9168483518123625,1.5826970612227915
1782987777118604500,4.8056044921875,-1.2886515710502862,-1.7705986369252205,1.5286436917349695
1782987777128678400,4.815678466796875,-1.8959376657307148,-1.3789333149999379,1.2139691089011728
1782987777138753500,4.82575341796875,-2.5078835689157244,-0.8294418221622705,0.8294250902231782
1782987777148827400,4.835827392578125,-2.9746874261945484,-0.207726220113039,0.495889228118211
1782987777158902500,4.845902587890625,-3.2252906650036572,0.36094928114414215,0.29265337822698057
1782987777168976400,4.855976318359375,-3.0863556570440527,0.9225263485729693,0.17312877132128923
1782987777179051500,4.866051513671875,-2.520389414745569,1.3996207137197256,0.17122878291886298
1782987777189125400,4.87612548828125,-1.607795262122154,1.6328139680445193,0.3371306717265397
1782987777199200500,4.886200439453125,-0.5151607686907053,1.694943384221196,0.6060435472734272
1782987777209274400,4.8962744140625,0.5395131196588278,1.6571908689320087,0.8577039669852703
1782987777219349500,4.906349609375,1.4772832145929335,1.6074813738673925,1.1732334130827338
1782987777229423400,4.91642333984375,2.189246073800325,1.5028057783842086,1.5714844700738786
1782987777239498500,4.92649853515625,2.64500714353919,1.3551573026150465,1.8847547390677033
1782987777249572400,4.936572265625,2.8914333889245984,1.2547101384818553,2.1094494835078716
1782987777259647500,4.9466474609375,2.883570984986424,1.2227549112945795,2.137677214604616
1782987777269721300,4.956721435546875,2.711375512459874,1.3207120121777056,1.9877914813026785
1782987777279796500,4.96679638671875,2.2930542387992143,1.4980238048046826,1.6437331292048096
1782987777289870300,4.976870361328125,1.6714941195726394,1.602137090229988,1.2645856358081102
1782987777299945500,4.986945556640625,0.978596610841155,1.590152637925744,0.865056740900874
1782987777310019300,4.997019287109375,0.3214525525361299,1.6593734736680983,0.4092187334682792
1782987777320094500,5.007094482421875,-0.24502397737205028,1.710594542339444,0.024307269717380404
1782987777330168300,5.017168212890625,-0.7486591434419154,1.6619126367568968,-0.22403328485675156
1782987777340243500,5.027243408203125,-1.1873118419915436,1.514159531569481,-0.30210612009651955
1782987777350317300,5.0373173828125,-1.4279700253695249,1.374334296771884,-0.3099323202101514
1782987777360392400,5.047392333984375,-1.46125094820261,1.367679515057802,-0.26022892609275877
1782987777370466300,5.05746630859375,-1.3818103317409753,1.369724172627926,-0.10538114993665366
1782987777380541400,5.06754150390625,-1.245477030712366,1.3782500089108942,0.17848796026688069
1782987777390615300,5.077615234375,-1.0086404514491558,1.4496949504435062,0.4099941382875666
1782987777400690400,5.0876904296875,-0.6593120499938726,1.6081132420301436,0.5013706917366013
1782987777410764300,5.097764404296875,-0.3997445834845304,1.6696394316166638,0.5293463112358003
1782987777420839400,5.10783935546875,-0.2019096427887678,1.587261592659354,0.5972539820203557
1782987777430913500,5.11791357421875,-0.016910218268632888,1.4886796378761529,0.6303843539342284
1782987777440988400,5.127988525390625,0.18465806373655794,1.4474252519458533,0.5153507748374715
1782987777451062500,5.1380625,0.32479484870135783,1.3328548699140548,0.3193057497657835
1782987777461137400,5.148137451171875,0.4876163436830043,1.1860247247904538,0.1746907234083861
1782987777471211500,5.15821142578125,0.6709826140433549,1.0206219811439514,0.1565402958203107
1782987777481286400,5.168286376953125,0.8478507545560597,0.8988315847307443,0.1984437933091074
1782987777491360500,5.178360595703125,1.0345604901254177,0.7801520138144493,0.2570548991665244
1782987777501435400,5.188435302734375,1.2005302200049162,0.6358183616816997,0.29443485481627285
1782987777511509500,5.198509521484375,1.146984507778287,0.4828472295850515,0.32960276043973863
1782987777521584400,5.20858447265625,0.9803788180828094,0.32852760548889637,0.3566256823239848
1782987777531658500,5.218658447265625,0.7134171496689319,0.21955051341950893,0.3770439087135717
1782987777541733400,5.2287333984375,0.432043509542942,0.19214345105588435,0.34364363381713625
1782987777551807500,5.238807373046875,0.12570844663977623,0.18091829268634319,0.34908692084960635
1782987777561882400,5.24888232421875,-0.2286006658375263,0.19524083254933355,0.3515149151815101
1782987777571956500,5.25895654296875,-0.5639467191696167,0.1911690530657768,0.3769142909845337
1782987777582031400,5.26903125,-0.8162415643274784,0.1282493632942438,0.42298173975236714
1782987777592105500,5.27910546875,-0.9187053289800882,0.039000469523668285,0.44722712321467695
1782987777602180400,5.289180419921875,-0.9675836339175701,0.0011678747355937957,0.46897740192562337
1782987777612254500,5.29925439453125,-0.9701847563266753,-0.06291501359641552,0.5891399048760533
1782987777622329300,5.309329345703125,-0.9605506665408611,-0.16845336338877676,0.6848696120332927
1782987777632403500,5.319403564453125,-0.8508037591427564,-0.2640209387868643,0.7103339428313076
1782987777642478300,5.329478271484375,-0.6463315723896026,-0.40543198147118087,0.6192313840180635
1782987777652552400,5.339552490234375,-0.38959494539201256,-0.5541366882950067,0.4286950758978724
1782987777662627300,5.34962744140625,-0.18790858996510504,-0.7454296600013971,0.31070728663802144
1782987777672701400,5.359701416015625,-0.04980711022019386,-0.904594970563054,0.20108568612001834
1782987777682776600,5.369776611328125,-0.0295277077794075,-1.002979941469431,0.11561404586583375
1782987777692850400,5.379850341796875,-0.05103168357908725,-1.070871574434638,0.1359386026225984
1782987777702925600,5.389925537109375,0.0253927999317646,-1.3195394612669944,0.36014059510976076
1782987777712999400,5.39999951171875,0.2850017674952745,-1.5261153423011302,0.6191135297920555
1782987777723074600,5.410074462890625,0.5325976411819457,-1.5861030702739953,0.6942852367628365
1782987777733148400,5.4201484375,0.5755927332997322,-1.629106930220127,0.6345959802798926
1782987777743223600,5.4302236328125,0.24790976194143294,-1.5272002149283885,0.3474226408991962
1782987777753297400,5.44029736328125,-0.38938685559928415,-1.2894821766555309,-0.07910784084331243
1782987777763372500,5.45037255859375,-1.0802367841511964,-1.0018582439631223,-0.3884450081719085
1782987777773447200,5.460447265625,-1.708766742390394,-0.5859072065651416,-0.5081729190973565
1782987777783521500,5.470521484375,-2.254393376493454,-0.10990531283020973,-0.6010276553401723
1782987777793596200,5.48059619140625,-2.6573820564657447,0.3160872261106968,-0.5338419421546161
1782987777803670500,5.49067041015625,-2.786949516621232,0.6970359237104654,-0.4075449915697798
1782987777813745200,5.5007451171875,-2.5675655919402836,0.9395476260006427,-0.243906188855879
1782987777823819500,5.510819580078125,-2.0541373461306094,0.978909914574027,-0.10027958901394159
1782987777833894100,5.52089404296875,-1.3003840944200753,0.9570932195633649,0.040766748543828724
1782987777843968500,5.530968505859375,-0.45548166827559466,0.9320037864923476,0.12169500974733381
1782987777854043100,5.541043212890625,0.14799042107462881,0.8187737131536006,0.13010609707683324
1782987777864117500,5.551117431640625,0.4841968906283378,0.7564578344941139,0.12978767877742647
1782987777874192100,5.561192138671875,0.5966214928030967,0.6964952409625053,0.0984090824343264
1782987777884266500,5.5712666015625,0.5039233353614807,0.6687742903441191,0.010280315267480909
1782987777894341000,5.581341064453125,0.27417408401072024,0.6625579000473022,-0.1301707232782617
1782987777904415500,5.59141552734375,0.0813368054717779,0.6992839948982,-0.27918646881263703
1782987777914490000,5.601489990234375,-0.05639934809207916,0.7317074241191148,-0.4083177295079455
1782987777924564500,5.611564453125,-0.04909866968989372,0.7718079638391733,-0.465502200095728
1782987777934639000,5.62163916015625,-0.0029027357041835782,0.7852250792950392,-0.4064759375661611
1782987777944713500,5.63171337890625,0.1178279225230217,0.7196463994473219,-0.26135515364371237
1782987777954788400,5.641788330078125,0.3471463812410831,0.6505033051162957,-0.0539024532424286
1782987777964862500,5.651862548828125,0.5738046808391809,0.5731377413630485,0.20308876957073807
1782987777974937300,5.661937255859375,0.7523743645727634,0.46177755354940886,0.4392377318959683
1782987777985011500,5.672011474609375,0.9907301162272691,0.44046004023253915,0.6613482319965959
1782987777995086300,5.68208642578125,1.2113216631323098,0.38607203196287154,0.8574564950302243
1782987778005161000,5.692160888671875,1.400884450045228,0.296715001642704,0.9908533772807567
1782987778015236000,5.702236083984375,1.5216571938484906,0.17635200768411158,1.0476503463882951
1782987778025310000,5.71231005859375,1.5761492470145224,0.08926993655860424,0.9932835270371287
1782987778035385000,5.722385009765625,1.5665817927241323,0.06770750856995582,0.8712849677659571
1782987778045459000,5.732458984375,1.4413298576802014,0.12741992673277855,0.6910362449042499
1782987778055534000,5.7425341796875,1.257631578886509,0.21175416045486925,0.5244719831977039
1782987778065608000,5.75260791015625,1.0334890615016221,0.30453824261426926,0.41367936613894996
1782987778075683000,5.76268310546875,0.8242156119465828,0.36848785995543,0.3219976922634989
1782987778085757000,5.7727568359375,0.7453326293677092,0.4220540304481983,0.24189357039183376
1782987778095832000,5.78283203125,0.6729074446260929,0.4776555061608553,0.23526611507609485
1782987778105906000,5.792906005859375,0.5873802017271519,0.4939309336572885,0.23887188448309896
1782987778115981000,5.80298095703125,0.5384814385235309,0.4881774846971035,0.2964659222524613
1782987778126055200,5.81305517578125,0.5559329240620136,0.43922377643585203,0.3310452143330127
1782987778136130000,5.823130126953125,0.5575175629049539,0.3916249899148941,0.3202999484349042
1782987778146204200,5.8332041015625,0.55897945215106,0.2913806548774242,0.32594533391073344
1782987778156279000,5.843279052734375,0.4843506198853254,0.1594376977622509,0.3290826090231538
1782987778166353200,5.853353271484375,0.43676703093349933,0.052446811074018475,0.2903092262536287
1782987778176428000,5.863427978515625,0.47025370547175405,-0.027638533031940457,0.24313699458166954
1782987778186502100,5.873502197265625,0.5408996055811643,-0.11120704307854175,0.16427483559511602
1782987778196577000,5.883576904296875,0.6391495519310235,-0.2392535772770643,0.06887443345747887
1782987778206651100,5.893651123046875,0.7457406256467104,-0.31328678173720836,0.019516455244272948
1782987778216726000,5.90372607421875,0.812083275604248,-0.42880525827407834,0.04620740522779524
1782987778226800000,5.913800048828125,0.7792571108013391,-0.517067479094863,0.15898513168916106
1782987778236875000,5.923875,0.6253975054323673,-0.5246750314891339,0.300186623276025
1782987778246949000,5.93394921875,0.44637131010293957,-0.4951812259793281,0.41063729502931234
1782987778257024000,5.94402392578125,0.2165063234180212,-0.5066460383236407,0.5096503347061574
1782987778267098000,5.95409814453125,-0.02829670467972755,-0.538100914773345,0.6161247232396155
1782987778277173000,5.964173095703125,-0.19764789369106292,-0.6011655659735202,0.6646843176167458
1782987778287247000,5.9742470703125,-0.2067640970826149,-0.6617986061125993,0.735079603965953
1782987778297322000,5.984322021484375,-0.17654548442959783,-0.7234019525885581,0.8039678467530756
1782987778307396000,5.99439599609375,-0.0971837784230709,-0.7857932345718145,0.9197499426621943
1782987778317471000,6.004470947265625,-0.047830841711163516,-0.810546567556262,1.0188365590319037
1782987778327545000,6.014545166015625,0.01486322261095047,-0.8021937497526407,1.0588644719071685
1782987778337620000,6.024619873046875,0.050125090128183364,-0.7812865708023309,1.1242124848041684
1782987778347694000,6.034694091796875,0.004184592208266258,-0.8349433421880006,1.2579150720030068
1782987778357769000,6.04476904296875,-0.0680874477982521,-1.1356459521621465,1.4392622576259075
1782987778367843000,6.054843017578125,-0.16565817971229552,-1.500300517565012,1.6448042655676602
1782987778377918200,6.064918212890625,-0.38244974981248375,-1.7960282617360352,1.6815461425095795
1782987778387992000,6.074991943359375,-0.821434456795454,-1.9368167886078356,1.4006483032017945
1782987778398067200,6.085067138671875,-1.4931664279013872,-1.7639409326016902,0.9455021504908799
1782987778408141000,6.09514111328125,-2.305447856426239,-1.3038655067950486,0.5615478413343429
1782987778418216200,6.10521630859375,-3.062089230793714,-0.7695470331698656,0.36936530037708576
1782987778428290000,6.1152900390625,-3.489392267811298,-0.21378011332452296,0.1690052251178771
1782987778438365200,6.125365234375,-3.3983401240110394,0.3672323069363832,-0.020541268247365952
1782987778448439000,6.13543896484375,-2.925683449050784,0.8163947090625763,-0.01737104071341455
1782987778458514200,6.14551416015625,-2.1352999640792607,0.9426111052244901,0.2947243392821401
1782987778468588000,6.155588134765625,-1.1773124260246752,0.7926146050244569,0.8475640465691685
1782987778478663200,6.1656630859375,-0.2814776850223541,0.6254851837158203,1.3201951486967503
1782987778488737000,6.175737060546875,0.4671183300554752,0.4870651395410299,1.5677965753413736
1782987778498812200,6.185812255859375,0.9941045610964298,0.3916752587974071,1.5500370467670261
1782987778508886000,6.195885986328125,1.2786381265580653,0.3227268102556467,1.3279771808750926
1782987778518961200,6.205961181640625,1.3858265816450117,0.29871582007110115,0.9492528813265263
1782987778529036000,6.2160361328125,1.4443606036782264,0.35000001710653306,0.5716081937082111
1782987778539110100,6.226110107421875,1.384662214040756,0.4371171595454216,0.31846462276652454
1782987778549185000,6.23618505859375,1.1907856555819512,0.43002924711108204,0.10743863045573233
1782987778559259100,6.246259033203125,1.021222869646549,0.5350462033778429,-0.03357669090926647
1782987778569333000,6.2563330078125,0.8277589836418628,0.6908937676936387,-0.16942732298746704
1782987778579408100,6.266408203125,0.5615262140244245,0.8834948993891477,-0.26105112919583917
1782987778589483000,6.27648291015625,0.32281974923610685,1.0643272673577069,-0.24037527478337287
1782987778599557000,6.28655712890625,0.14492109663188457,1.1664052475631237,-0.07193447861522435
1782987778609632000,6.296632080078125,-0.04263736472129821,1.2753583742350338,0.05440174453407526
1782987778619706000,6.3067060546875,-0.09971592724919319,1.4305799156069754,0.11301380023956298
1782987778629781000,6.316781005859375,-0.05423486353456974,1.5869862828493118,0.14079261852502822
1782987778639855000,6.326855224609375,0.01732055263519287,1.670892646548152,0.13876746937297285
1782987778649930200,6.33693017578125,0.02979600332677364,1.6469418621182441,0.10629618242233992
1782987778660004000,6.347004150390625,-0.015787936240434647,1.6041349860489367,0.057493573069572444
1782987778670079200,6.357079345703125,-0.033385552251338955,1.5434505079835652,-0.0044175972465425725
1782987778680153000,6.367153076171875,-0.00493044213950634,1.4716472545325756,-0.1469593975264579
1782987778690228200,6.377228271484375,0.13203706513941288,1.3862258100956677,-0.26036446210592984
1782987778700302000,6.387302001953125,0.27452070549130436,1.22351829688251,-0.35155192272365093
1782987778710377200,6.397377197265625,0.4167021480262279,1.068284480550885,-0.3608061463464051
1782987778720451000,6.407451171875,0.5698088892012835,0.9594020810276269,-0.3407314726974815
1782987778730526200,6.417526123046875,0.7985743902117014,0.8806909478843211,-0.32607064079083503
1782987778740600000,6.42760009765625,1.0480407339453697,0.7737380551189184,-0.22327976307570932
1782987778750675200,6.43767529296875,1.2894009281128644,0.6733633717000485,-0.02866334603503346
1782987778760749000,6.4477490234375,1.4893442392647265,0.5949661268115043,0.1580512118399143
1782987778770824200,6.45782421875,1.599044969433546,0.5581330644547939,0.3846929986946285
1782987778780898000,6.46789794921875,1.5802683727711437,0.47756548978984353,0.6159213826872408
1782987778790973200,6.47797314453125,1.4375228666126727,0.39374388176500796,0.8604957896608859
1782987778801047000,6.488047119140625,1.160184765613079,0.29893852291107176,1.0212458851959556
1782987778811122200,6.4981220703125,0.8556301563858986,0.19963293002843854,1.089199696677178
1782987778821196000,6.508196044921875,0.5852449432641268,0.10924129596352576,1.0983509713821114
1782987778831271200,6.518271240234375,0.4220020080000162,0.0257458511531353,1.046041084560752
1782987778841345000,6.528344970703125,0.28162030836343765,-0.07256371642947197,0.9720613638535142
1782987778851420200,6.538420166015625,0.14632336464524268,-0.22545886068046092,0.8878755986914039
1782987778861494000,6.548493896484375,-0.037628012126684186,-0.3979080157071352,0.8130368500020354
1782987778871569200,6.558569091796875,-0.26122575511038304,-0.5159288304537535,0.8257742395654321
1782987778881643000,6.56864306640625,-0.4998837045818567,-0.5562292766600847,0.8409151100739837
1782987778891718100,6.57871826171875,-0.7957482268750667,-0.5200386038601398,0.8531881700612605
1782987778901792000,6.5887919921875,-1.0180126754283905,-0.463179821562767,0.8667253317002207
1782987778911867100,6.5988671875,-1.2059703652322291,-0.4058130897432565,0.8070387786310166
1782987778921941000,6.60894091796875,-1.3849568130731582,-0.38783144285082816,0.6734954736471176
1782987778932016000,6.61901611328125,-1.5029530779004097,-0.45681671627163883,0.5833527728419751
1782987778942090000,6.629090087890625,-1.4520441439181566,-0.7307400403916835,0.6549447946950793
1782987778952165000,6.6391650390625,-1.1938134789705275,-1.1040846927285193,0.917767463608086
1782987778962239000,6.649239013671875,-0.9639607672452926,-1.413661514031887,1.0724066750474273
1782987778972314000,6.659314208984375,-0.8495967214405536,-1.608451680204272,0.9005808395508677
1782987778982388000,6.669387939453125,-0.9681628951102494,-1.577791169002652,0.4088768612280488
1782987778992463000,6.679463134765625,-1.2627829703003168,-1.4040449599027633,-0.07988441470637916
1782987779002536000,6.689535888671875,-1.660631364774704,-1.2918921604067086,-0.3140790280934423
1782987779012611000,6.699611083984375,-2.0332284136146304,-1.0022130487501621,-0.44855694704633203
1782987779022685000,6.709684814453125,-2.3289462209135294,-0.5641968945384025,-0.5421469387611374
1782987779032760000,6.719760009765625,-2.384794949385524,-0.08179740872085094,-0.5539109167151153
1782987779042834000,6.729833984375,-2.260781031703949,0.4024152639985084,-0.4753705370288342
1782987779052909000,6.739908935546875,-1.9470599502027033,0.7600847928196192,-0.29214783985763787
1782987779062983000,6.74998291015625,-1.4376935470044612,0.9064981738358735,-0.15457743478212504
1782987779073058000,6.76005810546875,-0.7676783166885376,0.9014712855845689,-0.12311758989635854
1782987779083132000,6.7701318359375,-0.0802963565081358,0.8875333611249924,-0.1936735832326114
1782987779093207000,6.78020703125,0.48376142182052134,0.7635077530056238,-0.24012827775236217
1782987779103281000,6.790281005859375,0.8390788345575332,0.554331918606162,-0.24492742166239767
1782987779113356000,6.80035595703125,0.977861866825819,0.3894277721315622,-0.31673871228937056
1782987779123430000,6.810429931640625,0.9066904815375805,0.35861703880429263,-0.5391673018958419
1782987779133505000,6.820505126953125,0.7576192794889212,0.4732581479847431,-0.793645336311683
1782987779143579000,6.830578857421875,0.5600444510340691,0.6641928077727556,-0.9903826910290866
1782987779153654000,6.840654052734375,0.4012544035255909,0.8921189353495835,-1.0474727247990667
1782987779163728000,6.850727783203125,0.31647125699222084,1.031499348989129,-0.8924136805124581
1782987779173803000,6.860802978515625,0.29034780469834803,1.0738532205939293,-0.5969945638991891
1782987779183876900,6.870876953125,0.2975590512514114,1.1481009445875883,-0.2283894342396408
1782987779193952000,6.880951904296875,0.4225380145728588,1.221442659652233,0.04911978554315865
1782987779204025900,6.89102587890625,0.6435983480334282,1.2487468461632727,0.23018519508261231
1782987779214101000,6.90110107421875,0.8633212954103946,1.1695558205485344,0.3495522002737969
1782987779224175000,6.911175048828125,1.1049380946874618,0.9950473949044942,0.39495829905606805
1782987779234250000,6.92125,1.310045656734705,0.7695645688265561,0.396125881530717
1782987779244324000,6.931323974609375,1.4391507600754498,0.5763152023553848,0.3696266547270119
1782987779254399000,6.94139892578125,1.5473960307389496,0.47014907605350015,0.3178929603584111
1782987779264473000,6.95147314453125,1.6407751561820505,0.4277104487746954,0.20964016397558152
1782987779274548000,6.9615478515625,1.6363170077294111,0.4447755653440952,0.11335896041542291
1782987779284622000,6.9716220703125,1.5438696101784706,0.36784663944244383,0.04565642028152942
1782987779294697000,6.981697021484375,1.349117437928915,0.22181845835149286,-0.05992971417531371
1782987779304771000,6.99177099609375,1.1542243959039449,0.10553075100779533,-0.1580315572913736
1782987779314846000,7.001845947265625,1.008578492128849,0.03009060235917568,-0.27239819691199807
1782987779324920000,7.011920166015625,0.8923965832471847,-0.05110767142474651,-0.3460234781583771
1782987779334995000,7.021994873046875,0.7366723530501127,-0.1412719264745712,-0.32812402965668586
1782987779345069000,7.032069091796875,0.595112257283926,-0.24329437710046767,-0.25742665508836504
1782987779355144000,7.04214404296875,0.5084294146090745,-0.3224070767819881,-0.17941512158177791
1782987779365218000,7.052218017578125,0.4737982462108135,-0.36214813553988934,-0.11696567967049777
1782987779375293000,7.06229296875,0.4952291567742824,-0.45489013212323187,-0.07723740732893347
1782987779385367000,7.072366943359375,0.5493436087995768,-0.5059335061401129,-0.041290260961279274
1782987779395442000,7.08244189453125,0.6026864919304847,-0.587152238190174,-0.06353972136601806
1782987779405516000,7.09251611328125,0.651047494995594,-0.6666828710228204,-0.06568659720160067
1782987779415591000,7.1025908203125,0.6395604708194732,-0.7133510986953974,-0.05189699517153203
1782987779425665000,7.1126650390625,0.5325508794307708,-0.8004320007771253,-0.04716857841014862
1782987779435740000,7.122739990234375,0.4027238915562629,-0.8748767086476087,-0.059803384381905196
1782987779445815000,7.13281494140625,0.22786767538785932,-0.8902648319154978,-0.01139393906518817
1782987779455889000,7.142888916015625,0.07418518015146255,-0.9019102615237236,0.04664966910257935
1782987779465964000,7.152964111328125,-0.09253332226872443,-0.926264366057515,0.17504070588983595
1782987779476038000,7.163037841796875,-0.2610907305538654,-0.9781588039457797,0.3185865686457604
1782987779486113000,7.173113037109375,-0.3842272808790207,-1.0065513702154159,0.515072652015835
1782987779496187000,7.183186767578125,-0.44854573153257365,-0.9857295314610004,0.6910206089437008
1782987779506262000,7.193261962890625,-0.519810640323162,-0.9115396751344204,0.7709696133188902
1782987779516336000,7.203336181640625,-0.5870604682534932,-0.8156377532154321,0.8363672375112772
1782987779526411000,7.213410888671875,-0.6572925268650055,-0.6720593033641576,0.8505142746768891
1782987779536485000,7.223485107421875,-0.6905979996174574,-0.6210135912597179,0.8843251396682112
1782987779546560000,7.23356005859375,-0.569766803625226,-0.816251501199603,1.1775858361385763
1782987779556634000,7.243634033203125,-0.307554375565052,-1.0219926849752663,1.4591390706151723
1782987779566709000,7.253708984375,-0.041401685446500774,-1.1109557475417853,1.4760171401798725
1782987779576783000,7.263783203125,0.06269114171266556,-1.1803700600296259,1.2100745126154273
1782987779586858000,7.27385791015625,-0.18483342030346392,-1.1828659684985876,0.7201772183883934
1782987779596932000,7.28393212890625,-0.7059785241007804,-1.1491022305846215,0.4313683136951178
1782987779607007000,7.294007080078125,-1.3259060736894608,-1.0533856021046637,0.3082434538077563
1782987779617081000,7.3040810546875,-1.852053515818715,-0.8115057679772376,0.08195837143622338
1782987779627156000,7.314156005859375,-2.22083071410954,-0.3813192844778299,-0.21531119534932075
1782987779637230000,7.32422998046875,-2.3520348355561493,0.18151333597004413,-0.37914632435292
1782987779647305000,7.334304931640625,-2.2853549164682625,0.6773959882169962,-0.3473911497823894
1782987779657379000,7.344379150390625,-1.9452128610312938,0.8867810814529656,-0.07571816187240182
1782987779667454000,7.354453857421875,-1.3136843054980039,0.8901829988509417,0.34421536929048596
1782987779677528000,7.364528076171875,-0.5104261413842439,0.9142150318235158,0.5862699023976922
1782987779687603000,7.37460302734375,0.2905056256085634,0.9208049316078424,0.758108962702006
1782987779697677000,7.384677001953125,0.959081178510189,0.9122896167188882,0.9319833282262087
1782987779707752000,7.394751953125,1.404209795075655,0.888716433429718,1.067467903470993
1782987779717826000,7.404825927734375,1.6481868937432764,0.900467661499977,1.1411997868970036
1782987779727901000,7.41490087890625,1.6803730070769787,0.9487480005443095,1.1377524229221045
1782987779737975000,7.42497509765625,1.5369044473409652,1.0435621272265911,1.0415158622212708
1782987779748050000,7.4350498046875,1.2396025857210158,1.188987666249275,0.8307168105341494
1782987779758124000,7.4451240234375,0.8382745324373245,1.3065285885244606,0.5831026705384255
1782987779768199000,7.455198974609375,0.3633294542789459,1.3539584482192992,0.2808789884768426
1782987779778273000,7.46527294921875,-0.07864917382299899,1.3222621642291545,-0.03171009331978857
1782987779788348200,7.47534814453125,-0.3781798174083233,1.2411749496042728,-0.32492183608189223
1782987779798422000,7.485422119140625,-0.5311100329726934,1.1333224776506423,-0.5292092408526688
1782987779808497200,7.4954970703125,-0.6024345629960298,1.0873246965855359,-0.6145261289365589
1782987779818571000,7.505571044921875,-0.5825695865750312,1.0707774664103984,-0.5584790283482521
1782987779828646100,7.515646240234375,-0.40466801136136055,1.060873327511549,-0.34002558945044875
1782987779838720000,7.525719970703125,-0.1363099201530218,1.08901396484673,-0.11212459631487727
1782987779848795100,7.535795166015625,0.2625222246617079,1.1085597923159598,0.07349003749415278
1782987779858869000,7.545868896484375,0.6441752711385488,1.0457108296930788,0.2058408447578549
1782987779868944100,7.555944091796875,0.9787684602767228,0.925930604058504,0.3029200668279081
1782987779879018000,7.56601806640625,1.23620066832304,0.8538350896626711,0.31212497141622003
1782987779889093000,7.576093017578125,1.385734811708331,0.7906856827884912,0.24717114546857774
1782987779899167000,7.5861669921875,1.3625830687016247,0.7348404614478349,0.13736534749008714
1782987779909242000,7.5962421875,1.225325638565421,0.7045587204307318,0.07326097797863185
1782987779919316000,7.60631591796875,1.112545062559843,0.6016179859161377,0.05872443003877997
1782987779929390000,7.61639013671875,1.1187953551262617,0.5931091007679701,0.060262599391490215
1782987779939464200,7.626464111328125,0.9821557646274566,0.4875736735850572,0.10907865274772047
1782987779949539000,7.6365390625,0.8946417318254709,0.4121393701553345,0.18862645591087637
1782987779959613200,7.64661328125,0.7680307833880186,0.3476134142309427,0.24507366173267364
1782987779969688000,7.65668798828125,0.6968634897530078,0.28726971242725846,0.32193134902901943
1782987779979762200,7.66676220703125,0.7466320215284824,0.2788999434888363,0.4545764630641788
1782987779989837000,7.676837158203125,0.7966308549284935,0.21874211964607237,0.6249904590014368
1782987779999911200,7.6869111328125,0.8131032663017511,0.0889186389029026,0.7908616969425231
1782987780009986000,7.696986083984375,0.7629144632875919,-0.0087228201597929,0.9043631345685571
1782987780020060200,7.70706005859375,0.6860486657500267,-0.09155074097216129,0.9751269619692117
1782987780030135000,7.717135009765625,0.5301262826323508,-0.16505203051269055,1.0051594044003636
1782987780040209200,7.727209228515625,0.3567676115453243,-0.24398703553974627,0.9677068949710577
1782987780050284000,7.737283935546875,0.21319968308806417,-0.32706746980845924,1.0176301789168267
1782987780060358100,7.747358154296875,0.07518471258282661,-0.46997138139903544,1.141048176531866
1782987780070433000,7.75743310546875,-0.15996142937541008,-0.6050269175767898,1.238507776221633
1782987780080507100,7.767507080078125,-0.4305979869097471,-0.7269546766340732,1.2726060067869722
1782987780090582000,7.77758203125,-0.7176157704025506,-0.7186936287671327,1.1564194947954267
1782987780100656000,7.78765625,-0.9757470666289328,-0.678474431103468,0.977782883305475
1782987780110731000,7.79773095703125,-1.1609312000662089,-0.6932511444747448,0.7656450572952628
1782987780120805000,7.80780517578125,-1.3144517827391624,-0.6933125192731618,0.5707967311948537
1782987780130880000,7.8178798828125,-1.4521902743905781,-0.6601566841244697,0.4220299919854849
1782987780140954000,7.8279541015625,-1.6030033516705036,-0.6049924307852983,0.31678974835686385
1782987780151029000,7.838029052734375,-1.6517665057957172,-0.6604448534160852,0.3487064701646566
1782987780161103000,7.84810302734375,-1.5607687225311995,-0.8266203350007534,0.5384093231353908
1782987780171178000,7.858177978515625,-1.4423404960274695,-0.9127110570013522,0.768976393675059
1782987780181253000,7.868253173828125,-1.3756032937943934,-0.9503525131314993,0.8953452039197086
1782987780191327000,7.878326904296875,-1.4579279412597417,-0.8251403255760669,0.7413476513847709
1782987780201401000,7.888401123046875,-1.6569781029641628,-0.624224954521656,0.4357093385741114
1782987780211476000,7.89847607421875,-1.872329995650053,-0.5237772058665752,0.1805612228769809
1782987780221550000,7.908550048828125,-2.0108762965530156,-0.47536885652840133,0.04701879467591643
1782987780231625000,7.918625,-2.089763955307007,-0.30152678583860393,-0.10169796791188418
1782987780241700000,7.9287001953125,-2.1783049930691716,-0.0004173486292362213,-0.32044213338457045
1782987780251774000,7.93877392578125,-2.245166698464751,0.4052741605609655,-0.5144624111630022
1782987780261849000,7.94884912109375,-2.194427275830507,0.7974591224461793,-0.6710309101644903
1782987780271923000,7.9589228515625,-1.9041630577623843,1.0882716220468283,-0.7154624648261815
1782987780281998000,7.968998046875,-1.3806670069247484,1.233636370792985,-0.6028996962897479
1782987780292072000,7.979072021484375,-0.7824772418916225,1.2166092481464146,-0.4389521198876202
1782987780302148000,7.989148193359375,0.43133974518775936,1.096215274527669,-0.40129086307846007
1782987780312222000,7.999221923828125,0.8892495173931121,1.054125606817007,-0.4917273591984063
1782987780322296000,8.009296142578124,1.1021090087413787,0.9205787216365336,-0.6072019965935498
1782987780332371000,8.019370849609375,1.1742185516625643,0.7968272542834282,-0.7654538455720991
1782987780342446000,8.029446044921874,1.1792998004496096,0.785327955147624,-0.9769554195053874
1782987780352520000,8.03952001953125,1.107322943997383,0.857872966876626,-1.2022132777210324
1782987780362595000,8.049594970703126,0.997582466340065,0.952585386750102,-1.3389981949746608
1782987780372669000,8.0596689453125,0.9345499638438224,1.0065338345587254,-1.3654969103217125
1782987780382744000,8.069744140625,0.9023352089375257,1.0449059430509806,-1.2337912690937518
1782987780392818000,8.07981787109375,0.8518453771501779,1.0934440562486647,-0.9706013743035494
1782987780402893000,8.08989306640625,0.8626426654964685,1.1216337934225797,-0.6136031688727438
1782987780412967000,8.099966796875,0.9129910429865121,1.1509896517664193,-0.2387033960483968
1782987780423042000,8.1100419921875,0.9825181681990622,1.1475953331530093,0.04074738625623286
1782987780433116200,8.1201162109375,1.170798514086008,1.1098188524663448,0.2962532293498516
1782987780443191000,8.13019091796875,1.39302906036973,0.9905471608757972,0.4405891465049237
1782987780453265200,8.14026513671875,1.6187217298060654,0.8585065886050463,0.5236623473152517
1782987780463340000,8.150340087890624,1.743394403657317,0.6685445732414722,0.5481844288270921
1782987780473414100,8.1604140625,1.7077251243829725,0.5375643236786127,0.5067193958207965
1782987780483489000,8.170489013671874,1.5466595331579447,0.4524029914826154,0.3827046013563871
1782987780493563100,8.180563232421875,1.3278028472214936,0.35856852348744866,0.1677392968352884
1782987780503638000,8.190637939453126,1.0788695874512195,0.27975042283833024,0.06598097703829407
1782987780513712000,8.200712158203125,0.8409346915572882,0.24267595294117927,0.048635582222789527
1782987780523787000,8.210787109375,0.622680647689104,0.20357202304303645,0.10159604190737008
1782987780533861000,8.220861083984374,0.4857698390334844,0.1606137558043003,0.20180684000141919
1782987780543936000,8.23093603515625,0.37822950176894665,0.06465338169634342,0.29532866185083984
1782987780554010000,8.241010009765626,0.23607962341606614,-0.02571487149298191,0.34279023185819385
1782987780564085000,8.2510849609375,0.08935761484205722,-0.10405015706121921,0.3255959359511733
1782987780574159000,8.2611591796875,-0.06425473776757716,-0.19081015662550926,0.273447596367076
1782987780584234000,8.27123388671875,-0.14598668003678322,-0.25474516091942784,0.144147701106593
1782987780594308000,8.28130810546875,-0.13013970708549022,-0.3469429676234722,0.0858092016454786
1782987780604383000,8.291383056640624,-0.01703998212814331,-0.44609366220533847,0.029455227065086364
1782987780614457000,8.30145703125,0.1255962184369564,-0.5796072296380996,0.005698065511137247
1782987780624532000,8.311531982421876,0.2273854448288679,-0.6876753901690245,-0.012010974984988569
1782987780634606000,8.321606201171875,0.23766660034656523,-0.7761866173148155,-0.06896949132978916
1782987780644681000,8.331680908203126,0.17099954074025153,-0.8276151912569999,-0.07755575256310403
1782987780654755000,8.341755126953124,0.0675643007069826,-0.8740075245976447,-0.10938201960846781
1782987780664830000,8.351829833984375,-0.07039046404361725,-0.9083663057953119,-0.09709456576965748
1782987780674904000,8.361904052734374,-0.1404319685190916,-0.9298118294060229,-0.0173605923846364
1782987780684979200,8.371979248046875,-0.14769348395466803,-0.9588801029801368,0.03610365210361779
1782987780695053000,8.382052978515626,-0.07886369335651397,-0.9805465758651495,0.1557342401344329
1782987780705128200,8.392128173828125,-0.012664251261949538,-0.996204163724184,0.24952786466255783
1782987780715202000,8.4022021484375,0.020920622953772543,-1.0211848757237196,0.24408428536914287
1782987780725277200,8.412277099609375,-0.011811433824896812,-1.005066684615612,0.1388791861191392
1782987780735351000,8.42235107421875,-0.09833645558953284,-0.9795090495109557,-0.10261669019199907
1782987780745426200,8.43242626953125,-0.2314595623999834,-0.8983739040911197,-0.356280924006924
1782987780755500000,8.4425,-0.4137830457091331,-0.8309487195938825,-0.5542505969982594
1782987780765575200,8.4525751953125,-0.5556704737335443,-0.9860726458102465,-0.4958722039181739
1782987780775649000,8.46264892578125,-0.5434124651849269,-1.3384043207347391,-0.1058174589946866
1782987780785724200,8.47272412109375,-0.5865022498488426,-1.5881734468072652,0.254201774757728
1782987780795798000,8.482798095703124,-0.7390455119222402,-1.608181631091237,0.17768237950503826
1782987780805873200,8.492873046875,-1.082775947239995,-1.350659991195798,-0.12500833554640411
1782987780815947000,8.502947021484376,-1.6652128473460672,-1.0870406189471482,-0.3365701882995665
1782987780826022100,8.513022216796875,-2.2262141607135533,-0.8765238913327456,-0.4078569435957819
1782987780836096000,8.523095947265626,-2.6956641485869883,-0.4915490069568157,-0.6163489604495466
1782987780846171100,8.533171142578125,-2.8059868100464342,0.02639408592879772,-0.8859176695566624
1782987780856245000,8.543244873046875,-2.5206027652353047,0.4932172324299812,-0.9308712753310799
1782987780866320100,8.553320068359374,-1.8466379205107688,0.7864969989269971,-0.7727049857441336
1782987780876394000,8.56339404296875,-0.9250012142539024,0.8559931444793939,-0.5050491975862532
1782987780886469000,8.57346923828125,0.03377659739553928,0.7948410489022731,-0.1757579142484814
1782987780896543000,8.58354296875,0.9381061950206756,0.7388847684025764,0.09687252051681279
1782987780906618000,8.5936181640625,1.7077701325684784,0.6673036332696676,0.2772732190698385
1782987780916692000,8.60369189453125,2.234424355176091,0.662942515450716,0.3958383698262274
1782987780926767000,8.61376708984375,2.4858938554257155,0.6885942585796118,0.4692755080893635
1782987780936841000,8.623841064453124,2.46300164013803,0.7016583228141069,0.44357408059984443
1782987780946916000,8.633916015625,2.180907869043946,0.7241290978193282,0.27750848913043735
1782987780956990000,8.643989990234376,1.6885843705832957,0.8270932132095098,-0.0825748228341341
1782987780967065000,8.654065185546875,1.0917214702397584,0.9100181646555662,-0.43990817850343883
1782987780977139000,8.664138916015625,0.4357832805931568,0.9596078327327966,-0.7602386682070791
1782987780987214000,8.674214111328125,-0.2386000818043947,0.9455921668618917,-0.9810277104455977
1782987780997288000,8.684287841796875,-0.853316618746519,0.8824491897284984,-1.083228951704502
1782987781007362800,8.69436279296875,-1.3102157526046037,0.7923100691199302,-1.0919262720968574
1782987781017437000,8.70443701171875,-1.4546850138157605,0.7676333085030317,-1.0539683704286813
1782987781027512000,8.714511962890626,-1.3114952710211276,0.7926578596442937,-0.9539426465779542
1782987781037586000,8.7245859375,-0.9148755415588616,0.8323959957927465,-0.784455994618684
1782987781047661000,8.7346611328125,-0.41607612508237357,0.855987299260497,-0.540344967373088
1782987781057735000,8.74473486328125,0.08416764498353003,0.8229086210012435,-0.30987974977269767
1782987781067810000,8.75481005859375,0.6058697981417179,0.7412479904025793,-0.17041151171922683
1782987781077884000,8.7648837890625,1.0654302601635455,0.646069706583023,-0.13859138215370476
1782987781087959000,8.774958984375,1.4358487959206103,0.5456663815915584,-0.17997085576839744
1782987781098033000,8.785032958984376,1.708412522125244,0.4708084167450666,-0.23219854419901967
1782987781108108000,8.79510791015625,1.8279747210949657,0.41383039198219773,-0.2379613455094397
1782987781118182000,8.805181884765625,1.7638982625037432,0.3938976110219955,-0.24122685011141
1782987781128257000,8.815257080078124,1.599994232982397,0.39885377212464806,-0.24354089920744298
1782987781138331000,8.825330810546875,1.4103168797791004,0.3831272106826305,-0.2655891379516572
1782987781148406000,8.835406005859374,1.2130208682656287,0.34555005196034905,-0.23851459547802806
1782987781158480000,8.84547998046875,0.9774112004488706,0.2870464250653982,-0.2217841176904738
1782987781168555000,8.855554931640626,0.7726368158787489,0.20403554890155792,-0.2495931119184941
1782987781178628900,8.86562890625,0.6559890430510044,0.1456599323004484,-0.24903803531900046
1782987781188704000,8.8757041015625,0.5501163467377423,0.07822714901864528,-0.2873752916935831
1782987781198777900,8.88577783203125,0.4939829561054706,-0.008075754427909851,-0.2651411019232124
1782987781208853000,8.89585302734375,0.44932840634286403,-0.1317833826392889,-0.20333901800476015
1782987781218926800,8.9059267578125,0.3608002280622721,-0.1818061814367771,-0.09366671021282673
1782987781229002000,8.916001953125,0.2136041722357273,-0.15845394742190838,-0.10757255903370677
1782987781239075800,8.926075927734376,0.061114686176180835,-0.20411329031288622,-0.12112184950187802
1782987781249151000,8.93615087890625,-0.06126257021427154,-0.3100608054280281,-0.03330181949064135
1782987781259225900,8.946225830078125,-0.19682839400172233,-0.46336043882668015,0.08645239491984248
1782987781269300000,8.956300048828124,-0.30995851409733294,-0.6454109504133463,0.2601054458435625
1782987781279375000,8.966375,-0.3806839091837406,-0.7774269727647304,0.42177828224673863
1782987781289449000,8.976448974609376,-0.4485270268321037,-0.8905617690354585,0.479196963449195
1782987781299524000,8.986524169921875,-0.5107195713728666,-0.9726765731424093,0.38020423590801655
1782987781309598000,8.996597900390626,-0.5549684629440307,-1.0624439378291368,0.15859342895783482
1782987781319673000,9.006673095703125,-0.6955144132316112,-1.1509820529818535,-0.09921944896914064
1782987781329747000,9.016746826171875,-1.0015209748327731,-1.2393839745342732,-0.34964221664480866
1782987781339822000,9.026822021484374,-1.4586036485642193,-1.449387491929531,-0.4009732484966516
1782987781349896000,9.03689599609375,-1.7284826657295227,-1.597533980348706,-0.2603494106672704
1782987781359971000,9.04697119140625,-1.8294921399205921,-1.6364508632421493,-0.10121712559238076
1782987781370045000,9.057044921875,-1.8247452376544475,-1.4541753107279538,-0.061392114878073334
1782987781380120000,9.0671201171875,-1.8306220207333563,-1.0523866541951894,-0.07162197859995066
1782987781390194000,9.07719384765625,-1.859633011162281,-0.6323977395832538,-0.20444982879087328
1782987781400269000,9.08726904296875,-1.8526415448397398,-0.31722119857668873,-0.49196321378089486
1782987781410343000,9.097343017578124,-1.849835839769244,-0.06131050100922584,-0.8100628756925463
1782987781420418000,9.10741796875,-1.919152537101507,0.25025895541608334,-1.1209509987901896
1782987781430492000,9.117491943359376,-2.0399469082146884,0.6189958216965198,-1.3233381228975951
1782987781440567000,9.127567138671875,-2.1026590927153825,1.0103852492898702,-1.328835405139625
1782987781450641000,9.137640869140625,-2.1287650093525645,1.3123527646332978,-1.084118594020605
1782987781460716000,9.147716064453125,-1.8493489330351351,1.4708289238870143,-0.6969402813162654
1782987781470790000,9.157789794921875,-1.2172568984001875,1.4691320568412543,-0.3012725188165903
1782987781480865000,9.167864990234374,-0.4243880263537168,1.389593240702152,-0.007516147783771156
1782987781490939000,9.17793896484375,0.3869628433227539,1.1879717672049999,0.24401998796127736
1782987781501014000,9.188013916015626,1.1104571503698826,0.8878226994603872,0.44465909935757514
1782987781511087900,9.198087890625,1.5974451330214738,0.6024035833358764,0.44354602354913947
1782987781521163000,9.2081630859375,1.7411457479476928,0.4019879784971475,0.17142485348023473
1782987781531236900,9.21823681640625,1.6052736346900462,0.3529302253395319,-0.28263774177767337
1782987781541312000,9.22831201171875,1.2267314137101173,0.37530806136429307,-0.7838798752311616
1782987781551385900,9.2383857421875,0.7892547732025385,0.426243298831582,-1.175446778283268
1782987781561461000,9.2484609375,0.35809506075680253,0.5942407351464033,-1.376720168995112
1782987781571534800,9.258534912109376,-0.08288578847944736,0.8553969321519136,-1.2929510218098759
1782987781581610000,9.26860986328125,-0.3372925112247467,1.0097370145142077,-0.9194147924236953
1782987781591683800,9.278683837890625,-0.3059107000112533,1.0426152017652988,-0.3605447189312428
1782987781601759000,9.288759033203124,-0.09053250384032725,0.9842056828945874,0.19097769521214067
1782987781611832800,9.298832763671875,0.20061258871555326,0.943868411809206,0.6214130389060825
1782987781621908000,9.308907958984374,0.5258417371809482,0.8388415186703204,0.993047599389404
1782987781631981800,9.31898193359375,0.8731330798506737,0.7418032861977815,1.2526882772654295
1782987781642057000,9.329056884765626,1.1540291655927897,0.6587818886399269,1.3265548929870128
1782987781652130800,9.339130859375,1.3683973079383371,0.6218681622624397,1.2476073207393288
1782987781662206000,9.3492060546875,1.4693442382872104,0.5486462741851806,1.1346508767101913
1782987781672280000,9.359280029296874,1.4889602083832025,0.4460837253332138,0.9825883108258247
1782987781682355000,9.36935498046875,1.3902566730469463,0.2830114704608917,0.8421577305462211
1782987781692429000,9.379428955078126,1.2171651284635066,0.08260346440672874,0.734326520576328
1782987781702504000,9.38950390625,1.0008943673670292,-0.09554244095683097,0.596382423350215
1782987781712578000,9.399578125,0.8061737592995166,-0.2160135714650154,0.4126999266475439
1782987781722653000,9.40965283203125,0.6374158600062132,-0.25438334186971184,0.2836591207146644
1782987781732727000,9.41972705078125,0.5147849211156368,-0.2849023987740278,0.2715391323972493
1782987781742802000,9.429802001953124,0.4070172048360109,-0.2953887214750051,0.294811652239412
1782987781752876000,9.4398759765625,0.21630641693174837,-0.3201584210723638,0.3496691777169704
1782987781762951000,9.449950927734376,0.03239069599509239,-0.3419949898272753,0.4312959791112691
1782987781773025000,9.46002490234375,-0.03977437650561332,-0.36830256651639937,0.473232136760652
1782987781783100000,9.470099853515626,-0.0035690906584262844,-0.40529052717387676,0.4628119380984455
1782987781793174000,9.480174072265624,0.11725976724624633,-0.4447182821989059,0.5158289502758533
1782987781803249000,9.490248779296875,0.27226445099711416,-0.5050011937260628,0.6234134920082987
1782987781813323000,9.500322998046874,0.3680652506291866,-0.5235971731245518,0.7848320613894612
1782987781823398000,9.51039794921875,0.40649698035418985,-0.5400169775277376,0.9657252196345478
1782987781833472000,9.520471923828126,0.4024731316655874,-0.5812322004914283,1.1172338779632
1782987781843547000,9.530546875,0.35040392173230644,-0.631250323113799,1.2390458286210895
1782987781853621000,9.54062109375,0.30650983494818207,-0.7267384035348892,1.3293785721056162
1782987781863696000,9.55069580078125,0.3043529491752386,-0.7923860569655895,1.3544038538992405
1782987781873770000,9.56077001953125,0.27988544739484783,-0.8276046698629855,1.3511116804860532
1782987781883844900,9.570844970703124,0.23499124365746973,-0.8658990369439125,1.3624560813210904
1782987781893919000,9.5809189453125,0.1573807652324438,-0.8702426191061735,1.370199388924241
1782987781903993900,9.590993896484376,0.10435177035629749,-0.8136468716591596,1.401834444246441
1782987781914068000,9.60106787109375,0.024733459240198135,-0.6727648212850094,1.4215445223666727
1782987781924143000,9.61114306640625,-0.12260872705876827,-0.49463528253436084,1.5135587891973554
1782987781934217000,9.621217041015624,-0.2844850501447916,-0.3550613921493292,1.6590873502030967
1782987781944292000,9.6312919921875,-0.35127719743549823,-0.4690145190656185,2.0289863921307028
1782987781954366000,9.641365966796876,-0.23661562998890875,-0.6963268986582756,2.5247356272563337
1782987781964441000,9.651441162109375,-0.03481003209650516,-0.8033937731921672,2.6365707391053435
1782987781974515000,9.661514892578126,-0.028022563913464544,-0.66319619795084,2.3265748156070707
1782987781984590000,9.671590087890625,-0.4122989446312189,-0.2559323248773813,1.800450023701042
1782987781994664000,9.681663818359375,-1.1897463756620883,0.26202362748980523,1.285248484608531
1782987782004738800,9.69173876953125,-2.0892530831754206,0.6654343322664499,0.7535420201126486
1782987782014813000,9.70181298828125,-2.8606735090017317,1.1632014830857516,0.2134354646053165
1782987782024887800,9.7118876953125,-3.2784850795745846,1.7469985656291245,-0.025916823805868624
1782987782034962000,9.7219619140625,-2.984187075945735,2.1144179195702075,0.13236702774614095
1782987782045036800,9.732036865234376,-2.098853270691633,2.1203391263127327,0.6062909461632371
1782987782055111000,9.74211083984375,-1.132090305507183,1.8487457064449786,1.2371969858840106
1782987782065185800,9.752185791015625,-0.20729659652411936,1.488821092173457,1.770267213013768
1782987782075260000,9.762260009765624,0.5602116242945194,1.2147048758298158,2.064178701543063
1782987782085334800,9.772334716796875,1.0473223565429448,1.111485908895731,1.9018324228577315
1782987782095409000,9.782408935546876,1.2315794382631777,1.1659732858866452,1.5060105657748877
1782987782105483800,9.79248388671875,1.1100742885321377,1.2066975104629993,1.117776241211593
1782987782115558000,9.802557861328125,0.818002728781104,1.1694570363491772,0.7840836541749536
1782987782125632800,9.8126328125,0.37588381542563437,1.2279846286416054,0.5644089298538864
1782987782135707000,9.822706787109375,-0.1778980680823326,1.4557675483554602,0.41346652710586784
1782987782145781800,9.83278173828125,-0.65161448122859,1.6988836462795733,0.3726929834950715
1782987782155856000,9.84285595703125,-0.9716454765290021,1.8539777618795632,0.4551213835958391
1782987782165930800,9.8529306640625,-1.0754349368274212,1.9292156659543513,0.6593030629698187
1782987782176004900,9.8630048828125,-0.9618255087822675,1.9283008891969917,0.8870886860974132
1782987782186079700,9.873079833984375,-0.6950438731104135,1.9545944373607633,1.0439728999845683
1782987782196153900,9.88315380859375,-0.3675222297936678,1.99430685454607,1.1843309995498508
1782987782206228700,9.893228759765625,-0.030524317601323125,1.988240101853013,1.337214818689227
1782987782216302800,9.903302734375,0.3454384082794189,1.9688819059103726,1.504365867307782
1782987782226377700,9.913377685546875,0.7218102994829416,1.8804227012127637,1.649597637324035
1782987782236451800,9.923451904296876,1.0462275470435618,1.7122276964992285,1.7597212690800428
1782987782246526700,9.933526611328125,1.270579907786846,1.5055986239731312,1.8640997813127933
1782987782256600800,9.943600830078125,1.361299458631873,1.2682529261440039,1.9347654090359805
1782987782266676000,9.953676025390624,1.2420084778189657,1.0745739360839128,2.034525029296428
1782987782276749800,9.963749755859375,1.0420008692592382,0.889037335947156,2.065781606695056
1782987782286825000,9.973824951171874,0.7635375636219978,0.742559657523036,2.0395311670206486
1782987782296898800,9.98389892578125,0.44492052677273747,0.6709960580468177,2.0426395082995294
1782987782306974000,9.993973876953126,0.092657240909338,0.658147682389617,2.0987205842226744
1782987782317047800,10.0040478515625,-0.24391397030353545,0.6047071841031313,2.118335677535832
1782987782327123000,10.014123046875,-0.5229162051230669,0.5453028089761733,2.1282935924485327
1782987782337197800,10.02419775390625,-0.7121832239598035,0.5277753355920315,2.134491862566769
1782987782347272000,10.03427197265625,-0.8573919053614139,0.5299298832774162,2.0625613294743
1782987782357346800,10.044346923828124,-0.9259037160515785,0.5859995610237121,1.997199068856239
1782987782367421000,10.0544208984375,-1.0004033689796925,0.6616232495456934,1.8864768866851924
1782987782377494800,10.064494873046876,-1.0128571923613547,0.6942705506503581,1.7923355446979403
1782987782387570000,10.07456982421875,-1.009572763863206,0.7498463073998689,1.7009800340369343
1782987782397644800,10.084644775390625,-1.081308212774992,0.8151496774375439,1.6077015924893319
1782987782407719000,10.094718994140624,-1.2172387782216072,0.8526274674385785,1.58311514050439
1782987782417793800,10.104793701171875,-1.418745100906491,0.8696580972164869,1.5579263387121258
1782987782427868000,10.114867919921876,-1.575605641657114,0.9205068254441022,1.4999565264329313
1782987782437942800,10.12494287109375,-1.7128928824096916,0.9848433962762355,1.450601836155355
1782987782448017000,10.135016845703126,-1.6630460247009993,0.9580243629336357,1.3923624131545425
1782987782458091800,10.145091796875,-1.3748884235233068,0.7474018368571996,1.2795149093925953
1782987782468166000,10.155165771484375,-0.8177788568973541,0.44503801567256446,1.2010296939596532
1782987782478240800,10.16524072265625,-0.23326164338588712,0.070706105864048,1.1364438245415687
1782987782488315000,10.17531494140625,0.22277707425057885,-0.24196283623576162,0.9234485049191862
1782987782498389800,10.1853896484375,0.416480029708147,-0.19424889890253544,0.5384429696766659
1782987782508463900,10.1954638671875,0.0728933867752552,0.05287351205348968,0.24375797602422533
1782987782518539000,10.2055390625,-0.7973205907583236,0.4013227925866842,0.16381331903059035
1782987782528612900,10.21561279296875,-1.8890023135095833,0.8491530693262815,0.17516316322572528
1782987782538688000,10.22568798828125,-2.888079402321577,1.3337819216310978,0.24285872562956062
1782987782548761900,10.235761962890624,-3.4286090055465697,1.7521318368643521,0.32883352963291107
1782987782558837000,10.2458369140625,-3.382768460869789,1.9403864637881516,0.4185758329436183
1782987782568910800,10.255910888671876,-2.930310524329543,1.8781471574962139,0.6217591489300132
1782987782578986000,10.265986083984375,-2.312750872915983,1.6101543924689292,0.8252046960491687
1782987782589059800,10.276059814453125,-1.7265747862815857,1.369796653342247,1.0296405693799258
1782987782599135000,10.286135009765625,-1.380324477097392,1.300578740209341,1.1391444618023931
1782987782609208800,10.296208740234375,-1.3523212024062872,1.3879793757647274,1.0508156785514204
1782987782619284000,10.306283935546874,-1.5109955145806073,1.5648270580112933,0.9054265990816056
1782987782629357800,10.31635791015625,-1.71233641757071,1.728955543938279,0.7733723636116832
1782987782639433000,10.326432861328126,-1.7999708618819712,1.9000579605311154,0.6979601989485323
1782987782649506800,10.3365068359375,-1.6248288145095109,2.0386311494410037,0.6324598450340331
1782987782659582000,10.34658203125,-1.326269061782956,2.0915163519322872,0.5822282988566905
1782987782669655800,10.35665576171875,-1.1169494349986313,2.0475439392149446,0.7139842820324003
1782987782679731000,10.36673095703125,-0.9483774136662483,1.90174664427042,1.007886052885279
1782987782689804800,10.3768046875,-0.6637877341032028,1.8242554083108902,1.2698574387311934
1782987782699880000,10.3868798828125,-0.20002046804130078,1.7308213378101587,1.4361457330405711
1782987782709953800,10.396953857421876,0.30604514004588124,1.5744453657060862,1.5764961607560515
1782987782720029000,10.40702880859375,0.7086059499949217,1.385740656927228,1.7615743496008216
1782987782730102800,10.417102783203125,0.9530015663355589,1.2574532997101544,1.8332555841073392
1782987782740178000,10.427177978515624,1.0466308671474456,1.2631085489928722,1.7369785452656448
1782987782750251800,10.437251708984375,0.9393272612482308,1.2806909674346447,1.5684339964620768
1782987782760327000,10.447326904296874,0.7231482700884342,1.2608961336404085,1.4346490647420287
1782987782770400800,10.45740087890625,0.309257087829709,1.2247031227529048,1.2829586201056837
1782987782780476000,10.467475830078126,-0.12090016957521438,1.2115969729423521,1.1038216578781603
1782987782790549800,10.4775498046875,-0.4058972608953714,1.2632172700643538,0.9093827162962407
1782987782800625000,10.487625,-0.6275684197306632,1.310519119465351,0.8509955553878098
1782987782810698800,10.49769873046875,-0.8354986379832029,1.3888707716464996,0.9916944312147795
1782987782820774000,10.50777392578125,-0.9844798236608505,1.4975526801615953,1.1709807387851179
1782987782830847700,10.51784765625,-1.0433452696055174,1.6971552150517701,1.2726238347046077
1782987782840923000,10.5279228515625,-0.9796814834684133,1.8565806378543377,1.343168904788047
1782987782850996700,10.537996826171875,-0.9122411014020443,1.848110915672779,1.375587511703372
1782987782861072000,10.54807177734375,-0.8017606190323829,1.796174392208457,1.3692805205136536
1782987782871145700,10.558145751953125,-0.6603554215669631,1.6794348494440317,1.2227615602310746
1782987782881220900,10.568220947265624,-0.5203121601045131,1.6077835716843605,1.0750521480549127
1782987782891294700,10.578294677734375,-0.46491117540001864,1.4381447979032993,1.0431173060685395
1782987782901369900,10.588369873046876,-0.42233518547713755,1.3126403494030237,0.9990651061132549
1782987782911444000,10.59844384765625,-0.40750761870145796,1.3053542840480803,1.0130050033342093
1782987782921518800,10.608518798828126,-0.3509790912717581,1.3320850545853375,1.0985660023722796
1782987782931593000,10.618593017578124,-0.2537684248417616,1.3640899661332369,1.258280690445006
1782987782941667800,10.628667724609375,-0.2226660150915384,1.3509160117834806,1.391955001397431
1782987782951742000,10.638741943359374,-0.23750351873934267,1.299957977962494,1.4100968072876334
1782987782961816800,10.64881689453125,-0.18692367058098316,1.2832798148840665,1.3977911602050066
1782987782971891000,10.658890869140626,-0.11145429583787918,1.272465575402975,1.347272979106009
1782987782981965800,10.6689658203125,0.013145897299051284,1.2018044777244328,1.3200880350604653
1782987782992040000,10.6790400390625,0.06575286737084389,1.1721183645129203,1.2649208591118455
1782987783002114800,10.68911474609375,-0.08818564845323562,1.216541443607211,1.1923971093665808
1782987783012189400,10.699189453125,-0.3239472919613123,1.0913245798766613,1.187257554521039
1782987783022264600,10.7092646484375,-0.4828998365551233,1.1167892760008573,1.1470980511553586
1782987783032338400,10.71933837890625,-0.6203986742317676,1.2650006463497876,1.1060325388606638
1782987783042413600,10.72941357421875,-0.6475368565261364,1.2683873661786318,0.9023138738885521
1782987783052487400,10.7394873046875,-0.619420769110322,1.058933883881569,0.6794714062515645
1782987783062562600,10.7495625,-0.7051444113641977,0.7818243309408426,0.5932867223571986
1782987783072636400,10.759636474609374,-0.7697393408715725,0.7928723791778087,0.793912535880506
1782987783082711600,10.769711669921875,-0.8878115935444831,1.063269867259264,1.3044842232152818
