time,seconds_elapsed,z,y,x
1782987772393662200,0.080662109375,0.4801711440086365,0.7488038539886475,0.1976470947265625
1782987772403736300,0.090736328125,0.4648309051990509,0.46825870871543884,0.09759322553873062
1782987772413811200,0.100811279296875,0.4614851772785187,0.1613009124994278,0.0031087957322597504
1782987772423885300,0.11088525390625,0.46199631690979004,-0.08071853220462799,-0.07060036063194275
1782987772433960200,0.120960205078125,0.4480277895927429,-0.18329071998596191,-0.1333841234445572
1782987772444034300,0.131034423828125,0.44355279207229614,-0.1778685748577118,-0.17617937922477722
1782987772454109200,0.141109130859375,0.45677483081817627,-0.105078786611557,-0.18433557450771332
1782987772464183300,0.151183349609375,0.4807908833026886,0.007894264534115791,-0.13772264122962952
1782987772474258200,0.161258056640625,0.4897899627685547,0.13576914370059967,-0.04342171922326088
1782987772484332300,0.171332275390625,0.48753631114959717,0.2740074098110199,0.047338519245386124
1782987772494407200,0.1814072265625,0.482131689786911,0.3887427747249603,0.10543458163738251
1782987772504481300,0.191481201171875,0.4896377921104431,0.45200055837631226,0.12078557163476944
1782987772514556200,0.20155615234375,0.5132659077644348,0.4458785057067871,0.10566946864128113
1782987772524630300,0.21163037109375,0.5372331738471985,0.38951170444488525,0.07301757484674454
1782987772534705200,0.221705078125,0.5453709959983826,0.3101987838745117,0.018043803051114082
1782987772544780300,0.2317802734375,0.5490240454673767,0.21555650234222412,-0.05143868178129196
1782987772554854100,0.241854248046875,0.5514991879463196,0.12787218391895294,-0.11298885941505432
1782987772564929300,0.25192919921875,0.5548185110092163,0.06668740510940552,-0.1597156524658203
1782987772575003100,0.262003173828125,0.5479627251625061,0.03850024566054344,-0.19441185891628265
1782987772585078300,0.272078369140625,0.5288817286491394,0.009857873432338238,-0.19168680906295776
1782987772595152100,0.282152099609375,0.4964712858200073,-0.0361516959965229,-0.16249005496501923
1782987772605227300,0.292227294921875,0.4515521824359894,-0.10233961045742035,-0.09840945899486542
1782987772615301000,0.302301025390625,0.3956926465034485,-0.1570475995540619,-0.025822872295975685
1782987772625376300,0.312376220703125,0.3253086805343628,-0.20039616525173187,0.036807283759117126
1782987772635450400,0.322450439453125,0.24153204262256622,-0.2246170938014984,0.08454125374555588
1782987772645525200,0.332525146484375,0.15554344654083252,-0.21803703904151917,0.1195981502532959
1782987772655599400,0.342599365234375,0.07816477864980698,-0.2178703397512436,0.13832630217075348
1782987772665674200,0.35267431640625,0.008056968450546265,-0.22264941036701202,0.11406354606151581
1782987772675748400,0.362748291015625,-0.04818526282906532,-0.2765933573246002,0.045064765959978104
1782987772685823200,0.3728232421875,-0.10270114988088608,-0.3355100154876709,-0.05319181829690933
1782987772695897300,0.3828974609375,-0.1410440057516098,-0.3981528878211975,-0.14950662851333618
1782987772705972200,0.39297216796875,-0.1651107370853424,-0.4354240894317627,-0.21211133897304535
1782987772716046300,0.40304638671875,-0.17875997722148895,-0.39949989318847656,-0.2378619760274887
1782987772726121200,0.413121337890625,-0.17816083133220673,-0.20692159235477448,-0.22477060556411743
1782987772736195300,0.4231953125,-0.18713782727718353,-0.030238159000873566,-0.18522079288959503
1782987772746270200,0.433270263671875,-0.2131485641002655,-0.060379572212696075,-0.16707168519496918
1782987772756344300,0.44334423828125,-0.2561681866645813,-0.2672787010669708,-0.17993849515914917
1782987772766419200,0.453419189453125,-0.32951822876930237,-0.469910591840744,-0.20915129780769348
1782987772776493300,0.463493408203125,-0.3910471200942993,-0.5718824863433838,-0.23683911561965942
1782987772786568200,0.473568115234375,-0.41710764169692993,-0.5497342348098755,-0.22743502259254456
1782987772796642300,0.483642333984375,-0.4145883023738861,-0.41500914096832275,-0.18524335324764252
1782987772806717200,0.49371728515625,-0.4070855677127838,-0.238499715924263,-0.10486327856779099
1782987772816791300,0.503791259765625,-0.4079473614692688,-0.05963144078850746,-0.003111615078523755
1782987772826866200,0.5138662109375,-0.40666407346725464,0.1022401824593544,0.10887295007705688
1782987772836940300,0.523940185546875,-0.389494925737381,0.20878872275352478,0.21705162525177002
1782987772847015200,0.53401513671875,-0.3641621470451355,0.17821425199508667,0.31218135356903076
1782987772857089300,0.54408935546875,-0.3383036255836487,0.041881971061229706,0.3974110186100006
1782987772867164200,0.5541640625,-0.30826079845428467,-0.09643842279911041,0.4774562120437622
1782987772877238300,0.56423828125,-0.2561810612678528,-0.1738131046295166,0.566455066204071
1782987772887313400,0.5743134765625,-0.2041853368282318,-0.1971825212240219,0.643980860710144
1782987772897387300,0.58438720703125,-0.1579131931066513,-0.20856674015522003,0.692638635635376
1782987772907462400,0.59446240234375,-0.1141531839966774,-0.23312029242515564,0.719080924987793
1782987772917536300,0.604536376953125,-0.078907310962677,-0.2336404025554657,0.7354545593261719
1782987772927611400,0.614611328125,-0.05468817427754402,-0.19201740622520447,0.7446053624153137
1782987772937685200,0.624685302734375,-0.05890795215964317,-0.14049749076366425,0.7324256896972656
1782987772947760400,0.634760498046875,-0.09507367759943008,-0.09321240335702896,0.7014314532279968
1782987772957834200,0.644834228515625,-0.1432209610939026,-0.026325508952140808,0.6495916843414307
1782987772967909400,0.654909423828125,-0.1922781616449356,0.04794909805059433,0.573250949382782
1782987772977984300,0.664984375,-0.23536011576652527,0.11148892343044281,0.4720873236656189
1782987772988058400,0.675058349609375,-0.2637476623058319,0.13204188644886017,0.35456544160842896
1782987772998130700,0.685130615234375,-0.28296953439712524,0.13974907994270325,0.23303157091140747
1782987773008204800,0.695204833984375,-0.28808173537254333,0.15150007605552673,0.12553556263446808
1782987773018279700,0.70527978515625,-0.2772224545478821,0.18274348974227905,0.03894447162747383
1782987773028353800,0.715353759765625,-0.2512185275554657,0.20885518193244934,-0.01845765858888626
1782987773038428700,0.7254287109375,-0.20763272047042847,0.22187510132789612,-0.04960945248603821
1782987773048502800,0.735502685546875,-0.15185199677944183,0.2088632881641388,-0.055873747915029526
1782987773058577700,0.74557763671875,-0.0865374431014061,0.15728451311588287,-0.04975513741374016
1782987773068651800,0.75565185546875,-0.024231020361185074,0.06723448634147644,-0.03767913952469826
1782987773078726700,0.7657265625,0.032935597002506256,-0.05238964408636093,-0.03936119005084038
1782987773088800800,0.77580078125,0.08168405294418335,-0.20534951984882355,-0.04291728511452675
1782987773098875600,0.785875732421875,0.11371948570013046,-0.3695200979709625,-0.04916585981845856
1782987773108949800,0.79594970703125,0.12820520997047424,-0.47305548191070557,-0.04419444501399994
1782987773119024600,0.806024658203125,0.1249055564403534,-0.4410048723220825,-0.02934892289340496
1782987773129098800,0.8160986328125,0.11500819027423859,-0.31074950098991394,0.003729583928361535
1782987773139173600,0.826173583984375,0.10468257963657379,-0.12789714336395264,0.04193981736898422
1782987773149247700,0.836247802734375,0.09789559990167618,0.05208364874124527,0.07707332819700241
1782987773159322600,0.846322509765625,0.0977986603975296,0.18513411283493042,0.11095912009477615
1782987773169396700,0.856396728515625,0.09899841248989105,0.27257993817329407,0.14282536506652832
1782987773179471600,0.8664716796875,0.0917932316660881,0.3046492040157318,0.16578181087970734
1782987773189545700,0.876545654296875,0.08217256516218185,0.27880772948265076,0.17776967585086823
1782987773199620600,0.88662060546875,0.0761847123503685,0.23743340373039246,0.17118100821971893
1782987773209694700,0.89669482421875,0.07449272274971008,0.20129679143428802,0.1531323790550232
1782987773219769600,0.90676953125,0.07931970059871674,0.17569422721862793,0.12728959321975708
1782987773229843700,0.91684375,0.07674796879291534,0.14525967836380005,0.11060262471437454
1782987773239918600,0.926918701171875,0.08235285431146622,0.11002472043037415,0.10381555557250977
1782987773249992700,0.93699267578125,0.0848759338259697,0.14796091616153717,0.10540413111448288
1782987773260067600,0.947067626953125,0.0892360582947731,0.22804990410804749,0.1155097633600235
1782987773270141700,0.9571416015625,0.09212470799684525,0.309604674577713,0.11731668561697006
1782987773280216600,0.967216552734375,0.10684293508529663,0.37844979763031006,0.11226759850978851
1782987773290290700,0.977290771484375,0.1298646330833435,0.41709285974502563,0.10386115312576294
1782987773300365600,0.987365478515625,0.15895940363407135,0.4242927134037018,0.09698114544153214
1782987773310440000,0.99743994140625,0.1796286255121231,0.4126259684562683,0.10035985708236694
1782987773320514600,1.0075146484375,0.19446590542793274,0.40341782569885254,0.12057990580797195
1782987773330589000,1.0175888671875,0.19916850328445435,0.4078168272972107,0.13648323714733124
1782987773340663600,1.02766357421875,0.1998518705368042,0.4110299348831177,0.13302725553512573
1782987773350738000,1.037738037109375,0.2038339376449585,0.4134407043457031,0.09825955331325531
1782987773360812500,1.0478125,0.22647373378276825,0.4771179258823395,0.02291366457939148
1782987773370887000,1.057886962890625,0.27899444103240967,0.5085317492485046,-0.0680975615978241
1782987773380961500,1.06796142578125,0.31698736548423767,0.372024804353714,-0.19622251391410828
1782987773391036700,1.07803662109375,0.3178994357585907,-0.002797258086502552,-0.37587305903434753
1782987773401110500,1.088110595703125,0.2620084583759308,-0.47916379570961,-0.57065749168396
1782987773411185700,1.098185546875,0.19511748850345612,-0.7760083079338074,-0.7395920157432556
1782987773421259500,1.108259521484375,0.15809635818004608,-0.783573567867279,-0.8133834600448608
1782987773431334700,1.118334716796875,0.16908589005470276,-0.542758047580719,-0.7618395686149597
1782987773441408500,1.128408447265625,0.21446429193019867,-0.057605426758527756,-0.5892488956451416
1782987773451483600,1.138483642578125,0.2633993327617645,0.540581226348877,-0.35319408774375916
1782987773461557500,1.1485576171875,0.30260613560676575,1.0528255701065063,-0.09351802617311478
1782987773471632600,1.158632568359375,0.3382963240146637,1.3816776275634766,0.14093109965324402
1782987773481706500,1.16870654296875,0.40110430121421814,1.5291786193847656,0.33516740798950195
1782987773491781600,1.17878173828125,0.45930227637290955,1.5153855085372925,0.4579121172428131
1782987773501855500,1.18885546875,0.500848114490509,1.3559476137161255,0.5121817588806152
1782987773511930600,1.1989306640625,0.5177308320999146,1.1220735311508179,0.507028341293335
1782987773522004500,1.20900439453125,0.5214613676071167,0.866927444934845,0.45443376898765564
1782987773532079600,1.21907958984375,0.540621280670166,0.6406697034835815,0.37577325105667114
1782987773542153500,1.229153564453125,0.5827527642250061,0.4689280390739441,0.27694815397262573
1782987773552228600,1.239228515625,0.6552546620368958,0.3096417188644409,0.1704387664794922
1782987773562302700,1.249302734375,0.7430585622787476,0.13510745763778687,0.06402257084846497
1782987773572377600,1.259377685546875,0.8355962038040161,-0.02020803838968277,-0.02803651988506317
1782987773582451700,1.26945166015625,0.912636399269104,-0.11656226962804794,-0.09920870512723923
1782987773592526600,1.279526611328125,0.9505884647369385,-0.17572329938411713,-0.15841592848300934
1782987773602600700,1.2896005859375,0.9504150748252869,-0.24269060790538788,-0.20236554741859436
1782987773612675600,1.299675537109375,0.9261929392814636,-0.30639731884002686,-0.23227772116661072
1782987773622749700,1.309749755859375,0.8897044062614441,-0.3576511740684509,-0.23567219078540802
1782987773632824600,1.319824462890625,0.8315268754959106,-0.413783997297287,-0.20377860963344574
1782987773642898700,1.329898681640625,0.764856219291687,-0.43325838446617126,-0.1487925797700882
1782987773652973600,1.3399736328125,0.6954636573791504,-0.4145796597003937,-0.08421799540519714
1782987773663047700,1.350047607421875,0.6285427212715149,-0.3676172196865082,-0.03142349049448967
1782987773673122600,1.36012255859375,0.5663295388221741,-0.29171013832092285,-0.006409788969904184
1782987773683196700,1.37019677734375,0.5049421191215515,-0.1713850349187851,-0.0029324996285140514
1782987773693271600,1.380271484375,0.44265201687812805,0.007185992784798145,-0.01680014096200466
1782987773703345700,1.390345703125,0.3758394122123718,0.22992666065692902,-0.04350205883383751
1782987773713420500,1.400420654296875,0.3128962218761444,0.4576219916343689,-0.08027476817369461
1782987773723494700,1.41049462890625,0.25255006551742554,0.6094427108764648,-0.11780323833227158
1782987773733569500,1.420569580078125,0.2207462340593338,0.6372153759002686,-0.15166838467121124
1782987773743643600,1.4306435546875,0.21232879161834717,0.5442143678665161,-0.16042007505893707
1782987773753718500,1.440718505859375,0.21290118992328644,0.4226974844932556,-0.14386609196662903
1782987773763792600,1.450792724609375,0.2130870819091797,0.3081032633781433,-0.09379519522190094
1782987773773867500,1.460867431640625,0.2146151065826416,0.21729010343551636,-0.03627432510256767
1782987773783941600,1.470941650390625,0.21417568624019623,0.16938169300556183,0.02974889986217022
1782987773794016500,1.4810166015625,0.21102827787399292,0.1868426650762558,0.08933576941490173
1782987773804090600,1.491090576171875,0.19904085993766785,0.258800208568573,0.13615760207176208
1782987773814165500,1.50116552734375,0.17580343782901764,0.3199772834777832,0.14758291840553284
1782987773824239600,1.511239501953125,0.14634408056735992,0.3478853702545166,0.11818481981754303
1782987773834314800,1.521314697265625,0.11260202527046204,0.36621299386024475,0.05716804042458534
1782987773844388600,1.531388671875,0.08632247895002365,0.34330421686172485,-0.02059493027627468
1782987773854463700,1.541463623046875,0.07035593688488007,0.3006489872932434,-0.09554670751094818
1782987773864537600,1.55153759765625,0.0670672059059143,0.2173311710357666,-0.14855904877185822
1782987773874612700,1.56161279296875,0.07201410830020905,0.10006770491600037,-0.16824981570243835
1782987773884687600,1.5716875,0.07467620819807053,-0.012784536927938461,-0.16647347807884216
1782987773894761700,1.58176171875,0.07083308696746826,-0.06719207018613815,-0.1443941593170166
1782987773904836600,1.591836669921875,0.05638623610138893,-0.01898166537284851,-0.07884524017572403
1782987773914910700,1.60191064453125,0.041972413659095764,0.13151542842388153,0.009051492437720299
1782987773924985600,1.611985595703125,0.02931627444922924,0.29832813143730164,0.09983839094638824
1782987773935059700,1.622059814453125,0.0260685496032238,0.40405407547950745,0.17590288817882538
1782987773945134600,1.632134521484375,0.025681592524051666,0.4430992305278778,0.22940951585769653
1782987773955208700,1.642208740234375,0.03397431597113609,0.4086647033691406,0.25901123881340027
1782987773965283600,1.65228369140625,0.0510646216571331,0.31764236092567444,0.254360556602478
1782987773975357700,1.662357666015625,0.06193857640028,0.19642974436283112,0.2160169929265976
1782987773985432600,1.6724326171875,0.08302468806505203,0.13821090757846832,0.1546982377767563
1782987773995506200,1.682506103515625,0.11756597459316254,0.18016692996025085,0.0891975536942482
1782987774005581300,1.692581298828125,0.14438720047473907,0.14073722064495087,-0.004396581556648016
1782987774015655200,1.7026552734375,0.13804106414318085,-0.11916889995336533,-0.14653022587299347
1782987774025730300,1.712730224609375,0.08336210995912552,-0.5714839100837708,-0.3403034210205078
1782987774035804200,1.72280419921875,-0.007559365592896938,-0.9614309072494507,-0.5368042588233948
1782987774045879300,1.73287939453125,-0.104627326130867,-1.1207438707351685,-0.690036416053772
1782987774055953200,1.742953125,-0.18592305481433868,-1.0313572883605957,-0.7576696276664734
1782987774066028300,1.7530283203125,-0.22716423869132996,-0.6715474128723145,-0.7246462106704712
1782987774076102100,1.76310205078125,-0.21443869173526764,-0.09250613301992416,-0.5992662906646729
1782987774086177300,1.77317724609375,-0.1657009720802307,0.5415432453155518,-0.40634289383888245
1782987774096251100,1.783251220703125,-0.10031352937221527,0.9608206152915955,-0.17569223046302795
1782987774106326300,1.793326171875,-0.021734569221735,1.0391106605529785,0.05022053048014641
1782987774116400000,1.803400146484375,0.0703372061252594,0.8274742364883423,0.2604246139526367
1782987774126475300,1.813475341796875,0.1656504124403,0.486018568277359,0.4427185356616974
1782987774136549000,1.823549072265625,0.25226902961730957,0.15660852193832397,0.5815027952194214
1782987774146624300,1.833624267578125,0.3247639834880829,-0.07636535167694092,0.672316312789917
1782987774156698000,1.843697998046875,0.3967648446559906,-0.22979989647865295,0.7056660056114197
1782987774166773200,1.853773193359375,0.460917204618454,-0.3449656367301941,0.6702103018760681
1782987774176847000,1.86384716796875,0.5000697374343872,-0.41007301211357117,0.5894849896430969
1782987774186922200,1.873922119140625,0.4948057532310486,-0.37622398138046265,0.48820871114730835
1782987774196996400,1.883996337890625,0.4348334074020386,-0.2836056053638458,0.3858128786087036
1782987774207071200,1.8940712890625,0.3260706961154938,-0.14725948870182037,0.28156688809394836
1782987774217145300,1.904145263671875,0.18011581897735596,0.007925070822238922,0.19960393011569977
1782987774227220200,1.91422021484375,0.01976955123245716,0.15304578840732574,0.1423417031764984
1782987774237294300,1.92429443359375,-0.12364975363016129,0.2636149227619171,0.10701626539230347
1782987774247369200,1.934369140625,-0.2347632199525833,0.3361293375492096,0.08952728658914566
1782987774257443300,1.944443359375,-0.2920566201210022,0.3774290978908539,0.08580142259597778
1782987774267518200,1.954518310546875,-0.3185129761695862,0.413735955953598,0.09141243994235992
1782987774277592300,1.96459228515625,-0.32013219594955444,0.4194066524505615,0.09045396745204926
1782987774287667200,1.974667236328125,-0.308878093957901,0.3724561035633087,0.07794620841741562
1782987774297741300,1.9847412109375,-0.277982234954834,0.27648746967315674,0.0607982836663723
1782987774307816200,1.994816162109375,-0.22432275116443634,0.18224726617336273,0.05003724619746208
1782987774317890300,2.004890380859375,-0.1706225872039795,0.12759582698345184,0.0603269599378109
1782987774327965200,2.014965087890625,-0.11573962867259979,0.10114212334156036,0.06865306198596954
1782987774338039300,2.025039306640625,-0.06740281730890274,0.07935801148414612,0.06898123025894165
1782987774348114200,2.0351142578125,-0.018075741827487946,0.05668599531054497,0.062152616679668427
1782987774358188300,2.045188232421875,0.024821924045681953,0.027494750916957855,0.04244034364819527
1782987774368263200,2.05526318359375,0.051978178322315216,-0.017630647867918015,0.025813428685069084
1782987774378337300,2.065337158203125,0.05855733901262283,-0.04729202389717102,0.009481711313128471
1782987774388412200,2.075412109375,0.051775068044662476,-0.06686492264270782,0.006351165939122438
1782987774398487300,2.0854873046875,0.04849609360098839,-0.08062612265348434,0.024074384942650795
1782987774408561200,2.09556103515625,0.054678089916706085,-0.07548648864030838,0.05930987000465393
1782987774418636300,2.10563623046875,0.06025661155581474,-0.04273081198334694,0.093378446996212
1782987774428710100,2.115710205078125,0.06293122470378876,0.003578362986445427,0.11795356124639511
1782987774438785300,2.125785400390625,0.06633554399013519,0.04218980669975281,0.13462698459625244
1782987774448859400,2.135859375,0.06447665393352509,0.07171974331140518,0.1423240602016449
1782987774458934300,2.145934326171875,0.06646524369716644,0.06115751340985298,0.14082515239715576
1782987774469008400,2.15600830078125,0.07501212507486343,-0.010516675189137459,0.13625888526439667
1782987774479083300,2.166083251953125,0.08387743681669235,-0.12352842837572098,0.13455602526664734
1782987774489157400,2.176157470703125,0.08282415568828583,-0.23202773928642273,0.14022669196128845
1782987774499232300,2.186232177734375,0.06850389391183853,-0.26123833656311035,0.14890597760677338
1782987774509306400,2.196306396484375,0.041988395154476166,-0.19566303491592407,0.15961933135986328
1782987774519381200,2.20638134765625,0.01813490130007267,-0.030092017725110054,0.16987088322639465
1782987774529455400,2.216455322265625,-0.012876011431217194,0.1901410073041916,0.16352297365665436
1782987774539530200,2.2265302734375,-0.0376962274312973,0.37993741035461426,0.12421663850545883
1782987774549604400,2.236604248046875,-0.04942958429455757,0.46839722990989685,0.05596248805522919
1782987774559679200,2.24667919921875,-0.0408928208053112,0.48970910906791687,-0.019129596650600433
1782987774569753300,2.25675341796875,-0.012092866003513336,0.5726923942565918,-0.09543022513389587
1782987774579828200,2.266828125,0.022579185664653778,0.6733744740486145,-0.16321130096912384
1782987774589902300,2.27690234375,0.05636777728796005,0.5922125577926636,-0.25539740920066833
1782987774599977200,2.286977294921875,0.061117347329854965,0.2741970717906952,-0.39012590050697327
1782987774610051300,2.29705126953125,0.0580722875893116,-0.19413551688194275,-0.5578070878982544
1782987774620126200,2.307126220703125,0.06578418612480164,-0.5669658780097961,-0.7075062394142151
1782987774630200300,2.317200439453125,0.07485144585371017,-0.6665510535240173,-0.7883521318435669
1782987774640275200,2.327275146484375,0.08923961222171783,-0.45343905687332153,-0.7582900524139404
1782987774650349300,2.337349365234375,0.12935908138751984,0.0145260039716959,-0.6202173829078674
1782987774660424200,2.347424072265625,0.17591653764247894,0.5927849411964417,-0.4035002589225769
1782987774670498300,2.357498291015625,0.22593070566654205,1.0603859424591064,-0.14176131784915924
1782987774680573200,2.3675732421875,0.26449060440063477,1.3002121448516846,0.10282810777425766
1782987774690647300,2.377647216796875,0.2937454283237457,1.2745983600616455,0.28810954093933105
1782987774700722200,2.38772216796875,0.3089196979999542,1.0404351949691772,0.42311951518058777
1782987774710796300,2.39779638671875,0.3124459683895111,0.6999855637550354,0.5029832124710083
1782987774720871400,2.407871337890625,0.29256966710090637,0.33796030282974243,0.5164725184440613
1782987774730945300,2.4179453125,0.26723501086235046,-0.0029903603717684746,0.44160014390945435
1782987774741020400,2.4280205078125,0.24965707957744598,-0.28351637721061707,0.2913760244846344
1782987774751094300,2.43809423828125,0.2586074471473694,-0.5061755180358887,0.09175532311201096
1782987774761169400,2.44816943359375,0.2885775864124298,-0.6164510250091553,-0.10350233316421509
1782987774771243300,2.4582431640625,0.32511693239212036,-0.5836725831031799,-0.26091432571411133
1782987774781318400,2.468318359375,0.3561535179615021,-0.4309084415435791,-0.35974085330963135
1782987774791392300,2.478392333984375,0.37978801131248474,-0.20135539770126343,-0.4000275433063507
1782987774801467400,2.48846728515625,0.38205692172050476,0.05432592332363129,-0.3698780834674835
1782987774811541200,2.498541259765625,0.37382084131240845,0.24052882194519043,-0.28932198882102966
1782987774821616400,2.508616455078125,0.3620571196079254,0.29998230934143066,-0.18131084740161896
1782987774831690200,2.518690185546875,0.36021047830581665,0.20465390384197235,-0.06500846147537231
1782987774841765400,2.528765380859375,0.362024188041687,0.045541130006313324,0.051759809255599976
1782987774851839200,2.538839111328125,0.3763591945171356,-0.08900070190429688,0.16081997752189636
1782987774861914400,2.548914306640625,0.40677231550216675,-0.16242600977420807,0.2487010508775711
1782987774871988200,2.55898828125,0.4385078549385071,-0.1712767630815506,0.2954307198524475
1782987774882063400,2.5690634765625,0.4626716077327728,-0.11893361061811447,0.3037959933280945
1782987774892137200,2.57913720703125,0.4636857509613037,-0.05506488308310509,0.2787202000617981
1782987774902212400,2.58921240234375,0.44111669063568115,-0.012012594379484653,0.23318733274936676
1782987774912286200,2.5992861328125,0.3915347754955292,0.017800427973270416,0.16968798637390137
1782987774922361300,2.609361328125,0.3179316520690918,0.03211358189582825,0.08762098848819733
1782987774932435200,2.619435302734375,0.2316444367170334,0.008832762017846107,-0.0016156805213540792
1782987774942510300,2.62951025390625,0.14996333420276642,-0.04630123823881149,-0.08525955677032471
1782987774952584200,2.639584228515625,0.07539001852273941,-0.13423055410385132,-0.1585763841867447
1782987774962659300,2.649659423828125,0.023470990359783173,-0.23290643095970154,-0.2019083946943283
1782987774972733200,2.659733154296875,-0.006094890646636486,-0.2898879647254944,-0.21569077670574188
1782987774982808300,2.669808349609375,-0.04079224169254303,-0.30514511466026306,-0.21412628889083862
1782987774992883500,2.679883544921875,-0.08904659003019333,-0.30824583768844604,-0.2192685902118683
1782987775002957600,2.68995751953125,-0.1573944091796875,-0.3021395802497864,-0.23944111168384552
1782987775013032700,2.70003271484375,-0.220588818192482,-0.2869741916656494,-0.2672048509120941
1782987775023106600,2.7101064453125,-0.27779918909072876,-0.24691569805145264,-0.2750445008277893
1782987775033180400,2.720180419921875,-0.3329106569290161,-0.1642618328332901,-0.26173481345176697
1782987775043255600,2.730255615234375,-0.3861832916736603,-0.10285238176584244,-0.23110494017601013
1782987775053330700,2.74033056640625,-0.43614843487739563,-0.10376318544149399,-0.2089674174785614
1782987775063404500,2.750404541015625,-0.48038533329963684,-0.16103096306324005,-0.1766643226146698
1782987775073479700,2.760479736328125,-0.5092635750770569,-0.18812435865402222,-0.13836459815502167
1782987775083553500,2.770553466796875,-0.5335988998413086,-0.17749476432800293,-0.0864122286438942
1782987775093628700,2.780628662109375,-0.5450491905212402,-0.19861017167568207,-0.040013305842876434
1782987775103702500,2.79070263671875,-0.5386661291122437,-0.2541768252849579,-0.00399361178278923
1782987775113777700,2.800777587890625,-0.522573709487915,-0.2928805351257324,0.02783995307981968
1782987775123851500,2.8108515625,-0.5069694519042969,-0.3512350022792816,0.04806790128350258
1782987775133926700,2.8209267578125,-0.5080181956291199,-0.43942397832870483,0.050208549946546555
1782987775144000500,2.83100048828125,-0.5190974473953247,-0.5049334168434143,0.036546528339385986
1782987775154075600,2.84107568359375,-0.5331981182098389,-0.4012392461299896,0.004140917677432299
1782987775164149500,2.8511494140625,-0.5531294345855713,-0.16980917751789093,-0.051551248878240585
1782987775174224600,2.861224609375,-0.5798143148422241,-0.0875992551445961,-0.1408180147409439
1782987775184298500,2.871298583984375,-0.637749433517456,-0.2741427719593048,-0.27727076411247253
1782987775194373600,2.88137353515625,-0.7238843441009521,-0.6446633338928223,-0.42133232951164246
1782987775204447500,2.891447509765625,-0.812954306602478,-0.9047580361366272,-0.5299571752548218
1782987775214522600,2.901522705078125,-0.8808540105819702,-0.856724739074707,-0.5727301836013794
1782987775224596500,2.911596435546875,-0.928621232509613,-0.6654855608940125,-0.5596423745155334
1782987775234671600,2.921671630859375,-0.9589064717292786,-0.46956509351730347,-0.5078215003013611
1782987775244745500,2.931745361328125,-0.978102445602417,-0.2722702622413635,-0.43219947814941406
1782987775254820600,2.941820556640625,-0.965479850769043,-0.08753103762865067,-0.33172905445098877
1782987775264894500,2.95189453125,-0.9224086403846741,0.10502605140209198,-0.1983664333820343
1782987775274969600,2.961969482421875,-0.8423252701759338,0.28065645694732666,-0.05681117624044418
1782987775285043500,2.97204345703125,-0.7536702156066895,0.3593233823776245,0.08577056229114532
1782987775295118600,2.98211865234375,-0.6690359711647034,0.2788724899291992,0.18800851702690125
1782987775305192400,2.9921923828125,-0.5753640532493591,0.04804164171218872,0.24694563448429108
1782987775315267600,3.002267578125,-0.4748062789440155,-0.2324286252260208,0.2693462669849396
1782987775325341700,3.012341796875,-0.3661918342113495,-0.4829258620738983,0.26372721791267395
1782987775335416600,3.02241650390625,-0.24761511385440826,-0.6473712921142578,0.2282155603170395
1782987775345490700,3.03249072265625,-0.14593827724456787,-0.701418399810791,0.18553903698921204
1782987775355565600,3.042565673828125,-0.07783565670251846,-0.6605996489524841,0.15052646398544312
1782987775365639700,3.0526396484375,-0.04595194011926651,-0.5518094897270203,0.14386601746082306
1782987775375714600,3.062714599609375,-0.051757365465164185,-0.3753553330898285,0.16214248538017273
1782987775385788700,3.07278857421875,-0.09770675003528595,-0.17024926841259003,0.20220521092414856
1782987775395863600,3.082863525390625,-0.16308948397636414,-0.0012815457303076982,0.2450200617313385
1782987775405937700,3.092937744140625,-0.23267832398414612,0.08004544675350189,0.2636272609233856
1782987775416012500,3.103012451171875,-0.29340797662734985,0.08911564201116562,0.24886959791183472
1782987775426086700,3.113086669921875,-0.3337951600551605,0.01781405508518219,0.21020002663135529
1782987775436161500,3.12316162109375,-0.35781875252723694,-0.13400930166244507,0.14348571002483368
1782987775446235600,3.133235595703125,-0.367696076631546,-0.3040192425251007,0.06274108588695526
1782987775456310500,3.143310546875,-0.357052743434906,-0.43907108902931213,-0.013520129956305027
1782987775466384600,3.153384521484375,-0.3381034731864929,-0.4948830306529999,-0.06727928668260574
1782987775476459500,3.16345947265625,-0.3145821690559387,-0.48753485083580017,-0.10203780233860016
1782987775486533600,3.17353369140625,-0.2822236716747284,-0.4278564155101776,-0.1087963655591011
1782987775496608500,3.1836083984375,-0.24692508578300476,-0.3323618471622467,-0.09082295745611191
1782987775506682600,3.1936826171875,-0.2110934853553772,-0.211085245013237,-0.03522953391075134
1782987775516757500,3.203757568359375,-0.18021519482135773,-0.08625063300132751,0.04830903559923172
1782987775526831600,3.21383154296875,-0.1693008542060852,0.017917273566126823,0.1576693207025528
1782987775536906500,3.223906494140625,-0.18095538020133972,0.11924522370100021,0.2713279724121094
1782987775546980600,3.233980712890625,-0.21014373004436493,0.19408300518989563,0.37909552454948425
1782987775557055500,3.244055419921875,-0.24111363291740417,0.22016359865665436,0.47480127215385437
1782987775567129600,3.254129638671875,-0.26981210708618164,0.20424501597881317,0.5559641122817993
1782987775577204500,3.26420458984375,-0.30227816104888916,0.16627925634384155,0.6141784191131592
1782987775587278600,3.274278564453125,-0.3259507417678833,0.16211701929569244,0.6564327478408813
1782987775597353700,3.284353759765625,-0.35035407543182373,0.22598201036453247,0.6688913106918335
1782987775607427600,3.294427490234375,-0.38206711411476135,0.34237462282180786,0.6551274061203003
1782987775617502700,3.304502685546875,-0.4236648678779602,0.47126150131225586,0.60701584815979
1782987775627577600,3.31457763671875,-0.47903937101364136,0.57439786195755,0.5343112945556641
1782987775637651700,3.324651611328125,-0.5449454188346863,0.5868427753448486,0.43862736225128174
1782987775647726600,3.3347265625,-0.598662257194519,0.5253267288208008,0.3269239068031311
1782987775657800700,3.34480078125,-0.6305480599403381,0.3956635594367981,0.1980082392692566
1782987775667875600,3.35487548828125,-0.6382558941841125,0.233003169298172,0.07392503321170807
1782987775677949700,3.36494970703125,-0.6344882845878601,0.10507423430681229,-0.039584752172231674
1782987775688024600,3.375024658203125,-0.6260506510734558,0.025955181568861008,-0.13320888578891754
1782987775698098700,3.3850986328125,-0.6236650347709656,0.035637903958559036,-0.21176894009113312
1782987775708173600,3.395173583984375,-0.6167017221450806,0.1282016783952713,-0.2629202902317047
1782987775718247700,3.40524755859375,-0.5951772332191467,0.2709822654724121,-0.27870404720306396
1782987775728322600,3.415322509765625,-0.5439516305923462,0.42302146553993225,-0.2556639015674591
1782987775738396700,3.425396728515625,-0.4467552900314331,0.5804513096809387,-0.19687436521053314
1782987775748471600,3.435471435546875,-0.29941898584365845,0.7045360207557678,-0.11128130555152893
1782987775758545700,3.445545654296875,-0.12430071830749512,0.8273189663887024,-0.021508274599909782
1782987775768620500,3.45562060546875,0.05509301275014877,0.8812770843505859,0.0610441155731678
1782987775778694700,3.465694580078125,0.2071555107831955,0.8821338415145874,0.13240671157836914
1782987775788769500,3.47576953125,0.3257405757904053,0.9700987339019775,0.19606153666973114
1782987775798843600,3.48584375,0.4079616665840149,1.074652910232544,0.2612599730491638
1782987775808918500,3.49591845703125,0.4719568192958832,0.9706760048866272,0.30282366275787354
1782987775818992600,3.50599267578125,0.5134405493736267,0.6453242897987366,0.3109167218208313
1782987775829067500,3.516067626953125,0.5289503931999207,0.07196206599473953,0.26811453700065613
1782987775839141600,3.5261416015625,0.5863252878189087,-0.624563992023468,0.14110569655895233
1782987775849216800,3.536216796875,0.7124816179275513,-0.9872977137565613,-0.0008184152538888156
1782987775859290600,3.54629052734375,0.8697587251663208,-1.0826048851013184,-0.08133427053689957
1782987775869365800,3.55636572265625,0.9644668102264404,-0.997218132019043,-0.07374363392591476
1782987775879439600,3.566439697265625,0.9587825536727905,-0.7814390063285828,0.016916492953896523
1782987775889514800,3.5765146484375,0.8754646182060242,-0.4178846478462219,0.15460948646068573
1782987775899588600,3.586588623046875,0.7646595239639282,-0.004454454872757196,0.27862465381622314
1782987775909663700,3.596663818359375,0.6698653697967529,0.2565399408340454,0.3074091374874115
1782987775919737600,3.606737548828125,0.6263043284416199,0.28069213032722473,0.19855856895446777
1782987775929812700,3.616812744140625,0.6449639201164246,0.09985233098268509,-0.060266800224781036
1782987775939886600,3.626886474609375,0.7007587552070618,-0.15652965009212494,-0.41736099123954773
1782987775949961700,3.636961669921875,0.776505708694458,-0.373462438583374,-0.7654513120651245
1782987775960035600,3.64703564453125,0.8360966444015503,-0.3689579665660858,-1.0029819011688232
1782987775970110700,3.65711083984375,0.8551123142242432,-0.16556793451309204,-1.0682315826416016
1782987775980184600,3.6671845703125,0.8497760891914368,0.08186157047748566,-0.993614912033081
1782987775990259700,3.677259765625,0.8338372707366943,0.29248547554016113,-0.793957531452179
1782987776000333800,3.687333740234375,0.7993133664131165,0.4737972021102905,-0.5410720109939575
1782987776010409000,3.697408935546875,0.747765302658081,0.5617201328277588,-0.27425074577331543
1782987776020482800,3.70748291015625,0.6748447418212891,0.5294836759567261,-0.038756221532821655
1782987776030558000,3.717557861328125,0.6046964526176453,0.4033242166042328,0.14533360302448273
1782987776040631800,3.7276318359375,0.5572314858436584,0.23476025462150574,0.24735477566719055
1782987776050707000,3.73770703125,0.5356588959693909,0.049571797251701355,0.2579890787601471
1782987776060780800,3.74778076171875,0.5461270213127136,-0.14091052114963531,0.18209458887577057
1782987776070856000,3.75785595703125,0.570594072341919,-0.28607067465782166,0.03443148359656334
1782987776080929800,3.7679296875,0.5748000144958496,-0.3960091471672058,-0.15980243682861328
1782987776091005000,3.7780048828125,0.5555475950241089,-0.44524767994880676,-0.36651939153671265
1782987776101078800,3.788078857421875,0.5113404393196106,-0.3992096185684204,-0.5642353892326355
1782987776111154000,3.79815380859375,0.4613330066204071,-0.31215929985046387,-0.7157086730003357
1782987776121227800,3.808227783203125,0.41116440296173096,-0.2165164053440094,-0.8221413493156433
1782987776131303000,3.818302978515625,0.3651260733604431,-0.14597046375274658,-0.8907069563865662
1782987776141376800,3.828376708984375,0.3273211717605591,-0.13461607694625854,-0.9122630953788757
1782987776151452000,3.838451904296875,0.3032812476158142,-0.17966434359550476,-0.9143743515014648
1782987776161525800,3.84852587890625,0.3058008551597595,-0.24888630211353302,-0.873053252696991
1782987776171601000,3.858600830078125,0.32927724719047546,-0.2815174460411072,-0.7872650623321533
1782987776181674800,3.8686748046875,0.36476653814315796,-0.2433149218559265,-0.6409353017807007
1782987776191750000,3.87875,0.41189685463905334,-0.13154007494449615,-0.4265192449092865
1782987776201824000,3.888823974609375,0.4433024525642395,0.04325702786445618,-0.15715651214122772
1782987776211899000,3.89889892578125,0.453343003988266,0.27889135479927063,0.13569079339504242
1782987776221973000,3.908972900390625,0.4552658200263977,0.4585135579109192,0.4152263104915619
1782987776232047900,3.9190478515625,0.4648360311985016,0.5660865306854248,0.6360305547714233
1782987776242122000,3.9291220703125,0.4920599162578583,0.6212288737297058,0.7845244407653809
1782987776252196900,3.93919677734375,0.5494533181190491,0.6412385702133179,0.8515107035636902
1782987776262271000,3.94927099609375,0.6136277318000793,0.6127896308898926,0.8309982419013977
1782987776272345900,3.959345947265625,0.6722253561019897,0.5636051893234253,0.7339094877243042
1782987776282420000,3.969419921875,0.7105093598365784,0.5192294120788574,0.5693394541740417
1782987776292494800,3.979494873046875,0.7264599800109863,0.5038434863090515,0.35811519622802734
1782987776302569000,3.98956884765625,0.7346057891845703,0.474595308303833,0.14716728031635284
1782987776312643800,3.999643798828125,0.7432994246482849,0.41742467880249023,-0.05076044052839279
1782987776322718000,4.009718017578125,0.7487386465072632,0.3257339298725128,-0.20158937573432922
1782987776332792800,4.019792724609375,0.7574559450149536,0.22274528443813324,-0.2830854654312134
1782987776342868000,4.029867919921875,0.7580530047416687,0.1782209575176239,-0.29153862595558167
1782987776352941800,4.03994189453125,0.7385266423225403,0.16758836805820465,-0.2522031366825104
1782987776363017000,4.050016845703125,0.699924647808075,0.13311907649040222,-0.1899607926607132
1782987776373090800,4.0600908203125,0.6607738137245178,0.10983651876449585,-0.11365695297718048
1782987776383166000,4.070166015625,0.633571982383728,0.11047621071338654,-0.03146860748529434
1782987776393239800,4.08023974609375,0.614299476146698,0.11295255273580551,0.04245762899518013
1782987776403315000,4.09031494140625,0.6054524779319763,0.08775772154331207,0.09580979496240616
1782987776413388800,4.100388916015625,0.6031906604766846,0.06007509306073189,0.11771145462989807
1782987776423464000,4.1104638671875,0.6086463928222656,0.05780820921063423,0.1137649193406105
1782987776433537800,4.120537841796875,0.603334903717041,0.1002669408917427,0.07592359185218811
1782987776443613000,4.130613037109375,0.5985433459281921,0.10981970280408859,0.008495555259287357
1782987776453687000,4.14068701171875,0.5858740210533142,0.07117684930562973,-0.09491227567195892
1782987776463762000,4.150761962890625,0.5729177594184875,0.024156881496310234,-0.19365297257900238
1782987776473836000,4.1608359375,0.5653055310249329,0.012015704065561295,-0.2600683569908142
1782987776483911000,4.170910888671875,0.5516514778137207,0.08371253311634064,-0.269569456577301
1782987776493985000,4.180985107421875,0.531180739402771,0.25362342596054077,-0.2073306143283844
1782987776504060000,4.191059814453125,0.503383994102478,0.45330724120140076,-0.08488751202821732
1782987776514134000,4.201134033203125,0.46537551283836365,0.5893914103507996,0.06478911638259888
1782987776524209000,4.211208984375,0.4328332841396332,0.6342872381210327,0.20813030004501343
1782987776534283000,4.221282958984375,0.41282132267951965,0.6134777665138245,0.33568209409713745
1782987776544358000,4.23135791015625,0.4072529077529907,0.5546482801437378,0.41803476214408875
1782987776554432000,4.241431884765625,0.4158826172351837,0.47385406494140625,0.44600245356559753
1782987776564507000,4.2515068359375,0.43239477276802063,0.3715229034423828,0.4168565571308136
1782987776574581000,4.2615810546875,0.4552583396434784,0.25241607427597046,0.33142247796058655
1782987776584656000,4.27165576171875,0.47587335109710693,0.1369752138853073,0.19848918914794922
1782987776594730000,4.28172998046875,0.4921771287918091,0.03233984485268593,0.028567764908075333
1782987776604804900,4.291804931640625,0.5064852237701416,-0.04947938770055771,-0.15793286263942719
1782987776614879000,4.30187890625,0.5197795629501343,-0.04136056452989578,-0.3190572261810303
1782987776624953900,4.311953857421875,0.5326671600341797,0.07631892710924149,-0.42190104722976685
1782987776635028000,4.322028076171875,0.5325721502304077,0.2695634663105011,-0.45519572496414185
1782987776645102800,4.332102783203125,0.5236023664474487,0.4514421820640564,-0.4314008951187134
1782987776655177000,4.342177001953125,0.5170189738273621,0.5501941442489624,-0.35217055678367615
1782987776665251800,4.352251953125,0.5299241542816162,0.6016903519630432,-0.2189568430185318
1782987776675326000,4.362325927734375,0.5640233755111694,0.6958398222923279,-0.028291529044508934
1782987776685400800,4.37240087890625,0.6004423499107361,0.7837582230567932,0.1667434722185135
1782987776695475000,4.382474853515625,0.6147009134292603,0.8120967745780945,0.33451366424560547
1782987776705549800,4.3925498046875,0.6240946650505066,0.7727072834968567,0.44236209988594055
1782987776715624000,4.4026240234375,0.6405675411224365,0.7276401519775391,0.4896864593029022
1782987776725699000,4.412698974609375,0.6474688649177551,0.6663075685501099,0.46354246139526367
1782987776735773000,4.42277294921875,0.645630419254303,0.5912078619003296,0.36168965697288513
1782987776745848000,4.43284814453125,0.6281350255012512,0.5330820083618164,0.20891155302524567
1782987776755922000,4.442921875,0.6050596237182617,0.5093153119087219,0.02617390640079975
1782987776765997000,4.4529970703125,0.574256956577301,0.4942370057106018,-0.1733139008283615
1782987776776071000,4.46307080078125,0.5465728044509888,0.4910839796066284,-0.35897600650787354
1782987776786146000,4.47314599609375,0.5417847037315369,0.5386070013046265,-0.4896935522556305
1782987776796220000,4.483219970703125,0.5503360033035278,0.6164055466651917,-0.563041627407074
1782987776806295000,4.493294921875,0.5638257265090942,0.65709388256073,-0.5886069536209106
1782987776816369000,4.503368896484375,0.5770307779312134,0.6495505571365356,-0.5883317589759827
1782987776826444000,4.513444091796875,0.5966731905937195,0.6377758979797363,-0.55900639295578
1782987776836518000,4.523517822265625,0.6262307167053223,0.6334471702575684,-0.500919759273529
1782987776846593000,4.533593017578125,0.6524441838264465,0.649550199508667,-0.4393133819103241
1782987776856667000,4.5436669921875,0.6854250431060791,0.6659182906150818,-0.3823230564594269
1782987776866742000,4.553741943359375,0.7293426990509033,0.6660423278808594,-0.3462727963924408
1782987776876816000,4.56381591796875,0.789627194404602,0.6570160388946533,-0.32775643467903137
1782987776886891000,4.57389111328125,0.8591668605804443,0.6335293650627136,-0.33034688234329224
1782987776896964900,4.58396484375,0.9177806973457336,0.6031876802444458,-0.34911876916885376
1782987776907040000,4.5940400390625,0.964448869228363,0.5814877152442932,-0.3719005286693573
1782987776917113900,4.60411376953125,1.0086528062820435,0.576059103012085,-0.3836112916469574
1782987776927189000,4.61418896484375,1.0477781295776367,0.5844296813011169,-0.3862361013889313
1782987776937262800,4.624262939453125,1.0906814336776733,0.5832018256187439,-0.3737119436264038
1782987776947338000,4.634337890625,1.1327428817749023,0.5615692138671875,-0.35308974981307983
1782987776957411800,4.644411865234375,1.1692615747451782,0.530566930770874,-0.3244961202144623
1782987776967487000,4.654487060546875,1.1945866346359253,0.5288888812065125,-0.2987641394138336
1782987776977560800,4.664560791015625,1.2026703357696533,0.5124456882476807,-0.27446773648262024
1782987776987636000,4.674635986328125,1.2018197774887085,0.460946261882782,-0.24655354022979736
1782987776997709800,4.684709716796875,1.1932379007339478,0.4496477544307709,-0.2065299153327942
1782987777007784400,4.694784423828125,1.1783643960952759,0.4585581421852112,-0.1564188152551651
1782987777017858300,4.7048583984375,1.1617450714111328,0.47889670729637146,-0.1111793965101242
1782987777027933400,4.714933349609375,1.146181583404541,0.4930623173713684,-0.06510058790445328
1782987777038008600,4.725008544921875,1.1319606304168701,0.545585572719574,-0.014063618145883083
1782987777048082400,4.73508251953125,1.1233909130096436,0.6062907576560974,0.05109860748052597
1782987777058157600,4.745157470703125,1.117383599281311,0.6641407608985901,0.11967829614877701
1782987777068231400,4.7552314453125,1.1070215702056885,0.8215426206588745,0.17715810239315033
1782987777078306600,4.765306640625,1.0972872972488403,1.0849051475524902,0.20727798342704773
1782987777088380400,4.77538037109375,1.0931870937347412,1.1347416639328003,0.20158439874649048
1782987777098455600,4.78545556640625,1.0918898582458496,0.918228268623352,0.14454451203346252
1782987777108529400,4.795529296875,1.069841742515564,0.5870034694671631,0.056585900485515594
1782987777118604500,4.8056044921875,1.04482102394104,0.2640690505504608,-0.02960440330207348
1782987777128678400,4.815678466796875,1.0098793506622314,0.08229950070381165,-0.0905391275882721
1782987777138753500,4.82575341796875,0.9623082876205444,0.0990968570113182,-0.11611159890890121
1782987777148827400,4.835827392578125,0.9342327117919922,0.21041007339954376,-0.08021218329668045
1782987777158902500,4.845902587890625,0.9534139633178711,0.47046011686325073,0.03080100193619728
1782987777168976400,4.855976318359375,0.9864755272865295,0.8807408809661865,0.19474944472312927
1782987777179051500,4.866051513671875,1.0193922519683838,1.320007085800171,0.38180771470069885
1782987777189125400,4.87612548828125,1.042764663696289,1.6990667581558228,0.5565659403800964
1782987777199200500,4.886200439453125,1.0709275007247925,1.9582194089889526,0.6970812678337097
1782987777209274400,4.8962744140625,1.1036287546157837,2.0646393299102783,0.7866175174713135
1782987777219349500,4.906349609375,1.1407718658447266,2.02193284034729,0.8287100791931152
1782987777229423400,4.91642333984375,1.191464900970459,1.8349862098693848,0.8256090879440308
1782987777239498500,4.92649853515625,1.255452036857605,1.5377341508865356,0.7630273699760437
1782987777249572400,4.936572265625,1.3163920640945435,1.154768705368042,0.6505881547927856
1782987777259647500,4.9466474609375,1.374175786972046,0.7761879563331604,0.4990588128566742
1782987777269721300,4.956721435546875,1.4233415126800537,0.4578017592430115,0.3051401972770691
1782987777279796500,4.96679638671875,1.4787256717681885,0.19314798712730408,0.08752674609422684
1782987777289870300,4.976870361328125,1.5218182802200317,0.04441870003938675,-0.12531016767024994
1782987777299945500,4.986945556640625,1.5484694242477417,0.035618122667074203,-0.3089318871498108
1782987777310019300,4.997019287109375,1.542540431022644,0.1236121654510498,-0.4406664967536926
1782987777320094500,5.007094482421875,1.4959276914596558,0.2355017066001892,-0.5297116041183472
1782987777330168300,5.017168212890625,1.4191927909851074,0.3297634720802307,-0.5618431568145752
1782987777340243500,5.027243408203125,1.329636812210083,0.43251320719718933,-0.5444825887680054
1782987777350317300,5.0373173828125,1.2393394708633423,0.5668001770973206,-0.47673898935317993
1782987777360392400,5.047392333984375,1.1498792171478271,0.6849907636642456,-0.3747847378253937
1782987777370466300,5.05746630859375,1.067549467086792,0.7192041277885437,-0.24956528842449188
1782987777380541400,5.06754150390625,1.0033639669418335,0.7197979092597961,-0.11978339403867722
1782987777390615300,5.077615234375,0.9719018340110779,0.7553899884223938,0.004118043463677168
1782987777400690400,5.0876904296875,0.9659698009490967,0.7549651265144348,0.0925099328160286
1782987777410764300,5.097764404296875,0.9690396189689636,0.6775212287902832,0.13361236453056335
1782987777420839400,5.10783935546875,0.9826111197471619,0.6181471943855286,0.1423804610967636
1782987777430913500,5.11791357421875,0.994994580745697,0.610190749168396,0.14049147069454193
1782987777440988400,5.127988525390625,0.9902867078781128,0.6268292665481567,0.12261317670345306
1782987777451062500,5.1380625,0.9531553387641907,0.6366989612579346,0.08774494379758835
1782987777461137400,5.148137451171875,0.8972066640853882,0.6662547588348389,0.04046756029129028
1782987777471211500,5.15821142578125,0.8363568782806396,0.6933298110961914,-0.011599101126194
1782987777481286400,5.168286376953125,0.7774513363838196,0.6914283037185669,-0.07127128541469574
1782987777491360500,5.178360595703125,0.7151389718055725,0.6614965200424194,-0.14354468882083893
1782987777501435400,5.188435302734375,0.6647730469703674,0.5858280062675476,-0.24382224678993225
1782987777511509500,5.198509521484375,0.6197575926780701,0.49537190794944763,-0.3502538800239563
1782987777521584400,5.20858447265625,0.5707749724388123,0.42560696601867676,-0.4509129822254181
1782987777531658500,5.218658447265625,0.5202063322067261,0.3843335807323456,-0.536124587059021
1782987777541733400,5.2287333984375,0.4760672152042389,0.36062297224998474,-0.6132108569145203
1782987777551807500,5.238807373046875,0.452371746301651,0.36594873666763306,-0.675533652305603
1782987777561882400,5.24888232421875,0.44348326325416565,0.369112104177475,-0.7059447765350342
1782987777571956500,5.25895654296875,0.44641274213790894,0.40678998827934265,-0.6964386105537415
1782987777582031400,5.26903125,0.4556446969509125,0.449065625667572,-0.650245189666748
1782987777592105500,5.27910546875,0.47090965509414673,0.4910389184951782,-0.5716342926025391
1782987777602180400,5.289180419921875,0.49875006079673767,0.5096290111541748,-0.47543802857398987
1782987777612254500,5.29925439453125,0.5399185419082642,0.5037301182746887,-0.3640478551387787
1782987777622329300,5.309329345703125,0.5962154269218445,0.48539233207702637,-0.23588010668754578
1782987777632403500,5.319403564453125,0.6549898386001587,0.4697885811328888,-0.10803825408220291
1782987777642478300,5.329478271484375,0.6978970766067505,0.44167280197143555,-0.0024907896295189857
1782987777652552400,5.339552490234375,0.7172672748565674,0.4038569927215576,0.06598653644323349
1782987777662627300,5.34962744140625,0.7098221778869629,0.35637879371643066,0.09938249737024307
1782987777672701400,5.359701416015625,0.6824147701263428,0.319778710603714,0.1051572933793068
1782987777682776600,5.369776611328125,0.6433765888214111,0.2967011630535126,0.09211285412311554
1782987777692850400,5.379850341796875,0.6130149364471436,0.3476594388484955,0.07553867250680923
1782987777702925600,5.389925537109375,0.5935701727867126,0.4912262260913849,0.06641440838575363
1782987777712999400,5.39999951171875,0.5793036222457886,0.5323947072029114,0.061387430876493454
1782987777723074600,5.410074462890625,0.5681628584861755,0.3312072455883026,0.025238513946533203
1782987777733148400,5.4201484375,0.5433014631271362,-0.021589145064353943,-0.0357808992266655
1782987777743223600,5.4302236328125,0.503390371799469,-0.34201517701148987,-0.09980867058038712
1782987777753297400,5.44029736328125,0.43249595165252686,-0.5220435261726379,-0.1614304929971695
1782987777763372500,5.45037255859375,0.34536078572273254,-0.5355631709098816,-0.1982644945383072
1782987777773447200,5.460447265625,0.2798968255519867,-0.48370930552482605,-0.20618712902069092
1782987777783521500,5.470521484375,0.25237980484962463,-0.40614864230155945,-0.15404826402664185
1782987777793596200,5.48059619140625,0.26316747069358826,-0.21286600828170776,-0.0432964563369751
1782987777803670500,5.49067041015625,0.3081015646457672,0.12128223478794098,0.12972544133663177
1782987777813745200,5.5007451171875,0.3574632406234741,0.5003256797790527,0.3259165287017822
1782987777823819500,5.510819580078125,0.4036528766155243,0.8013843894004822,0.5016670227050781
1782987777833894100,5.52089404296875,0.4386712908744812,0.9262682795524597,0.6441786289215088
1782987777843968500,5.530968505859375,0.4713189899921417,0.8625518083572388,0.7398512363433838
1782987777854043100,5.541043212890625,0.49413853883743286,0.6770653128623962,0.7761578559875488
1782987777864117500,5.551117431640625,0.5046582818031311,0.4228990077972412,0.756018340587616
1782987777874192100,5.561192138671875,0.5069102644920349,0.1708878129720688,0.6899905800819397
1782987777884266500,5.5712666015625,0.5018738508224487,0.0003758077509701252,0.5860799551010132
1782987777894341000,5.581341064453125,0.4812604784965515,-0.03089822456240654,0.45906880497932434
1782987777904415500,5.59141552734375,0.44273847341537476,0.07648087292909622,0.31238651275634766
1782987777914490000,5.601489990234375,0.3982996344566345,0.2672436237335205,0.1678439825773239
1782987777924564500,5.611564453125,0.35838887095451355,0.4869477152824402,0.03972486034035683
1782987777934639000,5.62163916015625,0.3277747631072998,0.6654117107391357,-0.04461771622300148
1782987777944713500,5.63171337890625,0.3046993017196655,0.7835934162139893,-0.06802688539028168
1782987777954788400,5.641788330078125,0.2839588522911072,0.8429733514785767,-0.04655115678906441
1782987777964862500,5.651862548828125,0.26756027340888977,0.820400059223175,0.0038304610643535852
1782987777974937300,5.661937255859375,0.2523285746574402,0.7832053303718567,0.06692580878734589
1782987777985011500,5.672011474609375,0.24546295404434204,0.7379375100135803,0.13365423679351807
1782987777995086300,5.68208642578125,0.25829991698265076,0.6581188440322876,0.1696242243051529
1782987778005161000,5.692160888671875,0.2897237241268158,0.538907527923584,0.1811959594488144
1782987778015236000,5.702236083984375,0.32225582003593445,0.4102640151977539,0.15023377537727356
1782987778025310000,5.71231005859375,0.34357982873916626,0.31082016229629517,0.08702927827835083
1782987778035385000,5.722385009765625,0.354917973279953,0.22828640043735504,-0.00489558232948184
1782987778045459000,5.732458984375,0.3607826232910156,0.1794814169406891,-0.10747120529413223
1782987778055534000,5.7425341796875,0.36726370453834534,0.17217610776424408,-0.20173005759716034
1782987778065608000,5.75260791015625,0.3713403642177582,0.19207999110221863,-0.2730868458747864
1782987778075683000,5.76268310546875,0.3723670244216919,0.24189282953739166,-0.31694722175598145
1782987778085757000,5.7727568359375,0.3780011236667633,0.30148911476135254,-0.32615557312965393
1782987778095832000,5.78283203125,0.385643869638443,0.3088133633136749,-0.3105925917625427
1782987778105906000,5.792906005859375,0.4032370448112488,0.2842579185962677,-0.2617182433605194
1782987778115981000,5.80298095703125,0.4252038598060608,0.25137054920196533,-0.19220173358917236
1782987778126055200,5.81305517578125,0.4464097321033478,0.20715424418449402,-0.11848566681146622
1782987778136130000,5.823130126953125,0.4657980799674988,0.1733773797750473,-0.05807850882411003
1782987778146204200,5.8332041015625,0.48254695534706116,0.15360021591186523,-0.006796146742999554
1782987778156279000,5.843279052734375,0.4945985674858093,0.14425943791866302,0.019157424569129944
1782987778166353200,5.853353271484375,0.4989524781703949,0.16856426000595093,0.02523588389158249
1782987778176428000,5.863427978515625,0.4958277940750122,0.20939931273460388,0.013740349560976028
1782987778186502100,5.873502197265625,0.484713613986969,0.274102121591568,-0.028405239805579185
1782987778196577000,5.883576904296875,0.45995742082595825,0.3520885407924652,-0.09826314449310303
1782987778206651100,5.893651123046875,0.4299429655075073,0.3683532774448395,-0.18891026079654694
1782987778216726000,5.90372607421875,0.39576634764671326,0.34272995591163635,-0.2798667848110199
1782987778226800000,5.913800048828125,0.365723580121994,0.29316917061805725,-0.3711009621620178
1782987778236875000,5.923875,0.3433684706687927,0.23565927147865295,-0.45049646496772766
1782987778246949000,5.93394921875,0.33129894733428955,0.21554771065711975,-0.5178950428962708
1782987778257024000,5.94402392578125,0.33101746439933777,0.25523680448532104,-0.5647784471511841
1782987778267098000,5.95409814453125,0.3503701090812683,0.3377305269241333,-0.5786446332931519
1782987778277173000,5.964173095703125,0.36509284377098083,0.4591906666755676,-0.5664113759994507
1782987778287247000,5.9742470703125,0.3722413182258606,0.5610690116882324,-0.5296977758407593
1782987778297322000,5.984322021484375,0.3762160539627075,0.5944160223007202,-0.49015673995018005
1782987778307396000,5.99439599609375,0.38526293635368347,0.5693991780281067,-0.4425557255744934
1782987778317471000,6.004470947265625,0.4005281627178192,0.5073637366294861,-0.395890474319458
1782987778327545000,6.014545166015625,0.41549772024154663,0.42829906940460205,-0.3604027330875397
1782987778337620000,6.024619873046875,0.4303898513317108,0.3571489751338959,-0.3439265489578247
1782987778347694000,6.034694091796875,0.4450095295906067,0.37085825204849243,-0.3535260260105133
1782987778357769000,6.04476904296875,0.45800310373306274,0.5149006843566895,-0.3895769715309143
1782987778367843000,6.054843017578125,0.46843841671943665,0.6128069758415222,-0.45718643069267273
1782987778377918200,6.064918212890625,0.4657779335975647,0.5886443853378296,-0.5298454761505127
1782987778387992000,6.074991943359375,0.440901517868042,0.47053396701812744,-0.606686532497406
1782987778398067200,6.085067138671875,0.38846442103385925,0.2967429757118225,-0.6525618433952332
1782987778408141000,6.09514111328125,0.3404243588447571,0.16037243604660034,-0.6240277290344238
1782987778418216200,6.10521630859375,0.31251922249794006,0.12576785683631897,-0.5017417669296265
1782987778428290000,6.1152900390625,0.3007620573043823,0.33066225051879883,-0.29355883598327637
1782987778438365200,6.125365234375,0.2938106954097748,0.7229636907577515,-0.05598967894911766
1782987778448439000,6.13543896484375,0.3076831102371216,1.10561203956604,0.16740044951438904
1782987778458514200,6.14551416015625,0.3472861647605896,1.3649474382400513,0.34079912304878235
1782987778468588000,6.155588134765625,0.42107880115509033,1.4781358242034912,0.4545048177242279
1782987778478663200,6.1656630859375,0.525849461555481,1.4461020231246948,0.5291611552238464
1782987778488737000,6.175737060546875,0.6240522861480713,1.2947895526885986,0.569111704826355
1782987778498812200,6.185812255859375,0.7013228535652161,1.0273303985595703,0.5776867866516113
1782987778508886000,6.195885986328125,0.7297853827476501,0.7155587673187256,0.5593861937522888
1782987778518961200,6.205961181640625,0.7047034502029419,0.47369393706321716,0.5100873708724976
1782987778529036000,6.2160361328125,0.6528527736663818,0.3384722173213959,0.42453810572624207
1782987778539110100,6.226110107421875,0.6050112247467041,0.23092018067836761,0.3015221655368805
1782987778549185000,6.23618505859375,0.5719243884086609,0.130471333861351,0.16190007328987122
1782987778559259100,6.246259033203125,0.5428168177604675,0.04694075882434845,0.02509295754134655
1782987778569333000,6.2563330078125,0.5005219578742981,-0.03585287928581238,-0.09435608237981796
1782987778579408100,6.266408203125,0.4514031708240509,-0.11072339117527008,-0.18343323469161987
1782987778589483000,6.27648291015625,0.41033899784088135,-0.14823465049266815,-0.23066486418247223
1782987778599557000,6.28655712890625,0.38345012068748474,-0.1516522914171219,-0.23989778757095337
1782987778609632000,6.296632080078125,0.38485580682754517,-0.13122068345546722,-0.21277070045471191
1782987778619706000,6.3067060546875,0.40360793471336365,-0.08549181371927261,-0.15291056036949158
1782987778629781000,6.316781005859375,0.4294942319393158,-0.04812348634004593,-0.08154669404029846
1782987778639855000,6.326855224609375,0.45345601439476013,-0.03862372413277626,-0.019608229398727417
1782987778649930200,6.33693017578125,0.4748971164226532,-0.05486714094877243,0.04405117407441139
1782987778660004000,6.347004150390625,0.4996813237667084,-0.05558832362294197,0.10777556151151657
1782987778670079200,6.357079345703125,0.5107965469360352,-0.03943045809864998,0.17044390738010406
1782987778680153000,6.367153076171875,0.49530544877052307,0.011226591654121876,0.23076024651527405
1782987778690228200,6.377228271484375,0.4526563584804535,0.08565367013216019,0.2729133367538452
1782987778700302000,6.387302001953125,0.39008617401123047,0.14509248733520508,0.280666321516037
1782987778710377200,6.397377197265625,0.3254871368408203,0.18982483446598053,0.2717916667461395
1782987778720451000,6.407451171875,0.2567666471004486,0.26570841670036316,0.24955666065216064
1782987778730526200,6.417526123046875,0.18288461863994598,0.3322986960411072,0.20888803899288177
1782987778740600000,6.42760009765625,0.1029791310429573,0.3722674250602722,0.1534532755613327
1782987778750675200,6.43767529296875,0.027076376602053642,0.3822874426841736,0.07215458899736404
1782987778760749000,6.4477490234375,-0.037119656801223755,0.34994709491729736,-0.022037683054804802
1782987778770824200,6.45782421875,-0.07957399636507034,0.26827698945999146,-0.13082349300384521
1782987778780898000,6.46789794921875,-0.09254997968673706,0.17722032964229584,-0.23381538689136505
1782987778790973200,6.47797314453125,-0.08091924339532852,0.07323816418647766,-0.3275827467441559
1782987778801047000,6.488047119140625,-0.04956531897187233,-0.020437194034457207,-0.3928368389606476
1782987778811122200,6.4981220703125,-0.012795494869351387,-0.0616394467651844,-0.42821744084358215
1782987778821196000,6.508196044921875,0.02347063459455967,-0.05283556878566742,-0.43256503343582153
1782987778831271200,6.518271240234375,0.05283588543534279,-0.046289362013339996,-0.4328465759754181
1782987778841345000,6.528344970703125,0.06692986935377121,-0.0719960555434227,-0.4233124554157257
1782987778851420200,6.538420166015625,0.07852198928594589,-0.10054139047861099,-0.4145200550556183
1782987778861494000,6.548493896484375,0.07682475447654724,-0.13759049773216248,-0.39908891916275024
1782987778871569200,6.558569091796875,0.07266046106815338,-0.19167359173297882,-0.37409982085227966
1782987778881643000,6.56864306640625,0.07658995687961578,-0.24563083052635193,-0.32694321870803833
1782987778891718100,6.57871826171875,0.09876157343387604,-0.287295401096344,-0.2602675259113312
1782987778901792000,6.5887919921875,0.13544821739196777,-0.32205525040626526,-0.17299814522266388
1782987778911867100,6.5988671875,0.18043042719364166,-0.3555024266242981,-0.08516465872526169
1782987778921941000,6.60894091796875,0.21887396275997162,-0.3805321455001831,0.0023028720170259476
1782987778932016000,6.61901611328125,0.24865145981311798,-0.3109075129032135,0.08048056066036224
1782987778942090000,6.629090087890625,0.2687932252883911,-0.13473407924175262,0.14051219820976257
1782987778952165000,6.6391650390625,0.2895320653915405,-0.027803100645542145,0.17729541659355164
1782987778962239000,6.649239013671875,0.31470876932144165,-0.10764653235673904,0.17532575130462646
1782987778972314000,6.659314208984375,0.3212333619594574,-0.3390006124973297,0.1307717263698578
1782987778982388000,6.669387939453125,0.27363309264183044,-0.6126750111579895,0.04719560593366623
1782987778992463000,6.679463134765625,0.1927478164434433,-0.7965810894966125,-0.060339026153087616
1782987779002536000,6.689535888671875,0.10967528820037842,-0.825995683670044,-0.14911524951457977
1782987779012611000,6.699611083984375,0.039041515439748764,-0.7510647177696228,-0.1927948296070099
1782987779022685000,6.709684814453125,-0.015839310362935066,-0.6002938151359558,-0.17496258020401
1782987779032760000,6.719760009765625,-0.05117066949605942,-0.395962655544281,-0.10446426272392273
1782987779042834000,6.729833984375,-0.057842954993247986,-0.1529843807220459,0.0039977640844881535
1782987779052909000,6.739908935546875,-0.027553047984838486,0.12151910364627838,0.14427530765533447
1782987779062983000,6.74998291015625,0.027100076898932457,0.39571523666381836,0.28246834874153137
1782987779073058000,6.76005810546875,0.08918918669223785,0.5802133083343506,0.3954511284828186
1782987779083132000,6.7701318359375,0.14374378323554993,0.6028557419776917,0.46643131971359253
1782987779093207000,6.78020703125,0.18824191391468048,0.4683375060558319,0.5002831816673279
1782987779103281000,6.790281005859375,0.2055460810661316,0.23212148249149323,0.4909980595111847
1782987779113356000,6.80035595703125,0.1757599413394928,-0.046483248472213745,0.4553086757659912
1782987779123430000,6.810429931640625,0.12349115312099457,-0.2633654773235321,0.3881346881389618
1782987779133505000,6.820505126953125,0.05602191761136055,-0.3391972482204437,0.2928297817707062
1782987779143579000,6.830578857421875,-0.010174678638577461,-0.2957474887371063,0.1804148256778717
1782987779153654000,6.840654052734375,-0.06155326962471008,-0.19949889183044434,0.06541745364665985
1782987779163728000,6.850727783203125,-0.10267726331949234,-0.053391482681035995,-0.03149738162755966
1782987779173803000,6.860802978515625,-0.11786270141601562,0.11924989521503448,-0.09974498301744461
1782987779183876900,6.870876953125,-0.09957903623580933,0.2832270860671997,-0.11968007683753967
1782987779193952000,6.880951904296875,-0.05191395804286003,0.39919957518577576,-0.10422226786613464
1782987779204025900,6.89102587890625,0.013232287019491196,0.4425688683986664,-0.050381138920784
1782987779214101000,6.90110107421875,0.07592727243900299,0.4113446772098541,0.02021230198442936
1782987779224175000,6.911175048828125,0.12363886833190918,0.3198094367980957,0.08079947531223297
1782987779234250000,6.92125,0.14345358312129974,0.20542685687541962,0.1247219443321228
1782987779244324000,6.931323974609375,0.14603738486766815,0.11039221286773682,0.14127162098884583
1782987779254399000,6.94139892578125,0.1426156610250473,0.0481397807598114,0.1293010413646698
1782987779264473000,6.95147314453125,0.1481957882642746,0.019821591675281525,0.08008289337158203
1782987779274548000,6.9615478515625,0.1688517928123474,-0.00529827643185854,0.01746886596083641
1782987779284622000,6.9716220703125,0.18750376999378204,-0.028585489839315414,-0.0549832284450531
1782987779294697000,6.981697021484375,0.2030530869960785,-0.024504508823156357,-0.11788961291313171
1782987779304771000,6.99177099609375,0.2033495008945465,0.010585036128759384,-0.15051600337028503
1782987779314846000,7.001845947265625,0.1872272491455078,0.06610309332609177,-0.16757912933826447
1782987779324920000,7.011920166015625,0.162462517619133,0.12101534754037857,-0.1622709184885025
1782987779334995000,7.021994873046875,0.14431564509868622,0.14745855331420898,-0.13177704811096191
1782987779345069000,7.032069091796875,0.12419227510690689,0.1530703604221344,-0.07354516535997391
1782987779355144000,7.04214404296875,0.10472501069307327,0.15122422575950623,-0.00579021405428648
1782987779365218000,7.052218017578125,0.09531925618648529,0.1440480649471283,0.07180524617433548
1782987779375293000,7.06229296875,0.0899772197008133,0.14645756781101227,0.13928577303886414
1782987779385367000,7.072366943359375,0.09148696810007095,0.1605139970779419,0.18509399890899658
1782987779395442000,7.08244189453125,0.09120174497365952,0.17925871908664703,0.20808959007263184
1782987779405516000,7.09251611328125,0.08879531174898148,0.18498185276985168,0.20418646931648254
1782987779415591000,7.1025908203125,0.08145581930875778,0.16911156475543976,0.18542897701263428
1782987779425665000,7.1126650390625,0.07319176197052002,0.16250079870224,0.15433497726917267
1782987779435740000,7.122739990234375,0.06208132207393646,0.18534965813159943,0.12618616223335266
1782987779445815000,7.13281494140625,0.047884006053209305,0.23680365085601807,0.10048018395900726
1782987779455889000,7.142888916015625,0.037173572927713394,0.28881633281707764,0.07888566702604294
1782987779465964000,7.152964111328125,0.03414689004421234,0.3415714204311371,0.07075663655996323
1782987779476038000,7.163037841796875,0.0386616587638855,0.38934120535850525,0.07329114526510239
1782987779486113000,7.173113037109375,0.05150741711258888,0.4202836751937866,0.09397085756063461
1782987779496187000,7.183186767578125,0.06717204302549362,0.4173176884651184,0.12260300666093826
1782987779506262000,7.193261962890625,0.09330963343381882,0.37890106439590454,0.1484827995300293
1782987779516336000,7.203336181640625,0.12874147295951843,0.33611801266670227,0.17647461593151093
1782987779526411000,7.213410888671875,0.1615644097328186,0.32210925221443176,0.20400077104568481
1782987779536485000,7.223485107421875,0.19894826412200928,0.43127667903900146,0.20909585058689117
1782987779546560000,7.23356005859375,0.25238513946533203,0.618847668170929,0.20561642944812775
1782987779556634000,7.243634033203125,0.32510772347450256,0.7235490679740906,0.17917759716510773
1782987779566709000,7.253708984375,0.38343867659568787,0.636103093624115,0.09577937424182892
1782987779576783000,7.263783203125,0.4144415855407715,0.34575116634368896,-0.05367126688361168
1782987779586858000,7.27385791015625,0.40972620248794556,0.020333915948867798,-0.23959985375404358
1782987779596932000,7.28393212890625,0.3734661042690277,-0.1642562747001648,-0.3967318832874298
1782987779607007000,7.294007080078125,0.33066296577453613,-0.19757455587387085,-0.4962851107120514
1782987779617081000,7.3040810546875,0.27587980031967163,-0.09463783353567123,-0.5453922748565674
1782987779627156000,7.314156005859375,0.2160540223121643,0.10031114518642426,-0.5384035706520081
1782987779637230000,7.32422998046875,0.16935744881629944,0.337304025888443,-0.4547472596168518
1782987779647305000,7.334304931640625,0.15842889249324799,0.6099736094474792,-0.29450884461402893
1782987779657379000,7.344379150390625,0.174541637301445,0.8968284130096436,-0.08245693892240524
1782987779667454000,7.354453857421875,0.20224730670452118,1.1142678260803223,0.143761545419693
1782987779677528000,7.364528076171875,0.2356072962284088,1.166477918624878,0.3378392159938812
1782987779687603000,7.37460302734375,0.27247053384780884,1.0422366857528687,0.4786410629749298
1782987779697677000,7.384677001953125,0.3009200096130371,0.789662778377533,0.5443251729011536
1782987779707752000,7.394751953125,0.32673028111457825,0.48639798164367676,0.5338677763938904
1782987779717826000,7.404825927734375,0.35221248865127563,0.20330454409122467,0.4541327953338623
1782987779727901000,7.41490087890625,0.3869268000125885,-0.005775160156190395,0.3015107810497284
1782987779737975000,7.42497509765625,0.43884554505348206,-0.12838754057884216,0.10573678463697433
1782987779748050000,7.4350498046875,0.5004162192344666,-0.18605536222457886,-0.10978618264198303
1782987779758124000,7.4451240234375,0.5672630071640015,-0.18506328761577606,-0.3036423325538635
1782987779768199000,7.455198974609375,0.6299466490745544,-0.13814319670200348,-0.4461294412612915
1782987779778273000,7.46527294921875,0.6576853394508362,-0.04792388156056404,-0.5217615365982056
1782987779788348200,7.47534814453125,0.637309730052948,0.04565107449889183,-0.5245288014411926
1782987779798422000,7.485422119140625,0.5768752098083496,0.14918802678585052,-0.47195541858673096
1782987779808497200,7.4954970703125,0.4962770640850067,0.23558124899864197,-0.37061282992362976
1782987779818571000,7.505571044921875,0.42037448287010193,0.2975475788116455,-0.23557648062705994
1782987779828646100,7.515646240234375,0.36859679222106934,0.34129050374031067,-0.08843335509300232
1782987779838720000,7.525719970703125,0.34610435366630554,0.37455570697784424,0.044369276612997055
1782987779848795100,7.535795166015625,0.3382442891597748,0.3692930340766907,0.13662463426589966
1782987779858869000,7.545868896484375,0.3435959219932556,0.3316783308982849,0.1739172339439392
1782987779868944100,7.555944091796875,0.35183680057525635,0.2844085693359375,0.16483746469020844
1782987779879018000,7.56601806640625,0.3461146354675293,0.23444803059101105,0.12514851987361908
1782987779889093000,7.576093017578125,0.3314070701599121,0.18917962908744812,0.06268861144781113
1782987779899167000,7.5861669921875,0.306662380695343,0.15167222917079926,-0.00887299794703722
1782987779909242000,7.5962421875,0.27892929315567017,0.13348843157291412,-0.07360432296991348
1782987779919316000,7.60631591796875,0.2349231243133545,0.1353948712348938,-0.11563088744878769
1782987779929390000,7.61639013671875,0.19555015861988068,0.13277432322502136,-0.14986449480056763
1782987779939464200,7.626464111328125,0.15781858563423157,0.13780641555786133,-0.1717444658279419
1782987779949539000,7.6365390625,0.12961997091770172,0.15163567662239075,-0.18063250184059143
1782987779959613200,7.64661328125,0.10039053857326508,0.1830156147480011,-0.1745004653930664
1782987779969688000,7.65668798828125,0.07908152043819427,0.18926526606082916,-0.1554681807756424
1782987779979762200,7.66676220703125,0.06270627677440643,0.15720772743225098,-0.1398538053035736
1782987779989837000,7.676837158203125,0.05654505267739296,0.09854653477668762,-0.14153346419334412
1782987779999911200,7.6869111328125,0.057465795427560806,0.040339935570955276,-0.14874260127544403
1782987780009986000,7.696986083984375,0.05858858302235603,0.0022301021963357925,-0.16604968905448914
1782987780020060200,7.70706005859375,0.05700816959142685,-0.0030916703399270773,-0.1797417253255844
1782987780030135000,7.717135009765625,0.0631243884563446,0.010013745166361332,-0.18303632736206055
1782987780040209200,7.727209228515625,0.06130332127213478,0.010183987207710743,-0.19086095690727234
1782987780050284000,7.737283935546875,0.06730608642101288,-0.04089251160621643,-0.1876174956560135
1782987780060358100,7.747358154296875,0.07600618898868561,-0.11359497159719467,-0.17203594744205475
1782987780070433000,7.75743310546875,0.09606911242008209,-0.18624520301818848,-0.15423351526260376
1782987780080507100,7.767507080078125,0.11080216616392136,-0.21712839603424072,-0.12801524996757507
1782987780090582000,7.77758203125,0.1163114458322525,-0.21532995998859406,-0.09618434309959412
1782987780100656000,7.78765625,0.10396520793437958,-0.18978914618492126,-0.07745063304901123
1782987780110731000,7.79773095703125,0.07683611661195755,-0.18232138454914093,-0.0654325857758522
1782987780120805000,7.80780517578125,0.0450994074344635,-0.16831527650356293,-0.061074092984199524
1782987780130880000,7.8178798828125,0.024253515526652336,-0.09133847057819366,-0.04907921701669693
1782987780140954000,7.8279541015625,0.008488131687045097,0.10059502720832825,-0.017095355316996574
1782987780151029000,7.838029052734375,-0.01358388178050518,0.19472737610340118,0.022866707295179367
1782987780161103000,7.84810302734375,-0.024348201230168343,0.11171820759773254,0.05373191833496094
1782987780171178000,7.858177978515625,-0.011718693189322948,-0.035582300275564194,0.07367287576198578
1782987780181253000,7.868253173828125,0.009950563311576843,-0.17449940741062164,0.07490508258342743
1782987780191327000,7.878326904296875,0.025244299322366714,-0.22272339463233948,0.04663722217082977
1782987780201401000,7.888401123046875,0.027210330590605736,-0.1480853408575058,0.008285697549581528
1782987780211476000,7.89847607421875,0.01844133995473385,-0.07178551703691483,-0.031382884830236435
1782987780221550000,7.908550048828125,0.006691829767078161,-0.05721598118543625,-0.06909073889255524
1782987780231625000,7.918625,0.0022885596845299006,-0.0482400618493557,-0.08129121363162994
1782987780241700000,7.9287001953125,0.014296308159828186,0.038080088794231415,-0.05286228656768799
1782987780251774000,7.93877392578125,0.04200037196278572,0.2190685123205185,0.02559124119579792
1782987780261849000,7.94884912109375,0.08261189609766006,0.4488885998725891,0.14473268389701843
1782987780271923000,7.9589228515625,0.12842997908592224,0.5905666351318359,0.29631930589675903
1782987780281998000,7.968998046875,0.17222769558429718,0.6099238991737366,0.44724318385124207
1782987780292072000,7.979072021484375,0.2164899706840515,0.5203948616981506,0.5787750482559204
1782987780302148000,7.989148193359375,0.2608756422996521,0.3463939428329468,0.667637050151825
1782987780312222000,7.999221923828125,0.28540337085723877,0.12841393053531647,0.6908603310585022
1782987780322296000,8.009296142578124,0.2843472361564636,-0.0921524167060852,0.6530330777168274
1782987780332371000,8.019370849609375,0.25228196382522583,-0.24836492538452148,0.5574021339416504
1782987780342446000,8.029446044921874,0.19765841960906982,-0.3189660608768463,0.4143412113189697
1782987780352520000,8.03952001953125,0.13159418106079102,-0.3085075616836548,0.23901651799678802
1782987780362595000,8.049594970703126,0.06357890367507935,-0.23762591183185577,0.057363905012607574
1782987780372669000,8.0596689453125,-0.006557839456945658,-0.10387851297855377,-0.10199593007564545
1782987780382744000,8.069744140625,-0.07431203871965408,0.034995127469301224,-0.22432313859462738
1782987780392818000,8.07981787109375,-0.12862107157707214,0.12979993224143982,-0.28193822503089905
1782987780402893000,8.08989306640625,-0.1631201058626175,0.1963760107755661,-0.2769891619682312
1782987780412967000,8.099966796875,-0.1701151579618454,0.19867005944252014,-0.21537241339683533
1782987780423042000,8.1100419921875,-0.15561042726039886,0.1700552999973297,-0.13098257780075073
1782987780433116200,8.1201162109375,-0.12646159529685974,0.12120706588029861,-0.04923044890165329
1782987780443191000,8.13019091796875,-0.09603366255760193,0.0580948069691658,-0.0006995816365815699
1782987780453265200,8.14026513671875,-0.06856448203325272,-0.025867735967040062,0.002697546500712633
1782987780463340000,8.150340087890624,-0.04160841181874275,-0.11004674434661865,-0.048444606363773346
1782987780473414100,8.1604140625,-0.016886290162801743,-0.15679402649402618,-0.13398267328739166
1782987780483489000,8.170489013671874,0.008878730237483978,-0.15483611822128296,-0.21984653174877167
1782987780493563100,8.180563232421875,0.015797089785337448,-0.11428710073232651,-0.3069939613342285
1782987780503638000,8.190637939453126,0.007425791583955288,-0.07010242342948914,-0.37355563044548035
1782987780513712000,8.200712158203125,0.006099803373217583,-0.03420060873031616,-0.41123828291893005
1782987780523787000,8.210787109375,0.017844704911112785,-0.004141665529459715,-0.40933093428611755
1782987780533861000,8.220861083984374,0.044737037271261215,0.007714461535215378,-0.37852561473846436
1782987780543936000,8.23093603515625,0.07450372725725174,-0.012583889067173004,-0.3353649377822876
1782987780554010000,8.241010009765626,0.11525754630565643,-0.06749933958053589,-0.27208608388900757
1782987780564085000,8.2510849609375,0.14738582074642181,-0.09544872492551804,-0.20232824981212616
1782987780574159000,8.2611591796875,0.1772902011871338,-0.06759312003850937,-0.12229225784540176
1782987780584234000,8.27123388671875,0.19920039176940918,-0.0028901142068207264,-0.04460826888680458
1782987780594308000,8.28130810546875,0.20629051327705383,0.054355598986148834,0.01906631514430046
1782987780604383000,8.291383056640624,0.2119542509317398,0.10406776517629623,0.0592186264693737
1782987780614457000,8.30145703125,0.21451808512210846,0.1393067091703415,0.07065290957689285
1782987780624532000,8.311531982421876,0.21005141735076904,0.14280302822589874,0.06141555309295654
1782987780634606000,8.321606201171875,0.20051145553588867,0.1281290203332901,0.041445840150117874
1782987780644681000,8.331680908203126,0.1904093623161316,0.1278974413871765,0.013833769597113132
1782987780654755000,8.341755126953124,0.17932182550430298,0.15643428266048431,-0.011568259447813034
1782987780664830000,8.351829833984375,0.17332927882671356,0.22895359992980957,-0.0176897794008255
1782987780674904000,8.361904052734374,0.17650297284126282,0.32806605100631714,-0.0007888257969170809
1782987780684979200,8.371979248046875,0.1802988499403,0.40358856320381165,0.033210545778274536
1782987780695053000,8.382052978515626,0.19143779575824738,0.4119921624660492,0.08286944031715393
1782987780705128200,8.392128173828125,0.21058174967765808,0.35600417852401733,0.1352822631597519
1782987780715202000,8.4022021484375,0.2294587641954422,0.26332324743270874,0.16585801541805267
1782987780725277200,8.412277099609375,0.2342163324356079,0.17279718816280365,0.17646656930446625
1782987780735351000,8.42235107421875,0.22552110254764557,0.09720920771360397,0.1581283062696457
1782987780745426200,8.43242626953125,0.20765282213687897,0.057954706251621246,0.1078232005238533
1782987780755500000,8.4425,0.18060149252414703,0.11241129040718079,0.04070381820201874
1782987780765575200,8.4525751953125,0.1532089114189148,0.3082480728626251,-0.03318027779459953
1782987780775649000,8.46264892578125,0.13607893884181976,0.4247208833694458,-0.09308408945798874
1782987780785724200,8.47272412109375,0.1383703202009201,0.29037392139434814,-0.1686503142118454
1782987780795798000,8.482798095703124,0.12303530424833298,0.03587053343653679,-0.26861685514450073
1782987780805873200,8.492873046875,0.09981662780046463,-0.23033280670642853,-0.3684491515159607
1782987780815947000,8.502947021484376,0.07265345007181168,-0.36287832260131836,-0.42725732922554016
1782987780826022100,8.513022216796875,0.04629969224333763,-0.3279392123222351,-0.43320727348327637
1782987780836096000,8.523095947265626,0.015975873917341232,-0.16006499528884888,-0.3824996054172516
1782987780846171100,8.533171142578125,-0.0016964159440249205,0.11057789623737335,-0.26492515206336975
1782987780856245000,8.543244873046875,-0.001239950186572969,0.45135998725891113,-0.07726072520017624
1782987780866320100,8.553320068359374,0.0035508088767528534,0.7751861214637756,0.13654787838459015
1782987780876394000,8.56339404296875,0.010854793712496758,0.9820013642311096,0.33021268248558044
1782987780886469000,8.57346923828125,0.030324190855026245,1.0101757049560547,0.47389522194862366
1782987780896543000,8.58354296875,0.05766739696264267,0.8850734829902649,0.554519772529602
1782987780906618000,8.5936181640625,0.07313095033168793,0.6568087339401245,0.5545378923416138
1782987780916692000,8.60369189453125,0.07874462753534317,0.35029810667037964,0.46231895685195923
1782987780926767000,8.61376708984375,0.09383472055196762,0.023361552506685257,0.2917059063911438
1782987780936841000,8.623841064453124,0.12135503441095352,-0.2474566251039505,0.058400195091962814
1782987780946916000,8.633916015625,0.16415850818157196,-0.4354470670223236,-0.201299250125885
1782987780956990000,8.643989990234376,0.1954093724489212,-0.5510714054107666,-0.44365328550338745
1782987780967065000,8.654065185546875,0.2105858325958252,-0.5924570560455322,-0.6392965316772461
1782987780977139000,8.664138916015625,0.20856715738773346,-0.5982520580291748,-0.7714284658432007
1782987780987214000,8.674214111328125,0.190639466047287,-0.5445736050605774,-0.8294145464897156
1782987780997288000,8.684287841796875,0.15972895920276642,-0.42709434032440186,-0.8000731468200684
1782987781007362800,8.69436279296875,0.11880070716142654,-0.25652241706848145,-0.6838387846946716
1782987781017437000,8.70443701171875,0.07270511239767075,-0.07134455442428589,-0.5061824917793274
1782987781027512000,8.714511962890626,0.030454954132437706,0.07719887793064117,-0.2985902428627014
1782987781037586000,8.7245859375,0.003037176327779889,0.14604665338993073,-0.09037845581769943
1782987781047661000,8.7346611328125,-0.0017953971400856972,0.15496225655078888,0.08196739852428436
1782987781057735000,8.74473486328125,0.016527948901057243,0.1252661496400833,0.2104763686656952
1782987781067810000,8.75481005859375,0.03581136465072632,0.10288740694522858,0.2812228202819824
1782987781077884000,8.7648837890625,0.04977964609861374,0.07790855318307877,0.30017226934432983
1782987781087959000,8.774958984375,0.04416623339056969,0.03583120182156563,0.2672473192214966
1782987781098033000,8.785032958984376,0.02276613935828209,-0.03733142465353012,0.19396673142910004
1782987781108108000,8.79510791015625,-0.00441612396389246,-0.11422690004110336,0.10357622802257538
1782987781118182000,8.805181884765625,-0.02501806989312172,-0.15272927284240723,0.019785985350608826
1782987781128257000,8.815257080078124,-0.03605572506785393,-0.16769100725650787,-0.04493198171257973
1782987781138331000,8.825330810546875,-0.05195959284901619,-0.1799202412366867,-0.08917374908924103
1782987781148406000,8.835406005859374,-0.06874469667673111,-0.2028370052576065,-0.10761240869760513
1782987781158480000,8.84547998046875,-0.08539238572120667,-0.21724151074886322,-0.10052067786455154
1782987781168555000,8.855554931640626,-0.10775601118803024,-0.18927033245563507,-0.07300196588039398
1782987781178628900,8.86562890625,-0.13118304312229156,-0.15674354135990143,-0.030182331800460815
1782987781188704000,8.8757041015625,-0.16045358777046204,-0.15148180723190308,0.011959346942603588
1782987781198777900,8.88577783203125,-0.18883195519447327,-0.16955456137657166,0.04835064336657524
1782987781208853000,8.89585302734375,-0.2224876433610916,-0.19579321146011353,0.06819553673267365
1782987781218926800,8.9059267578125,-0.2484436184167862,-0.21821463108062744,0.07326832413673401
1782987781229002000,8.916001953125,-0.2598121166229248,-0.21574833989143372,0.06615503877401352
1782987781239075800,8.926075927734376,-0.26255515217781067,-0.1938028335571289,0.061411142349243164
1782987781249151000,8.93615087890625,-0.2678520977497101,-0.17101839184761047,0.056075166910886765
1782987781259225900,8.946225830078125,-0.27317896485328674,-0.16818106174468994,0.06313174217939377
1782987781269300000,8.956300048828124,-0.26700717210769653,-0.18609178066253662,0.08836241811513901
1782987781279375000,8.966375,-0.25405195355415344,-0.2500356137752533,0.13028883934020996
1782987781289449000,8.976448974609376,-0.23451456427574158,-0.3447950482368469,0.16868527233600616
1782987781299524000,8.986524169921875,-0.22580577433109283,-0.43837881088256836,0.19472992420196533
1782987781309598000,8.996597900390626,-0.24214355647563934,-0.5593369007110596,0.17869865894317627
1782987781319673000,9.006673095703125,-0.28973904252052307,-0.6909694671630859,0.11839643120765686
1782987781329747000,9.016746826171875,-0.35502561926841736,-0.762850821018219,0.016588306054472923
1782987781339822000,9.026822021484374,-0.42459937930107117,-0.667524516582489,-0.07177671045064926
1782987781349896000,9.03689599609375,-0.49524763226509094,-0.5147164463996887,-0.137027770280838
1782987781359971000,9.04697119140625,-0.5673037171363831,-0.4263370633125305,-0.2047458291053772
1782987781370045000,9.057044921875,-0.6189468502998352,-0.4378170073032379,-0.27076512575149536
1782987781380120000,9.0671201171875,-0.6275690793991089,-0.5305509567260742,-0.3027121424674988
1782987781390194000,9.07719384765625,-0.6177899241447449,-0.5998370051383972,-0.3155502676963806
1782987781400269000,9.08726904296875,-0.622036337852478,-0.6185505390167236,-0.3147188425064087
1782987781410343000,9.097343017578124,-0.6532249450683594,-0.6367006897926331,-0.31575408577919006
1782987781420418000,9.10741796875,-0.6944924592971802,-0.6469935774803162,-0.3202438950538635
1782987781430492000,9.117491943359376,-0.7332120537757874,-0.5975421667098999,-0.30618754029273987
1782987781440567000,9.127567138671875,-0.7354602813720703,-0.4541458785533905,-0.24461977183818817
1782987781450641000,9.137640869140625,-0.7041001915931702,-0.15541380643844604,-0.11188521236181259
1782987781460716000,9.147716064453125,-0.6343293786048889,0.25805285573005676,0.08219291269779205
1782987781470790000,9.157789794921875,-0.543601930141449,0.6096378564834595,0.3053009808063507
1782987781480865000,9.167864990234374,-0.4410873055458069,0.7272204160690308,0.5224684476852417
1782987781490939000,9.17793896484375,-0.3439326584339142,0.5793746709823608,0.6899060010910034
1782987781501014000,9.188013916015626,-0.26203566789627075,0.25094833970069885,0.7771325707435608
1782987781511087900,9.198087890625,-0.19560694694519043,-0.16485142707824707,0.7643457055091858
1782987781521163000,9.2081630859375,-0.16169610619544983,-0.5578450560569763,0.6619692444801331
1782987781531236900,9.21823681640625,-0.16886498034000397,-0.803808331489563,0.4768350422382355
1782987781541312000,9.22831201171875,-0.23398859798908234,-0.8620050549507141,0.2484452724456787
1782987781551385900,9.2383857421875,-0.33515259623527527,-0.7526254653930664,-0.0026928952429443598
1782987781561461000,9.2484609375,-0.43922626972198486,-0.5087259411811829,-0.22549109160900116
1782987781571534800,9.258534912109376,-0.5070920586585999,-0.18277746438980103,-0.38246282935142517
1782987781581610000,9.26860986328125,-0.5366544723510742,0.15778064727783203,-0.436050146818161
1782987781591683800,9.278683837890625,-0.5283616185188293,0.40297815203666687,-0.3871897757053375
1782987781601759000,9.288759033203124,-0.48178136348724365,0.5019955039024353,-0.27119073271751404
1782987781611832800,9.298832763671875,-0.40773332118988037,0.4398772716522217,-0.11933118849992752
1782987781621908000,9.308907958984374,-0.32794901728630066,0.316610723733902,0.025146635249257088
1782987781631981800,9.31898193359375,-0.24065697193145752,0.1679176688194275,0.14113342761993408
1782987781642057000,9.329056884765626,-0.15306054055690765,0.043326471000909805,0.20676569640636444
1782987781652130800,9.339130859375,-0.06397497653961182,-0.03732580691576004,0.21918435394763947
1782987781662206000,9.3492060546875,0.015824517235159874,-0.06030010059475899,0.17739349603652954
1782987781672280000,9.359280029296874,0.08350805193185806,-0.060958653688430786,0.10909133404493332
1782987781682355000,9.36935498046875,0.13326016068458557,-0.060778360813856125,0.03442748636007309
1782987781692429000,9.379428955078126,0.167876198887825,-0.04558076336979866,-0.020227504894137383
1782987781702504000,9.38950390625,0.18163008987903595,-0.011704823933541775,-0.04913558438420296
1782987781712578000,9.399578125,0.1687738597393036,0.033024854958057404,-0.05880439653992653
1782987781722653000,9.40965283203125,0.1552031934261322,0.053724005818367004,-0.04594958573579788
1782987781732727000,9.41972705078125,0.13517612218856812,0.06496616452932358,-0.014352095313370228
1782987781742802000,9.429802001953124,0.12141343951225281,0.05908617004752159,0.022237075492739677
1782987781752876000,9.4398759765625,0.11681859940290451,0.0664387121796608,0.06254088133573532
1782987781762951000,9.449950927734376,0.12993121147155762,0.12692630290985107,0.11399474740028381
1782987781773025000,9.46002490234375,0.14751240611076355,0.2308005392551422,0.16551505029201508
1782987781783100000,9.470099853515626,0.1608434021472931,0.33482256531715393,0.2016352415084839
1782987781793174000,9.480174072265624,0.17570428550243378,0.4021624028682709,0.22797361016273499
1782987781803249000,9.490248779296875,0.18455477058887482,0.4297362267971039,0.24659575521945953
1782987781813323000,9.500322998046874,0.1985091120004654,0.4388619661331177,0.25595664978027344
1782987781823398000,9.51039794921875,0.23027023673057556,0.4459872543811798,0.26205289363861084
1782987781833472000,9.520471923828126,0.27584660053253174,0.44506779313087463,0.25416499376296997
1782987781843547000,9.530546875,0.326935350894928,0.4549773931503296,0.23449009656906128
1782987781853621000,9.54062109375,0.3730785846710205,0.4912448227405548,0.21692124009132385
1782987781863696000,9.55069580078125,0.41013434529304504,0.522966742515564,0.19191282987594604
1782987781873770000,9.56077001953125,0.4383431077003479,0.52508145570755,0.162043958902359
1782987781883844900,9.570844970703124,0.4650871157646179,0.5205159783363342,0.13112331926822662
1782987781893919000,9.5809189453125,0.4803558886051178,0.5261436700820923,0.09860730916261673
1782987781903993900,9.590993896484376,0.49306023120880127,0.536331057548523,0.05744495242834091
1782987781914068000,9.60106787109375,0.5040056109428406,0.5487011671066284,0.01644926145672798
1782987781924143000,9.61114306640625,0.5329341888427734,0.5880738496780396,-0.01563570462167263
1782987781934217000,9.621217041015624,0.5829546451568604,0.7104156017303467,-0.031006552278995514
1782987781944292000,9.6312919921875,0.6535241007804871,0.9018992781639099,-0.014985508285462856
1782987781954366000,9.641365966796876,0.752127468585968,0.9721168875694275,0.001762958476319909
1782987781964441000,9.651441162109375,0.8452649116516113,0.8049017786979675,-0.05108800530433655
1782987781974515000,9.661514892578126,0.922510027885437,0.4150819182395935,-0.19545090198516846
1782987781984590000,9.671590087890625,0.9830586314201355,-0.02440277487039566,-0.3517475426197052
1782987781994664000,9.681663818359375,1.0269861221313477,-0.33022433519363403,-0.4600571095943451
1782987782004738800,9.69173876953125,1.024901032447815,-0.33314821124076843,-0.5040535926818848
1782987782014813000,9.70181298828125,1.021217703819275,-0.026194127276539803,-0.44670721888542175
1782987782024887800,9.7118876953125,1.0363070964813232,0.5399570465087891,-0.2721029818058014
1782987782034962000,9.7219619140625,1.0608272552490234,1.217506766319275,0.0000825945899123326
1782987782045036800,9.732036865234376,1.0969711542129517,1.633151650428772,0.2832679748535156
1782987782055111000,9.74211083984375,1.1542643308639526,1.5856291055679321,0.5166910886764526
1782987782065185800,9.752185791015625,1.243251919746399,1.2238717079162598,0.6587600708007812
1782987782075260000,9.762260009765624,1.3287479877471924,0.7745153307914734,0.6904725432395935
1782987782085334800,9.772334716796875,1.3854354619979858,0.35636043548583984,0.6132294535636902
1782987782095409000,9.782408935546876,1.4038408994674683,0.06353345513343811,0.44670456647872925
1782987782105483800,9.79248388671875,1.3760813474655151,-0.04820000380277634,0.20619554817676544
1782987782115558000,9.802557861328125,1.301029086112976,-0.012170209549367428,-0.06060181185603142
1782987782125632800,9.8126328125,1.2241079807281494,0.12448510527610779,-0.3094443678855896
1782987782135707000,9.822706787109375,1.163588047027588,0.3026703894138336,-0.4782341718673706
1782987782145781800,9.83278173828125,1.1146948337554932,0.4527333974838257,-0.5553039312362671
1782987782155856000,9.84285595703125,1.0698130130767822,0.5755646228790283,-0.5304285883903503
1782987782165930800,9.8529306640625,1.037250280380249,0.680351197719574,-0.43281683325767517
1782987782176004900,9.8630048828125,1.0199247598648071,0.7690156698226929,-0.2861555814743042
1782987782186079700,9.873079833984375,1.0175987482070923,0.8101775050163269,-0.12802453339099884
1782987782196153900,9.88315380859375,1.0276182889938354,0.8018293976783752,0.0034856447018682957
1782987782206228700,9.893228759765625,1.0521230697631836,0.789673924446106,0.10241009294986725
1782987782216302800,9.903302734375,1.0861304998397827,0.8014733791351318,0.16125980019569397
1782987782226377700,9.913377685546875,1.1177449226379395,0.7959760427474976,0.17695674300193787
1782987782236451800,9.923451904296876,1.142868161201477,0.7489159107208252,0.1401580572128296
1782987782246526700,9.933526611328125,1.1558390855789185,0.6701998114585876,0.05862298980355263
1782987782256600800,9.943600830078125,1.1610887050628662,0.5655374526977539,-0.060491569340229034
1782987782266676000,9.953676025390624,1.1672571897506714,0.4716000556945801,-0.1834249496459961
1782987782276749800,9.963749755859375,1.1635078191757202,0.4113796651363373,-0.29898229241371155
1782987782286825000,9.973824951171874,1.1454068422317505,0.3786084055900574,-0.4042743444442749
1782987782296898800,9.98389892578125,1.1299431324005127,0.372060626745224,-0.4760056734085083
1782987782306974000,9.993973876953126,1.1277159452438354,0.37327954173088074,-0.5054826140403748
1782987782317047800,10.0040478515625,1.1284921169281006,0.36056283116340637,-0.49545910954475403
1782987782327123000,10.014123046875,1.1225162744522095,0.31369200348854065,-0.4562062621116638
1782987782337197800,10.02419775390625,1.1008237600326538,0.26893851161003113,-0.408794105052948
1782987782347272000,10.03427197265625,1.0756068229675293,0.2456502616405487,-0.3625533878803253
1782987782357346800,10.044346923828124,1.0437543392181396,0.25903815031051636,-0.3336174190044403
1782987782367421000,10.0544208984375,1.0072091817855835,0.3127437233924866,-0.3155534565448761
1782987782377494800,10.064494873046876,0.9715030789375305,0.4052830636501312,-0.3098049461841583
1782987782387570000,10.07456982421875,0.9374846816062927,0.5067563652992249,-0.32185468077659607
1782987782397644800,10.084644775390625,0.924997091293335,0.5989887118339539,-0.3265928626060486
1782987782407719000,10.094718994140624,0.9445044994354248,0.7206991910934448,-0.2940961718559265
1782987782417793800,10.104793701171875,0.9873080849647522,0.8543143272399902,-0.20917534828186035
1782987782427868000,10.114867919921876,1.0324004888534546,0.9074206948280334,-0.08032095432281494
1782987782437942800,10.12494287109375,1.0776293277740479,0.8900326490402222,0.08385788649320602
1782987782448017000,10.135016845703126,1.1074767112731934,0.8728123903274536,0.2504809498786926
1782987782458091800,10.145091796875,1.1121467351913452,0.9626011252403259,0.37056586146354675
1782987782468166000,10.155165771484375,1.0913466215133667,1.1355606317520142,0.4284227788448334
1782987782478240800,10.16524072265625,1.0391192436218262,1.2405844926834106,0.392751008272171
1782987782488315000,10.17531494140625,0.9712589383125305,1.1377675533294678,0.26842960715293884
1782987782498389800,10.1853896484375,0.89301997423172,0.7616445422172546,0.040233418345451355
1782987782508463900,10.1954638671875,0.8236358165740967,0.2512124478816986,-0.2405196875333786
1782987782518539000,10.2055390625,0.7809611558914185,-0.09663036465644836,-0.47804638743400574
1782987782528612900,10.21561279296875,0.777917206287384,-0.10645662993192673,-0.6066511869430542
1782987782538688000,10.22568798828125,0.8096495270729065,0.24640002846717834,-0.5793169736862183
1782987782548761900,10.235761962890624,0.8577091693878174,0.8170850872993469,-0.40190091729164124
1782987782558837000,10.2458369140625,0.89621901512146,1.321365475654602,-0.14194130897521973
1782987782568910800,10.255910888671876,0.8954064846038818,1.5050506591796875,0.10376831144094467
1782987782578986000,10.265986083984375,0.8729879856109619,1.4002954959869385,0.24217288196086884
1782987782589059800,10.276059814453125,0.880368709564209,1.1791924238204956,0.2665490508079529
1782987782599135000,10.286135009765625,0.9228085875511169,0.9211686253547668,0.20587894320487976
1782987782609208800,10.296208740234375,0.9776734113693237,0.6819978356361389,0.08813128620386124
1782987782619284000,10.306283935546874,1.0229735374450684,0.5526579022407532,-0.031239144504070282
1782987782629357800,10.31635791015625,1.0610955953598022,0.5698949098587036,-0.11750638484954834
1782987782639433000,10.326432861328126,1.0953994989395142,0.7319570183753967,-0.1426052749156952
1782987782649506800,10.3365068359375,1.1317909955978394,0.97850102186203,-0.14997424185276031
1782987782659582000,10.34658203125,1.1709710359573364,1.169860601425171,-0.13748955726623535
1782987782669655800,10.35665576171875,1.2215287685394287,1.288636326789856,-0.0963439866900444
1782987782679731000,10.36673095703125,1.2750413417816162,1.379056692123413,0.00627781031653285
1782987782689804800,10.3768046875,1.3177738189697266,1.454776406288147,0.15729394555091858
1782987782699880000,10.3868798828125,1.351041316986084,1.4444658756256104,0.28551462292671204
1782987782709953800,10.396953857421876,1.3705675601959229,1.3181697130203247,0.3650856018066406
1782987782720029000,10.40702880859375,1.3908973932266235,1.1586332321166992,0.3769398331642151
1782987782730102800,10.417102783203125,1.4225059747695923,1.0469626188278198,0.31852632761001587
1782987782740178000,10.427177978515624,1.4519052505493164,0.9776582717895508,0.20823810994625092
1782987782750251800,10.437251708984375,1.4643936157226562,0.9289586544036865,0.06541623920202255
1782987782760327000,10.447326904296874,1.4677797555923462,0.9154141545295715,-0.08257599920034409
1782987782770400800,10.45740087890625,1.4513592720031738,0.9252135157585144,-0.19136691093444824
1782987782780476000,10.467475830078126,1.4236551523208618,0.9651533961296082,-0.24925847351551056
1782987782790549800,10.4775498046875,1.3801136016845703,0.986092746257782,-0.2762884795665741
1782987782800625000,10.487625,1.3345513343811035,0.9568685293197632,-0.2792208790779114
1782987782810698800,10.49769873046875,1.2965360879898071,0.9224953651428223,-0.259674608707428
1782987782820774000,10.50777392578125,1.2788203954696655,0.9445760846138,-0.22552582621574402
1782987782830847700,10.51784765625,1.295614242553711,1.0247902870178223,-0.18958327174186707
1782987782840923000,10.5279228515625,1.3419371843338013,1.0900605916976929,-0.1750105768442154
1782987782850996700,10.537996826171875,1.400068759918213,1.1284993886947632,-0.1745634227991104
1782987782861072000,10.54807177734375,1.4478747844696045,1.1707310676574707,-0.17619012296199799
1782987782871145700,10.558145751953125,1.4731223583221436,1.20030677318573,-0.19784560799598694
1782987782881220900,10.568220947265624,1.4972397089004517,1.1558470726013184,-0.21729855239391327
1782987782891294700,10.578294677734375,1.493036150932312,1.1283392906188965,-0.22720551490783691
1782987782901369900,10.588369873046876,1.4615941047668457,1.1140761375427246,-0.22530992329120636
1782987782911444000,10.59844384765625,1.42388117313385,1.0927190780639648,-0.22353093326091766
1782987782921518800,10.608518798828126,1.4109129905700684,1.1022028923034668,-0.22754979133605957
1782987782931593000,10.618593017578124,1.4285109043121338,1.1243172883987427,-0.24923111498355865
1782987782941667800,10.628667724609375,1.476648211479187,1.1378904581069946,-0.28426823019981384
1782987782951742000,10.638741943359374,1.5237936973571777,1.1699764728546143,-0.31390681862831116
1782987782961816800,10.64881689453125,1.5468461513519287,1.2049262523651123,-0.33267742395401
1782987782971891000,10.658890869140626,1.5600005388259888,1.2269988059997559,-0.3589079678058624
1782987782981965800,10.6689658203125,1.5734586715698242,1.227818489074707,-0.3913326859474182
1782987782992040000,10.6790400390625,1.5882272720336914,1.207511067390442,-0.42273324728012085
1782987783002114800,10.68911474609375,1.5707134008407593,1.1773220300674438,-0.3142026662826538
1782987783012189400,10.699189453125,1.4792183637619019,1.0754135847091675,-0.1797471046447754
1782987783022264600,10.7092646484375,1.4247692823410034,0.9888640642166138,-0.06207333505153656
1782987783032338400,10.71933837890625,1.4394865036010742,1.0474251508712769,0.0041118101216852665
1782987783042413600,10.72941357421875,1.4323242902755737,1.2606704235076904,0.0027671237476170063
1782987783052487400,10.7394873046875,1.3588290214538574,1.5019285678863525,-0.07373697310686111
1782987783062562600,10.7495625,1.2394791841506958,1.7531239986419678,-0.1465979516506195
1782987783072636400,10.759636474609374,1.120982050895691,1.8908970355987549,-0.13208691775798798
1782987783082711600,10.769711669921875,1.0942528247833252,1.8562668561935425,0.008447828702628613
