time,seconds_elapsed,z,y,x
1782987292481838600,0.083838623046875,0.05967617780566215,-0.048440644172579046,-0.018910808368166908
1782987292491912400,0.093912353515625,0.06311901173591614,-0.06485980925494804,-0.03044700544825755
1782987292501987600,0.103987548828125,0.06476444085538387,-0.045558750327024604,-0.0320152228793595
1782987292512061400,0.1140615234375,0.07418985632658004,-0.03901778598465025,-0.033576316449930886
1782987292522135600,0.124135498046875,0.06969429847300052,-0.043202341660298405,-0.030338850632356477
1782987292532210400,0.13421044921875,0.061608607172966,-0.057134238237887616,-0.021701188005367293
1782987292542284500,0.144284423828125,0.05368073678314685,-0.04315830158917233,-0.0009580496435053647
1782987292552358400,0.1543583984375,0.0631207653015852,-0.046811216339841484,-0.024709813503129407
1782987292562433500,0.16443359375,0.0481716179728508,-0.054899391857907175,-0.027971829240070654
1782987292572507400,0.17450732421875,0.044590252354741094,-0.04247738838661462,-0.022437018866091965
1782987292582582500,0.18458251953125,0.050586277899146076,-0.05911306403018534,-0.03309704503300599
1782987292592656400,0.194656494140625,0.057473114803433416,-0.044848811959382145,-0.017924756472883746
1782987292602730500,0.20473046875,0.05075169759392738,-0.05410964798601344,-0.024491156650613993
1782987292612805400,0.214805419921875,0.0585410362958908,-0.04936082775741815,-0.021398487864900378
1782987292622879500,0.22487939453125,0.062436290168762204,-0.04995002582222223,-0.008263824345916508
1782987292632953300,0.234953369140625,0.07396890705227852,-0.03764375768508762,-0.0033189883548766373
1782987292643028500,0.245028564453125,0.06859072114527225,-0.03173018625974655,-0.022409747266676276
1782987292653102300,0.255102294921875,0.055578094837069505,-0.053719552689883855,-0.012424058431060984
1782987292663177500,0.265177490234375,0.05259352606832981,-0.045407304358668625,-0.030195176978502422
1782987292673251300,0.275251220703125,0.05454875178933143,-0.046020047695841636,-0.029568085455568504
1782987292683325200,0.2853251953125,0.059797173836827276,-0.044168136218842115,-0.03409566414891742
1782987292693400300,0.295400390625,0.05561901136934757,-0.04575909520471468,-0.027947114923922343
1782987292703474200,0.30547412109375,0.06370820980072021,-0.051743156316690145,-0.009175678493827581
1782987292713548500,0.315548583984375,0.07074409978687762,-0.0362458553195931,-0.009872866977751254
1782987292723623400,0.32562353515625,0.06461538777351379,-0.04353561046896502,-0.022955937306815756
1782987292733697500,0.335697509765625,0.05968903728723526,-0.050032059816177935,-0.009699245710205286
1782987292743772400,0.3457724609375,0.06314122356772423,-0.03457467070436105,-0.020517284583579747
1782987292753846500,0.355846435546875,0.06913257293701172,-0.0455023622309789,-0.013055497335549443
1782987292763920400,0.36592041015625,0.06434533866047859,-0.04144892212171107,-0.006048166723595932
1782987292773995500,0.37599560546875,0.06314882235229015,-0.04397907992014661,-0.030153374530235304
1782987292784069400,0.3860693359375,0.06419920818805694,-0.044771910798270254,-0.02627128153303638
1782987292794144500,0.39614453125,0.05956219603717327,-0.055351793534215536,-0.02020188022516668
1782987292804218400,0.40621826171875,0.06465688882768154,-0.04333186805779114,-0.02757417169199325
1782987292814292500,0.41629248046875,0.062115972173213956,-0.05066222921218723,-0.02485011702296324
1782987292824367400,0.426367431640625,0.06196691909134388,-0.03207099905405193,-0.018450524779502302
1782987292834441500,0.43644140625,0.058981181278824804,-0.025127536591701208,-0.015913343585236
1782987292844515300,0.446515380859375,0.07394786426424979,-0.042196653482783585,-0.01740794779085554
1782987292854590500,0.456590576171875,0.07111001048982143,-0.053255424043163656,-0.01641415098053403
1782987292864664300,0.466664306640625,0.05884323411285877,-0.04826033743591979,-0.02235344136902131
1782987292874739500,0.476739501953125,0.06438976232409477,-0.044051725031249225,-0.019533744305791332
1782987292884813300,0.486813232421875,0.06215162800848484,-0.044768221003841605,-0.0053735645308159285
1782987292894887400,0.496887451171875,0.07801672113835811,-0.05215277829719707,-0.025461508653266355
1782987292904962300,0.50696240234375,0.08340718200504779,-0.04006353217791766,-0.03142968720952049
1782987292915036400,0.517036376953125,0.05423252544701099,-0.03695104444688186,-0.01364361768811941
1782987292925110300,0.5271103515625,0.05423953970968723,-0.02123188086003065,-0.018152884406642988
1782987292935185400,0.537185302734375,0.050801966476440426,-0.05971632715296,-0.028426313275611025
1782987292945259300,0.54725927734375,0.06277414382100105,-0.032635738531034436,-0.02576116745327599
1782987292955334400,0.55733447265625,0.07205693595111369,-0.040095187691505996,-0.022709533930849284
1782987292965408300,0.567408203125,0.07714695256650447,-0.038337000646255906,-0.022904334983741864
1782987292975482400,0.577482421875,0.07745265751481056,-0.043677357027214016,-0.01770597175620496
1782987292985557200,0.58755712890625,0.07955167562067508,-0.037443321475852276,-0.027916135263768953
1782987292995631400,0.59763134765625,0.05187164153456687,-0.03465246691461652,-0.014852792548481373
1782987293005705500,0.60770556640625,0.04917699562311172,-0.05837000884423032,-0.01210205080192536
1782987293015780400,0.6177802734375,0.06235445710420608,-0.048050567142758516,-0.024848272125748916
1782987293025854500,0.6278544921875,0.07178630231618881,-0.04072515615811571,-0.03612254860033281
1782987293035929300,0.637929443359375,0.07059153957366943,-0.04424406926557421,-0.039541280135791744
1782987293046003500,0.64800341796875,0.06625555619597434,-0.03708882721606642,-0.015410033705597742
1782987293056077600,0.65807763671875,0.07000117246508598,-0.0411382670036517,-0.005499017541389912
1782987293066152400,0.66815234375,0.058630468145012854,-0.03392603406989947,-0.020357874504476785
1782987293076226600,0.6782265625,0.06746259389817715,-0.036637576317228374,-0.024088074008747934
1782987293086301400,0.688301513671875,0.05849193645715713,-0.034127876784931864,-0.017488146020751445
1782987293096375600,0.69837548828125,0.06358546020388603,-0.033992194641288366,-0.016504395680408925
1782987293106449400,0.708449462890625,0.07451485049724578,-0.03145942476065829,-0.010160068154986946
1782987293116524500,0.718524658203125,0.05821253499388694,-0.02881711182463914,-0.010612917355867103
1782987293126598400,0.728598388671875,0.0679436554133892,-0.04381398901892826,-0.002377232259046286
1782987293136672500,0.738672607421875,0.06405424675941467,-0.05272023945422843,-0.0021657905986066906
1782987293146747400,0.748747314453125,0.0643535219669342,-0.0479684235509485,-0.033965553229535
1782987293156821500,0.758821533203125,0.0674994187772274,-0.0469278101905249,-0.008433947615278884
1782987293166896400,0.768896484375,0.06929507002234458,-0.0383963661506772,-0.028181526467995717
1782987293176970500,0.778970458984375,0.07079495319128036,-0.0279955845749937,-0.00798620384777896
1782987293187044400,0.78904443359375,0.0570294626891613,-0.04141244430253282,-0.029093106621270997
1782987293197119500,0.799119384765625,0.06706044283807278,-0.03364449544847011,-0.03898532675346359
1782987293207193300,0.809193359375,0.054796004548668856,-0.021471827095746993,-0.01770274775265716
1782987293217267500,0.819267333984375,0.0676730217784643,-0.03371514953188598,-0.028688115150108932
1782987293227342300,0.82934228515625,0.06663140377104282,-0.04476319776885211,-0.01196902640624903
1782987293237416400,0.83941650390625,0.07187105799019336,-0.03403316597249359,-0.009029849415505305
1782987293247491300,0.8494912109375,0.07172375847399234,-0.02815134139228612,-0.0075636584536172445
1782987293257565400,0.8595654296875,0.06484393583238124,-0.031058095684461294,-0.01002435861187987
1782987293267639300,0.869639404296875,0.06574819119572639,-0.035616708836890755,-0.006398121805582195
1782987293277714400,0.87971435546875,0.07937164287865162,-0.037269334882125256,-0.007935231712367385
1782987293287788300,0.889788330078125,0.051096565508842465,-0.03050988721717149,-0.0008587996532674878
1782987293297862400,0.8998623046875,0.05723287630677223,-0.018955460360646246,0.0038016390389762817
1782987293307937300,0.909937255859375,0.05783844098448753,-0.036509401626605535,-0.00009630911448039114
1782987293318011400,0.920011474609375,0.06966682594418526,-0.037138000120036305,-0.022548799544339998
1782987293328086300,0.930086181640625,0.058149406629800796,-0.046850123578123744,-0.013409498404990882
1782987293338160600,0.94016064453125,0.05785480759739876,-0.043217393098957835,-0.018256244316417723
1782987293348234500,0.950234375,0.06833762316703795,-0.050141895132511854,-0.028605615365272386
1782987293358309600,0.9603095703125,0.053525253960490224,-0.03944793929653242,-0.013229118603095412
1782987293368383500,0.970383544921875,0.04978139125704765,-0.03798097201650962,-0.009696496630692854
1782987293378458600,0.980458740234375,0.05980594166517257,-0.032916089842375366,-0.02309526357911527
1782987293388532500,0.990532470703125,0.06983341468274593,-0.03838778098542243,-0.018724784276774153
1782987293398606300,1.0006064453125,0.0684884298145771,-0.042382166117522865,-0.02363827528147958
1782987293408680700,1.0106806640625,0.05771919851899147,-0.033113804371561854,-0.02745985199678689
1782987293418754600,1.020754638671875,0.060117491832375525,-0.04102326232185587,-0.014160800829483195
1782987293428828700,1.03082861328125,0.0650637160629034,-0.030262597925215958,-0.008279378108074888
1782987293438903600,1.040903564453125,0.06776362267136574,-0.03395847503477707,-0.012637938643759115
1782987293448977700,1.050977783203125,0.0399321974158287,-0.029425800041202453,-0.012241641935706139
1782987293459052500,1.061052490234375,0.05265665443241596,-0.028811631931923327,-0.006446755853435024
1782987293469126700,1.071126708984375,0.0541582911670208,-0.03285131751047447,-0.008874129130830988
1782987293479200500,1.081200439453125,0.05940028347373008,-0.038108781380951404,-0.011617116829194129
1782987293489275600,1.091275634765625,0.05940320608317852,-0.030960096936393528,-0.025102119022654367
1782987293499349500,1.101349609375,0.06853109991252422,-0.03481426988020539,-0.018131658955523742
1782987293509423600,1.111423583984375,0.07152677459716797,-0.03710249041523784,0.00010632818499580026
1782987293519498500,1.12149853515625,0.08215045994222164,-0.030379100444354115,-0.008756713296240195
1782987293529572600,1.131572509765625,0.07751110970377921,-0.03576360649429262,-0.00595421396298334
1782987293539647500,1.1416474609375,0.07182721884846686,-0.04945473485225811,-0.02153065374405123
1782987293549721600,1.1517216796875,0.0679389792382717,-0.030819775150250642,-0.027762771332962437
1782987293559795700,1.161795654296875,0.05791618239581585,-0.030117910491209477,-0.019552713867742568
1782987293569870600,1.17187060546875,0.06853986774086952,-0.026416078564897177,-0.019794221872882916
1782987293579944700,1.18194482421875,0.06330547421872615,-0.0387416907233186,-0.02647079529366456
1782987293590018600,1.1920185546875,0.048346974539756775,-0.03601111498195678,-0.007456124692223965
1782987293600093700,1.20209375,0.03877192146480083,-0.02649615806378424,-0.023369888402568175
1782987293610167600,1.21216748046875,0.04775368482172489,-0.03776298188427463,-0.01809348236960359
1782987293620242700,1.22224267578125,0.06077390991449356,-0.03769177981158718,-0.027516139628132805
1782987293630316500,1.232316650390625,0.055845805862545964,-0.03455633133007213,-0.012055964904185383
1782987293640390700,1.242390625,0.053150575429201125,-0.038216972729470576,-0.013810937079042195
1782987293650465800,1.2524658203125,0.05299859973788261,-0.040125126172043384,-0.004003116427827626
1782987293660539600,1.26253955078125,0.05554886874258518,-0.043215182875562454,-0.012464463506685569
1782987293670613500,1.272613525390625,0.07111644023060798,-0.03953875938514247,-0.01346281776111573
1782987293680688600,1.282688720703125,0.08428396483957767,-0.037599845478124914,-0.007964412141079083
1782987293690762500,1.292762451171875,0.06932312707304954,-0.0385853859167546,-0.0014151731607038526
1782987293700837600,1.302837646484375,0.0681312869399786,-0.03182515280051157,-0.011345423748344182
1782987293710911500,1.312911376953125,0.05945522853136062,-0.03228144520064816,-0.0017327786093577742
1782987293720985600,1.322985595703125,0.042401802399754523,-0.041285164661053565,-0.010318217858765273
1782987293731060500,1.333060546875,0.0424070630967617,-0.033099684514664114,-0.03641835320913232
1782987293741134600,1.343134521484375,0.052432782548666,-0.03326682124249637,-0.030246085181832312
1782987293751208400,1.35320849609375,0.10375731159448623,-0.05407404694966972,0.004517751419078559
1782987293761283600,1.36328369140625,0.04330839585065841,-0.03477912550158799,-0.012459412872232496
1782987293771357400,1.373357421875,0.03537877189517021,-0.03240589356422424,-0.026009762786328793
1782987293781432600,1.3834326171875,0.07563187182843685,-0.02100693126404658,-0.010043245975440367
1782987293791506400,1.39350634765625,0.05707447087466717,-0.02031651958078146,-0.009492626355355605
1782987293801580500,1.40358056640625,0.08700608327984809,-0.03274771100552752,-0.017560115278419105
1782987293811655400,1.413655517578125,0.07563245635032653,-0.02124490473838523,-0.01657953414269723
1782987293821729500,1.4237294921875,0.06067220310568809,-0.020651870748680082,-0.019754784911638124
1782987293831804400,1.433804443359375,0.07175123100280761,-0.032590803410764785,-0.005744471069285646
1782987293841878500,1.44387841796875,0.05798398693501949,-0.014517861505690961,-0.009563326104544103
1782987293851952600,1.45395263671875,0.055288171979784966,-0.03064025386488065,0.000824303728621453
1782987293862027500,1.464027587890625,0.065765726852417,-0.044048985084891315,-0.027311100309016182
1782987293872101600,1.4741015625,0.04811024317443371,-0.036226401700451966,-0.017085693566547707
1782987293882175700,1.48417578125,0.05230243416726589,-0.023146062184590845,-0.01683961898414418
1782987293892250600,1.494250732421875,0.06008709669411182,-0.0315870331957005,-0.007789119506254792
1782987293902324700,1.50432470703125,0.07969137635231018,-0.02572047924986109,-0.017082159035746006
1782987293912399600,1.514399658203125,0.06727087071835994,-0.019703995439317078,-0.019971386804385108
1782987293922473700,1.5244736328125,0.05829202997088432,-0.029897290010470895,-0.0019800405018497256
1782987293932547600,1.534547607421875,0.056197688040137285,-0.034343492296990005,-0.011332372470526025
1782987293942622700,1.544622802734375,0.06697334907650947,-0.031710257716570045,-0.012298861148813739
1782987293952696600,1.554696533203125,0.05994038169980049,-0.038325218876916915,0.0012292951997835188
1782987293962770700,1.564770751953125,0.057844286203384394,-0.028816801297385244,-0.023533444933826104
1782987293972845600,1.574845458984375,0.058739189216494556,-0.027560608957521614,-0.015363399818586185
1782987293982919700,1.584919677734375,0.04048340155780315,-0.04281394513091072,-0.019889042283175513
1782987293992994600,1.59499462890625,0.058441083052754396,-0.03557292449409142,-0.024117117440141736
1782987294003068700,1.605068603515625,0.053799394726753234,-0.049458570777159185,-0.0018924261504784225
1782987294013142500,1.615142578125,0.06427285794615745,-0.03287438785880804,-0.014567445401614532
1782987294023217700,1.6252177734375,0.07908990332782267,-0.02578603703305125,-0.022610941527737304
1782987294033291500,1.63529150390625,0.049019174712896345,-0.0066829848952591414,-0.023247230137279255
1782987294043365600,1.64536572265625,0.07266483871638775,-0.023336086597666145,-0.016469644027436153
1782987294053440500,1.6554404296875,0.05889759464859962,-0.0180795543089509,-0.032316205986775454
1782987294063514600,1.6655146484375,0.05620762491226196,-0.020989614803064615,-0.016487307548290118
1782987294073589500,1.675589599609375,0.05441431175470352,-0.03399444139730185,-0.022391919349040834
1782987294083663600,1.68566357421875,0.05696107362806797,-0.017554763249866663,-0.02004821490026079
1782987294093737700,1.69573779296875,0.047234044861793514,-0.03872108632670715,-0.017996196007588876
1782987294103812600,1.7058125,0.06339373702406882,-0.02697606880152598,-0.02674028728427365
1782987294113886700,1.71588671875,0.0635386984527111,-0.033126152396481486,-0.01908399124429561
1782987294123960600,1.725960693359375,0.07162205166518688,-0.02623105912050232,-0.01670231113899499
1782987294134035700,1.73603564453125,0.0731242729216814,-0.02804563426179811,-0.0048285709339194
1782987294144109800,1.74610986328125,0.06310498321056365,-0.026178707878757267,-0.006709379711840302
1782987294154184700,1.756184814453125,0.06086509532928466,-0.033081399939302356,-0.012389672104269266
1782987294164258800,1.7662587890625,0.06879939545989036,-0.03257615383090451,-0.0046655532587785275
1782987294174332700,1.776332763671875,0.0590729512155056,-0.02884526020688936,-0.012300377252465113
1782987294184407800,1.78640771484375,0.05877718313932419,-0.03173944727843627,-0.0165423713369295
1782987294194481700,1.796481689453125,0.05055296015143394,-0.03231596852475777,-0.00010434629046358167
1782987294204555500,1.806555419921875,0.05519464847743511,-0.046943062558583916,-0.02248799100150354
1782987294214630700,1.816630615234375,0.06013327392339706,-0.04317536232182756,-0.02680527881188318
1782987294224704500,1.82670458984375,0.0592383709102869,-0.03862893279753625,-0.0033482144493609664
1782987294234779600,1.836779541015625,0.06731821699142455,-0.03793705980954692,-0.002924865337600931
1782987294244853500,1.846853515625,0.06118541332483291,-0.022916052820999174,-0.0058608091916423286
1782987294254927600,1.856927734375,0.05968845276534557,-0.03562553146416321,-0.008787583358539268
1782987294265002800,1.867002685546875,0.050265375381708145,-0.026818302690237758,-0.0049750758656766265
1782987294275076600,1.87707666015625,0.06762275289595127,-0.01586034388951957,-0.016201677273632958
1782987294285150500,1.887150390625,0.0628372721850872,-0.02866542839426547,-0.010704038838576525
1782987294295225600,1.8972255859375,0.06747954503297805,-0.030951292575430122,-0.01210974091803655
1782987294305299500,1.907299560546875,0.05192074137330055,-0.02959311943212524,-0.01577192582054995
1782987294315374600,1.91737451171875,0.04908171855509281,-0.020472093734983352,-0.0033013613666407764
1782987294325448400,1.927448486328125,0.06344517495036125,-0.03446509111635387,-0.027396431371755896
1782987294335522600,1.9375224609375,0.07841010437011718,-0.030966581476107237,-0.014686833997583016
1782987294345597400,1.947597412109375,0.06508943502604961,-0.019386618319526313,-0.010708715013694017
1782987294355671600,1.957671630859375,0.07630816365480422,-0.023706636943109333,-0.0026801333289127797
1782987294365745700,1.96774560546875,0.07421440624594688,-0.0226171794722788,0.0034618034922052174
1782987294375820500,1.977820556640625,0.07886018622517585,-0.021348639107495546,-0.030561407341854644
1782987294385894700,1.987894775390625,0.07392272982299328,-0.01993294535698369,-0.009433443514024838
1782987294395969500,1.997969482421875,0.04579202935993671,-0.03205835876818746,-0.015468020103685557
1782987294406043600,2.008043701171875,0.05327274050414562,-0.03273715307889506,-0.026141709469771013
1782987294416118300,2.0181181640625,0.05268178887367248,-0.02652094544516876,-0.02760722457822412
1782987294426193200,2.028193115234375,0.0694429540604353,-0.04662946656476706,-0.01988822029926814
1782987294436267300,2.038267333984375,0.0655477001875639,-0.03376313512576744,-0.021894810881325975
1782987294446341400,2.04834130859375,0.06794540897905826,-0.022701094896066934,-0.013570333256199956
1782987294456416300,2.058416259765625,0.06839198370277881,-0.028512411523330956,-0.003697164884349331
1782987294466490400,2.068490478515625,0.057167994377017015,-0.026199093079660087,0.004179231046559289
1782987294476565200,2.078565185546875,0.061661214143037796,-0.027295309084840118,-0.011707535059005021
1782987294486639400,2.088639404296875,0.06570318301022052,-0.03505178669681772,-0.006788582427892834
1782987294496713200,2.098713134765625,0.06585398965775967,-0.03279365077279508,0.0036692448309622702
1782987294506788400,2.108788330078125,0.05688157865107059,-0.03210566850863397,-0.015549661371996626
1782987294516862200,2.1188623046875,0.04760696982741355,-0.029961203825846314,-0.022265032433206215
1782987294526936300,2.128936279296875,0.05598842920362949,-0.014682660145964473,-0.013311864983104169
1782987294537011200,2.13901123046875,0.05434066199660301,-0.023439656569994985,0.004267722180765122
1782987294547085300,2.149085205078125,0.05194704485833645,-0.028053543573617935,-0.012327895447053015
1782987294557160200,2.15916015625,0.06840951935946941,-0.026366449003200978,-0.011027379908272995
1782987294567234300,2.169234375,0.0688590166926384,-0.023201555231492966,-0.02194273254312575
1782987294577308200,2.17930810546875,0.07319909172356129,-0.014953202449344097,-0.008349502468528225
1782987294587383300,2.18938330078125,0.0543453381717205,-0.018826481952425093,-0.018898186348611488
1782987294597457200,2.19945703125,0.05090542685091495,-0.04093675308218225,-0.002974549698224291
1782987294607531300,2.20953125,0.05928747074902057,-0.04099588112458587,-0.01761842133691534
1782987294617606100,2.219606201171875,0.045074821001291274,-0.03312277312930673,-0.002485387074947357
1782987294627680300,2.22968017578125,0.07994038267731667,-0.019606435082666573,-0.02329276804574765
1782987294637755100,2.239755126953125,0.049718847414851185,-0.022384923352673648,-0.02752401240733452
1782987294647829200,2.249829345703125,0.062143444702029225,-0.03568288767458871,-0.008794561088597401
1782987294657903000,2.259903076171875,0.04299275403022766,-0.03787367571713403,-0.019431343377241863
1782987294667978200,2.269978271484375,0.07052198146879672,-0.02829053066726774,-0.004020725149754435
1782987294678052000,2.280052001953125,0.07965279790759086,-0.02804811847982928,-0.013216706646094098
1782987294688126200,2.290126220703125,0.06603928309679032,-0.021410543628875164,-0.004792074848432093
1782987294698201000,2.300201171875,0.07232581602036953,-0.027430297108739614,-0.006703616691334173
1782987294708275200,2.310275146484375,0.061253217864036556,-0.03973769775703549,-0.008184110173210501
1782987294718350000,2.32035009765625,0.07322831781804562,-0.025896438604965804,-0.005578466852614656
1782987294728424200,2.330424072265625,0.052583004674315446,-0.01645198963973671,0.0012078505529556423
1782987294738498300,2.340498291015625,0.060817749056220054,-0.03412763932291418,-0.02200159572404809
1782987294748573200,2.3505732421875,0.05558452457785606,-0.02048414949895814,-0.004863359119510278
1782987294758647300,2.360647216796875,0.06396832204163073,-0.023955424072407184,-0.006864113615825772
1782987294768721400,2.370721435546875,0.054690790608525275,-0.01632871031994,-0.02266486367206089
1782987294778796300,2.38079638671875,0.05094926599264145,-0.012033022420015185,0.0035457737149205055
1782987294788870400,2.390870361328125,0.05978256078958511,-0.028036080982163546,-0.01850409073079936
1782987294798945300,2.4009453125,0.06562076542377472,-0.014510189655888826,-0.02189302078303881
1782987294809019400,2.411019287109375,0.0668196198195219,-0.020118567589577287,-0.01668883973606862
1782987294819093200,2.42109326171875,0.076095982208848,-0.01895262908274308,0.0015332374492660163
1782987294829168400,2.43116845703125,0.06442424911558628,-0.02119379560565576,-0.007737919041980058
1782987294839242200,2.4412421875,0.06727145524024963,-0.02431203722404316,-0.0038903585020452734
1782987294849317400,2.4513173828125,0.06412672747373581,-0.03157640220383182,-0.013653408429771662
1782987294859391200,2.46139111328125,0.06726677906513213,-0.02868371296962723,-0.014992401948571205
1782987294869465300,2.47146533203125,0.07744038255512714,-0.0236696111346595,-0.00463509418843314
1782987294879540200,2.481540283203125,0.060225628381967544,-0.03797552865641191,-0.006012766616651788
1782987294889614300,2.4916142578125,0.06680442225039004,-0.023501488026138394,-0.013207756154658272
1782987294899688200,2.501688232421875,0.056630818760395045,-0.007283234077040106,-0.013498911987803876
1782987294909763300,2.511763427734375,0.058277416923642154,-0.017286851294990628,0.003004287249362096
1782987294919837200,2.521837158203125,0.06710486650168895,-0.028534458958357573,-0.004221809812961146
1782987294929912300,2.531912353515625,0.06695522889792918,-0.029580460879951715,-0.012188587441062554
1782987294939986200,2.541986083984375,0.05558627814352512,-0.018663674339838326,-0.006668609310034662
1782987294950060000,2.55206005859375,0.05543605601787567,-0.030330219801329075,-0.006047353872843086
1782987294960135200,2.56213525390625,0.06352291636168957,-0.030821839243173596,-0.01849289348335005
1782987294970209000,2.572208984375,0.0602361497759819,-0.024508253915887325,-0.009451655024150386
1782987294980283100,2.582283203125,0.05290040006041526,-0.02753348348857835,-0.011264787127031013
1782987294990358300,2.592358154296875,0.06935702934265137,-0.023170173712540418,-0.005988143632048741
1782987295000432000,2.60243212890625,0.057384267476201054,-0.02353159090345725,-0.025308665312267838
1782987295010507300,2.61250732421875,0.06501695431172848,-0.03263488001450896,-0.020640618702303618
1782987295020581000,2.6225810546875,0.06307108094096184,-0.020691325976233927,-0.023442780108842997
1782987295030655200,2.6326552734375,0.06905424700379371,-0.03484420836074278,-0.008174155034776776
1782987295040730000,2.642730224609375,0.06905541604757308,-0.014616499574575573,-0.009059477368788793
1782987295050804200,2.65280419921875,0.06681026746928692,-0.02691010915953666,0.002794617420900613
1782987295060878300,2.66287841796875,0.05664134015440941,-0.03562944045430049,-0.0008671564896591007
1782987295070953200,2.672953125,0.05948796175718307,-0.029674313175864515,-0.010120731658441946
1782987295081027300,2.68302734375,0.06652151365578174,-0.03444919942747801,-0.015012330491747706
1782987295091102200,2.693102294921875,0.06487959166765213,-0.02309473385615274,0.0020010558904148637
1782987295101176300,2.70317626953125,0.07101707150936126,-0.012882076997403055,-0.025092282615229486
1782987295111250200,2.713250244140625,0.08074117766618728,-0.03745471965270117,-0.006852998566767201
1782987295121325300,2.7233251953125,0.05994096622169017,-0.021372860233299432,-0.013440825125016272
1782987295131399200,2.733399169921875,0.05934358485043049,-0.020977485973853616,-0.015401265877252443
1782987295141473300,2.743473388671875,0.06398527317643166,-0.027005258363392202,-0.00894479234740138
1782987295151548200,2.753548095703125,0.08029460294246674,-0.027101503545790908,-0.0014689765740185975
1782987295161622300,2.763622314453125,0.061144496792554855,-0.018731643275823443,-0.020914503740239888
1782987295171697200,2.773697265625,0.06593348463475704,-0.02949070023726672,-0.014909509438090026
1782987295181771300,2.783771240234375,0.060249009257555004,-0.026556601280439643,-0.0044940965488553045
1782987295191845000,2.79384521484375,0.05755845499932766,-0.023361147973686457,-0.0018280008784495292
1782987295201920300,2.803920166015625,0.05726327144503593,-0.021845701909437774,-0.013495276992302387
1782987295211994000,2.813994140625,0.05457037909924984,-0.03845817934051156,-0.005229945675889029
1782987295222068200,2.824068115234375,0.05128068990409374,-0.027320260863006113,-0.0015718524266034363
1782987295232143000,2.83414306640625,0.059663902845978736,-0.029307909282576292,-0.019288418642058967
1782987295242217200,2.84421728515625,0.07268178985118866,-0.025758053047582507,-0.004004705596715212
1782987295252292000,2.8542919921875,0.0632511136829853,-0.028248518156446516,0.003447172178654
1782987295262366200,2.8643662109375,0.07253039868175983,-0.030326639604754745,-0.015938067034538834
1782987295272440300,2.8744404296875,0.06280044730603694,-0.03242565771061927,-0.03003049706923775
1782987295282515200,2.88451513671875,0.051726680105924606,-0.02210610641129315,-0.023947962285159153
1782987295292589300,2.89458935546875,0.06414718573987484,-0.028991317614074794,-0.01891771303298883
1782987295302663400,2.904663330078125,0.06878712050020694,-0.021938330362644046,-0.009413167910976334
1782987295312738300,2.91473828125,0.06579729103446007,-0.03261847686897963,-0.014654475231096148
1782987295322812400,2.9248125,0.061306409355998036,-0.03489727198854089,0.002334854422044009
1782987295332887300,2.93488720703125,0.059656888583302495,-0.012467504847142845,-0.006419566452410072
1782987295342961400,2.94496142578125,0.0521755929172039,-0.027700364488083867,-0.004947137545980512
1782987295353035300,2.95503515625,0.04185527443289756,-0.022576482135709373,-0.017222170294634995
1782987295363110400,2.9651103515625,0.06445405973196029,-0.0268179008314386,-0.010866645521763712
1782987295373184300,2.975184326171875,0.07178747135996819,-0.039636411073338235,-0.02041816245750524
1782987295383258400,2.98525830078125,0.06026888300180435,-0.03891607917584479,-0.004709986055549234
1782987295393333200,2.995333251953125,0.05278817185759544,-0.03529668310228735,0.010323405490536243
1782987295403407400,3.005407470703125,0.0632598815113306,-0.03371233652029186,-0.02348772436226718
1782987295413481500,3.0154814453125,0.06281213774383068,-0.04732300178688019,-0.013360279835248364
1782987295423555300,3.025555419921875,0.07269231124520302,-0.03816496854759752,-0.014771662736823782
1782987295433629200,3.035629150390625,0.06595920359790325,-0.020940533230639994,-0.014325462472438811
1782987295443704300,3.045704345703125,0.06491700106859206,-0.022820118165854362,-0.005812814464606344
1782987295453778200,3.055778076171875,0.0483107341825962,-0.022548772144876418,-0.014321918808482586
1782987295463852300,3.065852294921875,0.07045417692959308,-0.023527718445938078,-0.021128018626756964
1782987295473927200,3.07592724609375,0.06117547645270824,-0.024016031685844062,-0.01566837411453016
1782987295484001300,3.086001220703125,0.0707540366590023,-0.02829195543937385,0.0020520828247535972
1782987295494076200,3.096076171875,0.06641571519374848,-0.0260533644660376,0.0046929527223575854
1782987295504150300,3.106150390625,0.06507189936935902,-0.02607941222274676,0.0026216172078624366
1782987295514224400,3.116224365234375,0.058040101036429405,-0.03202984505975619,-0.006487033064896241
1782987295524299300,3.12629931640625,0.06417758087813853,-0.02247716821338981,-0.015428619675058871
1782987295534373400,3.136373291015625,0.07016250050663948,-0.016348912857752293,-0.011125387789495289
1782987295544447500,3.146447509765625,0.04547171136438846,-0.017428122929204256,-0.021756498389178886
1782987295554522400,3.1565224609375,0.05983925941288471,-0.020781305814627556,-0.017885830968292427
1782987295564596500,3.166596435546875,0.07390928581953048,-0.020431414664722976,-0.009926314198039472
1782987295574671400,3.17667138671875,0.06702712509036064,-0.012096680507063865,-0.0012770615979563445
1782987295584745500,3.186745361328125,0.06344166781902313,-0.021900829630158842,0.01263580148559995
1782987295594819300,3.1968193359375,0.06673603318929672,-0.02541081051249057,-0.009789042885508388
1782987295604894500,3.20689453125,0.06569207709431647,-0.022316917884070427,-0.015026075889309867
1782987295614968300,3.21696826171875,0.052227615365386004,-0.03075408950289711,-0.003657280398532748
1782987295625042400,3.22704248046875,0.056716743478178976,-0.023115283453837034,-0.014116852089902385
1782987295635117300,3.237117431640625,0.06285130071043968,-0.03812584211360663,-0.01851639308994636
1782987295645191400,3.24719140625,0.06839256822466849,-0.030191395852528512,-0.01624682245645672
1782987295655266300,3.257266357421875,0.061516837236285205,-0.024525314648542552,-0.010657414084719494
1782987295665340400,3.26734033203125,0.06376724651157856,-0.027788188902009278,0.00009936872124671936
1782987295675414300,3.277414306640625,0.05389291822910309,-0.03158551709204912,-0.013427289790008217
1782987295685489400,3.287489501953125,0.06616203269362449,-0.022824885672517118,-0.00889814019408077
1782987295695563300,3.297563232421875,0.0594300940901041,-0.008107848332915455,-0.021435632404359056
1782987295705637400,3.307637451171875,0.07604103715121746,-0.021993074490875005,0.00364102338347584
1782987295715712300,3.317712158203125,0.0613777210265398,-0.029884540126752106,0.001731609565578401
1782987295725786400,3.327786376953125,0.06840893483757972,-0.02305812817281112,-0.006100801093131303
1782987295735860200,3.337860107421875,0.05988192951083183,-0.01625661319810897,-0.0009416921637486666
1782987295745935400,3.347935302734375,0.07095745027661324,-0.029180794037878512,-0.012079418845009057
1782987295756009200,3.35800927734375,0.05719254429638385,-0.022513317239005116,-0.02314880213094875
1782987295766084400,3.36808447265625,0.0558440522968769,-0.030808176044002173,-0.005835756948776543
1782987295776158200,3.378158203125,0.06856032600700855,-0.006615965807344764,0.0005893167958129197
1782987295786232600,3.388232666015625,0.06556406680047512,-0.0205321716254577,-0.006720156834181398
1782987295796307200,3.39830712890625,0.05778408044874668,-0.02485061934646219,-0.01812738463920541
1782987295806381600,3.408381591796875,0.06556523584425449,-0.018327208927087484,-0.006472173422481864
1782987295816455400,3.418455322265625,0.06511749207675456,-0.019019940431602298,-0.006322736748121678
1782987295826530600,3.428530517578125,0.06347498556673527,-0.023378300037886945,-0.005602724511036649
1782987295836604400,3.4386044921875,0.056146250113844866,-0.021605901804193854,-0.012462317215371875
1782987295846679600,3.448679443359375,0.06048574062287807,-0.04448796102404594,-0.020232439760211853
1782987295856753400,3.45875341796875,0.06347615461051463,-0.018268738471809775,0.007688517809147015
1782987295866827300,3.4688271484375,0.06737023943960667,-0.02384516863096505,-0.000013946326961740851
1782987295876902400,3.47890234375,0.07350479667186736,-0.024681217596307394,-0.0016678784132935106
1782987295886976300,3.488976318359375,0.06078735391795635,-0.02613673190055415,-0.01819640388796106
1782987295897050400,3.49905029296875,0.06318330914378166,-0.035204310377407816,-0.005011234024446458
1782987295907125500,3.50912548828125,0.06004501111805439,-0.02770597224496305,-0.017726877546915782
1782987295917199400,3.519199462890625,0.0637871202558279,-0.02647164467703551,-0.011446171575924381
1782987295927274500,3.5292744140625,0.06199322257637977,-0.03029304786240682,-0.01353769136192277
1782987295937348400,3.539348388671875,0.06842880858182906,-0.004209891046304256,-0.00767653511040844
1782987295947422200,3.549422119140625,0.060199909418821335,-0.014208886888064444,-0.009879853840963914
1782987295957497300,3.559497314453125,0.07052665764391422,-0.010552264076657592,-0.007044374686712399
1782987295967571200,3.5695712890625,0.06888415113389491,-0.01613638435192406,-0.011899842760711907
1782987295977645300,3.579645263671875,0.06140986973047256,-0.015283037191908806,-0.018367961062584072
1782987295987720200,3.58972021484375,0.06365852544009686,-0.036833044090401376,-0.027117724028229713
1782987295997794300,3.599794189453125,0.05348842908143997,-0.023027185045275837,0.006102225865237415
1782987296007869200,3.609869140625,0.0630640666782856,-0.03352874184800312,-0.021348639107495546
1782987296017943300,3.619943359375,0.06201251179873943,-0.011951499882712959,-0.024123857708182185
1782987296028017400,3.630017333984375,0.05377718289494514,-0.02096535714464262,0.0033869846903253347
1782987296038092300,3.64009228515625,0.05543137984275818,-0.025778639177884904,-0.012848823181772604
1782987296048166400,3.65016650390625,0.061416299471259116,-0.013855780867766588,0.002982824336225167
1782987296058240500,3.660240478515625,0.04914835405051708,-0.015724880941584706,-0.011540590127417817
1782987296068315400,3.6703154296875,0.058875967338681216,-0.027052604636456815,-0.001196817702287808
1782987296078389500,3.680389404296875,0.06171966633200645,-0.01940110350260511,-0.0170221998762805
1782987296088464400,3.69046435546875,0.05678396349549293,-0.02471866352986544,-0.017249697622377425
1782987296098538500,3.70053857421875,0.05992635317444801,-0.010360760092549026,-0.016379435860179363
1782987296108612400,3.7106123046875,0.06366787779033184,-0.028711605623550712,-0.0002905347786378115
1782987296118687500,3.7206875,0.0694990681618452,-0.033364399865455925,-0.019049988509994
1782987296128761300,3.73076123046875,0.06695347533226013,-0.008557473530247807,0.0017898882246110588
1782987296138835500,3.74083544921875,0.0524368742018938,-0.003961067384388298,-0.014427881667297332
1782987296148910300,3.750910400390625,0.06306055954694748,-0.03035476972069591,-0.007765190641395747
1782987296158984400,3.760984375,0.0530336710512638,-0.030216932152584194,-0.023984796297363935
1782987296169059300,3.771059326171875,0.05573825383484363,-0.021747301302570847,-0.021641265378519892
1782987296179133400,3.781133544921875,0.05334697478413582,-0.024598178955353794,-0.00002667794437147677
1782987296189207300,3.791207275390625,0.06247837574481964,-0.03029461876498535,-0.017562298102350906
1782987296199282400,3.801282470703125,0.07071370464861393,-0.02429820962809026,-0.003239000187534839
1782987296209356300,3.811356201171875,0.06936404360532761,-0.010475381181854754,-0.010480166954826562
1782987296219430400,3.821430419921875,0.06682254242897033,-0.01636800115071237,-0.004357309293514118
1782987296229505300,3.83150537109375,0.07236380994319916,-0.02037067918712273,-0.002696216814033687
1782987296239579400,3.841579345703125,0.0764011026352644,-0.03018571503041312,0.0012769428669475017
1782987296249654300,3.851654296875,0.06697568716406822,-0.011006930775288491,-0.009269987447466701
1782987296259728400,3.861728271484375,0.06233867501318455,-0.017091109527181833,-0.027000518256193026
1782987296269802200,3.87180224609375,0.07371171742081642,-0.025464440395869314,-0.026783094379538668
1782987296279877400,3.88187744140625,0.0680266575217247,-0.029143329838011413,-0.015934103245474396
1782987296289951200,3.891951171875,0.06742226188778877,-0.022545100616756825,0.008952071471558883
1782987296300025300,3.902025390625,0.0669715955108404,-0.025751714638341215,-0.003340652197413146
1782987296310100200,3.912100341796875,0.06053600950539112,-0.023390757660660892,-0.008591457998240366
1782987296320174300,3.92217431640625,0.059490299844741815,-0.03873409193875268,0.0015581070290412752
1782987296330248400,3.93224853515625,0.06068447806537151,-0.02807445849748328,-0.014758282665442674
1782987296340323300,3.9423232421875,0.05724047509133815,-0.01753415885325521,-0.011001962339226156
1782987296350397400,3.9523974609375,0.060980246141552924,-0.016077219776902348,-0.022092315347958354
1782987296360472300,3.962472412109375,0.06052957976460457,-0.013609039565082639,-0.022248821083921937
1782987296370546400,3.97254638671875,0.0729500853985548,-0.023156035589333622,-0.006121542487060651
1782987296380620300,3.982620361328125,0.06861351749897003,-0.031579562275297936,-0.014621486276946961
1782987296390695400,3.9926953125,0.05918634846210479,-0.02693869593320414,0.0006244885738939046
1782987296400769500,4.00276953125,0.06292611951231956,-0.036993495349120345,-0.015600670040026306
1782987296410844400,4.012844482421875,0.05230301868915557,-0.020738361722044647,-0.025132157967891543
1782987296420919300,4.022919189453125,0.06427636507749557,-0.02635404617935419,-0.012694226275105028
1782987296430993400,4.032993408203125,0.05904314059913158,-0.029313608371000735,-0.011408314650412648
1782987296441068300,4.043068359375,0.053956046593189234,-0.02969824204072356,-0.004324411670910194
1782987296451142400,4.053142333984375,0.05395370850563049,-0.03094939287928864,-0.00429660121537745
1782987296461216300,4.06321630859375,0.056495794203877445,-0.010519786579161881,-0.011168487145705147
1782987296471291400,4.07329150390625,0.06352759253680705,-0.016239497666526586,0.0014872976819984614
1782987296481365200,4.083365234375,0.06607493893206119,-0.023634284092951565,-0.015134796960791572
1782987296491439400,4.093439453125,0.054853287693858145,-0.016130283404700456,-0.024340870592882854
1782987296501514200,4.10351416015625,0.06532850447893142,-0.023898104394599794,-0.01589661164614372
1782987296511588400,4.11358837890625,0.07296060679256916,-0.02419297742163762,-0.001056824709707871
1782987296521663200,4.123663330078125,0.06877192293107509,-0.026687899509910493,-0.019153713745949787
1782987296531737300,4.1337373046875,0.05081541047990322,-0.021602084145601837,-0.0055336413301993155
1782987296541811200,4.143811279296875,0.05470774174332618,-0.016806447366904467,-0.0035508152162190523
1782987296551886300,4.15388623046875,0.06772270613908768,-0.02145865708691999,0.00116260490543209
1782987296561960200,4.163960205078125,0.06413023460507393,-0.00893372296411544,0.0002842694346327334
1782987296572034000,4.174033935546875,0.06787059017717838,-0.02570104389702901,-0.005605747585184872
1782987296582109200,4.184109130859375,0.07804653175473213,-0.02851385456174612,-0.007248820350784808
1782987296592183300,4.194183349609375,0.056800914630293846,-0.02423858839534223,-0.025745431028027087
1782987296602257200,4.204257080078125,0.06338496919572353,-0.025444603184238076,-0.013608939100382848
1782987296612332300,4.214332275390625,0.053958969202637666,-0.008625077140051871,-0.0041889304566662755
1782987296622406100,4.22440625,0.0621878683656454,-0.02243077178839594,0.008164135964261368
1782987296632481300,4.234481201171875,0.05635317086279392,-0.0226387702495791,-0.019162408509058877
1782987296642555100,4.24455517578125,0.04393149618506431,-0.025229663525614884,-0.02824838115912862
1782987296652629200,4.254629150390625,0.05934767650365829,-0.01907895887615159,-0.00364500543884933
1782987296662704000,4.2647041015625,0.059654550495743745,-0.007456124692223965,0.003207947462145239
1782987296672778200,4.2747783203125,0.06264613352715968,-0.003444203903432935,-0.029866228151926768
1782987296682852400,4.284852294921875,0.06698971568942069,-0.026783176577929405,-0.018336652608867732
1782987296692927200,4.29492724609375,0.06893909619152545,-0.016929909349791706,-0.011232117833290249
1782987296703001300,4.30500146484375,0.09273556684255599,-0.015692695705033836,-0.015335881623998283
1782987296713076500,4.315076416015625,0.06714870564341545,-0.016759247224312275,-0.008901227200310677
1782987296723150300,4.325150390625,0.060413844430446624,-0.02222299252292141,0.00002468691668473184
1782987296733224200,4.33522412109375,0.048292029482126235,-0.019892686411831527,-0.011394779315404594
1782987296743299300,4.34529931640625,0.05802081181406975,-0.021617994100786745,-0.020345873539429158
1782987296753373200,4.355373291015625,0.06715162825286387,-0.021689634564891456,-0.01741656948872842
1782987296763447300,4.365447265625,0.07224222939014434,-0.016347214091010392,-0.0055136305886320765
1782987296773522200,4.375522216796875,0.05114683439135551,-0.020537925512809304,-0.03160792985325679
1782987296783596300,4.38559619140625,0.061924248993396755,-0.009305990342609583,-0.0054979398291558025
1782987296793671200,4.395671142578125,0.06596972499191761,-0.013444569718372075,-0.008639270062185823
1782987296803745300,4.405745361328125,0.05340191984176636,-0.01142689148671925,-0.03153801555535756
1782987296813819100,4.415819091796875,0.051906712847948074,-0.029369649407174438,-0.007932044241437688
1782987296823894300,4.425894287109375,0.06656652184128761,-0.015916220528911798,0.0026229597815778105
1782987296833968000,4.435968017578125,0.06431961969733238,-0.011072324161697178,0.004838425607653334
1782987296844042200,4.446042236328125,0.06821195096075534,-0.02550208725882694,-0.006675614439556375
1782987296854117000,4.4561171875,0.06896013897955418,-0.016396240864507854,-0.0008187142380513251
1782987296864191200,4.466191162109375,0.0668628744393587,-0.02052994313575327,-0.0003183726336341351
1782987296874266000,4.47626611328125,0.07060323001146317,-0.02656474805427715,-0.008322386132739484
1782987296884340200,4.48634033203125,0.06656476827561855,-0.020722214304842054,-0.0005574146870523691
1782987296894414000,4.4964140625,0.05818213985562324,-0.01172264129659161,0.002820327250892296
1782987296904489200,4.5064892578125,0.04830430444180965,-0.009863953018933534,-0.0034322851367760447
1782987296914563000,4.51656298828125,0.06372223832607268,-0.013679218724463134,-0.012604456499265506
1782987296924637400,4.526637451171875,0.05699263781011104,-0.02713951573492959,-0.006602695333817974
1782987296934712000,4.536712158203125,0.06611994711756705,-0.022240418581757692,-0.006876278977654874
1782987296944786400,4.546786376953125,0.06866144829392433,-0.014377229192294179,-0.009920679041696712
1782987296954861000,4.556861083984375,0.05489771135747432,-0.015306545931659638,-0.0007921641578432172
1782987296964935400,4.566935302734375,0.07180383797287941,-0.02005507389931008,0.001563997913710773
1782987296975009300,4.57700927734375,0.06447334895431996,-0.02536435928856954,-0.005219716542819514
1782987296985084400,4.58708447265625,0.05100421105027198,-0.02855694478480145,-0.0007957717538811266
1782987296995158300,4.597158203125,0.04935352123379707,-0.033478692161198705,-0.0028266382606700062
1782987297005232400,4.607232421875,0.05399170242846012,-0.031868882344383745,-0.0052359187589492645
1782987297015307300,4.617307373046875,0.061923664471507066,-0.009208649181667715,-0.012732256730552761
1782987297025381400,4.62738134765625,0.06566343552172184,0.003174118257779628,-0.011405702568218112
1782987297035456300,4.637456298828125,0.05623918909430504,-0.023226032085623592,0.00914805983453989
1782987297045530400,4.6475302734375,0.0668675506144762,-0.006194415927026421,0.0014837266185786574
1782987297055604200,4.657604248046875,0.06597089403569698,-0.009373301691468805,-0.004723914116201922
1782987297065679400,4.667679443359375,0.05594751267135143,-0.02637766451695934,-0.010440876124054192
1782987297075753200,4.677753173828125,0.0626852964937687,-0.012781502699758857,-0.01544800022896379
1782987297085827300,4.687827392578125,0.07211188100874423,-0.015067969669122248,-0.01522868578932248
1782987297095902200,4.697902099609375,0.07181435936689376,-0.019459373028483242,-0.01229728111308068
1782987297105976300,4.707976318359375,0.062088499644398686,-0.020454685942456124,-0.002948145748488605
1782987297116050200,4.71805029296875,0.04533259515464306,-0.014493640379887074,-0.009685345049016176
1782987297126125300,4.728125244140625,0.060897244033217425,-0.015169256352819502,-0.008268838447751477
1782987297136199200,4.73819921875,0.06359013637900351,-0.023838519694469866,-0.0023561255389358848
1782987297146274300,4.7482744140625,0.05940262156128883,-0.024334376920014618,0.00012819295693188904
1782987297156348200,4.75834814453125,0.06838087778687477,-0.012688691583462058,-0.00938315636520274
1782987297166422000,4.768422119140625,0.07077917110025882,-0.023788543072901666,0.010199011925887316
1782987297176497200,4.7784970703125,0.05746376245319843,-0.021320198464300482,-0.0192295828606002
1782987297186571000,4.788571044921875,0.062252750295400616,-0.015892565658688546,-0.006561714869458228
1782987297196645400,4.798645263671875,0.05791325978636741,-0.014734518197365104,-0.012912974459165706
1782987297206720300,4.80872021484375,0.05791442883014679,-0.020848105706833302,-0.00979908022233285
1782987297216794400,4.81879443359375,0.05761807623207569,-0.02401654314249754,-0.02154420734536834
1782987297226869200,4.828869140625,0.06883914294838905,-0.017656342194508762,0.008451483271969483
1782987297236943400,4.838943359375,0.07138064412474632,-0.01925880895508453,0.0020282270251307634
1782987297247017200,4.849017333984375,0.06868541369140148,-0.013317089147493242,-0.008676871259370817
1782987297257092400,4.85909228515625,0.05956044247150421,-0.017728512381576002,0.009073889486631377
1782987297267166200,4.869166259765625,0.06748831286132335,-0.00544337836401537,-0.021832102642348035
1782987297277240300,4.879240234375,0.06494447359740733,-0.0160866999913007,-0.011153216511337086
1782987297287315200,4.889315185546875,0.06209843651652336,-0.020533687729109077,0.002443146235262975
1782987297297389300,4.899389404296875,0.06389350323975086,-0.013651545266248285,-0.008054839504044502
1782987297307464200,4.909464111328125,0.06643851154744625,-0.022144684856012464,-0.009992739630909636
1782987297317538300,4.919538330078125,0.061056233987212175,-0.02284959998866543,-0.009087315223785117
1782987297327612200,4.929612060546875,0.055072483402490616,-0.015612287412583827,-0.0211689260258805
1782987297337687300,4.939687255859375,0.05507365244626999,-0.005214391913730651,0.002092999357031658
1782987297347761200,4.94976123046875,0.0758738638907671,-0.020966800183057785,-0.0031385446208994834
1782987297357835300,4.959835205078125,0.06838906109333039,-0.03320431393291801,-0.013463447948778047
1782987297367910100,4.96991015625,0.06509644928872585,-0.017789156527630984,-0.0024211901317816227
1782987297377984300,4.979984375,0.06973404596149921,-0.00480440460704267,-0.002346325664129108
1782987297388058000,4.99005810546875,0.06240180337727069,-0.018112324067391453,-0.010438748099049553
1782987297398133200,5.00013330078125,0.06374737276732921,-0.014875862896814942,-0.01055683065392077
1782987297408207000,5.01020703125,0.06375263346433639,-0.03852421204773709,-0.00784874987215735
1782987297418282000,5.020281982421875,0.06061024378538132,-0.02128764790156856,-0.01043640087833628
1782987297428356000,5.030356201171875,0.07646890717446804,-0.02351920634591952,-0.006237332620145752
1782987297438430000,5.040429931640625,0.07212883214354515,-0.015579152327962219,-0.009729777845786883
1782987297448505000,5.050505126953125,0.06330021352171898,-0.005287128356378525,-0.015948076971899715
1782987297458579000,5.060578857421875,0.0707850163191557,-0.015958324371278285,0.007137733792280778
1782987297468653300,5.0706533203125,0.055820086899399754,-0.024561061815358696,-0.005672209550673142
1782987297478728000,5.08072802734375,0.052231122496724125,-0.01832974794404581,-0.013757416793517767
1782987297488802300,5.09080224609375,0.06675123075842856,-0.02157936085714027,-0.020554328658338634
1782987297498877000,5.100876953125,0.06480594190955162,-0.024708343065250663,-0.004030159698380157
1782987297508951300,5.110951416015625,0.05208382298052311,-0.018643161274772137,-0.01896832897537388
1782987297519025200,5.121025146484375,0.04908931733965873,-0.025735768150538206,-0.006847984464932233
1782987297529100300,5.131100341796875,0.06943944692909718,-0.01753596721785143,0.004059568455955014
1782987297539174100,5.141174072265625,0.05268295791745185,-0.014300565493199973,0.007403691252088174
1782987297549248300,5.151248291015625,0.05567278738319874,-0.03205963740982115,-0.022643866549804804
1782987297559323100,5.1613232421875,0.07811492081582545,-0.01858986018495634,-0.014266206565871834
1782987297569397200,5.171397216796875,0.07332534845173358,-0.011462419457826762,-0.012737490028096363
1782987297579472100,5.18147216796875,0.07617080101072787,-0.025422994140628725,-0.004705830470239743
1782987297589546200,5.191546142578125,0.06091185708045959,-0.006746789112780243,0.003922105347178876
1782987297599620000,5.2016201171875,0.059112114182114595,-0.01663668029056862,-0.012497543792380019
1782987297609695200,5.2116953125,0.05267360556721687,-0.025019052982237187,-0.006263005917519331
1782987297619769000,5.22176904296875,0.05686345847249031,-0.008722637496702372,-0.02146006359271705
1782987297629843000,5.231843017578125,0.048335868623852724,-0.017060257731191814,-0.001606786742666736
1782987297639918000,5.24191796875,0.037414661636948586,-0.02700233575394377,-0.0008800616370048373
1782987297649992200,5.2519921875,0.06973463048338889,-0.017517043321672827,0.005322994254203513
1782987297660066000,5.262066162109375,0.07077975562214851,-0.03404078302336856,0.0013772066373378038
1782987297670141200,5.27214111328125,0.06928396410644054,-0.03261630317820236,-0.018985417107492686
1782987297680215000,5.282215087890625,0.059411389389634126,-0.02307190096983686,-0.00548887973986566
1782987297690290200,5.292290283203125,0.057767713835835455,-0.01952924166060984,-0.008039605402294547
1782987297700364000,5.302364013671875,0.055527241432666775,-0.013961268802545964,-0.00658231926606968
1782987297710438000,5.31243798828125,0.05836801781654358,-0.023626100786495952,-0.019787280675442886
1782987297720513000,5.322512939453125,0.07004033543169498,-0.015396635367907583,-0.004461463787732645
1782987297730587000,5.3325869140625,0.055223874571919435,-0.011551522513385861,0.010846031991997733
1782987297740661200,5.3426611328125,0.06869067438840866,-0.032768698994629086,-0.003683757413504645
1782987297750736000,5.35273583984375,0.05656827491819858,-0.02579549898114055,-0.0026995230159722267
1782987297760810200,5.362810302734375,0.06928454862833022,-0.018285159883648157,0.008271925453981385
1782987297770884900,5.372884765625,0.06898585794270039,-0.017948237813170998,-0.0004514426950830966
1782987297780959200,5.382959228515625,0.07243102996051311,-0.020663195860292763,-0.01614419319904409
1782987297791033000,5.393033203125,0.06659925506711006,-0.02482037033867091,-0.005281794594135135
1782987297801108200,5.403108154296875,0.050289340779185294,-0.011027261177264153,-0.00938528439020738
1782987297811182000,5.41318212890625,0.06645604720413685,-0.016240155253652484,-0.009953476199600846
1782987297821256200,5.423256103515625,0.06975158161818981,-0.022403737650997936,-0.004173952083243057
1782987297831331000,5.4333310546875,0.06406769076287747,-0.01362038294300437,0.0011444755936972795
1782987297841405200,5.4434052734375,0.06556582036614418,-0.0207306168070063,-0.00815646411445923
1782987297851480000,5.45347998046875,0.06795476132929325,-0.020476514181774107,-0.008894541731197386
1782987297861554200,5.46355419921875,0.06914952407181263,-0.02700984320696443,-0.0047098764576949175
1782987297871628000,5.4736279296875,0.06914718598425387,-0.014527944508288055,-0.016104491376318038
1782987297881703200,5.483703125,0.052984571212530134,-0.009069368575140834,0.010283073480147868
1782987297891777000,5.493777099609375,0.04355272600054741,-0.01688572314819321,0.014773471101419999
1782987297901851100,5.50385107421875,0.05133154330849647,-0.01635179893458262,-0.008779500516783445
1782987297911926000,5.513926025390625,0.0537269140124321,-0.013633059761486946,-0.014108084261557087
1782987297922000100,5.524000244140625,0.06914017172157765,-0.01962974289301783,-0.01554446460707113
1782987297932075000,5.534074951171875,0.0799123256266117,-0.018921503292117267,0.001898673228174448
1782987297942149000,5.544149169921875,0.06524082619547844,-0.018980229475721717,-0.006554709739936515
1782987297952223000,5.554222900390625,0.05775660791993141,-0.023829605735652147,-0.003457730105286464
1782987297962298000,5.564298095703125,0.06628244420289993,-0.02412151962062344,-0.015607565571693703
1782987297972372000,5.5743720703125,0.05162146616578102,-0.028891126908920702,-0.002061955764796585
1782987297982446000,5.584446044921875,0.04474047448039055,-0.030156342805456367,-0.012188432177435605
1782987297992521000,5.59452099609375,0.0679348875850439,-0.029079361223708838,-0.01668931466010399
1782987298002595000,5.604594970703125,0.07437164263427257,-0.0200437122550793,-0.00435772941862233
1782987298012669200,5.614669189453125,0.06419920818805694,-0.025919618551153687,-0.014201854359079152
1782987298022744000,5.624744140625,0.06195639769732952,-0.0005485189945437014,-0.01037614945792593
1782987298032818200,5.634818115234375,0.05342997689247131,-0.025734562574140727,-0.02424484460619278
1782987298042893000,5.64489306640625,0.06166238318681717,-0.0068352163149043915,-0.004819565643556416
1782987298052967200,5.65496728515625,0.04475684109330177,-0.01883309435630217,-0.004575500355148688
1782987298063041300,5.665041259765625,0.05732698433101177,-0.02180557082844898,0.005847191658243537
1782987298073116200,5.6751162109375,0.07513327465653419,-0.013433628199249505,-0.005515904744109138
1782987298083190300,5.685190185546875,0.06166881292760372,-0.015270561302825808,0.0008947568826377392
1782987298093264100,5.69526416015625,0.057179100292921066,-0.01467825796548277,0.007620631071552634
1782987298103339300,5.70533935546875,0.06301788944900036,-0.017327676495723424,-0.007193436901737004
1782987298113413000,5.7154130859375,0.05747954454421997,-0.03141912928288802,-0.016997202432341874
1782987298123488300,5.72548828125,0.06301847397089004,-0.022800335753150283,-0.0070129657682962716
1782987298133562000,5.73556201171875,0.055388709744811054,-0.03677453710250556,-0.012159087351942434
1782987298143637200,5.74563720703125,0.061223407247662544,0.0020989085080102086,-0.0005015106481965631
1782987298153711000,5.755711181640625,0.05748422071933746,-0.014924213816877453,-0.017458636798476798
1782987298163786200,5.7657861328125,0.06182721835970878,-0.022576372537855056,-0.0035299550912808626
1782987298173860000,5.775860107421875,0.0736474200129509,-0.01606489001829177,-0.017198104432458058
1782987298183934200,5.785934326171875,0.06901040786206722,-0.019168518589437005,-0.014580451013660057
1782987298194009000,5.796009033203125,0.06377484529614448,-0.02659112460454926,-0.005417650267714634
1782987298204083200,5.806083251953125,0.0630289953649044,-0.0058749199153855436,0.005696695537958294
1782987298214157000,5.816156982421875,0.04746960718333721,-0.014881068794894963,-0.014043914717854931
1782987298224232200,5.826232177734375,0.061088382691144937,-0.021138631352316587,-0.011376713935751468
1782987298234306000,5.83630615234375,0.06587912409901618,-0.02855787636656314,-0.007530176309123635
1782987298244381200,5.846381103515625,0.08308920209705829,-0.030454394170269367,0.0007244326838757842
1782987298254455000,5.856455078125,0.04613280562162399,-0.016834358287137002,-0.0025273813194595274
1782987298264529200,5.866529052734375,0.05915186167061329,-0.01980414961185306,-0.00015345526235178113
1782987298274604000,5.87660400390625,0.0802519328445196,-0.017094452261738478,-0.01055778050199151
1782987298284678100,5.88667822265625,0.06349661287665367,-0.0045407669684849675,-0.03067425659918226
1782987298294752000,5.896751953125,0.05855740290880203,-0.030914120636507867,-0.0059694115321151904
1782987298304827100,5.9068271484375,0.05751344681382179,-0.013551500691566616,-0.008145869655208662
1782987298314901000,5.91690087890625,0.0537789364606142,-0.007636924619227647,-0.004445170240057632
1782987298324976000,5.92697607421875,0.06799684690535068,-0.019814031685050575,-0.011948915199982002
1782987298335050000,5.937050048828125,0.06605214257836342,-0.021183055015932768,-0.016005058722989633
1782987298345124000,5.9471240234375,0.0741308196157217,-0.01962194317905232,-0.007715643278090283
1782987298355199000,5.957198974609375,0.0730804337799549,-0.023606080911774185,-0.007164219940407201
1782987298365273000,5.967273193359375,0.06051262862980365,-0.009909819720964878,-0.0012434424561448395
1782987298375347200,5.97734716796875,0.056769934970140455,-0.015637787180021404,-0.0141672488365788
1782987298385422000,5.987422119140625,0.058419455742835996,-0.0177339192090556,-0.0239800013912376
1782987298395496200,5.99749609375,0.07383329797387123,-0.03296020297873765,0.004210146774630994
1782987298405571300,6.0075712890625,0.0650076019614935,-0.012659976945631205,-0.006182433228287845
1782987298415644700,6.017644775390625,0.07069850707948207,-0.010003452821169047,0.004011692459927872
1782987298425718500,6.027718505859375,0.05229425086081028,-0.018960794122889636,-0.009691555594094098
1782987298435793700,6.037793701171875,0.0648632250547409,-0.011782627855520695,-0.00355437714648433
1782987298445867500,6.047867431640625,0.06830196733176708,-0.013702033344469964,-0.013722308947518467
1782987298455941600,6.057941650390625,0.04795242226421833,-0.031801223935652524,-0.009892375395819544
1782987298466016500,6.0680166015625,0.06890110226869582,-0.011179474330600351,0.011870671465154737
1782987298476090600,6.078090576171875,0.0768318952679634,-0.010421477303840219,-0.004466441356949508
1782987298486164500,6.08816455078125,0.06291793620586394,-0.020846443472709506,0.000880673558358103
1782987298496239600,6.098239501953125,0.0629243659466505,-0.003284318900294602,-0.010960342554049566
1782987298506313500,6.1083134765625,0.056790393236279484,-0.004312255442235619,-0.00940544126224704
1782987298516388600,6.118388671875,0.06037935763895511,-0.008631196353584527,0.00031580621721222994
1782987298526462500,6.12846240234375,0.054691959652304646,-0.01630874524414539,-0.013568506625294685
1782987298536536600,6.13853662109375,0.06037701955139636,-0.022510157167539,-0.01876135342749767
1782987298546611500,6.148611572265625,0.0609767390102148,-0.01092084166072309,-0.01228543541166
1782987298556685600,6.158685546875,0.05005728558897972,-0.024486188214551657,-0.009089278852008283
1782987298566759700,6.168759765625,0.06368190631568431,-0.015200144681427627,-0.0010076883383560926
1782987298576834600,6.17883447265625,0.07191080547869205,-0.023760723484214395,-0.011553851467790081
1782987298586908700,6.18890869140625,0.0729588532269001,-0.009687299544084817,-0.007028957921871915
1782987298596983600,6.198983642578125,0.06293430281877517,-0.012184084795881062,-0.013319637297606095
1782987298607057700,6.2090576171875,0.06801905873715877,-0.020509357005450875,-0.013196887700771912
1782987298617131800,6.2191318359375,0.0758043057858944,-0.01828207287741825,0.016374841883452607
1782987298627206700,6.22920654296875,0.06892272957861423,-0.01167593434434384,-0.008828079765709117
1782987298637280800,6.23928076171875,0.06622983723282813,-0.015174517049826681,-0.001973784290999174
1782987298647354600,6.249354736328125,0.06862462341487408,-0.015430117512401193,-0.010587499786820262
1782987298657429800,6.2594296875,0.06413841791152954,-0.019969916366506368,-0.005871056591020897
1782987298667503600,6.269503662109375,0.054261167019605636,-0.016446199219767005,-0.009251428877469152
1782987298677578800,6.279578857421875,0.06159340960383415,-0.013270382195245473,-0.009809181491238996
1782987298687652600,6.289652587890625,0.06398936482965946,-0.017106234031077472,0.004611448451364413
1782987298697726700,6.299726806640625,0.05815466732680797,-0.025565252155531196,-0.00998817305364646
1782987298707801600,6.309801513671875,0.06399287196099758,-0.0226242485338822,-0.0120857755205594
1782987298717875700,6.319875732421875,0.0653425330042839,-0.0062449040052481,-0.018982092639245093
1782987298727949600,6.329949462890625,0.05202420174777508,-0.024107929486688225,-0.015600039852363988
1782987298738024700,6.340024658203125,0.05396949059665203,-0.023991262570768595,-0.004120376998791471
1782987298748098600,6.3500986328125,0.04589022903740406,-0.016478457521554083,0.002962411735858768
1782987298758173700,6.360173583984375,0.06055763681530952,0.003943403863534331,-0.016200325566763058
1782987298768247600,6.37024755859375,0.06893792714774608,-0.01920647597964853,-0.02238777289688587
1782987298778321400,6.3803212890625,0.06534954726696014,-0.01928229942852631,-0.001219312661886215
1782987298788396500,6.390396484375,0.06385726288259029,-0.010607574460469185,-0.0022006792488973585
1782987298798470400,6.400470458984375,0.04365677089691162,-0.020633969765808433,-0.03936830732221715
1782987298808544500,6.41054443359375,0.04096212498545646,-0.020090382674708963,-0.008810123983910307
1782987298818619600,6.42061962890625,0.06669862378835678,-0.025398298090789466,-0.004285212171683088
1782987298828693500,6.430693603515625,0.06804536222219466,-0.021655476566962897,-0.0028896387605927883
1782987298838768600,6.4407685546875,0.06475275041759014,-0.015018139178026467,-0.0024101938137318936
1782987298848842500,6.450842529296875,0.064005146920681,-0.03537157496940344,-0.009805153770092874
1782987298858916600,6.46091650390625,0.06655132427215575,-0.02165098305493593,0.0032199940929654985
1782987298868991500,6.470991455078125,0.059517772373557085,-0.015249134922306984,-0.003388738255994394
1782987298879065600,6.481065673828125,0.06879588832855224,-0.019136570814903824,0.008260636874986812
1782987298889139700,6.4911396484375,0.07029577149748802,-0.016535338807944208,-0.00960327452244237
1782987298899214600,6.501214599609375,0.07328793905079364,-0.00939920331770554,-0.0000033518677111715076
1782987298909288700,6.511288818359375,0.052940147548913956,-0.005668930748198181,0.0017452088326681404
1782987298919362600,6.521362548828125,0.06012567513883114,-0.008963844107743353,0.014070446531753987
1782987298929437700,6.531437744140625,0.06401449927091599,-0.014874383325781672,-0.006563039176864549
1782987298939511600,6.541511474609375,0.06895078662931918,-0.028561949753481895,-0.0073322243179194625
1782987298949586700,6.551586669921875,0.06446341208219528,-0.013947989195864647,0.004855075348354876
1782987298959660500,6.56166064453125,0.0719476303577423,-0.017758067269623277,0.0006984579924028367
1782987298969734700,6.571734619140625,0.055037412089109415,-0.017581450327392667,0.0012438534480985254
1782987298979809500,6.5818095703125,0.07074760691821574,-0.011033362124487757,0.002192970866477117
1782987298989883600,6.591883544921875,0.0688023180693388,-0.018669135966245084,-0.002411846914701164
1782987298999957500,6.60195751953125,0.05713467662930488,-0.00952388914329931,-0.011147508289758115
1782987299010032600,6.61203271484375,0.0749456431299448,-0.023299901039432733,-0.012735782128199934
1782987299020106500,6.6221064453125,0.05519581752121448,-0.02337535916212946,0.006471378838038072
1782987299030181600,6.632181640625,0.04905775315761566,-0.012833598213177174,-0.0006595507541205733
1782987299040255500,6.64225537109375,0.052797524207830425,-0.023027532105147838,-0.008955213276715949
1782987299050329600,6.65232958984375,0.05564356128871441,-0.009147621443122625,-0.002195509883435443
1782987299060404500,6.662404541015625,0.04457330121994018,-0.010543642378784716,0.005776537574827671
1782987299070478600,6.672478515625,0.05070844297409057,-0.015156743931118398,0.00354924431364052
1782987299080552700,6.682552734375,0.07225801148116588,-0.010873130061477422,-0.0064911795170512045
1782987299090627600,6.692627685546875,0.07076631161868571,-0.012631225775182246,-0.011338153757341205
1782987299100701700,6.70270166015625,0.0626852964937687,-0.01400114415520802,-0.01894813557071611
1782987299110776600,6.712776611328125,0.06343173094689845,-0.014650365311559289,-0.008828335494035855
1782987299120850700,6.7228505859375,0.06837152543663978,-0.022062212470639497,0.0020950725831091403
1782987299130924800,6.7329248046875,0.05475625706017017,-0.0085557382308878,-0.00008085581702180206
1782987299140999700,6.742999755859375,0.059094578525424,-0.015285393545776604,-0.01219325448302552
1782987299151073800,6.75307373046875,0.0754027392476797,-0.007290431002806872,0.011580639010015874
1782987299161147600,6.763147705078125,0.04951251118779182,-0.011731098597683011,-0.01838726855125278
1782987299171222800,6.773222900390625,0.059089902350306506,-0.015616178136412053,0.00035703327674418685
1782987299181296600,6.783296630859375,0.06313011765182018,-0.017377232992183415,-0.0012005531624890862
1782987299191371800,6.793371826171875,0.04876256960332393,-0.013893610393814742,-0.010880783644970506
1782987299201445600,6.803445556640625,0.05175181454718113,-0.008804160034004598,-0.015793772326176986
1782987299211519700,6.813519775390625,0.06013093583583831,-0.01988541642082855,-0.01598945929505862
1782987299221594600,6.8235947265625,0.06686930418014526,-0.006409867042303085,-0.013366636510798707
1782987299231668700,6.833668701171875,0.05475041184127331,-0.011946860240213573,0.00417765101082623
1782987299241742600,6.84374267578125,0.061037529286742206,-0.012596483255364,0.017488876673113555
1782987299251817700,6.853817626953125,0.05639876357018947,-0.011692958544380962,-0.0256501630931627
1782987299261891600,6.8638916015625,0.06717091747522354,-0.024636118079256263,-0.007540460241120308
1782987299271965400,6.87396533203125,0.06627309185266494,-0.024660211340896784,-0.009224559136852621
1782987299282040600,6.88404052734375,0.06642506754398346,-0.006766808987502008,-0.016819425579486413
1782987299292114400,6.894114501953125,0.059091655915975566,-0.019063998769037423,-0.011091540318820625
1782987299302189600,6.904189453125,0.06283201148808003,-0.013997874485887586,-0.004757030934514478
1782987299312263700,6.914263671875,0.05325520484745502,-0.013075626808125525,-0.007862239541392773
1782987299322337500,6.924337646484375,0.058494274544715875,-0.016309768157452345,-0.004376616782182827
1782987299332412700,6.93441259765625,0.04877133743166923,-0.023804690490104256,-0.005260349947307259
1782987299342486500,6.944486572265625,0.052662499651312825,-0.011657448839582502,0.00071174673223868
1782987299352560600,6.954560546875,0.06299041692018509,-0.0066484981037676335,-0.00451694770148024
1782987299362635500,6.964635498046875,0.06299275500774383,-0.00010117708584293722,-0.019829037457937373
1782987299372709600,6.974709716796875,0.06343816068768501,-0.02057582810409367,0.0004297971188556403
1782987299382784500,6.984784423828125,0.05161620546877384,-0.00788463403629139,-0.005688110372703522
1782987299392858600,6.994858642578125,0.06942658744752407,-0.012106800042279063,-0.006492814351711422
1782987299402932700,7.0049326171875,0.06927578079998493,-0.005753832552675158,-0.009114340228028595
1782987299413007600,7.015007568359375,0.055658758857846255,-0.022370931359939276,-0.008201289636874571
1782987299423081700,7.025081787109375,0.06343640712201595,-0.013492555312253534,-0.009502544961171224
1782987299433155600,7.035155517578125,0.05026771346926689,-0.009933237129170446,-0.0004759652149863541
1782987299443230700,7.045230712890625,0.05894610996544361,-0.020148853129986672,-0.016459095233958214
1782987299453304800,7.055304931640625,0.05266016156375408,-0.00928233547238633,-0.00025107955108396706
1782987299463379700,7.065379638671875,0.07046703641116618,-0.011519830467179417,-0.006526241697277874
1782987299473453800,7.075453857421875,0.059093409481644626,-0.017715104910731316,0.005180380046274513
1782987299483527700,7.085527587890625,0.07271276951134205,-0.020018303819186983,-0.0006769311471842229
1782987299493602800,7.095602783203125,0.04922025024294853,-0.010142934357095509,-0.005514078113203868
1782987299503676700,7.1056767578125,0.05535714556276798,-0.016839180592726915,-0.020139628643915056
1782987299513750500,7.11575048828125,0.053107905331254,-0.024607823566533623,-0.0090546276637353
1782987299523825700,7.12582568359375,0.06238777485191822,-0.015109781250543892,-0.002643966036988422
1782987299533899500,7.1358994140625,0.07046703641116618,-0.01772350741289556,0.005931152747804299
1782987299543973600,7.1459736328125,0.06927227366864681,-0.022108864623960105,-0.009207270075334235
1782987299554048500,7.156048583984375,0.06897358298301696,-0.02071834184732288,0.0034183570761233567
1782987299564122600,7.16612255859375,0.07570669063031674,-0.007469641760922968,-0.010977677281340583
1782987299574197800,7.17619775390625,0.056852352556586265,-0.010039090390130878,-0.0069454078242648385
1782987299584271600,7.186271728515625,0.051316345739364624,-0.026235881426092237,-0.0005043784587178379
1782987299594345500,7.196345458984375,0.06313947000205516,-0.017790782229136673,-0.0027278083955403418
1782987299604420600,7.206420654296875,0.05804828434288501,-0.016286295950319617,0.002338142357673496
1782987299614494500,7.216494384765625,0.06253390532433986,-0.007412943137623369,-0.007628248122427612
1782987299624569600,7.226569580078125,0.059388593035936355,-0.010070051783975213,-0.005501355628948658
1782987299634643500,7.2366435546875,0.05595101980268955,-0.022954138075374067,-0.019671992865856736
1782987299644717600,7.246717529296875,0.07346446466147899,-0.024132461139746007,-0.016204746013553813
1782987299654792400,7.25679248046875,0.0625450112402439,-0.02026590363839641,0.004902101961011067
1782987299664866600,7.266866455078125,0.07796177608072757,-0.018341949838493018,-0.0069626877526286985
1782987299674940700,7.276940673828125,0.06404664797484874,-0.030093926827423272,-0.0037935105314478275
1782987299685015600,7.287015625,0.07287585111856461,-0.01104249527901411,-0.006220573281589895
1782987299695089700,7.297089599609375,0.07302490420043468,-0.005398169249109923,0.0011743592753075062
1782987299705163800,7.307163818359375,0.058664370414614676,-0.015457407378125934,-0.012394750138185917
1782987299715238700,7.31723876953125,0.06554828470945358,-0.0024119747788645327,-0.001779987885104492
1782987299725312800,7.327312744140625,0.06046060618162155,-0.025457334801647812,-0.009714351947791874
1782987299735387600,7.3373876953125,0.05926175178587436,-0.016874964292161166,-0.004799153043190017
1782987299745461800,7.347461669921875,0.06569266161620617,-0.01629217770183459,-0.0053120162024628366
1782987299755535600,7.35753564453125,0.055067222705483435,-0.010533120984770357,-0.0018371705655939876
1782987299765610800,7.36761083984375,0.05955751986205578,-0.02093834127355367,-0.01444461360638961
1782987299775684600,7.3776845703125,0.06778817259073257,-0.01850103112403303,-0.016448601239407435
1782987299785758700,7.3877587890625,0.07841244245767592,-0.017733882676437496,-0.016049674182850866
1782987299795833600,7.39783349609375,0.06718436147868632,-0.017285225593484936,0.0009316913595423102
1782987299805907700,7.40790771484375,0.07481295666098595,-0.02317470375718549,-0.0010516918768640607
1782987299815982600,7.417982666015625,0.08109832054078578,-0.010751659106276928,-0.0006678527915850281
1782987299826056700,7.428056640625,0.06747720694541931,-0.012834036604594439,-0.005960278377588838
1782987299836130600,7.438130615234375,0.07196399697065353,-0.02338151490828022,-0.01517687340369448
1782987299846205700,7.448205810546875,0.06313654739260673,-0.012559512245841323,-0.002641710147820413
1782987299856279600,7.458279541015625,0.06253975054323672,-0.008882485967222601,0.007541200026636943
1782987299866353700,7.468353759765625,0.05880056401491165,-0.014966883914824574,-0.004230586774460971
1782987299876428500,7.478428466796875,0.05296645103394985,-0.022855755734816192,0.008696617139456794
1782987299886502700,7.488502685546875,0.06599018325805664,-0.019058317946922032,-0.007611214789235964
1782987299896577500,7.49857763671875,0.06104921972453594,-0.008952263267803937,-0.012392457716399803
1782987299906651600,7.508651611328125,0.07406710672974585,-0.007166165302321314,-0.0007724822098389267
1782987299916725800,7.518725830078125,0.06479074434041976,-0.019120642593409867,0.007861180095467716
1782987299926800600,7.528800537109375,0.054765609410405154,-0.025822752314247188,0.0047106527758296575
1782987299936874800,7.538874755859375,0.0613514175415039,-0.011801241224445402,-0.00785796522507444
1782987299946948900,7.548948974609375,0.05357260023355484,-0.017999675739463417,-0.0022673421437852084
1782987299957023700,7.559023681640625,0.07541910586059093,-0.019775471506640312,0.002262282376177609
1782987299967097900,7.569097900390625,0.0698825145214796,-0.02367868949025869,-0.0011716832610312849
1782987299977171700,7.579171630859375,0.06494505811929703,-0.0337149486024864,-0.014971021233825012
1782987299987246800,7.589246826171875,0.06928747123777866,-0.007003741282224655,0.004585775153990835
1782987299997320700,7.59932080078125,0.06524550237059593,-0.004655260193627327,0.010672465523378923
1782987300007395800,7.609395751953125,0.08080898220539093,-0.008325381807424127,-0.0036188480842858552
1782987300017469700,7.6194697265625,0.06958850001096725,-0.012920180518086999,-0.006947280120942741
1782987300027543600,7.62954345703125,0.0660001201301813,-0.016392825064714997,-0.012600903702154755
1782987300037618700,7.63961865234375,0.04654898520708084,-0.009456760457530617,-0.018854429405275732
1782987300047692500,7.649692626953125,0.05927051961421966,-0.0048792964741587634,-0.01884870291738771
1782987300057766700,7.6597666015625,0.059870823594927784,-0.003931128903850912,-0.005890665473788977
1782987300067841800,7.669841796875,0.05672843391597271,-0.012901256621908396,0.001829809243045747
1782987300077915600,7.67991552734375,0.06959609879553318,-0.017130656086280942,-0.0043070038783829655
1782987300087990800,7.68999072265625,0.06914952407181263,-0.029599658770766108,-0.008493166989227757
1782987300098064600,7.700064697265625,0.07109364387691021,-0.012992368971463292,0.008254800789244473
1782987300108138500,7.710138427734375,0.05373568184077739,-0.007596446478366851,0.011542124497378244
1782987300118213600,7.720213623046875,0.06091770229935646,-0.004471555923484266,0.002232298229867592
1782987300128287500,7.73028759765625,0.06271569163203239,-0.02056320608453825,-0.00607268924349919
1782987300138361600,7.740361572265625,0.0681049834549427,-0.015371153866779058,-0.009247191093768923
1782987300148436500,7.7504365234375,0.07124269695878029,-0.015592011809535324,-0.013365430934401228
1782987300158510600,7.760510498046875,0.06840718127191066,-0.004833941228780895,-0.01238477673344314
1782987300168585500,7.77058544921875,0.06826455793082714,-0.01729666030295193,-0.0041045857746154065
1782987300178659600,7.78065966796875,0.05913666410148143,-0.01253788493592292,-0.027969098426867275
1782987300188733700,7.790733642578125,0.06662029785513877,-0.007800316753704101,-0.01379765747236088
1782987300198808600,7.80080859375,0.04836801732778549,-0.029512236215639857,-0.0028454160263761876
1782987300208882700,7.810882568359375,0.05824293013215065,-0.012950319928023963,-0.0033494017594493924
1782987300218956800,7.820956787109375,0.0621311697423458,-0.013636749555915593,-0.014573217555275186
1782987300229031700,7.83103173828125,0.05644026462435722,-0.01082052309140563,0.005580476146610454
1782987300239105800,7.841105712890625,0.06437339571118354,-0.0031170360419899225,-0.0047934630879200996
1782987300249180700,7.8511806640625,0.07649754874706267,-0.015230229292437433,0.005477408497780561
1782987300259254800,7.8612548828125,0.055552960395812985,-0.0019049203058704733,0.0006121953479014336
1782987300269328600,7.87132861328125,0.06198913092315197,0.002208926487434655,-0.015072043056041002
1782987300279403800,7.88140380859375,0.06288929463326931,-0.009986264224350451,-0.0011593443692661822
1782987300289477600,7.8914775390625,0.05496200876533985,-0.021639055155124515,-0.0005826130603905767
1782987300299551700,7.9015517578125,0.06214636731147766,-0.006641666504181921,-0.01278793244054541
1782987300309626600,7.911626708984375,0.06783142721056938,-0.004418565360922366,0.009772502742661162
1782987300319700700,7.92170068359375,0.05226853189766407,-0.012401271210517734,-0.0037582017560489475
1782987300329774600,7.931774658203125,0.051374213406443596,-0.01732002291223034,-0.01720190382474102
1782987300339849700,7.941849609375,0.06723930653631686,-0.01966406528772786,-0.02487590905134566
1782987300349923600,7.951923583984375,0.07217793198227881,-0.009781151839997618,0.006881621873052791
1782987300359998700,7.961998779296875,0.06514438008368015,-0.017687632381916046,0.0008166410119738429
1782987300370072600,7.972072509765625,0.06469722083806992,-0.011932813448552041,0.0006301876623183489
1782987300380146700,7.982146728515625,0.06394435664415359,-0.00428573276149109,-0.000108702805172652
1782987300390221600,7.9922216796875,0.06858253783881664,-0.024757607300765812,0.005690676789125427
1782987300400295700,8.002295654296875,0.06663900255560874,-0.014842070225067436,-0.01168302167225629
1782987300410369800,8.012369873046875,0.06933014133572578,-0.018980722666066138,0.006547174887452274
1782987300420444700,8.022444580078124,0.06663607994616032,-0.018899346259236335,0.01175066181467846
1782987300430518800,8.032518798828125,0.07262158409655094,-0.01679210831429809,-0.01201991634326987
1782987300440593700,8.04259375,0.0781564218699932,-0.004262571081612259,-0.0010283749333582818
1782987300450667800,8.052667724609375,0.07037409743070602,-0.014455281130876392,-0.007567238650191575
1782987300460741600,8.06274169921875,0.06842822405993938,-0.015348923768661916,-0.017714684785623103
1782987300470816800,8.072816650390624,0.055712534871697424,-0.02239518901836127,-0.012134592231502756
1782987300480890600,8.082890625,0.0639437721222639,-0.010243837448302656,-0.0009992219041101635
1782987300490965000,8.092965087890626,0.06738309892117977,-0.025463307884708044,-0.015812522692419586
1782987300501039600,8.10303955078125,0.06244388895332813,-0.007686170588433742,0.011393117081280798
1782987300511114000,8.113114013671876,0.05839665938913822,-0.005318455076403916,0.003561875466350466
1782987300521188600,8.123188720703125,0.06737023943960667,-0.006428316014446318,-0.0021807233062572776
1782987300531263000,8.133262939453125,0.04836451019644737,-0.0003633168870583176,-0.009016405412042513
1782987300541336800,8.1433369140625,0.06272738206982613,-0.011106993616279214,-0.009989214233262465
1782987300551412000,8.153411865234375,0.06272445946037769,-0.009121080496069044,-0.0015062215781770645
1782987300561485800,8.16348583984375,0.06466741022169589,-0.024011264179181306,-0.0014483721774071455
1782987300571559700,8.1735595703125,0.052850131177902215,-0.024114012167602776,-0.01093160964990966
1782987300581634800,8.183634765625,0.065717211535573,-0.004225855800416321,-0.013811485068313777
1782987300591708700,8.193708740234374,0.06900631620883942,-0.006728449738491326,-0.0036638745361007746
1782987300601783800,8.20378369140625,0.07633738974928855,-0.023056082346197215,-0.006469095549406483
1782987300611858000,8.21385791015625,0.053146483775973315,-0.0043866358526982365,0.005974608297040686
1782987300621931800,8.223931884765625,0.07185176876783371,-0.02069154517194256,-0.0017318013618234545
1782987300632007000,8.2340068359375,0.07185293781161307,-0.01798361965380609,-0.004795938172796741
1782987300642080800,8.244080810546874,0.06137947459220886,-0.0068877684860490255,-0.011325604803021997
1782987300652154600,8.254154541015625,0.05300210686922073,-0.01206714388532564,-0.017204844700498507
1782987300662229800,8.264229736328126,0.05913900218904018,-0.006317055926006287,-0.01025021239016205
1782987300672303600,8.2743037109375,0.06662438950836658,-0.010294142863433808,0.0025176545098889616
1782987300682378800,8.284378662109376,0.08697393457591533,-0.012447685901820658,-0.007623051357502117
1782987300692452600,8.29445263671875,0.06168810214996338,-0.023005448137503114,-0.002546086019929498
1782987300702526700,8.304526611328125,0.06557809532582759,-0.026201504232455042,-0.01678850985141471
1782987300712601600,8.3146015625,0.053607087025046345,-0.02709408742431551,-0.008290155230415985
1782987300722675700,8.32467578125,0.0658744479238987,-0.017354674100503325,0.012443986974237486
1782987300732749800,8.334749755859375,0.059737552604079244,-0.012740403504390268,-0.023470727561693636
1782987300742824700,8.34482470703125,0.06871814691722393,-0.006663494743499905,-0.013609249627636745
1782987300752898800,8.35489892578125,0.06168810214996338,-0.012482702416274695,-0.010746864200150594
1782987300762973700,8.3649736328125,0.05705050547719001,-0.023987737173121422,-0.00018770459182560444
1782987300773047800,8.3750478515625,0.0643839171051979,-0.01992883543744683,0.004431644038204103
1782987300783122000,8.385121826171876,0.06318798531889915,-0.013958090464770792,-0.013364608950493857
1782987300793196800,8.39519677734375,0.04941723411977291,-0.01456970129078254,-0.0027698300395160914
1782987300803271000,8.40527099609375,0.05345394228994846,-0.013166593027208,-0.007260592986969277
1782987300813344800,8.4153447265625,0.06467559352815151,-0.00211816119775176,0.0022470300081185997
1782987300823420000,8.425419921875,0.07994155172109603,-0.023245357840601354,0.0001787541003897786
1782987300833493800,8.43549365234375,0.061086044603586194,-0.015553049772325902,0.007034209485724568
1782987300843567900,8.44556787109375,0.06856850931346416,-0.009231756062619388,-0.031131060455972328
1782987300853642800,8.455642822265625,0.0794938079535961,-0.029482827458065002,0.005406032895157113
1782987300863716900,8.465716796875,0.06737374657094478,-0.024860592751204967,-0.005856059951288625
1782987300873791700,8.475791748046875,0.06018938802480697,-0.027909952118154613,-0.021123159788548944
1782987300883865900,8.485865966796876,0.0658785395771265,-0.015391520801372825,-0.011664828428439796
1782987300893939700,8.495939697265625,0.046727264383435246,0.0005766856431029737,0.0017419939622748642
1782987300904014800,8.506014892578126,0.05870294885933399,-0.007902096627745776,-0.010381528885941953
1782987300914088700,8.516088623046874,0.06723053870797156,-0.012157854376081377,-0.006673303751461208
1782987300924162800,8.526162841796875,0.047177346238493914,-0.00010198080344125628,0.012283161256182938
1782987300934237700,8.53623779296875,0.06692834089100361,-0.01811177607811987,-0.00819159935992211
1782987300944311800,8.546311767578125,0.05989712707996368,-0.01326488403622061,-0.012453357590781524
1782987300954386700,8.55638671875,0.06632920595407485,-0.012909713922999798,-0.007381899545388296
1782987300964460800,8.566460693359375,0.059146600973606106,-0.016928831637557595,-0.005345781474746764
1782987300974534700,8.57653466796875,0.06932254255115985,-0.016168971447274087,-0.0005467654288746416
1782987300984609800,8.58660986328125,0.05211655620634555,-0.025077980095241217,-0.013795894773537293
1782987300994683600,8.59668359375,0.062142860180139536,-0.0037759566084481773,-0.00428826264529489
1782987301004757800,8.6067578125,0.05705576617419719,-0.01274182827649638,-0.0023184330102056262
1782987301014832600,8.61683251953125,0.05885434002876282,-0.010370130709093064,-0.0012999858158174902
1782987301024906800,8.62690673828125,0.06319266149401664,-0.012936583663616328,-0.011550983657268806
1782987301034981600,8.636981689453124,0.07157353634834289,-0.01660367307011038,0.000376085037086159
1782987301045055700,8.6470556640625,0.052423430198431015,-0.01734647252773866,-0.0004465929900296032
1782987301055129900,8.6571298828125,0.06050912149846553,-0.006803323339298367,-0.013315353848133236
1782987301065204700,8.667204833984375,0.062461424610018725,-0.014330193446483463,-0.004852006608434021
1782987301075278800,8.67727880859375,0.0593166968435049,-0.018012242960091678,0.012027642991999163
1782987301085352700,8.687352783203124,0.07129062775373458,-0.011893814878724514,-0.011688163638254628
1782987301095427800,8.697427734375,0.048691842454671855,-0.01856441521644592,0.003241566603956744
1782987301105502000,8.707501953125,0.057818567240238185,-0.01998661177298054,-0.0030481446573976424
1782987301115575800,8.717575927734375,0.08071721226871013,-0.007938994572032242,-0.012857919803680852
1782987301125651000,8.72765087890625,0.06575520545840263,-0.024210129485838113,-0.006463926183944568
1782987301135724800,8.737724853515624,0.06261340030133723,-0.0016136640080250798,0.005297613217774778
1782987301145800000,8.747800048828125,0.06036532911360264,-0.021505016979295757,-0.0005094747589435428
1782987301155873800,8.757873779296874,0.06574936023950577,-0.012352061773929744,-0.004282791885733604
1782987301165947600,8.76794775390625,0.05586918673813343,-0.01694770073480904,-0.007130290271341801
1782987301176022800,8.778022705078126,0.06858779853582382,-0.012919468132033943,0.001239286870835349
1782987301186096600,8.7880966796875,0.05198153164982795,-0.01236243703747168,0.0026618852861691263
1782987301196170800,8.798170654296875,0.058715223819017406,-0.013553857045434414,0.005363125335192308
1782987301206245600,8.80824560546875,0.060063715818524356,-0.008238726437278092,-0.0023400694532785564
1782987301216319700,8.81831982421875,0.061409285208582874,-0.021406908633373675,-0.00635110432608053
1782987301226395000,8.828394775390626,0.06619827305078506,-0.017344664163142443,0.010408709153812378
1782987301236468700,8.83846875,0.05242693732976913,-0.008100213015731423,-0.016244703564606607
1782987301246542600,8.84854248046875,0.05197802451848983,-0.008966346592083573,-0.001064405227964744
1782987301256617700,8.85861767578125,0.06768588126003741,-0.01899126232638955,-0.0012950539123732596
1782987301266691600,8.868691650390625,0.0615519085496664,-0.018936810459103434,0.014290774751547723
1782987301276765700,8.878765625,0.06933247942328452,-0.009970171606075018,-0.00490094205038622
1782987301286840600,8.888840576171875,0.06349836644232272,-0.013459000102523714,-0.00338071021316573
1782987301296914700,8.898914794921875,0.06858370688259602,-0.011469269323721528,0.0050621056951582425
1782987301306989600,8.908989501953124,0.06902735899686813,-0.02096090016523376,-0.0011013305717147885
1782987301317064000,8.91906396484375,0.06304185484647751,-0.027836612887308,-0.006817141802096739
1782987301327137800,8.9291376953125,0.06962298680245876,-0.007252765873540192,-0.008306622308027
1782987301337213000,8.939212890625,0.06094108317494392,-0.011789587319269776,-0.004930113345943391
1782987301347286800,8.949286865234376,0.06602876170277595,-0.017276512564066798,-0.010910840856516732
1782987301357361000,8.95936083984375,0.06722293992340564,-0.012851079070940612,-0.009996365493256599
1782987301367435800,8.969435791015625,0.05315466708242893,-0.004893763390928506,0.0053516175604891025
1782987301377510000,8.979510009765624,0.0654296267658472,-0.013970675951708107,-0.011188159960554911
1782987301387584800,8.989584716796875,0.07740238863229751,-0.01116975665418431,-0.006647201195824891
1782987301397659000,8.999658935546876,0.07336217333078383,-0.015339717548899352,-0.012373963078483938
1782987301407732700,9.009732666015625,0.046128129446506495,0.003532612839248031,-0.01021720516970381
1782987301417807600,9.0198076171875,0.05869944172799587,-0.014072254896350203,-0.004925281907198951
1782987301427881700,9.0298818359375,0.056605099797248835,-0.012596428456436841,0.002413819676078856
1782987301437955600,9.03995556640625,0.07291735217273235,-0.004886456867307425,-0.00645715851644054
1782987301448030700,9.05003076171875,0.06064940675199031,-0.0031465909300372004,0.002648888807278126
1782987301458104600,9.0601044921875,0.06334346814155578,-0.014835512620117515,-0.005585344117972999
1782987301468178400,9.070178466796875,0.07920330057442188,-0.016128785567358136,-0.01449054424050264
1782987301478253600,9.080253662109374,0.05256546901762485,-0.013223693509306758,0.005698385171545669
1782987301488327400,9.090327392578125,0.06677519615590571,-0.009416464979760349,-0.00848697471045889
1782987301498402600,9.100402587890626,0.06512801347076892,0.00009553279634565114,-0.019219536390621215
1782987301508476400,9.110476318359375,0.07185936755239963,-0.02037363832918927,-0.0016281035253312437
1782987301518550500,9.120550537109375,0.0657213031888008,-0.019737550649046896,0.007179965498810633
1782987301528625700,9.130625732421874,0.046266661134362216,-0.013493833953887223,-0.007761217719176784
1782987301538699500,9.140699462890625,0.08113748350739479,-0.02540028911847621,-0.00837343133338727
1782987301548773600,9.150773681640626,0.0655734191507101,-0.014095288712065666,-0.006411447078036144
1782987301558848500,9.1608486328125,0.05151099152863026,0.002232910151220858,0.004294701519235968
1782987301568922600,9.170922607421875,0.04807166472971439,-0.010998418675269931,0.017793102050386367
1782987301578997500,9.18099755859375,0.052859483528137206,-0.0065677244851365685,0.007129504820052534
1782987301589071600,9.191071533203125,0.06318740079700946,-0.017276567362993954,0.0018482125494163483
1782987301599145700,9.201145751953124,0.06677928780913353,-0.027856906756665557,-0.013864338633557781
1782987301609220600,9.211220703125,0.07051613624989986,-0.02114391031563282,-0.0060769178940448905
1782987301619294700,9.221294677734376,0.053154082560539245,-0.006207823397871106,0.004710406180657446
1782987301629368600,9.23136865234375,0.06677227354645729,-0.006887311828322708,-0.010469015373149886
1782987301639443700,9.241443603515625,0.0751502257913351,-0.0045482378888875245,0.003568168209819123
1782987301649517600,9.251517578125,0.07125672548413277,-0.0165926584857516,0.0037409400939941405
1782987301659592700,9.2615927734375,0.0612339286416769,-0.015746215990558265,-0.008642567130969836
1782987301669666600,9.27166650390625,0.05510054045319557,-0.026455405928287653,0.010081550425523892
1782987301679740700,9.28174072265625,0.07395897018015385,-0.004567928970046341,-0.00870614301962778
1782987301689815600,9.291815673828125,0.05689560717642307,-0.0008135448725894093,-0.03336233577253297
1782987301699889700,9.3018896484375,0.060033905202150344,-0.024929511535260823,-0.008396611279575153
1782987301709963500,9.311963623046875,0.054047232007980346,-0.0239120050557889,-0.018117603030707686
1782987301720038700,9.32203857421875,0.07035948438346386,-0.01162179300431162,-0.026551559779141098
1782987301730112500,9.332112548828125,0.06407645859122275,-0.007485880509670823,-0.004486077639181167
1782987301740187600,9.342187744140626,0.05464695146679878,-0.022995657395850865,-0.011165080479066818
1782987301750261500,9.352261474609374,0.060036243289709086,-0.018296083136461673,-0.014220522526931017
1782987301760335600,9.362335693359375,0.05988777472972869,-0.02242861636392772,-0.004078994675632566
1782987301770409500,9.372409423828126,0.05988660568594932,-0.02244293715022504,-0.004189715907955542
1782987301780483800,9.38248388671875,0.05958499239087105,-0.013549600995425135,-0.012886168650630862
1782987301790558500,9.392558349609375,0.07185995207428932,-0.008153623703401535,-0.004578368165669962
1782987301800632800,9.4026328125,0.06572656388580798,-0.008213792925421149,0.0005864672516006977
1782987301810707500,9.41270751953125,0.058545712471008295,-0.009793572930153458,-0.0003009831074159592
1782987301820781800,9.42278173828125,0.0821872848212719,-0.008332432602718471,-0.013189288916205986
1782987301830855700,9.432855712890625,0.06497837586700916,-0.00789975854018703,0.00608390475725755
1782987301840930800,9.442930908203126,0.06572831745147704,-0.005426445495523512,-0.021002876143436877
1782987301851004700,9.453004638671874,0.07201075872182845,-0.0014824571100994944,-0.012658680037688464
1782987301861078500,9.46307861328125,0.0630330870181322,-0.02118670827774331,0.0006444353833794593
1782987301871153700,9.473153564453124,0.05854454342722892,-0.008881463053915649,0.011666554594645277
1782987301881227500,9.4832275390625,0.06333177770376205,-0.006376457963045686,-0.0019519469185266642
1782987301891302700,9.493302734375,0.05465221216380596,-0.013320340550504624,0.004285641429945826
1782987301901376800,9.503376708984375,0.07994155172109603,-0.02414636180093512,-0.01676411519567482
1782987301911450600,9.51345068359375,0.06991700131297111,0.0010280826724134386,-0.017748952381405978
1782987301921525800,9.52352587890625,0.05525076257884502,-0.003248608266096562,-0.001264293447928503
1782987301931599600,9.533599609375,0.06183598618805408,-0.019472086379583923,-0.005554775449773296
1782987301941673500,9.543673583984376,0.06004091946482658,-0.022411756560672073,-0.0001348510265816003
1782987301951748600,9.55374853515625,0.058390229648351666,-0.02048983032107353,-0.014654986687749623
1782987301961822500,9.563822509765625,0.06602174744009971,-0.013031696334853767,0.004395385414734483
1782987301971896600,9.573896484375,0.059139586710929865,-0.007739837004430592,-0.0004170289688277989
1782987301981971500,9.583971435546875,0.05210720385611057,-0.026566994810290633,0.00004068820341490209
1782987301992045600,9.594045654296876,0.06856792479157447,-0.004565408219397068,-0.0017375461160205304
1782987302002120400,9.604120361328125,0.06318097105622292,-0.0029262444439344107,-0.0006781367235817015
1782987302012194600,9.614194580078125,0.06467559352815151,-0.01271037369230762,-0.007698865673225372
1782987302022268400,9.624268310546874,0.05165419939160347,-0.008305964720901102,-0.01635610065036453
1782987302032343600,9.634343505859375,0.08233049268424511,0.003966675141267478,-0.018659034697338938
1782987302042417400,9.64441748046875,0.06318097105622292,-0.02160595660312101,-0.006560801554005593
1782987302052492500,9.654492431640625,0.055553544917702674,-0.019650913545209914,-0.006285309080872685
1782987302062566400,9.66456640625,0.06347907721996307,-0.010816705432813614,0.003747424633707851
1782987302072640800,9.674640869140624,0.07260463296175003,-0.008954802284762262,0.0044058702761307356
1782987302082715400,9.68471533203125,0.07648994996249675,-0.019916907537635413,-0.005832852605637162
1782987302092789800,9.694789794921874,0.05195113651156425,0.009034059799741954,-0.013449300692416727
1782987302102863600,9.704863525390625,0.04746610005199909,-0.003405040936823934,-0.01979308022856712
1782987302112938800,9.714938720703126,0.06078326226472854,-0.007468235255125909,0.0032913788287434725
1782987302123012600,9.7250126953125,0.05000935479402542,-0.01614279582640156,-0.009290016455342992
1782987302133086700,9.735086669921875,0.0573474425971508,-0.01368458901932463,-0.012852723038755356
1782987302143161600,9.74516162109375,0.044483869370818135,-0.0016760251871310173,-0.010068645278178155
1782987302153235700,9.755235595703125,0.05226502476632595,-0.02071529137371108,-0.007141341388318687
1782987302163310600,9.765310546875,0.07321370477080345,-0.00968205711338669,-0.009024880979442968
1782987302173384700,9.775384765625,0.0753115538328886,-0.019297186470404265,-0.012115640935860574
1782987302183458600,9.78545849609375,0.0661877516567707,-0.01123617295389995,-0.029846637535467742
1782987302193533700,9.79553369140625,0.07726034981310367,-0.004351528006698936,-0.013485038726078346
1782987302203607600,9.805607666015625,0.06903028160631657,-0.007761811374220997,-0.01893220734922215
1782987302213681700,9.815681640625,0.06678454850614071,-0.014221929032728075,-0.0056716889608651394
1782987302223756500,9.825756591796875,0.06004793372750282,-0.01643103818325326,-0.01812195041226223
1782987302233830700,9.83583056640625,0.04792553425729274,-0.009518043924402446,-0.014852016230346633
1782987302243905500,9.845905517578124,0.06932312707304954,-0.014584533533733337,-0.005837446582363918
1782987302253979600,9.855979736328125,0.05346680177152156,-0.025170736412610858,-0.008612363788951187
1782987302264053500,9.866053466796876,0.06903495778143405,-0.014966299392934888,-0.0009830196879804134
1782987302274128600,9.876128662109375,0.05646539906561374,-0.00971486340444535,-0.00010485774711705743
1782987302284202500,9.886202392578125,0.05870645599067211,-0.007157507071830332,0.0013973178436048328
1782987302294276600,9.896276611328124,0.06469137561917304,-0.020171503353212026,-0.00976657532537356
1782987302304351500,9.9063515625,0.05915595332384109,-0.01486072012661025,-0.00235072784461081
1782987302314425600,9.916425537109374,0.06514321103990077,-0.004768584374990314,0.009466304604010656
1782987302324500500,9.92650048828125,0.05616729290187358,-0.006761511757876724,0.004939785356586799
1782987302334574600,9.93657470703125,0.06694061585068703,-0.009602836131025106,-0.00502853221911937
1782987302344648700,9.946648681640625,0.06574409954249859,-0.016573661524336786,0.000522188110044226
1782987302354723600,9.9567236328125,0.06409925494492054,-0.0022723653787747023,0.00553576022204943
1782987302364797700,9.966797607421874,0.06619535044133663,-0.018387177219707517,-0.011842020759405568
1782987302374871600,9.97687158203125,0.06754208887517452,-0.008832162285782397,-0.01653896467029117
1782987302384946700,9.98694677734375,0.07113163779973983,-0.016998882932774722,-0.006772718138480558
1782987302395020800,9.997020751953125,0.05736088660061359,-0.02653256281772628,-0.005771888799173757
1782987302405095700,10.007095703125,0.0657388388454914,-0.003865297126024961,-0.009042918959632515
1782987302415170300,10.01717041015625,0.04449205267727375,-0.012025478434376418,-0.010047776020085438
1782987302425244700,10.02724462890625,0.06289981602728366,-0.009962901615072042,-0.009072519513452426
1782987302435319300,10.0373193359375,0.0687368516176939,-0.023981526628043502,-0.007017349682468921
1782987302445393700,10.0473935546875,0.05945756661891937,-0.010154058539308607,-0.019377019374119116
1782987302455467500,10.057467529296876,0.06633972734808921,-0.021390341091062873,-0.008549235424865036
1782987302465542700,10.067542724609375,0.0687368516176939,-0.008398337445780635,-0.000316116744466126
1782987302475616500,10.077616455078125,0.054520694738626474,-0.03132885718354955,0.008098989173024892
1782987302485690600,10.087690673828124,0.0516746576577425,-0.01588989877756685,-0.01644157784357667
1782987302495765500,10.097765625,0.057656654676795004,-0.007483012699149549,0.0026353900048881767
1782987302505839600,10.107839599609376,0.0615431407213211,0.0021166633604094384,-0.013295315707102417
1782987302515914500,10.11791455078125,0.060195233243703836,-0.007448489375039935,-0.009747121706232428
1782987302525988600,10.127988525390625,0.056007718425989145,-0.005271930787246674,-0.001501728066150099
1782987302536062500,10.1380625,0.04957388598620891,-0.023192586473748087,-0.002253149221651256
1782987302546137600,10.1481376953125,0.06977437797188758,-0.011836129874736069,0.0004066171726677567
1782987302556211500,10.15821142578125,0.06229308230578899,-0.008960227378550916,-0.005437113020010292
1782987302566285300,10.168285400390625,0.0605021072357893,-0.0008911766860634088,-0.016410561650805174
1782987302576360400,10.1783603515625,0.07082885546088219,-0.01098322110613808,0.006183346543740481
1782987302586434600,10.1884345703125,0.07217384032905101,-0.015698632255475967,-0.005764198683062568
1782987302596509400,10.198509521484375,0.07650865466296672,-0.022024072417337445,-0.013386163195176048
1782987302606583600,10.20858349609375,0.06543254937529563,-0.021340601931512354,-0.0012786964326165617
1782987302616657400,10.218657470703125,0.07126958496570587,-0.007923157682083546,-0.00009773388658650219
1782987302626732500,10.228732666015626,0.06408931807279586,-0.023422193978540597,-0.014550476000504567
1782987302636806400,10.238806396484375,0.04493336670398712,-0.018863105902075766,-0.009479355881828815
1782987302646880500,10.248880615234375,0.0599006342113018,-0.019594452383928,-0.009256698707630857
1782987302656955400,10.258955322265624,0.0670809011042118,-0.018813878199178725,-0.01115526233795099
1782987302667029500,10.269029541015625,0.06438742423653603,-0.011810575308371334,-0.006883768164366483
1782987302677104400,10.2791044921875,0.05720891090929508,0.0062950632899068295,-0.021773504322906954
1782987302687178500,10.289178466796875,0.07157587443590163,-0.009051376260723918,-0.01562873622388579
1782987302697252600,10.299252685546875,0.05391922171413898,-0.0009726626907475292,-0.010891971759265288
1782987302707327500,10.309327392578124,0.04628711940050125,-0.008061451907921582,-0.010674620947847142
1782987302717401600,10.319401611328125,0.06005260990262031,-0.008410374943446368,0.008314495087228715
1782987302727475500,10.329475341796876,0.07187514964342116,-0.018814572318922727,-0.008666295066429302
1782987302737550600,10.339550537109375,0.05631517693996429,-0.01706758252112195,-0.012577093568304554
1782987302747624400,10.34962451171875,0.06334989788234234,-0.02935361158782616,-0.009864007817860692
1782987302757699600,10.359699462890624,0.05092880772650241,-0.013522749521117657,-0.004408427559398114
1782987302767773400,10.3697734375,0.06858662949204444,-0.01262605640972033,0.003411068818811327
1782987302777847600,10.37984765625,0.05631693050563335,-0.010947747933957724,0.012372319110669196
1782987302787922400,10.38992236328125,0.06050327627956867,-0.013041450543887912,-0.0028066183859482407
1782987302797996500,10.39999658203125,0.057658992764353746,-0.007995894124731421,-0.0060259548917878415
1782987302808070400,10.4100703125,0.06633738926053047,-0.004749751810356974,-0.020435570250032467
1782987302818145500,10.4201455078125,0.07920330057442188,-0.009899024332314729,-0.004430785521678626
1782987302828219400,10.430219482421874,0.04717617719471454,-0.014380498861614613,-0.027452353676920754
1782987302838294500,10.44029443359375,0.06707505588531494,-0.010137107404507696,-0.0032971235829405486
1782987302848368400,10.450368408203126,0.05450725073516369,-0.007349321583192795,-0.008498948276042938
1782987302858442500,10.4604423828125,0.06902209829986095,-0.005844981434848159,-0.01073520116182044
1782987302868517400,10.470517333984375,0.06887129165232181,0.00726544269202277,-0.01397893232339993
1782987302878591500,10.480591552734374,0.06393208168447018,-0.022685568533372134,-0.011215751220379024
1782987302888665300,10.490665283203125,0.06363222195506095,-0.01449462676057592,-0.0017787275097798556
1782987302898740500,10.500740478515626,0.06243044494986534,-0.004185249795392155,-0.008091463453695177
1782987302908814300,10.510814453125,0.06332651700675487,-0.007713076861668377,-0.015212401374801992
1782987302918889500,10.520889404296875,0.07319909172356129,-0.027133688782341778,-0.005692457754258066
1782987302928963300,10.53096337890625,0.071703884729743,-0.012280896233860403,-0.03574019821924157
1782987302939037400,10.541037353515625,0.07126140165925025,-0.013541837814077733,-0.01582556483708322
1782987302949112300,10.5511123046875,0.07335749715566635,-0.032800226644054055,-0.0045921774953138084
1782987302959186400,10.5611865234375,0.07036883673369884,-0.02095028743967414,-0.01702815469303168
1782987302969260500,10.571260498046875,0.05585340464711189,-0.02204392789527774,-0.01277721011713147
1782987302979335400,10.58133544921875,0.05510580115020275,-0.021275062414631247,-0.014544895643088966
1782987302989409500,10.591409423828125,0.06438508614897727,-0.006358648311719298,-0.006109715051949024
1782987302999484400,10.601484375,0.057951838231086725,-0.013339246180374175,0.00011372604016214609
1782987303009558500,10.61155859375,0.0745621967703104,-0.011794464423786849,-0.025528637339035046
1782987303019632600,10.621632568359376,0.06229366682767868,-0.005312262797635048,-0.003912433336535469
1782987303029707500,10.63170751953125,0.07321370477080345,-0.00783454781686887,-0.019932223837776108
1782987303039781600,10.64178173828125,0.08443827861845493,-0.012217110282648354,0.0034325134656392037
1782987303049855500,10.65185546875,0.05705342808663845,-0.009257749020401388,-0.008120397287234663
1782987303059930600,10.6619306640625,0.05271276853382587,-0.008454670742899179,0.0056007608828134835
1782987303070004500,10.67200439453125,0.05899930145740509,-0.013934289464075118,-0.0039055012722499665
1782987303080078600,10.68207861328125,0.0661836600035429,-0.013881499830912797,-0.014780494497250765
1782987303090153500,10.692153564453125,0.06737959178984165,-0.009719064655527472,-0.012621087973657994
1782987303100227600,10.7022275390625,0.07126607783436775,-0.014486790513992308,-0.004623056690767407
1782987303110302500,10.712302490234375,0.07126490879058837,-0.002745389718003571,-0.014392070568399503
1782987303120376600,10.72237646484375,0.07426058347523212,-0.01419940667366609,-0.012189263294497503
1782987303130450400,10.732450439453125,0.06094166769683361,0.0034130233138799666,-0.015031044325372203
1782987303140525600,10.742525634765625,0.07560732190907,-0.021363946274481713,0.001725782612990588
1782987303150599400,10.752599365234374,0.08682897314727306,0.005924494678154588,-0.015223543823324142
1782987303160673300,10.76267333984375,0.07096797167062759,-0.009758921741880476,0.005994299378199503
1782987303170748400,10.77274853515625,0.06633329760730267,-0.01465211887722835,0.002156949705025181
1782987303180822300,10.782822265625,0.060652329361438745,0.007715159220900386,0.003210650875885039
1782987303190897400,10.7928974609375,0.055712534871697424,-0.014822287812363355,0.008510218588728457
1782987303200971500,10.802971435546874,0.06170037710964679,-0.01010526922782883,-0.011040632115490733
1782987303211045400,10.81304541015625,0.06918167277574538,0.0019751177315600215,-0.026843857256602495
1782987303221120500,10.82312060546875,0.05601064103543758,-0.010268789226468652,0.0005534234985243529
1782987303231194600,10.833194580078125,0.05391922171413898,-0.028863124657142906,-0.004493585092201829
1782987303241268500,10.8432685546875,0.0652899260342121,-0.00048184696650132534,-0.015124266433622687
1782987303251343600,10.853343505859375,0.05241700045764446,-0.007211940672807395,-0.018322797613451257
1782987303261417500,10.86341748046875,0.07425999895334243,-0.015267492562904952,-0.015153921786369755
1782987303271492600,10.87349267578125,0.07470482011139393,0.002543309540953487,0.0003509779952932149
1782987303281566500,10.88356640625,0.06902209829986095,-0.011383253274392336,0.005443259633006528
1782987303291640600,10.893640625,0.0660270081371069,-0.01684632271956652,-0.004934278064407408
1782987303301715500,10.903715576171875,0.05569850634634495,0.00025516207115724684,-0.0066720068435184654
1782987303311789600,10.91378955078125,0.06033727206289768,-0.01903225192390382,-0.027090945619158445
1782987303321863400,10.923863525390624,0.06901391499340534,-0.014038224762585013,-0.008203253265097736
1782987303331938600,10.9339384765625,0.047613984090089795,-0.01937713810512796,-0.010681078088097274
1782987303342012400,10.944012451171876,0.065120414686203,-0.02811022393060848,-0.017378109775017945
1782987303352087600,10.954087646484375,0.05988368307650089,-0.0008807466235943138,-0.004922907287022099
1782987303362161400,10.964161376953125,0.057787587580084794,-0.004768054652027786,-0.023571146595710888
1782987303372235500,10.974235595703124,0.07619418188631534,-0.011965638005919753,-0.01475088481027633
1782987303382310400,10.984310302734375,0.07245557987987995,-0.012048329587001352,-0.009128085625590756
1782987303392384500,10.994384521484376,0.07155833877921104,-0.007389836256671696,-0.00010810001697391271
1782987303402458400,11.004458251953125,0.07905132488310336,-0.02188760482240468,-0.0017132245255168526
1782987303412533500,11.014533447265626,0.05715455037355423,-0.00020492972126230597,-0.02578328795353882
1782987303422606600,11.024606689453124,-0.5849696334540844,0.049462315370514987,-0.1167051381713245
1782987303432681000,11.034680908203125,1.1596768160909414,-0.12142760924911125,0.12580382417249492
1782987303442755600,11.044755615234376,-0.6337514922797679,0.07268484032480045,-0.058705378278438
1782987303452830000,11.054829833984375,0.43821664521992204,-0.05444949266593903,0.009651999901840463
1782987303462904600,11.064904541015625,0.10899871937930583,-0.027351185724232344,0.03905785313355736
1782987303472979000,11.07497900390625,-0.161132811242342,0.0054862128587439656,-0.05625612196279689
1782987303483052800,11.085052734375,0.2578583245038986,-0.04294157183226198,0.042338473106268794
1782987303493128000,11.0951279296875,-0.20213468371629714,0.015296061070263385,-0.06528656503334641
