time,seconds_elapsed,z,y,x
1782984559963797800,0.0637978515625,-0.92730712890625,-0.5351104736328125,0.04473876953125
1782984559973871600,0.07387158203125,-0.9109344482421875,-0.5345611572265625,-0.0015869140625
1782984559983946800,0.08394677734375,-0.905242919921875,-0.5171051025390625,0.0044097900390625
1782984559994020600,0.0940205078125,-0.8606719970703125,-0.49163818359375,0.0029296875
1782984560004094700,0.1040947265625,-0.8009033203125,-0.4587860107421875,-0.01806640625
1782984560014168800,0.1141689453125,-0.740478515625,-0.448822021484375,-0.0295867919921875
1782984560024242700,0.12424267578125,-0.7499237060546875,-0.4830169677734375,-0.0451202392578125
1782984560034316800,0.13431689453125,-0.794281005859375,-0.5301361083984375,-0.0401611328125
1782984560044390700,0.144390625,-0.78924560546875,-0.5554351806640625,-0.0588836669921875
1782984560054465800,0.1544658203125,-0.7178497314453125,-0.6149749755859375,-0.1620635986328125
1782984560064539600,0.16453955078125,-0.6135711669921875,-0.6388092041015625,-0.231842041015625
1782984560074613800,0.17461376953125,-0.522857666015625,-0.5971832275390625,-0.1364288330078125
1782984560084687600,0.1846875,-0.487335205078125,-0.539520263671875,0.0306396484375
1782984560094761700,0.19476171875,-0.490509033203125,-0.545562744140625,0.1216583251953125
1782984560104835800,0.2048359375,-0.499664306640625,-0.526458740234375,0.160400390625
1782984560114909700,0.21490966796875,-0.4428253173828125,-0.521331787109375,0.1194915771484375
1782984560124984800,0.22498486328125,-0.36273193359375,-0.544952392578125,0.1282501220703125
1782984560135058700,0.23505859375,-0.446044921875,-0.508941650390625,0.1589202880859375
1782984560145132800,0.2451328125,-0.60736083984375,-0.538848876953125,0.1267852783203125
1782984560155206700,0.25520654296875,-0.7374114990234375,-0.563446044921875,-0.0023193359375
1782984560165280800,0.26528076171875,-0.8704986572265625,-0.5516204833984375,-0.1239776611328125
1782984560175354600,0.275354736328125,-0.9425506591796875,-0.574615478515625,-0.1823272705078125
1782984560185428700,0.2854287109375,-0.9611968994140625,-0.6591033935546875,-0.2080078125
1782984560195503600,0.295503662109375,-1.0901336669921875,-0.7589874267578125,-0.1458740234375
1782984560205577700,0.30557763671875,-1.267425537109375,-0.919769287109375,-0.072723388671875
1782984560215651800,0.31565185546875,-1.5583648681640625,-1.1237030029296875,-0.0372467041015625
1782984560225725700,0.3257255859375,-1.9642181396484375,-1.3626556396484375,-0.037506103515625
1782984560235799800,0.3357998046875,-2.43804931640625,-1.5085296630859375,-0.077239990234375
1782984560245873700,0.345873779296875,-2.9513092041015625,-1.41741943359375,-0.1681365966796875
1782984560255947500,0.355947509765625,-3.2776947021484375,-1.1617584228515625,-0.2457122802734375
1782984560266022700,0.366022705078125,-3.243194580078125,-0.9978179931640625,-0.3487548828125
1782984560276096500,0.376096435546875,-2.75933837890625,-0.985382080078125,-0.4761962890625
1782984560286170600,0.386170654296875,-2.0869598388671875,-0.971954345703125,-0.439239501953125
1782984560296244700,0.39624462890625,-1.46673583984375,-0.8656768798828125,-0.2308349609375
1782984560306318800,0.40631884765625,-1.0063323974609375,-0.71337890625,0.02508544921875
1782984560316392700,0.416392822265625,-0.996368408203125,-0.623931884765625,0.3351287841796875
1782984560326467800,0.4264677734375,-1.2326812744140625,-0.396697998046875,0.3046875
1782984560336541700,0.436541748046875,-1.20855712890625,-0.1226043701171875,-0.169036865234375
1782984560346615800,0.44661572265625,-0.47979736328125,-0.1437530517578125,-0.4693756103515625
1782984560356689700,0.456689697265625,-0.1141357421875,-0.11163330078125,-0.25933837890625
1782984560366763500,0.466763427734375,0.208953857421875,0.0447235107421875,0.0082855224609375
1782984560376837600,0.476837646484375,0.7157135009765625,0.117156982421875,0.0048980712890625
1782984560386911700,0.486911865234375,1.039947509765625,0.02740478515625,-0.0818939208984375
1782984560396985900,0.49698583984375,1.1678466796875,-0.040771484375,-0.1348876953125
1782984560407060700,0.507060791015625,1.0184173583984375,-0.06201171875,-0.210540771484375
1782984560417134800,0.517134765625,0.743194580078125,-0.1042938232421875,-0.188873291015625
1782984560427208700,0.527208740234375,0.44940185546875,-0.10894775390625,-0.083282470703125
1782984560437282800,0.53728271484375,0.266326904296875,-0.044525146484375,-0.029022216796875
1782984560447356700,0.547356689453125,0.1501922607421875,0.0644378662109375,0.0524139404296875
1782984560457430500,0.557430419921875,-0.0730438232421875,0.117889404296875,0.2666778564453125
1782984560467505700,0.567505615234375,-0.3221588134765625,0.097625732421875,0.279998779296875
1782984560477579500,0.57757958984375,-0.4086151123046875,0.0105438232421875,-0.042144775390625
1782984560487653600,0.587653564453125,-0.30938720703125,-0.1566619873046875,-0.312774658203125
1782984560497727700,0.597727783203125,-0.1195831298828125,-0.2526397705078125,-0.36492919921875
1782984560507801900,0.6078017578125,-0.011474609375,-0.281005859375,-0.3698577880859375
1782984560517875700,0.617875732421875,-0.0592193603515625,-0.2391510009765625,-0.373687744140625
1782984560527949800,0.62794970703125,-0.2967376708984375,-0.1569366455078125,-0.2982025146484375
1782984560538024700,0.638024658203125,-0.3015899658203125,-0.0988616943359375,-0.2386932373046875
1782984560548098800,0.648098876953125,-0.3158416748046875,-0.057159423828125,-0.191619873046875
1782984560558172700,0.658172607421875,-0.2528533935546875,-0.060760498046875,-0.2135772705078125
1782984560568246500,0.66824658203125,-0.11358642578125,-0.100494384765625,-0.17425537109375
1782984560578320600,0.678320556640625,-0.025543212890625,-0.117706298828125,-0.1637115478515625
1782984560588394800,0.688394775390625,-0.134979248046875,-0.153472900390625,-0.1845550537109375
1782984560598468900,0.69846875,-0.354949951171875,-0.183441162109375,-0.2014312744140625
1782984560608543700,0.708543701171875,-0.514251708984375,-0.2211151123046875,-0.2574462890625
1782984560618617900,0.718617919921875,-0.710906982421875,-0.3571929931640625,-0.300079345703125
1782984560628691700,0.728691650390625,-0.9299468994140625,-0.49261474609375,-0.3579864501953125
1782984560638765800,0.738765869140625,-1.1839599609375,-0.7386322021484375,-0.2974395751953125
1782984560648839700,0.748839599609375,-1.4641571044921875,-1.1019744873046875,-0.1210174560546875
1782984560658913500,0.75891357421875,-1.623931884765625,-1.453582763671875,0.2484130859375
1782984560668987600,0.768987548828125,-1.7566070556640625,-1.8433990478515625,0.584503173828125
1782984560679062500,0.7790625,-2.22015380859375,-2.258270263671875,0.5110321044921875
1782984560689136600,0.78913671875,-3.137237548828125,-2.39801025390625,0.10247802734375
1782984560699210800,0.799210693359375,-4.219146728515625,-2.295135498046875,-0.252410888671875
1782984560709284900,0.809284912109375,-4.886077880859375,-2.181884765625,-0.5714569091796875
1782984560719358700,0.819358642578125,-4.8953399658203125,-2.1769256591796875,-0.820556640625
1782984560729432600,0.8294326171875,-4.208221435546875,-2.2188568115234375,-0.9471282958984375
1782984560739507700,0.8395078125,-3.0717315673828125,-2.2314605712890625,-0.83514404296875
1782984560749581800,0.849581787109375,-1.9164581298828125,-2.154083251953125,-0.5618896484375
1782984560759655700,0.85965576171875,-1.05712890625,-1.9330596923828125,-0.22015380859375
1782984560769729500,0.8697294921875,-0.65545654296875,-1.521453857421875,0.0823822021484375
1782984560779803600,0.8798037109375,-0.531005859375,-0.9802703857421875,0.246856689453125
1782984560789877800,0.889877685546875,-0.4554290771484375,-0.47802734375,0.2865447998046875
1782984560799952000,0.899951904296875,-0.4189910888671875,-0.0769805908203125,0.2768402099609375
1782984560810026800,0.91002685546875,-0.359283447265625,0.23162841796875,0.2434539794921875
1782984560820100900,0.920100830078125,-0.266265869140625,0.3690185546875,0.18182373046875
1782984560830174700,0.9301748046875,-0.0225830078125,0.3818511962890625,0.1656341552734375
1782984560840248600,0.94024853515625,0.4344329833984375,0.319366455078125,0.160797119140625
1782984560850322700,0.95032275390625,0.8939208984375,0.191680908203125,0.1651763916015625
1782984560860396500,0.960396484375,1.195068359375,0.0935211181640625,0.150970458984375
1782984560870470700,0.970470703125,1.2628021240234375,0.036224365234375,0.047332763671875
1782984560880545500,0.980545654296875,1.1858367919921875,0.009124755859375,0.1898345947265625
1782984560890619600,0.99061962890625,0.8888092041015625,-0.0020751953125,0.1248321533203125
1782984560900693800,1.00069384765625,0.45220947265625,-0.029449462890625,0.1117706298828125
1782984560910767900,1.010767822265625,0.0464935302734375,-0.014739990234375,0.0323638916015625
1782984560920841700,1.020841796875,-0.3028106689453125,-0.02001953125,-0.063873291015625
1782984560930916400,1.030916259765625,-0.5281982421875,-0.0329132080078125,-0.14776611328125
1782984560940990200,1.040990234375,-0.622406005859375,-0.0313568115234375,-0.1964111328125
1782984560951065300,1.0510654296875,-0.609954833984375,-0.0348052978515625,-0.2107696533203125
1782984560961139200,1.06113916015625,-0.4979705810546875,-0.03045654296875,-0.199249267578125
1782984560971213300,1.07121337890625,-0.39227294921875,-0.019378662109375,-0.1497650146484375
1782984560981287200,1.081287109375,-0.3225860595703125,-0.0064239501953125,-0.092559814453125
1782984560991361000,1.091361083984375,-0.277618408203125,0.006591796875,-0.0584716796875
1782984561001435400,1.101435302734375,-0.2633056640625,0.017059326171875,-0.0482330322265625
1782984561011510000,1.111510009765625,-0.2510833740234375,0.0124359130859375,-0.059814453125
1782984561021584400,1.12158447265625,-0.2217864990234375,0.0003509521484375,-0.095062255859375
1782984561031658200,1.131658203125,-0.1920623779296875,-0.018524169921875,-0.1336822509765625
1782984561041732400,1.141732421875,-0.1516571044921875,-0.02874755859375,-0.1454620361328125
1782984561051806200,1.15180615234375,-0.0960693359375,-0.039398193359375,-0.1352996826171875
1782984561061880300,1.16188037109375,-0.024810791015625,-0.063385009765625,-0.119720458984375
1782984561071954200,1.1719541015625,0.060394287109375,-0.0870361328125,-0.1393280029296875
1782984561082029300,1.182029296875,0.12615966796875,-0.1162261962890625,-0.181884765625
1782984561092103200,1.192103271484375,0.1269989013671875,-0.1332244873046875,-0.204559326171875
1782984561102177000,1.202177001953125,0.082550048828125,-0.1307525634765625,-0.1964569091796875
1782984561112251400,1.21225146484375,0.0447235107421875,-0.138275146484375,-0.1707305908203125
1782984561122325200,1.2223251953125,-0.0335693359375,-0.1164398193359375,-0.1339569091796875
1782984561132399400,1.2323994140625,-0.2041168212890625,-0.1492462158203125,-0.1546478271484375
1782984561142473200,1.24247314453125,-0.347991943359375,-0.309173583984375,-0.2526702880859375
1782984561152548400,1.25254833984375,-0.5238494873046875,-0.3707275390625,-0.2082061767578125
1782984561162622200,1.262622314453125,-0.817169189453125,-0.5117340087890625,-0.1273193359375
1782984561172696300,1.2726962890625,-1.121917724609375,-0.79412841796875,-0.046600341796875
1782984561182770200,1.282770263671875,-1.4389190673828125,-1.1330718994140625,0.139617919921875
1782984561192844000,1.292843994140625,-1.7596893310546875,-1.5744476318359375,0.44696044921875
1782984561202918400,1.30291845703125,-2.1435089111328125,-2.077056884765625,0.7282867431640625
1782984561212992300,1.3129921875,-2.8166656494140625,-2.4525146484375,0.74462890625
1782984561223067400,1.3230673828125,-3.7321929931640625,-2.5339202880859375,0.361480712890625
1782984561233141200,1.333141357421875,-4.51715087890625,-2.3885345458984375,-0.0706634521484375
1782984561243215400,1.34321533203125,-4.5155487060546875,-2.3589324951171875,-0.28204345703125
1782984561253289200,1.353289306640625,-3.8059844970703125,-2.55572509765625,-0.2381134033203125
1782984561263363300,1.36336328125,-3.1403350830078125,-2.7179718017578125,-0.194488525390625
1782984561273437200,1.373437255859375,-2.6340789794921875,-2.6853790283203125,-0.1976470947265625
1782984561283512300,1.38351220703125,-2.2481842041015625,-2.4233856201171875,-0.2027435302734375
1782984561293586200,1.393586181640625,-2.0916748046875,-2.0000457763671875,-0.3596343994140625
1782984561303660000,1.403659912109375,-2.065948486328125,-1.4073944091796875,-0.4719390869140625
1782984561313734400,1.413734375,-1.8401947021484375,-0.8077392578125,-0.3611602783203125
1782984561323808300,1.423808349609375,-1.42852783203125,-0.4080657958984375,-0.238372802734375
1782984561333882400,1.43388232421875,-1.0782012939453125,-0.1521759033203125,-0.238800048828125
1782984561343956200,1.443956298828125,-0.57684326171875,0.0399169921875,-0.2555694580078125
1782984561354031400,1.45403125,0.011688232421875,0.1099395751953125,-0.3182830810546875
1782984561364105200,1.464105224609375,0.4433135986328125,0.122161865234375,-0.356475830078125
1782984561374179000,1.474178955078125,0.7451171875,0.06866455078125,-0.363433837890625
1782984561384253200,1.484253173828125,0.979766845703125,0.0158233642578125,-0.255828857421875
1782984561394327000,1.4943271484375,1.1481781005859375,-0.0072021484375,-0.0231781005859375
1782984561404401400,1.5044013671875,1.1840667724609375,-0.0169219970703125,0.1785888671875
1782984561414475300,1.514475341796875,0.9624481201171875,0.0083770751953125,0.2761383056640625
1782984561424550400,1.52455029296875,0.578582763671875,0.0262451171875,0.28240966796875
1782984561434624300,1.534624267578125,0.172454833984375,0.04766845703125,0.260162353515625
1782984561444698400,1.544698486328125,-0.230010986328125,0.0873565673828125,0.2537384033203125
1782984561454772200,1.554772216796875,-0.5587921142578125,0.1143035888671875,0.2435455322265625
1782984561464846000,1.56484619140625,-0.7228240966796875,0.1071624755859375,0.2369842529296875
1782984561474920200,1.574920166015625,-0.690948486328125,0.067840576171875,0.2044219970703125
1782984561484994000,1.584994140625,-0.545440673828125,0.0008697509765625,0.143707275390625
1782984561495069200,1.595069091796875,-0.3624420166015625,-0.06549072265625,0.054656982421875
1782984561505143000,1.60514306640625,-0.224334716796875,-0.095245361328125,-0.0037994384765625
1782984561515217400,1.615217529296875,-0.1573944091796875,-0.1052703857421875,-0.025665283203125
1782984561525291300,1.625291259765625,-0.1405487060546875,-0.0953369140625,-0.0326385498046875
1782984561535365400,1.635365478515625,-0.16009521484375,-0.08636474609375,-0.027252197265625
1782984561545439200,1.645439208984375,-0.1739654541015625,-0.09002685546875,-0.0355377197265625
1782984561555513000,1.65551318359375,-0.19671630859375,-0.0955047607421875,-0.061004638671875
1782984561565588200,1.665588134765625,-0.23199462890625,-0.10107421875,-0.089935302734375
1782984561575662000,1.675662109375,-0.255767822265625,-0.106964111328125,-0.1068878173828125
1782984561585736200,1.685736083984375,-0.2344970703125,-0.0986328125,-0.1031036376953125
1782984561595810000,1.69581005859375,-0.183074951171875,-0.09747314453125,-0.099761962890625
1782984561605884400,1.705884521484375,-0.1039276123046875,-0.0973358154296875,-0.1075897216796875
1782984561615958300,1.715958251953125,-0.02447509765625,-0.1020355224609375,-0.1232757568359375
1782984561626032400,1.726032470703125,0.044403076171875,-0.1058197021484375,-0.127838134765625
1782984561636107300,1.736107177734375,0.06658935546875,-0.104766845703125,-0.1259307861328125
1782984561646181400,1.746181396484375,0.0392608642578125,-0.095733642578125,-0.129547119140625
1782984561656255200,1.756255126953125,-0.027557373046875,-0.0707550048828125,-0.12750244140625
1782984561666329000,1.7663291015625,-0.1199493408203125,-0.048492431640625,-0.1015777587890625
1782984561676403200,1.7764033203125,-0.16839599609375,-0.0417022705078125,-0.071258544921875
1782984561686477300,1.786477294921875,-0.175933837890625,-0.0717010498046875,-0.0652618408203125
1782984561696551400,1.796551513671875,-0.239013671875,-0.1428680419921875,-0.0858612060546875
1782984561706626300,1.806626220703125,-0.373748779296875,-0.2152557373046875,-0.1092376708984375
1782984561716700400,1.816700439453125,-0.597015380859375,-0.3660736083984375,-0.1056976318359375
1782984561726774300,1.826774169921875,-0.956695556640625,-0.700592041015625,-0.04937744140625
1782984561736848400,1.836848388671875,-1.328460693359375,-1.184051513671875,0.1233062744140625
1782984561746922200,1.846922119140625,-1.6707000732421875,-1.7828369140625,0.4666595458984375
1782984561756996000,1.85699609375,-2.056427001953125,-2.4280242919921875,0.84912109375
1782984561767071200,1.8670712890625,-2.745635986328125,-2.743499755859375,1.0140533447265625
1782984561777145000,1.87714501953125,-3.8776092529296875,-2.6574249267578125,0.73870849609375
1782984561787219200,1.88721923828125,-5.0364532470703125,-2.4496002197265625,0.3126983642578125
1782984561797293300,1.897293212890625,-5.3616485595703125,-2.3421783447265625,-0.166259765625
1782984561807367400,1.907367431640625,-4.630615234375,-2.4656524658203125,-0.26519775390625
1782984561817441300,1.917441162109375,-3.61798095703125,-2.5995941162109375,-0.15435791015625
1782984561827515100,1.92751513671875,-2.793365478515625,-2.6040802001953125,-0.122283935546875
1782984561837590300,1.93759033203125,-2.4365997314453125,-2.3438873291015625,-0.1120758056640625
1782984561847664400,1.947664306640625,-2.2928314208984375,-1.8539581298828125,-0.1153106689453125
1782984561857738200,1.95773828125,-2.1917266845703125,-1.3639373779296875,0.0278778076171875
1782984561867812000,1.96781201171875,-2.03387451171875,-0.969024658203125,0.13006591796875
1782984561877886200,1.97788623046875,-1.7207794189453125,-0.717071533203125,-0.1476593017578125
1782984561887960300,1.987960205078125,-1.3068389892578125,-0.5084381103515625,-0.513092041015625
1782984561898034400,1.998034423828125,-0.7829437255859375,-0.2255096435546875,-0.7078094482421875
1782984561908109300,2.008109375,-0.2324676513671875,0.0465850830078125,-0.821685791015625
1782984561918183400,2.018183349609375,0.3270263671875,0.2332916259765625,-0.8986663818359375
1782984561928257300,2.02825732421875,0.85015869140625,0.3314971923828125,-0.8250732421875
1782984561938331100,2.0383310546875,1.255279541015625,0.392425537109375,-0.5894927978515625
1782984561948405000,2.048405029296875,1.4792327880859375,0.3992156982421875,-0.2799835205078125
1782984561958479000,2.05847900390625,1.5122833251953125,0.3881072998046875,0.0202178955078125
1782984561968553000,2.068552978515625,1.332061767578125,0.384521484375,0.2292022705078125
1782984561978628000,2.078628173828125,0.9717254638671875,0.3963623046875,0.3099212646484375
1782984561988702000,2.088701904296875,0.694793701171875,0.378265380859375,0.250030517578125
1782984561998776300,2.0987763671875,0.5775299072265625,0.331329345703125,0.1798858642578125
1782984562008850200,2.10885009765625,0.49639892578125,0.3210296630859375,0.2196807861328125
1782984562018924300,2.11892431640625,0.30078125,0.3512115478515625,0.3348388671875
1782984562028998100,2.128998046875,-0.0216217041015625,0.3909912109375,0.450469970703125
1782984562039072000,2.139072021484375,-0.34979248046875,0.39337158203125,0.4846038818359375
1782984562049147100,2.149147216796875,-0.56719970703125,0.325225830078125,0.4376678466796875
1782984562059221000,2.159220947265625,-0.6653900146484375,0.2378082275390625,0.3736724853515625
1782984562069295000,2.169295166015625,-0.6834259033203125,0.1763153076171875,0.308837890625
1782984562079369000,2.179368896484375,-0.632965087890625,0.123260498046875,0.215484619140625
1782984562089443300,2.189443359375,-0.58245849609375,0.0633697509765625,0.15509033203125
1782984562099517200,2.19951708984375,-0.5036773681640625,0.024383544921875,0.125213623046875
1782984562109591000,2.209591064453125,-0.43719482421875,-0.010284423828125,0.1030731201171875
1782984562119666200,2.219666259765625,-0.415496826171875,-0.0291595458984375,0.097869873046875
1782984562129740000,2.229739990234375,-0.3903045654296875,-0.035369873046875,0.0770721435546875
1782984562139814100,2.239814208984375,-0.34979248046875,-0.0542449951171875,0.0283355712890625
1782984562149888000,2.249887939453125,-0.2990264892578125,-0.06597900390625,-0.0148162841796875
1782984562159962000,2.259962158203125,-0.2526397705078125,-0.0625762939453125,-0.023101806640625
1782984562170036000,2.270035888671875,-0.1960906982421875,-0.0550994873046875,0.001434326171875
1782984562180111000,2.280111083984375,-0.1106414794921875,-0.056915283203125,0.0265350341796875
1782984562190185000,2.29018505859375,-0.0211639404296875,-0.0677337646484375,0.0174713134765625
1782984562200259300,2.30025927734375,0.0338134765625,-0.0782012939453125,-0.0263824462890625
1782984562210333200,2.310333251953125,0.09765625,-0.09906005859375,-0.078887939453125
1782984562220407000,2.320406982421875,0.160919189453125,-0.1331329345703125,-0.111541748046875
1782984562230481200,2.330481201171875,0.1343994140625,-0.165924072265625,-0.1519927978515625
1782984562240555000,2.340554931640625,0.0065155029296875,-0.2537841796875,-0.2732696533203125
1782984562250630100,2.350630126953125,-0.0552978515625,-0.5357513427734375,-0.7446441650390625
1782984562260704000,2.3607041015625,-0.0389404296875,-0.8308563232421875,-1.232666015625
1782984562270778000,2.370778076171875,-0.0963287353515625,-0.56927490234375,-0.4891204833984375
1782984562280852000,2.38085205078125,-0.2275848388671875,-0.278656005859375,-0.0174713134765625
1782984562290926300,2.39092626953125,-0.3161163330078125,-0.4078521728515625,0.0113677978515625
1782984562301000200,2.401000244140625,-0.4330291748046875,-0.73687744140625,-0.1682281494140625
1782984562311074000,2.411073974609375,-0.7525482177734375,-1.034515380859375,-0.16680908203125
1782984562321149200,2.421149169921875,-1.277557373046875,-1.41064453125,0.09246826171875
1782984562331223000,2.43122314453125,-1.8791961669921875,-1.91015625,0.34307861328125
1782984562341297200,2.441297119140625,-2.507904052734375,-2.445404052734375,0.200714111328125
1782984562351371000,2.45137109375,-3.4111175537109375,-2.7460479736328125,-0.1010894775390625
1782984562361445000,2.461445068359375,-4.7336273193359375,-2.604095458984375,0.0755462646484375
1782984562371519000,2.47151904296875,-6.0377655029296875,-2.209014892578125,0.31634521484375
1782984562381593300,2.48159326171875,-6.458740234375,-2.1021881103515625,0.2854766845703125
1782984562391668000,2.49166796875,-5.8412933349609375,-2.2909698486328125,0.06475830078125
1782984562401742300,2.501742431640625,-4.649139404296875,-2.434295654296875,-0.0203399658203125
1782984562411816200,2.511816162109375,-3.46044921875,-2.4476470947265625,-0.054840087890625
1782984562421890000,2.52189013671875,-2.6099853515625,-2.2468109130859375,-0.050262451171875
1782984562431964200,2.531964111328125,-2.0384063720703125,-1.81524658203125,-0.054046630859375
1782984562442038000,2.5420380859375,-1.601348876953125,-1.5587615966796875,-0.4517364501953125
1782984562452113200,2.552113037109375,-1.1132965087890625,-1.2082061767578125,-0.636505126953125
1782984562462187000,2.56218701171875,-0.6703033447265625,-0.60662841796875,-0.305816650390625
1782984562472261000,2.57226123046875,-0.348846435546875,-0.0438385009765625,-0.1280975341796875
1782984562482335000,2.5823349609375,-0.1764373779296875,0.3033905029296875,-0.0190887451171875
1782984562492409300,2.592409423828125,0.14508056640625,0.4876556396484375,0.15594482421875
1782984562502483200,2.602483154296875,0.7569580078125,0.5197296142578125,0.2685699462890625
1782984562512557000,2.61255712890625,1.4193572998046875,0.4167938232421875,0.3722076416015625
1782984562522632200,2.622632080078125,1.827880859375,0.3221435546875,0.4362030029296875
1782984562532706000,2.6327060546875,1.72552490234375,0.2937774658203125,0.33770751953125
1782984562542780200,2.6427802734375,1.145355224609375,0.2888336181640625,0.1385040283203125
1782984562552854000,2.65285400390625,0.51690673828125,0.3017578125,-0.1567840576171875
1782984562562928000,2.66292822265625,0.0373687744140625,0.262542724609375,-0.446746826171875
1782984562573002000,2.673001953125,-0.16522216796875,0.1802978515625,-0.5587310791015625
1782984562583076000,2.683076171875,-0.1983184814453125,0.0926666259765625,-0.5392608642578125
1782984562593150200,2.693150146484375,-0.178558349609375,0.0230255126953125,-0.4548797607421875
1782984562603225300,2.703225341796875,-0.1742706298828125,-0.0248260498046875,-0.288238525390625
1782984562613299200,2.71329931640625,-0.1928253173828125,-0.036834716796875,-0.084136962890625
1782984562623373000,2.723373046875,-0.19293212890625,-0.0531158447265625,0.0601654052734375
1782984562633447200,2.733447265625,-0.146820068359375,-0.076080322265625,0.1681976318359375
1782984562643521000,2.74352099609375,-0.076385498046875,-0.10675048828125,0.26824951171875
1782984562653595100,2.75359521484375,-0.0371246337890625,-0.1210784912109375,0.32452392578125
1782984562663670000,2.763669921875,-0.0077056884765625,-0.120697021484375,0.3207855224609375
1782984562673744100,2.773744140625,0.0135040283203125,-0.11956787109375,0.2694549560546875
1782984562683818000,2.78381787109375,0.0404052734375,-0.118743896484375,0.2107391357421875
1782984562693892000,2.79389208984375,0.0787506103515625,-0.1121673583984375,0.163177490234375
1782984562703966200,2.80396630859375,0.1024017333984375,-0.1009674072265625,0.1287384033203125
1782984562714040000,2.8140400390625,0.0850372314453125,-0.07769775390625,0.1014862060546875
1782984562724114200,2.8241142578125,0.032470703125,-0.0596771240234375,0.0735626220703125
1782984562734189000,2.83418896484375,-0.01947021484375,-0.0574188232421875,0.0363006591796875
1782984562744263200,2.84426318359375,-0.041473388671875,-0.070953369140625,-0.0084686279296875
1782984562754337000,2.8543369140625,-0.0422821044921875,-0.089935302734375,-0.0424652099609375
1782984562764411100,2.8644111328125,-0.0399017333984375,-0.0908355712890625,-0.05609130859375
1782984562774485000,2.874485107421875,-0.077056884765625,-0.0748138427734375,-0.0601654052734375
1782984562784559000,2.88455908203125,-0.1932373046875,-0.0551910400390625,-0.0384063720703125
1782984562794633200,2.89463330078125,-0.292205810546875,-0.03326416015625,-0.03485107421875
1782984562804708000,2.9047080078125,-0.303314208984375,-0.032958984375,-0.0669097900390625
1782984562814782200,2.9147822265625,-0.2930450439453125,-0.049896240234375,-0.1057891845703125
1782984562824856000,2.92485595703125,-0.292510986328125,-0.0657501220703125,-0.1294403076171875
1782984562834930200,2.93493017578125,-0.30267333984375,-0.0595550537109375,-0.140045166015625
1782984562845004000,2.945004150390625,-0.3579559326171875,-0.0562591552734375,-0.1386871337890625
1782984562855078100,2.955078125,-0.485076904296875,-0.0527801513671875,-0.1056976318359375
1782984562865152000,2.965152099609375,-0.6218719482421875,-0.0739288330078125,-0.05194091796875
1782984562875227100,2.97522705078125,-0.746002197265625,-0.2095184326171875,-0.0001983642578125
1782984562885301000,2.985301025390625,-0.8472442626953125,-0.4704437255859375,0.07061767578125
1782984562895375000,2.995375,-0.9336090087890625,-0.795166015625,0.1371917724609375
1782984562905449200,3.00544921875,-1.1230926513671875,-1.2305755615234375,0.1371307373046875
1782984562915523000,3.015523193359375,-1.421905517578125,-1.7977294921875,0.0842742919921875
1782984562925597200,3.02559716796875,-1.83453369140625,-2.23486328125,-0.005828857421875
1782984562935670800,3.0356708984375,-2.6514434814453125,-2.4298858642578125,-0.0318756103515625
1782984562945746000,3.045745849609375,-4.1687164306640625,-2.33526611328125,-0.0265045166015625
1782984562955819800,3.05581982421875,-5.857086181640625,-2.1174468994140625,-0.0036773681640625
1782984562965893600,3.0658935546875,-6.47662353515625,-2.0273895263671875,0.0860748291015625
1782984562975968000,3.075968017578125,-5.828857421875,-2.2015380859375,0.225921630859375
1782984562986041900,3.086041748046875,-4.8430938720703125,-2.4032440185546875,0.323974609375
1782984562996116000,3.096115966796875,-4.108612060546875,-2.479583740234375,0.313140869140625
1782984563006190800,3.10619091796875,-3.712646484375,-2.2647857666015625,0.2677764892578125
1782984563016265000,3.116264892578125,-3.3494873046875,-1.8219451904296875,0.2043304443359375
1782984563026338800,3.1263388671875,-2.71624755859375,-1.40631103515625,0.0088653564453125
1782984563036412700,3.13641259765625,-1.880126953125,-1.087188720703125,-0.219635009765625
1782984563046486800,3.14648681640625,-1.066192626953125,-0.7456817626953125,-0.3927154541015625
1782984563056560600,3.156560546875,-0.5265960693359375,-0.3520355224609375,-0.4468231201171875
1782984563066635000,3.166635009765625,-0.210784912109375,0.032867431640625,-0.4654541015625
1782984563076709600,3.176709716796875,-0.007476806640625,0.3232421875,-0.4402923583984375
1782984563086784000,3.186783935546875,0.2169647216796875,0.4743194580078125,-0.3887176513671875
1782984563096857900,3.19685791015625,0.608917236328125,0.5157012939453125,-0.268829345703125
1782984563106932000,3.206931884765625,1.0822601318359375,0.4197998046875,-0.1151123046875
1782984563117005800,3.217005859375,1.570526123046875,0.50030517578125,0.2177734375
1782984563127079700,3.22707958984375,2.0872955322265625,0.39007568359375,0.5706024169921875
1782984563137153800,3.23715380859375,2.1473236083984375,0.04095458984375,0.1929931640625
1782984563147228700,3.247228759765625,1.7890472412109375,0.0493316650390625,0.284576416015625
1782984563157302800,3.257302734375,1.2024993896484375,0.1715545654296875,0.3468475341796875
1782984563167376600,3.267376708984375,0.583038330078125,0.23822021484375,0.1228179931640625
1782984563177451000,3.277450927734375,-0.0171661376953125,0.2949676513671875,0.038848876953125
1782984563187524900,3.28752490234375,-0.4857940673828125,0.3130035400390625,0.025482177734375
1782984563197599000,3.297598876953125,-0.75823974609375,0.266021728515625,0.0017547607421875
1782984563207672800,3.3076728515625,-0.805908203125,0.1718597412109375,-0.03375244140625
1782984563217748000,3.317748046875,-0.66192626953125,0.0698699951171875,-0.0469970703125
1782984563227821800,3.32782177734375,-0.4262847900390625,-0.0218963623046875,-0.0504913330078125
1782984563237895700,3.337895751953125,-0.19158935546875,-0.0894927978515625,-0.0877838134765625
1782984563247969800,3.3479697265625,-0.0051727294921875,-0.12701416015625,-0.1278533935546875
1782984563258043600,3.358043701171875,0.07666015625,-0.11602783203125,-0.128448486328125
1782984563268118000,3.368117919921875,0.0633697509765625,-0.0971221923828125,-0.1122283935546875
1782984563278192600,3.378192626953125,0.0172882080078125,-0.075958251953125,-0.118682861328125
1782984563288267000,3.38826708984375,-0.0439910888671875,-0.052825927734375,-0.1277923583984375
1782984563298340900,3.3983408203125,-0.0930938720703125,-0.0260772705078125,-0.1191253662109375
1782984563308415000,3.4084150390625,-0.1355133056640625,-0.0136871337890625,-0.11279296875
1782984563318488800,3.41848876953125,-0.1461639404296875,-0.0184326171875,-0.141143798828125
1782984563328562700,3.428562744140625,-0.11212158203125,-0.0267333984375,-0.185333251953125
1782984563338636800,3.43863671875,-0.0697784423828125,-0.0205078125,-0.1920623779296875
1782984563348711700,3.448711669921875,-0.043121337890625,0.0024261474609375,-0.16827392578125
1782984563358785800,3.458785888671875,-0.021728515625,0.0243072509765625,-0.1384429931640625
1782984563368859600,3.468859619140625,0.01031494140625,0.011138916015625,-0.1360626220703125
1782984563378934000,3.47893408203125,0.040252685546875,-0.00042724609375,-0.049072265625
1782984563389008000,3.4890078125,0.07781982421875,0.0186004638671875,0.0032958984375
1782984563399082000,3.49908203125,0.08831787109375,-0.043212890625,-0.0637359619140625
1782984563409155800,3.50915576171875,0.022216796875,-0.0518798828125,-0.008636474609375
1782984563419231000,3.51923095703125,-0.0625457763671875,-0.005462646484375,-0.0333404541015625
1782984563429304800,3.529304931640625,-0.22515869140625,-0.0117340087890625,-0.029571533203125
1782984563439378700,3.539378662109375,-0.3723602294921875,-0.0537872314453125,0.0054931640625
1782984563449452800,3.549452880859375,-0.4528350830078125,-0.1097869873046875,0.09368896484375
1782984563459526700,3.559526611328125,-0.6042633056640625,-0.1875457763671875,0.1802215576171875
1782984563469601000,3.56960107421875,-0.8838653564453125,-0.3139801025390625,0.2613525390625
1782984563479675000,3.5796748046875,-1.307830810546875,-0.4722442626953125,0.3657379150390625
1782984563489750000,3.58975,-1.684112548828125,-0.80963134765625,0.367706298828125
1782984563499823900,3.599823974609375,-1.965850830078125,-1.1990814208984375,0.1375732421875
1782984563509897700,3.609897705078125,-2.4646759033203125,-1.40533447265625,-0.131317138671875
1782984563519971800,3.619971923828125,-3.47650146484375,-1.2711181640625,-0.3084259033203125
1782984563530045700,3.630045654296875,-5.005096435546875,-0.90234375,-0.1869964599609375
1782984563540119800,3.640119873046875,-6.310272216796875,-0.5695648193359375,0.241729736328125
1782984563550193700,3.650193603515625,-6.6405487060546875,-0.53668212890625,0.5532379150390625
1782984563560268800,3.660268798828125,-5.8991851806640625,-0.7736358642578125,0.6113433837890625
1782984563570342700,3.6703427734375,-4.8067626953125,-1.020477294921875,0.72833251953125
1782984563580417000,3.6804169921875,-3.899627685546875,-1.1689453125,0.875244140625
1782984563590491000,3.690490966796875,-3.3446197509765625,-1.2451019287109375,0.85601806640625
1782984563600564700,3.700564697265625,-2.9462738037109375,-1.207672119140625,0.7200164794921875
1782984563610638800,3.710638916015625,-2.5141448974609375,-1.0905303955078125,0.497039794921875
1782984563620713700,3.720713623046875,-1.996856689453125,-0.90277099609375,0.2295074462890625
1782984563630787800,3.730787841796875,-1.5322418212890625,-0.6803131103515625,-0.0126953125
1782984563640861700,3.74086181640625,-1.25390625,-0.51776123046875,-0.2172393798828125
1782984563650935800,3.750935791015625,-1.2131500244140625,-0.3385162353515625,-0.2840576171875
1782984563661009700,3.761009765625,-1.2908477783203125,-0.1053314208984375,-0.1960296630859375
1782984563671084000,3.771083984375,-1.292449951171875,0.1374969482421875,-0.1039886474609375
1782984563681158000,3.781157958984375,-1.0539093017578125,0.323974609375,-0.0425262451171875
1782984563691233000,3.79123291015625,-0.4888153076171875,0.44805908203125,0.0086669921875
1782984563701307000,3.801306884765625,0.248382568359375,0.4485626220703125,0.02783203125
1782984563711380700,3.811380615234375,0.9741973876953125,0.3789215087890625,0.0519866943359375
1782984563721454800,3.821454833984375,1.508575439453125,0.27581787109375,0.100830078125
1782984563731528700,3.83152880859375,1.80145263671875,0.15155029296875,0.111846923828125
1782984563741602800,3.841602783203125,1.852264404296875,0.044097900390625,0.0475311279296875
1782984563751676700,3.8516767578125,1.6642913818359375,-0.03472900390625,-0.0590362548828125
1782984563761751800,3.861751708984375,1.3124542236328125,-0.0431060791015625,-0.10931396484375
1782984563771825700,3.87182568359375,0.8985595703125,-0.015472412109375,-0.1223297119140625
1782984563781900000,3.881900146484375,0.448272705078125,0.017364501953125,-0.191009521484375
1782984563791974000,3.891973876953125,-0.040740966796875,0.062042236328125,-0.25555419921875
1782984563802047700,3.9020478515625,-0.534698486328125,0.1365966796875,-0.2602691650390625
1782984563812121900,3.912121826171875,-0.9477996826171875,0.1840057373046875,-0.1543121337890625
1782984563822195700,3.92219580078125,-1.1502532958984375,0.181182861328125,-0.008026123046875
1782984563832270800,3.932270751953125,-1.100982666015625,0.1197357177734375,0.1135406494140625
1782984563842344700,3.9423447265625,-0.8876953125,0.043243408203125,0.1548004150390625
1782984563852418800,3.952418701171875,-0.61053466796875,-0.039459228515625,0.1145477294921875
1782984563862492700,3.96249267578125,-0.3506927490234375,-0.1044769287109375,0.080230712890625
1782984563872567000,3.972567138671875,-0.1208343505859375,-0.120635986328125,0.087646484375
1782984563882641000,3.982640869140625,0.0728607177734375,-0.134368896484375,0.07745361328125
1782984563892714800,3.99271484375,0.2087554931640625,-0.1458587646484375,0.0605010986328125
1782984563902788900,4.002788818359375,0.2961883544921875,-0.143951416015625,0.0343170166015625
1782984563912862700,4.01286279296875,0.3278961181640625,-0.1171417236328125,0.010589599609375
1782984563922936800,4.022936767578125,0.3031005859375,-0.0865478515625,-0.0048980712890625
1782984563933011000,4.033010986328125,0.2458953857421875,-0.05877685546875,-0.020477294921875
1782984563943084800,4.043084716796875,0.1927490234375,-0.031402587890625,-0.0461578369140625
1782984563953160000,4.053159912109375,0.1422882080078125,-0.011444091796875,-0.0759124755859375
1782984563963233800,4.06323388671875,0.1284027099609375,0.0037078857421875,-0.0996246337890625
1782984563973307600,4.0733076171875,0.1537017822265625,0.0165863037109375,-0.11749267578125
1782984563983381800,4.0833818359375,0.16357421875,0.02587890625,-0.1251220703125
1782984563993455600,4.09345556640625,0.141082763671875,0.0409698486328125,-0.1275177001953125
1782984564003529700,4.10352978515625,0.090057373046875,0.0571136474609375,-0.095977783203125
1782984564013603600,4.113603515625,0.01898193359375,0.0621185302734375,-0.03790283203125
1782984564023678700,4.1236787109375,-0.1138458251953125,0.021270751953125,-0.015472412109375
1782984564033752600,4.133752685546875,-0.2864227294921875,-0.05377197265625,0.0057373046875
1782984564043827000,4.143826904296875,-0.5111236572265625,-0.1848907470703125,0.0091400146484375
1782984564053900800,4.15390087890625,-0.8154754638671875,-0.4174957275390625,-0.0519256591796875
1782984564063974700,4.163974609375,-1.20367431640625,-0.7732086181640625,-0.0960693359375
1782984564074048800,4.174048828125,-1.578338623046875,-1.2616424560546875,-0.1594390869140625
1782984564084123600,4.18412353515625,-1.92010498046875,-1.8245391845703125,-0.1813201904296875
1782984564094197800,4.19419775390625,-2.5045623779296875,-2.2170257568359375,-0.2316741943359375
1782984564104271600,4.204271728515625,-3.51947021484375,-2.2939605712890625,-0.3708038330078125
1782984564114345700,4.214345703125,-4.960784912109375,-2.012786865234375,-0.3528594970703125
1782984564124419600,4.224419677734375,-6.3897552490234375,-1.6460113525390625,-0.0263519287109375
1782984564134493700,4.23449365234375,-7.0040283203125,-1.41107177734375,0.3641357421875
1782984564144567800,4.24456787109375,-6.594024658203125,-1.3636474609375,0.5604095458984375
1782984564154643000,4.254642822265625,-5.448516845703125,-1.490447998046875,0.5618438720703125
1782984564164716800,4.264716796875,-4.198211669921875,-1.5728759765625,0.4378662109375
1782984564174790700,4.274790771484375,-3.193115234375,-1.5290069580078125,0.37762451171875
1782984564184864800,4.28486474609375,-2.56097412109375,-1.3719482421875,0.379608154296875
1782984564194938600,4.294938720703125,-2.1361846923828125,-1.06683349609375,0.2244415283203125
1782984564205012700,4.3050126953125,-1.6645965576171875,-0.6812896728515625,-0.003173828125
1782984564215086600,4.315086669921875,-1.1199798583984375,-0.2696075439453125,-0.139862060546875
1782984564225161700,4.32516162109375,-0.664459228515625,0.13128662109375,-0.0964813232421875
1782984564235235600,4.335235595703125,-0.2829437255859375,0.5576934814453125,0.1916351318359375
1782984564245309700,4.345309814453125,0.1175689697265625,0.544525146484375,0.031707763671875
1782984564255384600,4.355384521484375,0.5794219970703125,0.612579345703125,-0.050750732421875
1782984564265458700,4.365458740234375,1.104339599609375,0.720550537109375,0.265045166015625
1782984564275532800,4.37553271484375,1.48797607421875,0.5878448486328125,0.0586395263671875
1782984564285606700,4.385606689453125,1.6992950439453125,0.56884765625,0.1431732177734375
1782984564295680800,4.3956806640625,1.773529052734375,0.5607147216796875,0.1852569580078125
1782984564305754600,4.405754638671875,1.6750335693359375,0.5489959716796875,0.078460693359375
1782984564315828700,4.415828857421875,1.45941162109375,0.5334320068359375,-0.046966552734375
1782984564325903600,4.425903564453125,1.166748046875,0.5320281982421875,-0.1203155517578125
1782984564335977700,4.435977783203125,0.753082275390625,0.51361083984375,-0.1355438232421875
1782984564346051600,4.446051513671875,0.28497314453125,0.4691925048828125,-0.1516876220703125
1782984564356125700,4.456125732421875,-0.107666015625,0.387054443359375,-0.1557464599609375
1782984564366199800,4.46619970703125,-0.3541717529296875,0.2832489013671875,-0.117156982421875
1782984564376273700,4.476273681640625,-0.44696044921875,0.1788787841796875,-0.055328369140625
1782984564386348800,4.486348876953125,-0.440032958984375,0.08905029296875,-0.03472900390625
1782984564396422700,4.496422607421875,-0.399322509765625,0.0279541015625,-0.0525970458984375
1782984564406496800,4.506496826171875,-0.387054443359375,0.0062713623046875,-0.0603179931640625
1782984564416570600,4.516570556640625,-0.4382781982421875,0.0068817138671875,-0.059967041015625
1782984564426644700,4.526644775390625,-0.4823150634765625,-0.0042266845703125,-0.078155517578125
1782984564436718600,4.536718505859375,-0.44525146484375,-0.034332275390625,-0.0947113037109375
1782984564446792700,4.546792724609375,-0.32171630859375,-0.07513427734375,-0.0764617919921875
1782984564456867600,4.55686767578125,-0.1719818115234375,-0.1143798828125,-0.0513458251953125
1782984564466941700,4.566941650390625,-0.069854736328125,-0.1497650146484375,-0.0321197509765625
1782984564477015800,4.577015869140625,-0.0550994873046875,-0.1536712646484375,0.0008697509765625
1782984564487089700,4.587089599609375,-0.1039886474609375,-0.1483917236328125,0.0463714599609375
1782984564497163800,4.597163818359375,-0.160980224609375,-0.1735687255859375,0.0792694091796875
1782984564507237600,4.607237548828125,-0.2033538818359375,-0.1969757080078125,0.102752685546875
1782984564517311700,4.617311767578125,-0.2425079345703125,-0.2021484375,0.133697509765625
1782984564527386600,4.62738671875,-0.2750701904296875,-0.2095489501953125,0.123138427734375
1782984564537460700,4.637460693359375,-0.3160400390625,-0.21826171875,0.0857086181640625
1782984564547534600,4.64753466796875,-0.371856689453125,-0.22552490234375,0.034210205078125
1782984564557608700,4.657608642578125,-0.4066619873046875,-0.2246551513671875,-0.00384521484375
1782984564567682800,4.667682861328125,-0.448577880859375,-0.2276763916015625,0.0049896240234375
1782984564577756700,4.677756591796875,-0.4921875,-0.2476348876953125,0.0085906982421875
1782984564587831800,4.687831787109375,-0.5192718505859375,-0.2713775634765625,-0.0104827880859375
1782984564597905700,4.69790576171875,-0.58758544921875,-0.2861328125,-0.01092529296875
1782984564607979800,4.707979736328125,-0.7640838623046875,-0.31121826171875,-0.01751708984375
1782984564618053600,4.7180537109375,-1.093017578125,-0.3938140869140625,-0.0711822509765625
1782984564628127700,4.728127685546875,-1.5146026611328125,-0.5608062744140625,-0.092041015625
1782984564638201600,4.73820166015625,-1.8634033203125,-0.9046783447265625,-0.0861053466796875
1782984564648275700,4.748275634765625,-2.0812225341796875,-1.3184661865234375,-0.1273956298828125
1782984564658350600,4.7583505859375,-2.364593505859375,-1.69097900390625,-0.1642913818359375
1782984564668424700,4.7684248046875,-3.0716705322265625,-1.9562225341796875,-0.1735382080078125
1782984564678498800,4.778498779296875,-4.194671630859375,-1.9634552001953125,-0.2109375
1782984564688572700,4.78857275390625,-5.24993896484375,-1.7790679931640625,-0.1451263427734375
1782984564698646800,4.798646728515625,-5.7615203857421875,-1.6078643798828125,0.0227813720703125
1782984564708720600,4.808720703125,-5.46502685546875,-1.614959716796875,0.159912109375
1782984564718795800,4.818795654296875,-4.5592193603515625,-1.7752838134765625,0.2403717041015625
1782984564728869600,4.82886962890625,-3.4326171875,-1.9327239990234375,0.2595977783203125
1782984564738943700,4.83894384765625,-2.4328765869140625,-1.9606781005859375,0.2749481201171875
1782984564749017600,4.849017578125,-1.742919921875,-1.7859039306640625,0.3526458740234375
1782984564759091700,4.859091796875,-1.3124542236328125,-1.4872589111328125,0.3491973876953125
1782984564769165800,4.869165771484375,-0.9762725830078125,-1.14227294921875,0.1959228515625
1782984564779239700,4.87923974609375,-0.745513916015625,-0.7852935791015625,0.064605712890625
1782984564789314800,4.889314697265625,-0.789215087890625,-0.3623809814453125,0.1576080322265625
1782984564799388700,4.899388671875,-1.0664825439453125,0.0303497314453125,0.334625244140625
1782984564809462800,4.909462890625,-1.0845947265625,0.1863861083984375,0.15264892578125
1782984564819536600,4.91953662109375,-0.81488037109375,0.2241668701171875,-0.1490631103515625
1782984564829610500,4.929610595703125,-0.3734588623046875,0.23779296875,-0.281036376953125
1782984564839684600,4.9396845703125,0.103485107421875,0.1890869140625,-0.2297210693359375
1782984564849759700,4.949759765625,0.526458740234375,0.0860443115234375,-0.115142822265625
1782984564859833600,4.95983349609375,0.8790283203125,0.0041351318359375,-0.0042266845703125
1782984564869907700,4.96990771484375,1.1424407958984375,-0.0794830322265625,0.073333740234375
1782984564879981800,4.97998193359375,1.26116943359375,-0.162628173828125,0.0527801513671875
1782984564890055700,4.9900556640625,1.214630126953125,-0.2194366455078125,-0.023956298828125
1782984564900129800,5.0001298828125,1.029144287109375,-0.215972900390625,-0.044952392578125
1782984564910203600,5.01020361328125,0.7661895751953125,-0.1513824462890625,-0.058807373046875
1782984564920278800,5.02027880859375,0.4138336181640625,-0.0574493408203125,-0.099456787109375
1782984564930353200,5.030353271484375,0.0044708251953125,0.00579833984375,-0.1875457763671875
1782984564940427300,5.04042724609375,-0.3423614501953125,0.0452728271484375,-0.2794647216796875
1782984564950501000,5.050501220703125,-0.55181884765625,0.1024932861328125,-0.2755126953125
1782984564960575000,5.060574951171875,-0.609619140625,0.1526641845703125,-0.181854248046875
1782984564970649300,5.0706494140625,-0.5526275634765625,0.1794586181640625,-0.0796661376953125
1782984564980723200,5.08072314453125,-0.4434661865234375,0.1942138671875,-0.0060577392578125
1782984564990798300,5.09079833984375,-0.36737060546875,0.1826629638671875,0.038360595703125
1782984565000872200,5.1008720703125,-0.3085479736328125,0.139984130859375,0.038726806640625
1782984565010946300,5.1109462890625,-0.2327423095703125,0.0915985107421875,0.0181427001953125
1782984565021020200,5.121020263671875,-0.158111572265625,0.0524139404296875,0.010589599609375
1782984565031094300,5.13109423828125,-0.08306884765625,0.0408172607421875,-0.0068359375
1782984565041168100,5.141168212890625,0.0040740966796875,0.0311431884765625,-0.0349578857421875
1782984565051243300,5.1512431640625,0.082855224609375,0.0145416259765625,-0.072723388671875
1782984565061317000,5.161317138671875,0.14788818359375,-0.0134429931640625,-0.0890045166015625
1782984565071391200,5.17139111328125,0.2049102783203125,-0.0428924560546875,-0.06756591796875
1782984565081465300,5.18146533203125,0.2491912841796875,-0.051727294921875,-0.016265869140625
1782984565091539200,5.191539306640625,0.266845703125,-0.063873291015625,0.0429840087890625
1782984565101613300,5.20161328125,0.2335968017578125,-0.0863189697265625,0.080596923828125
1782984565111687200,5.211687255859375,0.1741180419921875,-0.1078948974609375,0.0902252197265625
1782984565121762300,5.22176220703125,0.1250152587890625,-0.121429443359375,0.096221923828125
1782984565131836200,5.231836181640625,0.0753936767578125,-0.113037109375,0.095367431640625
1782984565141910300,5.24191015625,0.005615234375,-0.1220245361328125,0.0862274169921875
1782984565151984000,5.251984130859375,-0.0577545166015625,-0.1390228271484375,0.08251953125
1782984565162058200,5.262058349609375,-0.10308837890625,-0.1343231201171875,0.0564727783203125
1782984565172132400,5.27213232421875,-0.1796722412109375,-0.1530914306640625,-0.0030059814453125
1782984565182207200,5.282207275390625,-0.360992431640625,-0.193878173828125,-0.066650390625
1782984565192281300,5.29228125,-0.6929931640625,-0.27655029296875,-0.1207275390625
1782984565202355200,5.302355224609375,-1.125885009765625,-0.439697265625,-0.1988372802734375
1782984565212429300,5.31242919921875,-1.5756378173828125,-0.6885223388671875,-0.270416259765625
1782984565222503200,5.322503173828125,-1.900482177734375,-1.06103515625,-0.2686309814453125
1782984565232577000,5.332576904296875,-1.9859771728515625,-1.414581298828125,-0.4340362548828125
1782984565242651100,5.342651123046875,-2.08758544921875,-1.661956787109375,-0.75537109375
1782984565252726300,5.352726318359375,-2.497344970703125,-1.787322998046875,-0.8786773681640625
1782984565262800100,5.362800048828125,-3.281768798828125,-1.6883087158203125,-0.813629150390625
1782984565272874200,5.372874267578125,-4.2170867919921875,-1.4995880126953125,-0.818084716796875
1782984565282948400,5.3829482421875,-4.8623199462890625,-1.3980712890625,-0.8802947998046875
1782984565293022200,5.393022216796875,-4.943756103515625,-1.37518310546875,-0.7989654541015625
1782984565303096300,5.403096435546875,-4.6387786865234375,-1.3803863525390625,-0.553375244140625
1782984565313171200,5.413171142578125,-4.280029296875,-1.3059539794921875,-0.3759918212890625
1782984565323245300,5.423245361328125,-3.9479522705078125,-1.1204376220703125,-0.3013763427734375
1782984565333319200,5.433319091796875,-3.4953155517578125,-0.9237823486328125,-0.234649658203125
1782984565343393000,5.44339306640625,-2.8938446044921875,-0.7875823974609375,-0.1838531494140625
1782984565353467100,5.453467041015625,-2.2725067138671875,-0.6959686279296875,-0.1675567626953125
1782984565363541200,5.463541259765625,-1.796295166015625,-0.5822906494140625,-0.1756134033203125
1782984565373615400,5.473615478515625,-1.5110931396484375,-0.4372100830078125,-0.15277099609375
1782984565383690200,5.483690185546875,-1.2778778076171875,-0.29827880859375,-0.137908935546875
1782984565393764400,5.493764404296875,-0.9325103759765625,-0.180511474609375,-0.147979736328125
1782984565403838200,5.503838134765625,-0.5313720703125,-0.047088623046875,-0.1492767333984375
1782984565413912300,5.513912353515625,-0.1402740478515625,0.06866455078125,-0.06121826171875
1782984565423986200,5.523986083984375,0.254241943359375,0.1397857666015625,0.0989532470703125
1782984565434060000,5.53406005859375,0.6143646240234375,0.155731201171875,0.21905517578125
1782984565444135200,5.54413525390625,0.8345489501953125,0.1452789306640625,0.2481536865234375
1782984565454209000,5.554208984375,0.941925048828125,0.1058349609375,0.247283935546875
1782984565464283100,5.564283203125,1.02374267578125,0.08197021484375,0.2154083251953125
1782984565474357200,5.574357177734375,1.04437255859375,0.0637969970703125,0.1665191650390625
1782984565484431400,5.584431396484375,0.984649658203125,0.0599212646484375,0.1606903076171875
1782984565494505200,5.594505126953125,0.826568603515625,0.0645904541015625,0.161590576171875
1782984565504580400,5.604580322265625,0.6178741455078125,0.050537109375,0.11822509765625
1782984565514654200,5.614654296875,0.39422607421875,0.036651611328125,0.0479278564453125
1782984565524728300,5.624728271484375,0.1731414794921875,0.03759765625,0.0011138916015625
1782984565534802200,5.63480224609375,-0.0001373291015625,0.0451202392578125,-0.0215911865234375
1782984565544876000,5.6448759765625,-0.1050872802734375,0.055908203125,-0.0311279296875
1782984565554950100,5.6549501953125,-0.192352294921875,0.053863525390625,-0.01556396484375
1782984565565024300,5.665024169921875,-0.2744140625,0.04254150390625,-0.0078582763671875
1782984565575099100,5.67509912109375,-0.364349365234375,0.0271759033203125,-0.0236358642578125
1782984565585173200,5.68517333984375,-0.45831298828125,0.0069580078125,-0.0479736328125
1782984565595247400,5.695247314453125,-0.5231170654296875,-0.0000457763671875,-0.0756072998046875
1782984565605321200,5.7053212890625,-0.546417236328125,-0.03009033203125,-0.103118896484375
1782984565615395300,5.715395263671875,-0.50628662109375,-0.0679779052734375,-0.134765625
1782984565625469200,5.72546923828125,-0.4387664794921875,-0.102020263671875,-0.1353607177734375
1782984565635543000,5.73554296875,-0.36114501953125,-0.1351318359375,-0.109375
1782984565645618200,5.7456181640625,-0.286163330078125,-0.1654205322265625,-0.1083831787109375
1782984565655692000,5.755692138671875,-0.2222747802734375,-0.18475341796875,-0.1374969482421875
1782984565665766100,5.76576611328125,-0.1624603271484375,-0.183319091796875,-0.1719512939453125
1782984565675840300,5.77584033203125,-0.1066436767578125,-0.1735382080078125,-0.1848602294921875
1782984565685914400,5.785914306640625,-0.06793212890625,-0.155426025390625,-0.17340087890625
1782984565695988200,5.79598828125,-0.0527801513671875,-0.1363677978515625,-0.1542816162109375
1782984565706063400,5.8060634765625,-0.0589599609375,-0.1193389892578125,-0.1256866455078125
1782984565716137200,5.81613720703125,-0.0801544189453125,-0.1098480224609375,-0.09716796875
1782984565726211300,5.82621142578125,-0.0936737060546875,-0.09832763671875,-0.08282470703125
1782984565736285200,5.83628515625,-0.1134033203125,-0.095489501953125,-0.0765228271484375
1782984565746359000,5.846359130859375,-0.1825103759765625,-0.102935791015625,-0.0750579833984375
1782984565756433200,5.85643310546875,-0.3048095703125,-0.1492767333984375,-0.0549163818359375
1782984565766508000,5.866508056640625,-0.4688720703125,-0.2220611572265625,-0.0358428955078125
1782984565776582100,5.87658203125,-0.794036865234375,-0.3472747802734375,-0.0273590087890625
1782984565786656300,5.88665625,-1.2878875732421875,-0.609619140625,-0.0300750732421875
1782984565796730400,5.89673046875,-1.87237548828125,-0.92999267578125,-0.0996246337890625
1782984565806804200,5.90680419921875,-2.27984619140625,-1.192840576171875,-0.2392730712890625
1782984565816878300,5.91687841796875,-2.4932708740234375,-1.4293365478515625,-0.319610595703125
1782984565826952200,5.9269521484375,-3.0083465576171875,-1.5659637451171875,-0.24700927734375
1782984565837027300,5.93702734375,-3.9990386962890625,-1.4720458984375,-0.05841064453125
1782984565847101200,5.94710107421875,-4.8589324951171875,-1.394012451171875,0.117584228515625
1782984565857175000,5.957175048828125,-5.131561279296875,-1.4318695068359375,0.097503662109375
1782984565867249200,5.967249267578125,-4.8341217041015625,-1.5234527587890625,0.0052490234375
1782984565877323300,5.9773232421875,-4.2181243896484375,-1.5080718994140625,-0.021331787109375
1782984565887397400,5.9873974609375,-3.653900146484375,-1.3765411376953125,0.0704345703125
1782984565897472300,5.99747216796875,-3.27325439453125,-1.1948394775390625,0.1387786865234375
1782984565907546400,6.00754638671875,-2.970855712890625,-1.0382080078125,0.176910400390625
1782984565917620200,6.0176201171875,-2.5542755126953125,-0.8897552490234375,0.2040252685546875
1782984565927694000,6.027694091796875,-1.9514007568359375,-0.7181854248046875,0.1524200439453125
1782984565937767400,6.037767333984375,-1.3436431884765625,-0.510498046875,0.0198516845703125
1782984565947841300,6.04784130859375,-0.9513397216796875,-0.3066253662109375,-0.04473876953125
1782984565957916400,6.05791650390625,-0.718658447265625,-0.1154937744140625,0.00341796875
1782984565967990300,6.067990234375,-0.5122222900390625,0.055389404296875,0.037933349609375
1782984565978064600,6.078064697265625,-0.241485595703125,0.16583251953125,-0.0068206787109375
1782984565988138500,6.088138427734375,0.045257568359375,0.195892333984375,-0.095855712890625
1782984565998212600,6.098212646484375,0.38568115234375,0.1342315673828125,-0.168060302734375
1782984566008286500,6.108286376953125,0.77947998046875,0.043182373046875,-0.2256011962890625
1782984566018360300,6.1183603515625,1.084320068359375,-0.035797119140625,-0.2099456787109375
1782984566028435500,6.128435546875,1.2296905517578125,-0.0836944580078125,-0.1402130126953125
1782984566038509600,6.138509521484375,1.211273193359375,-0.1156158447265625,-0.1015625
1782984566048583400,6.14858349609375,1.0319366455078125,-0.13104248046875,-0.0831451416015625
1782984566058657300,6.1586572265625,0.7886810302734375,-0.0955963134765625,-0.039459228515625
1782984566068731600,6.168731689453125,0.5348663330078125,-0.0684814453125,-0.0245361328125
1782984566078805500,6.178805419921875,0.2187957763671875,-0.044342041015625,-0.0513916015625
1782984566088880600,6.188880615234375,-0.1288299560546875,-0.0082244873046875,-0.1012725830078125
1782984566098954500,6.19895458984375,-0.4183197021484375,0.0235595703125,-0.0874481201171875
1782984566109028600,6.209028564453125,-0.5865478515625,0.0692901611328125,-0.0223846435546875
1782984566119102500,6.2191025390625,-0.63970947265625,0.0888519287109375,0.0528106689453125
1782984566129176300,6.22917626953125,-0.605316162109375,0.087188720703125,0.1041259765625
1782984566139250400,6.23925048828125,-0.5415802001953125,0.0813751220703125,0.1309051513671875
1782984566149324500,6.249324462890625,-0.4696197509765625,0.0730743408203125,0.1094970703125
1782984566159399400,6.2593994140625,-0.388824462890625,0.0546417236328125,0.0467376708984375
1782984566169473500,6.2694736328125,-0.2861328125,0.045989990234375,-0.00048828125
1782984566179547600,6.279547607421875,-0.1976470947265625,0.0350189208984375,-0.0130157470703125
1782984566189621500,6.28962158203125,-0.126251220703125,0.017852783203125,-0.013824462890625
1782984566199695600,6.299695556640625,-0.083526611328125,-0.0047149658203125,-0.008575439453125
1782984566209769500,6.30976953125,-0.0504302978515625,-0.0299835205078125,-0.0152435302734375
1782984566219844600,6.3198447265625,-0.00799560546875,-0.055084228515625,-0.03009033203125
1782984566229918500,6.32991845703125,0.04388427734375,-0.0498199462890625,-0.0280914306640625
1782984566239992300,6.339992431640625,0.0944366455078125,-0.0446624755859375,-0.0354766845703125
1782984566250066400,6.35006640625,0.1232147216796875,-0.046478271484375,-0.0460357666015625
1782984566260140500,6.360140625,0.1590118408203125,-0.0495452880859375,-0.0422210693359375
1782984566270214700,6.370214599609375,0.194976806640625,-0.0461578369140625,-0.01190185546875
1782984566280289500,6.38028955078125,0.1991729736328125,-0.0519866943359375,0.0391082763671875
1782984566290363600,6.39036376953125,0.1409912109375,-0.0733184814453125,0.0802154541015625
1782984566300437500,6.4004375,-0.0013580322265625,-0.0865936279296875,0.0982818603515625
1782984566310511600,6.41051171875,-0.22540283203125,-0.1050262451171875,0.1259002685546875
1782984566320585500,6.42058544921875,-0.4551239013671875,-0.152435302734375,0.1377105712890625
1782984566330659300,6.430659423828125,-0.601104736328125,-0.232940673828125,0.058837890625
1782984566340733400,6.4407333984375,-0.7013397216796875,-0.360260009765625,-0.011810302734375
1782984566350808300,6.450808349609375,-0.84771728515625,-0.5287322998046875,-0.043609619140625
1782984566360882400,6.46088232421875,-1.0890045166015625,-0.7930755615234375,-0.0756378173828125
1782984566370956500,6.47095654296875,-1.3460540771484375,-1.1675872802734375,-0.146148681640625
1782984566381030700,6.48103076171875,-1.4713134765625,-1.54034423828125,-0.244354248046875
1782984566391104500,6.4911044921875,-1.4914703369140625,-1.860015869140625,-0.4208221435546875
1782984566401178600,6.5011787109375,-1.813751220703125,-2.0054931640625,-0.563446044921875
1782984566411253500,6.51125341796875,-2.688201904296875,-1.780487060546875,-0.489593505859375
1782984566421327600,6.52132763671875,-4.0263519287109375,-1.46533203125,-0.3724822998046875
1782984566431401500,6.5314013671875,-5.2706756591796875,-1.2653350830078125,-0.3345184326171875
1782984566441475300,6.541475341796875,-5.718963623046875,-1.1551513671875,-0.3064422607421875
1782984566451549400,6.551549560546875,-5.301239013671875,-1.1878814697265625,-0.3905792236328125
1782984566461623600,6.56162353515625,-4.453765869140625,-1.28106689453125,-0.464996337890625
1782984566471698400,6.571698486328125,-3.5904998779296875,-1.3082122802734375,-0.4786224365234375
1782984566481772500,6.5817724609375,-2.8811492919921875,-1.28411865234375,-0.4229736328125
1782984566491846700,6.5918466796875,-2.398193359375,-1.230926513671875,-0.2640838623046875
1782984566501920500,6.60192041015625,-2.0333709716796875,-1.14434814453125,-0.08758544921875
1782984566511994600,6.61199462890625,-1.6799774169921875,-1.0593109130859375,-0.0635833740234375
1782984566522068500,6.622068359375,-1.3277130126953125,-0.9362640380859375,-0.1305084228515625
1782984566532142300,6.632142333984375,-1.0775146484375,-0.70526123046875,-0.165924072265625
1782984566542217500,6.642217529296875,-0.930267333984375,-0.419281005859375,-0.19403076171875
1782984566552291300,6.652291259765625,-0.751617431640625,-0.189697265625,-0.166168212890625
1782984566562365400,6.662365478515625,-0.4307403564453125,-0.1038818359375,-0.2533111572265625
1782984566572439600,6.672439453125,-0.092742919921875,-0.0712127685546875,-0.3866119384765625
1782984566582513700,6.682513671875,0.2048187255859375,-0.0095062255859375,-0.2669525146484375
1782984566592587500,6.69258740234375,0.53387451171875,0.035797119140625,-0.0128631591796875
1782984566602662700,6.70266259765625,0.85870361328125,0.034210205078125,0.122344970703125
1782984566612736500,6.712736572265625,1.0484619140625,0.012939453125,0.1500396728515625
1782984566622810600,6.722810546875,1.0959320068359375,-0.0093994140625,0.1148681640625
1782984566632884500,6.732884521484375,1.002593994140625,-0.02081298828125,0.0604400634765625
1782984566642958300,6.742958251953125,0.8293304443359375,0.0054931640625,0.04290771484375
1782984566653032400,6.753032470703125,0.6231231689453125,0.0511016845703125,0.03955078125
1782984566663107300,6.763107421875,0.3913116455078125,0.0841522216796875,0.0124969482421875
1782984566673181400,6.773181396484375,0.2253265380859375,0.127166748046875,-0.0167694091796875
1782984566683255600,6.783255615234375,0.0989227294921875,0.1658172607421875,-0.0122528076171875
1782984566693329700,6.79332958984375,-0.008880615234375,0.19293212890625,0.029052734375
1782984566703403500,6.803403564453125,-0.1189117431640625,0.19488525390625,0.069183349609375
1782984566713477600,6.8134775390625,-0.2515411376953125,0.1847076416015625,0.084991455078125
1782984566723552500,6.823552490234375,-0.37164306640625,0.1659698486328125,0.0778656005859375
1782984566733626600,6.833626708984375,-0.43011474609375,0.141937255859375,0.041351318359375
1782984566743700500,6.843700439453125,-0.4161224365234375,0.1079559326171875,-0.001007080078125
1782984566753774300,6.8537744140625,-0.3407745361328125,0.0749359130859375,-0.054901123046875
1782984566763848400,6.863848388671875,-0.2370147705078125,0.0345306396484375,-0.0989227294921875
1782984566773922600,6.873922607421875,-0.1530303955078125,0.003326416015625,-0.0995025634765625
1782984566783996700,6.88399658203125,-0.124298095703125,-0.031768798828125,-0.0857086181640625
1782984566794071600,6.894071533203125,-0.1455230712890625,-0.07220458984375,-0.094024658203125
1782984566804145700,6.904145751953125,-0.173553466796875,-0.12255859375,-0.1272430419921875
1782984566814219500,6.914219482421875,-0.1935882568359375,-0.1599884033203125,-0.152679443359375
1782984566824293400,6.92429345703125,-0.1985015869140625,-0.1780242919921875,-0.1496124267578125
1782984566834367500,6.934367431640625,-0.1873931884765625,-0.1898345947265625,-0.1431732177734375
1782984566844441300,6.94444140625,-0.1608123779296875,-0.20458984375,-0.13604736328125
1782984566854516500,6.9545166015625,-0.1388702392578125,-0.2117462158203125,-0.0965576171875
1782984566864590300,6.96459033203125,-0.161163330078125,-0.233978271484375,-0.0259246826171875
1782984566874664400,6.97466455078125,-0.2287139892578125,-0.26580810546875,0.0097808837890625
1782984566884738600,6.984738525390625,-0.3208160400390625,-0.2906341552734375,0.0215911865234375
1782984566894812700,6.994812744140625,-0.4282073974609375,-0.3088226318359375,0.0280609130859375
1782984566904886500,7.004886474609375,-0.526702880859375,-0.32489013671875,0.0417633056640625
1782984566914961700,7.014961669921875,-0.712890625,-0.363739013671875,0.0420684814453125
1782984566925035500,7.025035400390625,-1.007720947265625,-0.478363037109375,0.052337646484375
1782984566935109600,7.035109619140625,-1.3564605712890625,-0.6393890380859375,0.0586395263671875
1782984566945183700,7.045183837890625,-1.684661865234375,-0.930328369140625,0.0035552978515625
1782984566955257600,7.055257568359375,-1.8741302490234375,-1.3372650146484375,-0.0814208984375
1782984566965331700,7.065331787109375,-2.04620361328125,-1.5931854248046875,-0.24212646484375
1782984566975406600,7.075406494140625,-2.7038726806640625,-1.572662353515625,-0.5095672607421875
1782984566985480700,7.085480712890625,-4.023651123046875,-1.2700958251953125,-0.617034912109375
1782984566995554600,7.095554443359375,-5.42657470703125,-0.7843475341796875,-0.28216552734375
1782984567005628700,7.105628662109375,-6.0591888427734375,-0.5010986328125,0.225433349609375
1782984567015702800,7.115702880859375,-5.6121063232421875,-0.6717376708984375,0.4452056884765625
1782984567025776600,7.125776611328125,-4.5923309326171875,-0.9495849609375,0.3681793212890625
1782984567035850800,7.135850830078125,-3.71478271484375,-1.053009033203125,0.21630859375
1782984567045925600,7.145925537109375,-3.3881988525390625,-0.9867706298828125,-0.0457611083984375
1782984567055999700,7.155999755859375,-3.2893524169921875,-0.8429412841796875,-0.2313690185546875
1782984567066073600,7.166073486328125,-2.869415283203125,-0.7121734619140625,-0.1495819091796875
1782984567076147700,7.176147705078125,-2.107330322265625,-0.58013916015625,0.0471038818359375
1782984567086221600,7.1862216796875,-1.2715301513671875,-0.44696044921875,0.1751251220703125
1782984567096295700,7.196295654296875,-0.657684326171875,-0.31683349609375,0.1552734375
1782984567106370600,7.20637060546875,-0.3069305419921875,-0.220184326171875,0.1057281494140625
1782984567116444700,7.216444580078125,-0.0409393310546875,-0.104644775390625,0.022003173828125
1782984567126518800,7.226518798828125,0.124908447265625,0.0493316650390625,0.0035858154296875
1782984567136592600,7.236592529296875,0.2840118408203125,0.1376800537109375,-0.0403594970703125
1782984567146666800,7.246666748046875,0.56744384765625,0.0839080810546875,-0.093719482421875
1782984567156740600,7.25674072265625,0.9588470458984375,-0.0079803466796875,-0.0618438720703125
1782984567166815700,7.266815673828125,1.348663330078125,-0.093505859375,0.0444793701171875
1782984567176889600,7.2768896484375,1.6053314208984375,-0.162750244140625,0.1117095947265625
1782984567186963700,7.286963623046875,1.5985870361328125,-0.180023193359375,0.0414581298828125
1782984567197037800,7.297037841796875,1.311981201171875,-0.0778656005859375,0.013671875
1782984567207111700,7.307111572265625,0.770751953125,0.05047607421875,0.005218505859375
1782984567217185800,7.317185791015625,0.0858154296875,0.1029052734375,-0.0048828125
1782984567227260700,7.3272607421875,-0.4398345947265625,0.161865234375,-0.0757904052734375
1782984567237334800,7.337334716796875,-0.7446136474609375,0.203338623046875,-0.0604248046875
1782984567247408600,7.34740869140625,-0.8528289794921875,0.2474517822265625,0.0373992919921875
1782984567257482800,7.357482666015625,-0.8122711181640625,0.264801025390625,0.1021728515625
1782984567267556600,7.367556640625,-0.6865081787109375,0.24932861328125,0.137542724609375
1782984567277630700,7.377630615234375,-0.52862548828125,0.191497802734375,0.1374359130859375
1782984567287704800,7.387704833984375,-0.352203369140625,0.1078948974609375,0.1093292236328125
1782984567297779700,7.39777978515625,-0.184478759765625,0.02459716796875,0.0723876953125
1782984567307853800,7.407853759765625,-0.038421630859375,-0.04278564453125,0.0311126708984375
1782984567317927700,7.417927734375,0.0794830322265625,-0.1017608642578125,-0.02056884765625
1782984567328001800,7.428001708984375,0.1693572998046875,-0.1400299072265625,-0.0570220947265625
1782984567338075600,7.43807568359375,0.1858367919921875,-0.1541290283203125,-0.05474853515625
1782984567348149800,7.448149658203125,0.141357421875,-0.171051025390625,-0.04742431640625
1782984567358224600,7.458224609375,0.08380126953125,-0.1930084228515625,-0.0518798828125
1782984567368298800,7.468298828125,0.032073974609375,-0.2092132568359375,-0.0356597900390625
1782984567378372600,7.47837255859375,-0.0135650634765625,-0.2257080078125,-0.02032470703125
1782984567388446700,7.48844677734375,-0.0688018798828125,-0.228668212890625,-0.011383056640625
1782984567398520800,7.498520751953125,-0.1429290771484375,-0.2270965576171875,-0.0160980224609375
1782984567408594700,7.5085947265625,-0.1977386474609375,-0.2299346923828125,-0.03399658203125
1782984567418669800,7.518669921875,-0.199127197265625,-0.2292022705078125,-0.0402984619140625
1782984567428743700,7.52874365234375,-0.173980712890625,-0.23297119140625,-0.0355682373046875
1782984567438817800,7.53881787109375,-0.1929168701171875,-0.2531585693359375,-0.04583740234375
1782984567448891600,7.5488916015625,-0.2529296875,-0.2823486328125,-0.05810546875
1782984567458965800,7.5589658203125,-0.35211181640625,-0.3111114501953125,-0.058319091796875
1782984567469039600,7.56903955078125,-0.565460205078125,-0.3393096923828125,-0.0592193603515625
1782984567479114800,7.57911474609375,-0.876556396484375,-0.3992919921875,-0.0454254150390625
1782984567489188600,7.589188720703125,-1.158203125,-0.528961181640625,-0.1060028076171875
1782984567499262700,7.5992626953125,-1.5159454345703125,-0.7491607666015625,-0.1956329345703125
1782984567509336800,7.6093369140625,-1.9282379150390625,-1.0191650390625,-0.3072967529296875
1782984567519410700,7.61941064453125,-2.32489013671875,-1.361846923828125,-0.36114501953125
1782984567529484800,7.62948486328125,-2.7023162841796875,-1.6105499267578125,-0.255615234375
1782984567539559700,7.6395595703125,-2.986175537109375,-1.631317138671875,-0.16180419921875
1782984567549633800,7.6496337890625,-3.3110504150390625,-1.6043701171875,-0.235015869140625
1782984567559707600,7.659707763671875,-3.707061767578125,-1.6402130126953125,-0.3564910888671875
1782984567569781800,7.66978173828125,-3.9400787353515625,-1.730316162109375,-0.4870758056640625
1782984567579855600,7.679855712890625,-3.8211517333984375,-1.7523040771484375,-0.3945465087890625
1782984567589929700,7.6899296875,-3.52691650390625,-1.6165313720703125,-0.1003265380859375
1782984567600004600,7.700004638671875,-3.343994140625,-1.3226318359375,-0.0165252685546875
1782984567610078700,7.71007861328125,-3.4095916748046875,-1.1074981689453125,-0.106292724609375
1782984567620152800,7.72015283203125,-3.451263427734375,-0.8739776611328125,-0.281463623046875
1782984567630226700,7.730226806640625,-3.2854766845703125,-0.679656982421875,-0.391265869140625
1782984567640300800,7.74030078125,-2.7065887451171875,-0.5637664794921875,-0.3739013671875
1782984567650374700,7.750374755859375,-1.8551788330078125,-0.4527435302734375,-0.320037841796875
1782984567660448800,7.76044873046875,-0.98858642578125,-0.3719940185546875,-0.2816162109375
1782984567670523600,7.770523681640625,-0.2327728271484375,-0.2714996337890625,-0.1909027099609375
1782984567680597800,7.78059765625,0.2868194580078125,-0.1787109375,-0.00567626953125
1782984567690671600,7.790671630859375,0.611053466796875,-0.12548828125,0.0898284912109375
1782984567700745500,7.800745361328125,0.8512420654296875,-0.099273681640625,0.0263519287109375
1782984567710819800,7.81081982421875,1.0361175537109375,-0.058929443359375,0.0792999267578125
1782984567720893700,7.820893798828125,1.1419677734375,-0.055877685546875,0.207733154296875
1782984567730968800,7.83096875,1.23504638671875,-0.0631561279296875,0.2072296142578125
1782984567741042700,7.841042724609375,1.2242889404296875,-0.0257110595703125,0.0926971435546875
1782984567751116800,7.85111669921875,0.9929962158203125,0.0454559326171875,0.025360107421875
1782984567761190700,7.861190673828125,0.677001953125,0.1285858154296875,-0.0511016845703125
1782984567771264800,7.8712646484375,0.303985595703125,0.202423095703125,-0.1077423095703125
1782984567781338600,7.881338623046875,-0.0717010498046875,0.236175537109375,-0.15533447265625
1782984567791413800,7.891413818359375,-0.356903076171875,0.22613525390625,-0.183746337890625
1782984567801487600,7.901487548828125,-0.488433837890625,0.1915435791015625,-0.1688079833984375
1782984567811561500,7.9115615234375,-0.5214385986328125,0.1545867919921875,-0.1378173828125
1782984567821635800,7.9216357421875,-0.5176849365234375,0.1154632568359375,-0.107421875
1782984567831709700,7.931709716796875,-0.4765777587890625,0.065093994140625,-0.0860595703125
1782984567841783800,7.94178369140625,-0.418548583984375,0.020294189453125,-0.06793212890625
1782984567851858700,7.951858642578125,-0.350921630859375,-0.0256805419921875,-0.06170654296875
1782984567861932800,7.961932861328125,-0.270751953125,-0.0627288818359375,-0.0424041748046875
1782984567872006700,7.972006591796875,-0.211669921875,-0.0911865234375,0.0070343017578125
1782984567882080800,7.982080810546875,-0.1696319580078125,-0.1267547607421875,0.03704833984375
1782984567892154600,7.992154541015625,-0.1483001708984375,-0.160186767578125,0.0335693359375
1782984567902228500,8.002228515625,-0.1328125,-0.1840972900390625,0.0225372314453125
1782984567912302800,8.012302734375,-0.1123809814453125,-0.2020416259765625,-0.006378173828125
1782984567922376700,8.022376708984375,-0.0808563232421875,-0.2148895263671875,-0.042236328125
1782984567932450800,8.032450927734375,-0.0400543212890625,-0.2200775146484375,-0.0756988525390625
1782984567942524200,8.042524169921874,-0.02716064453125,-0.2238616943359375,-0.0971527099609375
1782984567952599300,8.052599365234375,-0.0441436767578125,-0.222381591796875,-0.0875396728515625
1782984567962673200,8.062673095703126,-0.0872802734375,-0.2178497314453125,-0.0595703125
1782984567972747000,8.0727470703125,-0.1587982177734375,-0.2082366943359375,-0.0442352294921875
1782984567982821000,8.082821044921875,-0.252227783203125,-0.1950836181640625,-0.0378875732421875
1782984567992895200,8.092895263671876,-0.3651123046875,-0.1925811767578125,-0.0306549072265625
1782984568002970000,8.10297021484375,-0.470428466796875,-0.200836181640625,-0.022430419921875
1782984568013044200,8.113044189453126,-0.5574493408203125,-0.2154693603515625,-0.0219573974609375
1782984568023118300,8.123118408203124,-0.6324462890625,-0.2462615966796875,-0.033966064453125
1782984568033192200,8.133192138671875,-0.6890411376953125,-0.25946044921875,-0.018280029296875
1782984568043266300,8.143266357421876,-0.8001861572265625,-0.30230712890625,0.02532958984375
1782984568053340200,8.153340087890625,-0.9820404052734375,-0.404083251953125,0.04974365234375
1782984568063414000,8.1634140625,-1.1740264892578125,-0.5619659423828125,0.11328125
1782984568073489200,8.1734892578125,-1.2990570068359375,-0.8309173583984375,0.16876220703125
1782984568083563000,8.18356298828125,-1.44195556640625,-1.1167755126953125,0.1423797607421875
1782984568093637000,8.19363720703125,-1.6285247802734375,-1.30438232421875,0.0314483642578125
1782984568103711200,8.203711181640625,-1.9651641845703125,-1.422698974609375,-0.1369781494140625
1782984568113785300,8.213785400390625,-2.6260223388671875,-1.4014434814453125,-0.1616363525390625
1782984568123859200,8.223859130859376,-3.44976806640625,-1.2118682861328125,0.01446533203125
1782984568133934300,8.233934326171875,-4.1409149169921875,-0.9989166259765625,0.24884033203125
1782984568144008200,8.24400830078125,-4.546722412109375,-0.89215087890625,0.4264373779296875
1782984568154082300,8.254082275390624,-4.6774139404296875,-0.9297027587890625,0.359039306640625
1782984568164156200,8.26415625,-4.563079833984375,-0.9930877685546875,0.112579345703125
1782984568174230000,8.27422998046875,-4.2077789306640625,-0.9918365478515625,-0.1282501220703125
1782984568184304000,8.28430419921875,-3.7241058349609375,-1.0037994384765625,-0.2848663330078125
1782984568194379000,8.29437890625,-3.272186279296875,-1.032684326171875,-0.35760498046875
1782984568204453000,8.304453125,-2.7611846923828125,-0.99298095703125,-0.281829833984375
1782984568214527200,8.31452734375,-2.133544921875,-0.8906402587890625,-0.1650543212890625
1782984568224601300,8.324601318359376,-1.510101318359375,-0.760223388671875,-0.0909271240234375
1782984568234675200,8.33467529296875,-0.966156005859375,-0.5794219970703125,-0.03448486328125
1782984568244749300,8.344749267578125,-0.4939727783203125,-0.35992431640625,-0.037017822265625
1782984568254824200,8.35482421875,-0.2725982666015625,-0.1867523193359375,-0.02276611328125
1782984568264898300,8.364898193359375,-0.1516876220703125,-0.0175933837890625,0.0055389404296875
1782984568274972200,8.37497216796875,0.1223907470703125,0.07257080078125,-0.058074951171875
1782984568285047300,8.38504736328125,0.47344970703125,0.06982421875,-0.0739898681640625
1782984568295121200,8.39512109375,0.8188934326171875,0.0537109375,0.000579833984375
1782984568305195000,8.405195068359374,1.0972137451171875,0.042724609375,0.0755767822265625
1782984568315269000,8.41526904296875,1.273895263671875,0.0046539306640625,0.1184539794921875
1782984568325343200,8.42534326171875,1.3274078369140625,-0.0418701171875,0.1584930419921875
1782984568335417300,8.435417236328124,1.2993316650390625,-0.050750732421875,0.1969757080078125
1782984568345492200,8.4454921875,1.110595703125,-0.0112152099609375,0.232696533203125
1782984568355566300,8.45556640625,0.743408203125,0.0632171630859375,0.19158935546875
1782984568365640200,8.46564013671875,0.285400390625,0.1247711181640625,0.0878448486328125
1782984568375714300,8.47571435546875,-0.17779541015625,0.184326171875,0.01361083984375
1782984568385788200,8.4857880859375,-0.5558319091796875,0.230194091796875,0.0115814208984375
1782984568395862000,8.495862060546875,-0.7977447509765625,0.2420196533203125,0.034393310546875
1782984568405937200,8.505937255859376,-0.8560791015625,0.2198638916015625,0.0735931396484375
1782984568416011000,8.516010986328125,-0.77447509765625,0.1760101318359375,0.061614990234375
1782984568426085000,8.526085205078125,-0.6448211669921875,0.1232757568359375,0.016143798828125
1782984568436159200,8.5361591796875,-0.49383544921875,0.0584259033203125,-0.0175323486328125
1782984568446233300,8.5462333984375,-0.32391357421875,-0.0119476318359375,-0.0458526611328125
1782984568456307200,8.55630712890625,-0.1566009521484375,-0.0750579833984375,-0.076324462890625
1782984568466382300,8.56638232421875,-0.0452728271484375,-0.1174468994140625,-0.096588134765625
1782984568476456200,8.576456298828125,0.0043487548828125,-0.138214111328125,-0.0853729248046875
1782984568486530300,8.5865302734375,0.0428466796875,-0.1515045166015625,-0.0945892333984375
1782984568496604200,8.596604248046875,0.087646484375,-0.17193603515625,-0.1131591796875
1782984568506678000,8.606677978515625,0.0836944580078125,-0.1640625,-0.086029052734375
1782984568516752100,8.616752197265624,0.0369873046875,-0.147979736328125,-0.0610504150390625
1782984568526827000,8.626826904296875,-0.01055908203125,-0.1459503173828125,-0.0660858154296875
1782984568536901000,8.636901123046876,-0.0282440185546875,-0.14117431640625,-0.0606536865234375
1782984568546975200,8.646975341796875,-0.0507354736328125,-0.1436004638671875,-0.0515289306640625
1782984568557049300,8.65704931640625,-0.0590362548828125,-0.1516571044921875,-0.06158447265625
1782984568567123200,8.667123291015624,-0.0756072998046875,-0.157196044921875,-0.0515594482421875
1782984568577197300,8.677197265625,-0.17864990234375,-0.167327880859375,-0.024688720703125
1782984568587272200,8.687272216796876,-0.38995361328125,-0.183837890625,0.013824462890625
1782984568597346300,8.69734619140625,-0.65887451171875,-0.2582244873046875,0.045562744140625
1782984568607420200,8.707420166015625,-1.0116424560546875,-0.4267730712890625,0.0736083984375
1782984568617494000,8.717493896484376,-1.4398345947265625,-0.6945953369140625,0.1085968017578125
1782984568627568000,8.727568115234375,-1.87579345703125,-1.0336151123046875,0.143218994140625
1782984568637642200,8.737642333984375,-2.2728271484375,-1.3866119384765625,0.1225128173828125
1782984568647717000,8.747717041015624,-2.6254119873046875,-1.6554107666015625,-0.01983642578125
1782984568657791200,8.757791259765625,-2.9360809326171875,-1.73992919921875,-0.2686614990234375
1782984568667865300,8.767865234375,-3.4266510009765625,-1.6557159423828125,-0.34356689453125
1782984568677939200,8.777939208984375,-3.9993896484375,-1.437347412109375,-0.136627197265625
1782984568688013300,8.788013427734375,-4.330169677734375,-1.1453704833984375,0.0885772705078125
1782984568698087200,8.798087158203124,-4.3933868408203125,-0.9986724853515625,0.2480316162109375
1782984568708162300,8.808162353515625,-4.147125244140625,-1.04107666015625,0.2320556640625
1782984568718236200,8.818236083984376,-3.7352142333984375,-1.076202392578125,0.1039886474609375
1782984568728310000,8.82831005859375,-3.3097991943359375,-0.9790802001953125,0.0313873291015625
1782984568738384100,8.838384033203125,-2.9248199462890625,-0.83990478515625,-0.001373291015625
1782984568748458200,8.848458251953126,-2.5771942138671875,-0.7368316650390625,-0.08544921875
1782984568758532400,8.858532470703125,-2.161529541015625,-0.6360321044921875,-0.161376953125
1782984568768607200,8.868607177734376,-1.6495819091796875,-0.5161590576171875,-0.1954345703125
1782984568778681300,8.878681396484374,-1.0537872314453125,-0.4292144775390625,-0.2071685791015625
1782984568788755200,8.888755126953125,-0.5427093505859375,-0.3251953125,-0.2005462646484375
1782984568798829300,8.898829345703126,-0.2467803955078125,-0.166717529296875,-0.2262115478515625
1782984568808903200,8.908903076171875,-0.090850830078125,-0.0166168212890625,-0.2215118408203125
1782984568818977000,8.91897705078125,0.0883941650390625,0.099212646484375,-0.1961822509765625
1782984568829052200,8.92905224609375,0.330780029296875,0.180267333984375,-0.1326446533203125
1782984568839126000,8.9391259765625,0.577789306640625,0.191436767578125,-0.0524139404296875
1782984568849200000,8.9492001953125,0.8084716796875,0.141326904296875,0.0484466552734375
1782984568859274200,8.959274169921875,0.96038818359375,0.13507080078125,0.2060394287109375
1782984568869348400,8.969348388671875,1.034759521484375,0.11041259765625,0.331512451171875
1782984568879422200,8.979422119140626,0.9808807373046875,0.088714599609375,0.3870086669921875
1782984568889497300,8.989497314453125,0.760223388671875,0.0722503662109375,0.39019775390625
1782984568899571200,8.9995712890625,0.45782470703125,0.0858001708984375,0.38409423828125
1782984568909645300,9.009645263671874,0.15411376953125,0.11590576171875,0.35986328125
1782984568919719200,9.01971923828125,-0.151123046875,0.1284637451171875,0.2889404296875
1782984568929793000,9.02979296875,-0.414642333984375,0.1063079833984375,0.14837646484375
1782984568939867400,9.039867431640625,-0.620025634765625,0.09832763671875,-0.007598876953125
1782984568949942300,9.0499423828125,-0.746917724609375,0.091339111328125,-0.0836944580078125
1782984568960016400,9.060016357421874,-0.7520751953125,0.0646514892578125,-0.1219635009765625
1782984568970090500,9.070090576171875,-0.673675537109375,0.0193023681640625,-0.144775390625
1782984568980164600,9.08016455078125,-0.552337646484375,-0.0455169677734375,-0.1727294921875
1782984568990238500,9.090238525390625,-0.3706817626953125,-0.1189117431640625,-0.1817626953125
1782984569000312600,9.1003125,-0.1475830078125,-0.17132568359375,-0.1719207763671875
1782984569010387500,9.110387451171874,0.047454833984375,-0.206390380859375,-0.1733551025390625
1782984569020461600,9.120461669921875,0.146697998046875,-0.2158966064453125,-0.162994384765625
1782984569030535400,9.130535400390626,0.1721954345703125,-0.196441650390625,-0.1385498046875
1782984569040609300,9.140609375,0.1278228759765625,-0.172332763671875,-0.1024322509765625
1782984569050683400,9.150683349609375,0.0532684326171875,-0.1425933837890625,-0.0786285400390625
1782984569060757500,9.160757568359376,0.0142669677734375,-0.1198883056640625,-0.071502685546875
1782984569070832400,9.170832275390625,0.0277099609375,-0.1048126220703125,-0.046478271484375
1782984569080906500,9.180906494140626,0.092864990234375,-0.0937957763671875,-0.0058135986328125
1782984569090980600,9.190980712890624,0.1834869384765625,-0.0639801025390625,0.003448486328125
1782984569101054500,9.201054443359375,0.219146728515625,-0.046295166015625,0.013397216796875
1782984569111128600,9.211128662109376,0.173583984375,-0.0356903076171875,0.02606201171875
1782984569121202400,9.221202392578125,0.0526275634765625,-0.0151519775390625,0.0333251953125
1782984569131276300,9.2312763671875,-0.11456298828125,-0.0215301513671875,0.0117340087890625
1782984569141351400,9.241351318359374,-0.30023193359375,-0.0652008056640625,-0.032379150390625
1782984569151425300,9.25142529296875,-0.4785308837890625,-0.1855316162109375,-0.04608154296875
1782984569161499400,9.26149951171875,-0.63189697265625,-0.4004364013671875,-0.0226287841796875
1782984569171573500,9.271573486328125,-0.81756591796875,-0.7139129638671875,0.0106658935546875
1782984569181647600,9.281647705078125,-1.116973876953125,-1.137451171875,-0.042205810546875
1782984569191722500,9.291722412109374,-1.674468994140625,-1.424163818359375,-0.1204986572265625
1782984569201796600,9.301796630859375,-2.5403594970703125,-1.5274505615234375,-0.092010498046875
1782984569211870500,9.311870361328126,-3.4873809814453125,-1.56121826171875,0.0122528076171875
1782984569221944300,9.3219443359375,-4.136962890625,-1.49725341796875,0.0985107421875
1782984569232018400,9.332018310546875,-4.3910980224609375,-1.4611358642578125,0.3214111328125
1782984569242092300,9.34209228515625,-4.4200897216796875,-1.54541015625,0.4868927001953125
1782984569252167400,9.35216748046875,-4.295166015625,-1.6560821533203125,0.5029144287109375
1782984569262241300,9.3622412109375,-4.096649169921875,-1.6777496337890625,0.476104736328125
1782984569272315400,9.3723154296875,-3.91033935546875,-1.6070404052734375,0.3288421630859375
1782984569282389500,9.382389404296875,-3.7559661865234375,-1.4800262451171875,0.1395111083984375
1782984569292463600,9.392463623046876,-3.5258026123046875,-1.3273773193359375,0.0696258544921875
1782984569302537500,9.402537353515624,-3.0520477294921875,-1.2068023681640625,0.038421630859375
1782984569312612600,9.412612548828125,-2.328643798828125,-1.0947113037109375,-0.036041259765625
1782984569322686500,9.4226865234375,-1.5907745361328125,-0.9161224365234375,-0.0400238037109375
1782984569332760300,9.43276025390625,-1.0368499755859375,-0.653564453125,0.005584716796875
1782984569342834400,9.44283447265625,-0.8385009765625,-0.3828277587890625,0.082489013671875
1782984569352908300,9.452908203125,-0.7218475341796875,-0.135345458984375,0.0961761474609375
1782984569362982400,9.462982421875,-0.474884033203125,0.0476226806640625,0.0239410400390625
1782984569373057300,9.473057373046874,-0.1867828369140625,0.1671295166015625,-0.033111572265625
1782984569383131400,9.48313134765625,0.0868072509765625,0.2383270263671875,-0.0548858642578125
1782984569393205500,9.49320556640625,0.3654022216796875,0.23175048828125,-0.0467987060546875
1782984569403279600,9.503279541015624,0.652587890625,0.18328857421875,-0.030029296875
1782984569413353500,9.513353515625,0.9083099365234375,0.1211395263671875,0.00469970703125
1782984569423427300,9.52342724609375,1.0605010986328125,0.066680908203125,0.0272369384765625
1782984569433502500,9.53350244140625,1.0800628662109375,0.0450592041015625,0.0250396728515625
1782984569443576300,9.543576416015625,0.927764892578125,0.077117919921875,0.002532958984375
1782984569453650400,9.553650390625,0.6307220458984375,0.1280059814453125,-0.0201873779296875
1782984569463724300,9.563724365234375,0.2417144775390625,0.183197021484375,-0.0334320068359375
1782984569473798400,9.57379833984375,-0.1683807373046875,0.2435302734375,-0.030914306640625
1782984569483872500,9.58387255859375,-0.5025177001953125,0.2860260009765625,-0.022308349609375
1782984569493946600,9.593946533203125,-0.7053070068359375,0.2886505126953125,0.0082550048828125
1782984569504021500,9.604021484375,-0.765167236328125,0.251953125,0.0725250244140625
1782984569514095600,9.614095703125,-0.6644287109375,0.182891845703125,0.1422882080078125
1782984569524169500,9.62416943359375,-0.4780120849609375,0.098297119140625,0.16986083984375
1782984569534243300,9.634243408203124,-0.29034423828125,0.0123443603515625,0.1571044921875
1782984569544317400,9.6443173828125,-0.1183929443359375,-0.0606231689453125,0.120941162109375
1782984569554391300,9.654391357421876,0.0514984130859375,-0.119720458984375,0.0606536865234375
1782984569564466400,9.664466552734375,0.1809844970703125,-0.171661376953125,-0.0060882568359375
1782984569574540300,9.674540283203125,0.230804443359375,-0.2134246826171875,-0.0235137939453125
1782984569584614400,9.684614501953124,0.2113189697265625,-0.21759033203125,-0.0164337158203125
1782984569594688500,9.6946884765625,0.136444091796875,-0.2153167724609375,0.0001983642578125
1782984569604762600,9.7047626953125,0.031524658203125,-0.216888427734375,-0.0037384033203125
1782984569614837500,9.71483740234375,-0.07830810546875,-0.2145233154296875,-0.012176513671875
1782984569624911600,9.72491162109375,-0.1319427490234375,-0.2024993896484375,-0.001739501953125
1782984569634985500,9.7349853515625,-0.1183013916015625,-0.1893157958984375,0.0018463134765625
1782984569645059300,9.745059326171875,-0.0826263427734375,-0.1802520751953125,0.0175628662109375
1782984569655133400,9.755133544921875,-0.0704193115234375,-0.1655426025390625,0.0137786865234375
1782984569665207300,9.765207275390624,-0.0973358154296875,-0.1572265625,-0.017852783203125
1782984569675282400,9.775282470703125,-0.1709747314453125,-0.1546783447265625,-0.03778076171875
1782984569685356300,9.785356201171876,-0.276397705078125,-0.13641357421875,-0.0347137451171875
1782984569695430400,9.795430419921875,-0.40411376953125,-0.1223602294921875,-0.02813720703125
1782984569705504500,9.80550439453125,-0.579376220703125,-0.1260223388671875,-0.0318603515625
1782984569715578600,9.81557861328125,-0.806121826171875,-0.2032623291015625,-0.0532073974609375
1782984569725652500,9.825652587890625,-1.008575439453125,-0.4070892333984375,-0.1021270751953125
1782984569735727600,9.8357275390625,-1.18609619140625,-0.7271881103515625,-0.102264404296875
1782984569745801500,9.845801513671875,-1.383758544921875,-1.0687103271484375,-0.04132080078125
1782984569755875300,9.855875244140625,-1.689727783203125,-1.3606109619140625,-0.0206451416015625
1782984569765949400,9.865949462890624,-2.2164459228515625,-1.46051025390625,-0.0654449462890625
1782984569776023300,9.876023193359375,-2.9129486083984375,-1.4134368896484375,-0.1699066162109375
1782984569786097400,9.886097412109375,-3.6248321533203125,-1.371185302734375,-0.1549072265625
1782984569796172300,9.89617236328125,-4.022857666015625,-1.3363800048828125,-0.0294952392578125
1782984569806246400,9.906246337890625,-3.97930908203125,-1.427459716796875,0.04510498046875
1782984569816320500,9.916320556640626,-3.66473388671875,-1.5970458984375,0.0837860107421875
1782984569826394600,9.92639453125,-3.4176177978515625,-1.73773193359375,0.0873260498046875
1782984569836468500,9.936468505859375,-3.4352569580078125,-1.6587371826171875,0.06866455078125
1782984569846542300,9.946542236328124,-3.55450439453125,-1.4316253662109375,0.079437255859375
1782984569856617500,9.956617431640625,-3.5745391845703125,-1.2253570556640625,0.1453399658203125
1782984569866691300,9.96669140625,-3.3515167236328125,-1.093231201171875,0.2761688232421875
1782984569876765400,9.976765380859375,-2.883392333984375,-1.015380859375,0.381805419921875
1782984569886839300,9.98683935546875,-2.2979278564453125,-0.9272613525390625,0.4027099609375
1782984569896913400,9.996913330078126,-1.7092742919921875,-0.8487701416015625,0.3366241455078125
1782984569906987500,10.006987548828125,-1.2481689453125,-0.6561431884765625,0.182586669921875
1782984569917062400,10.0170625,-0.932464599609375,-0.3841094970703125,-0.035797119140625
1782984569927136500,10.027136474609375,-0.668212890625,-0.156585693359375,-0.2198944091796875
1782984569937211400,10.03721142578125,-0.4058380126953125,0.04254150390625,-0.3267059326171875
1782984569947285500,10.047285400390624,-0.2049407958984375,0.1534423828125,-0.2705078125
1782984569957359600,10.057359619140625,0.09747314453125,0.2394866943359375,-0.1389312744140625
1782984569967433500,10.06743359375,0.5255126953125,0.260986328125,-0.04376220703125
1782984569977508600,10.077508544921875,0.987091064453125,0.1779937744140625,0.0131988525390625
1782984569987582500,10.08758251953125,1.4415130615234375,0.0483245849609375,0.0409698486328125
1782984569997656300,10.09765625,1.6572265625,-0.0422821044921875,0.0189056396484375
1782984570007730400,10.10773046875,1.489837646484375,-0.067779541015625,0.0128631591796875
1782984570017804300,10.11780419921875,1.0153350830078125,0.006317138671875,0.0602874755859375
1782984570027878400,10.12787841796875,0.4253082275390625,0.0818023681640625,0.1006011962890625
1782984570037953300,10.137953369140625,-0.1109619140625,0.126251220703125,0.110076904296875
1782984570048027400,10.14802734375,-0.5182037353515625,0.181427001953125,0.1427764892578125
1782984570058101500,10.1581015625,-0.763519287109375,0.2242279052734375,0.180389404296875
1782984570068175600,10.168175537109375,-0.80108642578125,0.217437744140625,0.13543701171875
1782984570078249500,10.17824951171875,-0.7410888671875,0.1497955322265625,0.0578460693359375
1782984570088323300,10.1883232421875,-0.604248046875,0.071868896484375,-0.009796142578125
1782984570098398500,10.1983984375,-0.428497314453125,-0.0220947265625,-0.0804595947265625
1782984570108472300,10.208472412109375,-0.2463226318359375,-0.13116455078125,-0.1425323486328125
1782984570118546400,10.21854638671875,-0.0584564208984375,-0.1859893798828125,-0.172454833984375
1782984570128620300,10.228620361328124,0.061553955078125,-0.2335968017578125,-0.181793212890625
1782984570138694400,10.2386943359375,0.1045684814453125,-0.2407684326171875,-0.161468505859375
1782984570148768500,10.2487685546875,0.0782318115234375,-0.1979827880859375,-0.0763397216796875
1782984570158843400,10.258843505859375,0.0419464111328125,-0.1688385009765625,-0.016204833984375
1782984570168917500,10.26891748046875,0.0112457275390625,-0.1715850830078125,-0.0216522216796875
1782984570178991600,10.27899169921875,-0.0244598388671875,-0.1678009033203125,-0.0143585205078125
1782984570189065500,10.2890654296875,-0.0546875,-0.16119384765625,0.020416259765625
1782984570199139300,10.299139404296875,-0.118316650390625,-0.153961181640625,0.0294952392578125
1782984570209213400,10.30921337890625,-0.2155303955078125,-0.1340789794921875,0.0468292236328125
1782984570219288300,10.319288330078125,-0.3575592041015625,-0.1092681884765625,0.02716064453125
1782984570229362400,10.329362548828126,-0.41973876953125,-0.1154022216796875,-0.0781402587890625
1782984570239436300,10.339436279296875,-0.3889007568359375,-0.1149139404296875,-0.1072998046875
1782984570249510400,10.349510498046875,-0.4271392822265625,-0.0814971923828125,-0.0444488525390625
1782984570259584500,10.35958447265625,-0.482269287109375,-0.069183349609375,-0.006439208984375
1782984570269658600,10.36965869140625,-0.49713134765625,-0.0728302001953125,-0.0136871337890625
1782984570279733500,10.3797333984375,-0.52716064453125,-0.0619659423828125,-0.01495361328125
1782984570289807600,10.3898076171875,-0.62103271484375,-0.054656982421875,-0.0022125244140625
1782984570299881500,10.399881591796875,-0.7237548828125,-0.10638427734375,0.007720947265625
