time,seconds_elapsed,z,y,x
1782984559963797800,0.0637978515625,-0.28718677163124084,-0.8933006525039673,0.6507514119148254
1782984559973871600,0.07387158203125,-0.3131510019302368,-1.0111907720565796,0.7475093603134155
1782984559983946800,0.08394677734375,-0.3063974678516388,-1.0507043600082397,0.8191204071044922
1782984559994020600,0.0940205078125,-0.2742469906806946,-0.9585846066474915,0.8453424572944641
1782984560004094700,0.1040947265625,-0.21665480732917786,-0.8256819248199463,0.8249745965003967
1782984560014168800,0.1141689453125,-0.1525687724351883,-0.784081757068634,0.7946553230285645
1782984560024242700,0.12424267578125,-0.008104798384010792,-0.775184154510498,0.808670699596405
1782984560034316800,0.13431689453125,0.24885322153568268,-0.6800717115402222,0.899455726146698
1782984560044390700,0.144390625,0.39524027705192566,-0.4543083906173706,0.9937878251075745
1782984560054465800,0.1544658203125,0.3675905168056488,-0.14297527074813843,1.0545190572738647
1782984560064539600,0.16453955078125,0.2546354830265045,0.27604836225509644,1.093338966369629
1782984560074613800,0.17461376953125,0.13712723553180695,0.7318768501281738,1.130637526512146
1782984560084687600,0.1846875,-0.013835654594004154,0.8672027587890625,1.1652730703353882
1782984560094761700,0.19476171875,-0.10275034606456757,0.5988296270370483,1.220711588859558
1782984560104835800,0.2048359375,-0.15046514570713043,-0.028267856687307358,1.0853105783462524
1782984560114909700,0.21490966796875,-0.29039266705513,-0.8206759691238403,0.3959915339946747
1782984560124984800,0.22498486328125,-0.2680319845676422,-0.9143851399421692,-0.19534339010715485
1782984560135058700,0.23505859375,-0.07326622307300568,-0.8883474469184875,-0.5362905859947205
1782984560145132800,0.2451328125,0.14023034274578094,-0.8933022618293762,-0.7461676597595215
1782984560155206700,0.25520654296875,0.2246813178062439,-0.905959963798523,-0.7034662961959839
1782984560165280800,0.26528076171875,0.19471248984336853,-0.721776008605957,-0.6149340271949768
1782984560175354600,0.275354736328125,0.08441182225942612,-0.0699886754155159,-0.7522923946380615
1782984560185428700,0.2854287109375,0.02490881271660328,0.5103375315666199,-0.9745214581489563
1782984560195503600,0.295503662109375,0.25146207213401794,0.8231825828552246,-1.2895231246948242
1782984560205577700,0.30557763671875,0.6557443141937256,0.5030375719070435,-1.6194967031478882
1782984560215651800,0.31565185546875,1.088943600654602,-0.27013587951660156,-1.7300504446029663
1782984560225725700,0.3257255859375,1.3508175611495972,-1.116788387298584,-1.5170204639434814
1782984560235799800,0.3357998046875,1.443407416343689,-1.880921721458435,-1.0226948261260986
1782984560245873700,0.345873779296875,1.572585940361023,-2.2941019535064697,-0.21730169653892517
1782984560255947500,0.355947509765625,1.8511539697647095,-2.281809091567993,0.7979480624198914
1782984560266022700,0.366022705078125,2.0657644271850586,-2.2172441482543945,1.6405386924743652
1782984560276096500,0.376096435546875,1.9848425388336182,-1.7035024166107178,1.9190360307693481
1782984560286170600,0.386170654296875,1.6011587381362915,-0.5243899822235107,1.3076996803283691
1782984560296244700,0.39624462890625,1.0897362232208252,0.5995052456855774,0.011323494836688042
1782984560306318800,0.40631884765625,0.7763642072677612,1.1899296045303345,-1.1994140148162842
1782984560316392700,0.416392822265625,0.7929878830909729,1.3484686613082886,-1.5537571907043457
1782984560326467800,0.4264677734375,0.7860671281814575,1.698771595954895,-0.9151039719581604
1782984560336541700,0.436541748046875,0.3758798837661743,1.196075439453125,-0.06629699468612671
1782984560346615800,0.44661572265625,-0.05877676233649254,1.0045698881149292,0.8704445958137512
1782984560356689700,0.456689697265625,-0.1919768899679184,1.7254722118377686,1.739425778388977
1782984560366763500,0.466763427734375,0.018390458077192307,1.9389567375183105,2.0436270236968994
1782984560376837600,0.476837646484375,0.1961016058921814,1.4969007968902588,1.8210293054580688
1782984560386911700,0.486911865234375,0.10828519612550735,0.8904808759689331,1.1535437107086182
1782984560396985900,0.49698583984375,-0.14567996561527252,0.47720757126808167,0.27033162117004395
1782984560407060700,0.507060791015625,-0.5112882852554321,0.5901687145233154,-0.4467298090457916
1782984560417134800,0.517134765625,-0.9296056628227234,0.6718103289604187,-0.8380786776542664
1782984560427208700,0.527208740234375,-1.2635748386383057,0.17988215386867523,-0.7810894250869751
1782984560437282800,0.53728271484375,-1.4394561052322388,-0.8500282764434814,-0.6192470192909241
1782984560447356700,0.547356689453125,-1.3459999561309814,-1.7220577001571655,-0.4546668529510498
1782984560457430500,0.557430419921875,-0.8738334774971008,-2.150583505630493,-0.1252197027206421
1782984560467505700,0.567505615234375,-0.3788812756538391,-2.16483998298645,0.29151493310928345
1782984560477579500,0.57757958984375,-0.3647361397743225,-1.944068431854248,0.6447158455848694
1782984560487653600,0.587653564453125,-0.8304876089096069,-1.8973792791366577,0.659456193447113
1782984560497727700,0.597727783203125,-1.232969045639038,-1.8632808923721313,0.3678392767906189
1782984560507801900,0.6078017578125,-1.5935053825378418,-1.7558399438858032,0.007598265074193478
1782984560517875700,0.617875732421875,-1.8098669052124023,-1.4641399383544922,-0.06760434061288834
1782984560527949800,0.62794970703125,-1.7896673679351807,-1.2763878107070923,0.014539527706801891
1782984560538024700,0.638024658203125,-1.7153548002243042,-0.9345061779022217,0.012570386752486229
1782984560548098800,0.648098876953125,-1.5772054195404053,-0.45965442061424255,-0.012521650642156601
1782984560558172700,0.658172607421875,-1.5450432300567627,-0.3855801820755005,-0.04189392179250717
1782984560568246500,0.66824658203125,-1.4637542963027954,-0.7438586950302124,-0.11120934784412384
1782984560578320600,0.678320556640625,-1.356645941734314,-1.2180677652359009,-0.21196524798870087
1782984560588394800,0.688394775390625,-1.2711962461471558,-1.1173624992370605,-0.16819140315055847
1782984560598468900,0.69846875,-1.23050856590271,-0.8906878232955933,-0.018557172268629074
1782984560608543700,0.708543701171875,-1.2440736293792725,-0.5831483602523804,0.1471359133720398
1782984560618617900,0.718617919921875,-1.2208516597747803,-0.10596797615289688,0.23670707643032074
1782984560628691700,0.728691650390625,-1.152813196182251,0.392345666885376,0.20782457292079926
1782984560638765800,0.738765869140625,-1.195708155632019,0.8244771361351013,0.20740431547164917
1782984560648839700,0.748839599609375,-1.10419499874115,1.230605125427246,0.1979341208934784
1782984560658913500,0.75891357421875,-0.601706862449646,0.9837562441825867,-0.05475538969039917
1782984560668987600,0.768987548828125,-0.0031135017052292824,-0.05232658609747887,-0.5219385623931885
1782984560679062500,0.7790625,0.3027827739715576,-1.1600133180618286,-0.8905978202819824
1782984560689136600,0.78913671875,0.5293636918067932,-1.3750324249267578,-0.78386390209198
1782984560699210800,0.799210693359375,0.8508338928222656,-0.9848995208740234,-0.05142830312252045
1782984560709284900,0.809284912109375,1.1135600805282593,-0.47993412613868713,0.9887973666191101
1782984560719358700,0.819358642578125,1.127950668334961,0.005370530765503645,1.8849420547485352
1782984560729432600,0.8294326171875,0.879796028137207,0.24028263986110687,2.180025339126587
1782984560739507700,0.8395078125,0.4726296067237854,0.5452516078948975,1.6510226726531982
1782984560749581800,0.849581787109375,0.06307058036327362,1.0601495504379272,0.4488028287887573
1782984560759655700,0.85965576171875,-0.22508984804153442,1.5960087776184082,-0.8621331453323364
1782984560769729500,0.8697294921875,-0.28187376260757446,2.1308438777923584,-1.7866367101669312
1782984560779803600,0.8798037109375,-0.20488470792770386,2.50883412361145,-2.197859048843384
1782984560789877800,0.889877685546875,-0.08728350698947906,2.616098165512085,-2.1172618865966797
1782984560799952000,0.899951904296875,0.09303939342498779,2.5193958282470703,-1.606733798980713
1782984560810026800,0.91002685546875,0.2610393166542053,2.1363918781280518,-0.7672306299209595
1782984560820100900,0.920100830078125,0.3972240686416626,1.776347041130066,0.27715304493904114
1782984560830174700,0.9301748046875,0.5310569405555725,1.3624505996704102,1.133818507194519
1782984560840248600,0.94024853515625,0.5851454734802246,0.766450047492981,1.5879167318344116
1782984560850322700,0.95032275390625,0.5607831478118896,0.07744445651769638,1.5997518301010132
1782984560860396500,0.960396484375,0.40391579270362854,-0.5972151756286621,1.2123910188674927
1782984560870470700,0.970470703125,0.29083022475242615,-0.9555275440216064,0.5279504060745239
1782984560880545500,0.980545654296875,0.33732476830482483,-0.9025777578353882,-0.3219362199306488
1782984560890619600,0.99061962890625,0.40988844633102417,-0.47346875071525574,-0.9944344758987427
1782984560900693800,1.00069384765625,0.46463239192962646,-0.14485464990139008,-1.356353759765625
1782984560910767900,1.010767822265625,0.4554905593395233,-0.06571643054485321,-1.3546289205551147
1782984560920841700,1.020841796875,0.36993223428726196,-0.16916798055171967,-1.059185266494751
1782984560930916400,1.030916259765625,0.26842400431632996,-0.3244451880455017,-0.6681346297264099
1782984560940990200,1.040990234375,0.1628781259059906,-0.31476327776908875,-0.3571253716945648
1782984560951065300,1.0510654296875,0.06942727416753769,-0.15917155146598816,-0.23237411677837372
1782984560961139200,1.06113916015625,0.005601692944765091,0.022916501387953758,-0.269132137298584
1782984560971213300,1.07121337890625,-0.007794007193297148,0.1977066844701767,-0.34671667218208313
1782984560981287200,1.081287109375,0.014737932942807674,0.26803332567214966,-0.40283292531967163
1782984560991361000,1.091361083984375,0.05041417106986046,0.22537799179553986,-0.3708968460559845
1782984561001435400,1.101435302734375,0.08455376327037811,0.12354244291782379,-0.24809928238391876
1782984561011510000,1.111510009765625,0.09208039194345474,-0.03791835531592369,-0.08223362267017365
1782984561021584400,1.12158447265625,0.06496115773916245,-0.18079455196857452,0.08430316299200058
1782984561031658200,1.131658203125,0.026011627167463303,-0.2466566562652588,0.22915036976337433
1782984561041732400,1.141732421875,0.005903695244342089,-0.2479458898305893,0.32233116030693054
1782984561051806200,1.15180615234375,-0.001323857344686985,-0.19611598551273346,0.35117027163505554
1782984561061880300,1.16188037109375,-0.004511395003646612,-0.1605934053659439,0.31598806381225586
1782984561071954200,1.1719541015625,-0.061400774866342545,-0.2062157541513443,0.2219691425561905
1782984561082029300,1.182029296875,-0.16713492572307587,-0.24555596709251404,0.08888619393110275
1782984561092103200,1.192103271484375,-0.26859578490257263,-0.21843832731246948,-0.03304503485560417
1782984561102177000,1.202177001953125,-0.33192840218544006,-0.17987549304962158,-0.12197277694940567
1782984561112251400,1.21225146484375,-0.3266388475894928,-0.23856569826602936,-0.16732507944107056
1782984561122325200,1.2223251953125,-0.17322051525115967,-0.519961416721344,-0.021852567791938782
1782984561132399400,1.2323994140625,-0.24059449136257172,-0.4959932565689087,0.06524797528982162
1782984561142473200,1.24247314453125,-0.4352414906024933,-0.3574148714542389,-0.0547037236392498
1782984561152548400,1.25254833984375,-0.3580092787742615,-0.23022601008415222,0.00010865696822293103
1782984561162622200,1.262622314453125,-0.279775470495224,0.18459674715995789,0.06724215298891068
1782984561172696300,1.2726962890625,-0.20001937448978424,0.8371026515960693,-0.014401043765246868
1782984561182770200,1.282770263671875,-0.008708270266652107,1.6272190809249878,-0.19172842800617218
1782984561192844000,1.292843994140625,0.2718341648578644,1.75285005569458,-0.4602624177932739
1782984561202918400,1.30291845703125,0.6017042398452759,0.763457179069519,-0.518235981464386
1782984561212992300,1.3129921875,0.8297222256660461,-0.8640695214271545,-0.20923657715320587
1782984561223067400,1.3230673828125,0.9190542101860046,-1.754832148551941,0.6633630394935608
1782984561233141200,1.333141357421875,1.073764443397522,-1.3594452142715454,1.8096826076507568
1782984561243215400,1.34321533203125,1.218420386314392,-1.001222848892212,2.3450043201446533
1782984561253289200,1.353289306640625,1.2891947031021118,-0.8370898365974426,2.1945767402648926
1782984561263363300,1.36336328125,1.1522523164749146,-0.6642506718635559,1.6410685777664185
1782984561273437200,1.373437255859375,1.0124411582946777,-0.6045863032341003,0.8168514370918274
1782984561283512300,1.38351220703125,0.8312311768531799,-0.5436933636665344,-0.0359092652797699
1782984561293586200,1.393586181640625,0.5364440083503723,-0.08955571800470352,-0.5693209767341614
1782984561303660000,1.403659912109375,0.43185847997665405,0.7040966153144836,-0.6001936793327332
1782984561313734400,1.413734375,0.557398796081543,1.0572466850280762,-0.27781030535697937
1782984561323808300,1.423808349609375,0.6145033836364746,0.8443456292152405,0.37119218707084656
1782984561333882400,1.43388232421875,0.6334221959114075,0.5258352756500244,1.1619001626968384
1782984561343956200,1.443956298828125,0.5298188328742981,0.1656598001718521,1.6120798587799072
1782984561354031400,1.45403125,0.2935788929462433,0.03254462778568268,1.6411418914794922
1782984561364105200,1.464105224609375,-0.024021446704864502,0.1374388188123703,1.4039112329483032
1782984561374179000,1.474178955078125,-0.4237113296985626,0.30606192350387573,1.006291151046753
1782984561384253200,1.484253173828125,-0.7239108085632324,0.38168132305145264,0.4603430926799774
1782984561394327000,1.4943271484375,-0.8698866963386536,0.2467820942401886,-0.24366804957389832
1782984561404401400,1.5044013671875,-0.8696275353431702,-0.08500038087368011,-0.9487175941467285
1782984561414475300,1.514475341796875,-0.8134135603904724,-0.37227529287338257,-1.4581499099731445
1782984561424550400,1.52455029296875,-0.7730312347412109,-0.5767351984977722,-1.7251797914505005
1782984561434624300,1.534624267578125,-0.7076058983802795,-0.686509370803833,-1.7414082288742065
1782984561444698400,1.544698486328125,-0.6083362698554993,-0.6217650175094604,-1.5307942628860474
1782984561454772200,1.554772216796875,-0.4629029333591461,-0.42841020226478577,-1.1388845443725586
1782984561464846000,1.56484619140625,-0.31909462809562683,-0.2972487211227417,-0.7149825692176819
1782984561474920200,1.574920166015625,-0.21221159398555756,-0.28275153040885925,-0.3688877522945404
1782984561484994000,1.584994140625,-0.18797042965888977,-0.38959142565727234,-0.18187499046325684
1782984561495069200,1.595069091796875,-0.21360336244106293,-0.41226932406425476,-0.20170515775680542
1782984561505143000,1.60514306640625,-0.23555126786231995,-0.27243444323539734,-0.36342695355415344
1782984561515217400,1.615217529296875,-0.24051140248775482,0.018077271059155464,-0.5904827117919922
1782984561525291300,1.625291259765625,-0.20524077117443085,0.3469933867454529,-0.7654215097427368
1782984561535365400,1.635365478515625,-0.18088802695274353,0.5568901300430298,-0.8431426882743835
1782984561545439200,1.645439208984375,-0.18891212344169617,0.628675639629364,-0.8215721249580383
1782984561555513000,1.65551318359375,-0.22441686689853668,0.5741221308708191,-0.6942115426063538
1782984561565588200,1.665588134765625,-0.2917298674583435,0.4762911796569824,-0.4721744656562805
1782984561575662000,1.675662109375,-0.33372604846954346,0.39298591017723083,-0.2286374419927597
1782984561585736200,1.685736083984375,-0.34792521595954895,0.342133104801178,-0.019810456782579422
1782984561595810000,1.69581005859375,-0.3372073173522949,0.3746502995491028,0.10779863595962524
1782984561605884400,1.705884521484375,-0.3299608528614044,0.45537126064300537,0.13952913880348206
1782984561615958300,1.715958251953125,-0.33387571573257446,0.4839456379413605,0.11029721051454544
1782984561626032400,1.726032470703125,-0.33020588755607605,0.4353328347206116,0.06416620314121246
1782984561636107300,1.736107177734375,-0.34715983271598816,0.3651936948299408,0.024567659944295883
1782984561646181400,1.746181396484375,-0.3627454340457916,0.3067561984062195,0.02052897773683071
1782984561656255200,1.756255126953125,-0.3494535982608795,0.33093371987342834,0.06694121658802032
1782984561666329000,1.7663291015625,-0.2853899300098419,0.40813955664634705,0.16780897974967957
1782984561676403200,1.7764033203125,-0.2003711760044098,0.3581831753253937,0.27327707409858704
1782984561686477300,1.786477294921875,-0.15793317556381226,0.12031283229589462,0.3766564726829529
1782984561696551400,1.796551513671875,-0.1259709745645523,-0.1562013179063797,0.48416534066200256
1782984561706626300,1.806626220703125,-0.05041177570819855,-0.327633798122406,0.5471221804618835
1782984561716700400,1.816700439453125,0.00043755737715400755,-0.2819805443286896,0.5482838749885559
1782984561726774300,1.826774169921875,0.018800053745508194,0.22110575437545776,0.42452090978622437
1782984561736848400,1.836848388671875,0.032947562634944916,1.0523712635040283,0.026310166344046593
1782984561746922200,1.846922119140625,0.07795977592468262,1.6672523021697998,-0.5948676466941833
1782984561756996000,1.85699609375,0.3614591360092163,1.1198102235794067,-1.1649683713912964
1782984561767071200,1.8670712890625,0.7426919937133789,-0.273874968290329,-1.1204136610031128
1782984561777145000,1.87714501953125,1.1656451225280762,-1.3635292053222656,-0.04871773719787598
1782984561787219200,1.88721923828125,1.4395415782928467,-1.1925896406173706,1.686508059501648
1782984561797293300,1.897293212890625,1.4817702770233154,-0.6586465835571289,2.8484907150268555
1782984561807367400,1.907367431640625,1.4717432260513306,0.020961474627256393,2.848809003829956
1782984561817441300,1.917441162109375,1.251648187637329,0.3863719403743744,1.91289484500885
1782984561827515100,1.92751513671875,0.8407338261604309,0.39966297149658203,0.7422323226928711
1782984561837590300,1.93759033203125,0.4621969163417816,0.521676778793335,-0.19103467464447021
1782984561847664400,1.947664306640625,0.31398749351501465,1.0115026235580444,-0.7797740697860718
1782984561857738200,1.95773828125,0.5798060894012451,1.465878963470459,-0.7570328116416931
1782984561867812000,1.96781201171875,0.9036097526550293,1.3155688047409058,-0.11849628388881683
1782984561877886200,1.97788623046875,0.8566625118255615,0.6176725625991821,0.9390931725502014
1782984561887960300,1.987960205078125,0.5555830597877502,-0.2382834106683731,2.025935411453247
1782984561898034400,1.998034423828125,0.15324920415878296,-0.8483409285545349,2.7975213527679443
1782984561908109300,2.008109375,-0.29466357827186584,-0.8447229862213135,3.0615627765655518
1782984561918183400,2.018183349609375,-0.8111042976379395,-0.2436659187078476,2.724241018295288
1782984561928257300,2.02825732421875,-1.2191109657287598,0.5164942741394043,1.9443893432617188
1782984561938331100,2.0383310546875,-1.456464171409607,1.045009732246399,0.9883496761322021
1782984561948405000,2.048405029296875,-1.5230351686477661,1.1019207239151,0.05098994821310043
1782984561958479000,2.05847900390625,-1.4694219827651978,0.6605901718139648,-0.7127247452735901
1782984561968553000,2.068552978515625,-1.2985693216323853,0.03830850496888161,-1.0802154541015625
1782984561978628000,2.078628173828125,-1.120250940322876,-0.5164697766304016,-1.1026335954666138
1782984561988702000,2.088701904296875,-1.132719874382019,-0.9471375346183777,-1.141751766204834
1782984561998776300,2.0987763671875,-1.2153609991073608,-1.1488929986953735,-1.476125955581665
1782984562008850200,2.10885009765625,-1.2186859846115112,-1.050463080406189,-2.048180341720581
1782984562018924300,2.11892431640625,-1.0537179708480835,-0.6995319724082947,-2.5673770904541016
1782984562028998100,2.128998046875,-0.7603119611740112,-0.3323414623737335,-2.781111240386963
1782984562039072000,2.139072021484375,-0.4677940905094147,-0.20822776854038239,-2.6219775676727295
1782984562049147100,2.149147216796875,-0.2425633668899536,-0.34296348690986633,-2.218533754348755
1782984562059221000,2.159220947265625,-0.029462818056344986,-0.5072022080421448,-1.755178451538086
1782984562069295000,2.169295166015625,0.12443806231021881,-0.6041969656944275,-1.3844411373138428
1782984562079369000,2.179368896484375,0.21435010433197021,-0.57032710313797,-1.1465071439743042
1782984562089443300,2.189443359375,0.29032182693481445,-0.3844432830810547,-1.0147255659103394
1782984562099517200,2.19951708984375,0.3547133505344391,-0.19237370789051056,-0.9699381589889526
1782984562109591000,2.209591064453125,0.43211865425109863,-0.010556504130363464,-0.8940482139587402
1782984562119666200,2.219666259765625,0.5350964665412903,0.12480345368385315,-0.7682908177375793
1782984562129740000,2.229739990234375,0.6158688068389893,0.20325538516044617,-0.5736371874809265
1782984562139814100,2.239814208984375,0.648764967918396,0.20341970026493073,-0.36306634545326233
1782984562149888000,2.249887939453125,0.6586812138557434,0.15998061001300812,-0.1529591828584671
1782984562159962000,2.259962158203125,0.6766924262046814,0.08432207256555557,0.06302876770496368
1782984562170036000,2.270035888671875,0.7106205821037292,-0.04139218106865883,0.2787056565284729
1782984562180111000,2.280111083984375,0.7429409623146057,-0.21378205716609955,0.43246594071388245
1782984562190185000,2.29018505859375,0.7543739080429077,-0.26258715987205505,0.5034996271133423
1782984562200259300,2.30025927734375,0.7410072684288025,-0.05468401685357094,0.439858615398407
1782984562210333200,2.310333251953125,0.6902780532836914,0.20609989762306213,0.26723381876945496
1782984562220407000,2.320406982421875,0.5971211791038513,0.2981765568256378,0.09533530473709106
1782984562230481200,2.330481201171875,0.4530217945575714,0.2244195193052292,0.08255533128976822
1782984562240555000,2.340554931640625,0.25701820850372314,-0.025906432420015335,0.2513294219970703
1782984562250630100,2.350630126953125,-0.4148952066898346,-0.4087880253791809,0.550521194934845
1782984562260704000,2.3607041015625,-1.0283945798873901,-0.7096706628799438,0.7825983762741089
1782984562270778000,2.370778076171875,-0.6354238390922546,-0.4873582124710083,0.6822528839111328
1782984562280852000,2.38085205078125,-0.21435970067977905,-0.08177129179239273,0.654218316078186
1782984562290926300,2.39092626953125,-0.08874238282442093,-0.2980383634567261,0.6916642189025879
1782984562301000200,2.401000244140625,-0.19392447173595428,-0.28845682740211487,0.5880414247512817
1782984562311074000,2.411073974609375,-0.26192107796669006,0.37790629267692566,-0.04933319613337517
1782984562321149200,2.421149169921875,-0.17422746121883392,1.1439802646636963,-0.7140970826148987
1782984562331223000,2.43122314453125,-0.010576744563877583,1.222460389137268,-1.277366042137146
1782984562341297200,2.441297119140625,0.04159724339842796,0.753593385219574,-2.0085344314575195
1782984562351371000,2.45137109375,0.13174711167812347,0.5225670337677002,-2.737647771835327
1782984562361445000,2.461445068359375,0.36239391565322876,0.9187977313995361,-2.4011306762695312
1782984562371519000,2.47151904296875,0.5643510222434998,0.6302831172943115,-0.8095200061798096
1782984562381593300,2.48159326171875,0.4427659809589386,-0.21757440268993378,1.05282723903656
1782984562391668000,2.49166796875,0.2086637318134308,-0.6859349608421326,1.9360767602920532
1782984562401742300,2.501742431640625,0.10831422358751297,-0.5435296297073364,1.731790542602539
1782984562411816200,2.511816162109375,0.1447899490594864,-0.10791555047035217,1.1286455392837524
1782984562421890000,2.52189013671875,0.12828819453716278,0.17383624613285065,0.7749924063682556
1782984562431964200,2.531964111328125,0.11066126823425293,0.38979142904281616,0.7219523191452026
1782984562442038000,2.5420380859375,-0.32416102290153503,0.5442484021186829,0.876587450504303
1782984562452113200,2.552113037109375,-0.47030970454216003,0.9283388257026672,0.9398527145385742
1782984562462187000,2.56218701171875,-0.3416164517402649,1.2778584957122803,1.027382254600525
1782984562472261000,2.57226123046875,-0.2992311716079712,1.2926642894744873,1.3534562587738037
1782984562482335000,2.5823349609375,-0.2700767517089844,1.1604104042053223,1.9905924797058105
1782984562492409300,2.592409423828125,-0.270592600107193,0.7707148194313049,2.4666941165924072
1782984562502483200,2.602483154296875,-0.31580987572669983,-0.030721694231033325,2.3746590614318848
1782984562512557000,2.61255712890625,-0.31711164116859436,-0.9840283989906311,1.551283836364746
1782984562522632200,2.622632080078125,-0.2603575587272644,-1.7754250764846802,0.24716532230377197
1782984562532706000,2.6327060546875,-0.19280754029750824,-2.2812983989715576,-0.7864857912063599
1782984562542780200,2.6427802734375,-0.12381568551063538,-2.414874792098999,-1.2900346517562866
1782984562552854000,2.65285400390625,-0.15051893889904022,-2.170419216156006,-1.331248164176941
1782984562562928000,2.66292822265625,-0.2681744694709778,-1.764825463294983,-1.1795622110366821
1782984562573002000,2.673001953125,-0.3931688666343689,-1.261918067932129,-1.1007670164108276
1782984562583076000,2.683076171875,-0.48517414927482605,-0.7270360589027405,-1.1253483295440674
1782984562593150200,2.693150146484375,-0.5435189604759216,-0.2860751748085022,-1.1950863599777222
1782984562603225300,2.703225341796875,-0.5321531295776367,-0.01817740499973297,-1.2218122482299805
1782984562613299200,2.71329931640625,-0.46242836117744446,0.119893379509449,-1.1961497068405151
1782984562623373000,2.723373046875,-0.3651404082775116,0.12434139102697372,-1.1078686714172363
1782984562633447200,2.733447265625,-0.25277313590049744,-0.031087346374988556,-1.0152374505996704
1782984562643521000,2.74352099609375,-0.11856979131698608,-0.18858802318572998,-0.9525589346885681
1782984562653595100,2.75359521484375,0.018608039245009422,-0.2233252376317978,-0.9101523160934448
1782984562663670000,2.763669921875,0.12502582371234894,-0.20376111567020416,-0.8652658462524414
1782984562673744100,2.773744140625,0.1844734400510788,-0.19603954255580902,-0.8040741086006165
1782984562683818000,2.78381787109375,0.2112099826335907,-0.18752142786979675,-0.7785983085632324
1782984562693892000,2.79389208984375,0.21025709807872772,-0.1969117373228073,-0.7945107221603394
1782984562703966200,2.80396630859375,0.21094472706317902,-0.1870785504579544,-0.8368834257125854
1782984562714040000,2.8140400390625,0.20848609507083893,-0.13586409389972687,-0.862228512763977
1782984562724114200,2.8241142578125,0.20554383099079132,-0.07984849065542221,-0.8264111280441284
1782984562734189000,2.83418896484375,0.1963050663471222,-0.0051750545389950275,-0.7616329193115234
1782984562744263200,2.84426318359375,0.17333929240703583,0.09754200279712677,-0.7057656645774841
1782984562754337000,2.8543369140625,0.15265639126300812,0.20361490547657013,-0.6773824691772461
1782984562764411100,2.8644111328125,0.11340991407632828,0.25687387585639954,-0.6700076460838318
1782984562774485000,2.874485107421875,0.0835348442196846,0.26509132981300354,-0.6058363914489746
1782984562784559000,2.88455908203125,0.08138061314821243,0.32598477602005005,-0.4168755114078522
1782984562794633200,2.89463330078125,0.06974579393863678,0.3645806312561035,-0.20841552317142487
1782984562804708000,2.9047080078125,0.020360399037599564,0.33601608872413635,-0.05188104137778282
1782984562814782200,2.9147822265625,-0.05522224307060242,0.3253658413887024,0.03127989172935486
1782984562824856000,2.92485595703125,-0.14961053431034088,0.32715070247650146,0.08144105970859528
1782984562834930200,2.93493017578125,-0.2556557357311249,0.31741657853126526,0.12588949501514435
1782984562845004000,2.945004150390625,-0.3447054624557495,0.31692254543304443,0.21526303887367249
1782984562855078100,2.955078125,-0.3370933532714844,0.35084110498428345,0.401309609413147
1782984562865152000,2.965152099609375,-0.28079065680503845,0.29522764682769775,0.6181812286376953
1782984562875227100,2.97522705078125,-0.23724797368049622,0.18628518283367157,0.828014612197876
1782984562885301000,2.985301025390625,-0.18376930058002472,-0.03556012362241745,0.9177138805389404
1782984562895375000,2.995375,-0.0828956812620163,-0.30577269196510315,0.8721596598625183
1782984562905449200,3.00544921875,-0.03170866146683693,-0.48065662384033203,0.625977098941803
1782984562915523000,3.015523193359375,-0.05620788037776947,-0.5281751751899719,-0.05728565901517868
1782984562925597200,3.02559716796875,-0.16815118491649628,-0.25185006856918335,-1.320029616355896
1782984562935670800,3.0356708984375,-0.21710968017578125,0.25265195965766907,-2.435786485671997
1782984562945746000,3.045745849609375,-0.15390141308307648,0.885100245475769,-2.1766936779022217
1782984562955819800,3.05581982421875,-0.034448254853487015,1.080726981163025,-0.5136265754699707
1782984562965893600,3.0658935546875,0.09557578712701797,0.672236442565918,0.9999796748161316
1782984562975968000,3.075968017578125,0.21533095836639404,0.40993693470954895,1.364717721939087
1782984562986041900,3.086041748046875,0.29476505517959595,0.5988479852676392,0.8769341707229614
1782984562996116000,3.096115966796875,0.3466178774833679,0.7511088848114014,0.3832840025424957
1782984563006190800,3.10619091796875,0.37059831619262695,0.6342203617095947,0.4960755407810211
1782984563016265000,3.116264892578125,0.3375481963157654,0.36498916149139404,1.07033371925354
1782984563026338800,3.1263388671875,0.2834623456001282,0.24756665527820587,1.655885934829712
1782984563036412700,3.13641259765625,0.17244607210159302,0.1286890059709549,1.960654377937317
1782984563046486800,3.14648681640625,0.0065079666674137115,0.13557647168636322,2.003486156463623
1782984563056560600,3.156560546875,-0.1232588142156601,0.2887529730796814,2.083972692489624
1782984563066635000,3.166635009765625,-0.17540350556373596,0.4236982762813568,2.3431105613708496
1782984563076709600,3.176709716796875,-0.18893103301525116,0.6618088483810425,2.7586565017700195
1782984563086784000,3.186783935546875,-0.2633964717388153,0.9190861582756042,3.150024652481079
1782984563096857900,3.19685791015625,-0.35601136088371277,1.0301480293273926,3.2484567165374756
1782984563106932000,3.206931884765625,-0.5376349687576294,1.0888882875442505,2.8903729915618896
1782984563117005800,3.217005859375,-0.2678125500679016,0.7520726919174194,1.81159508228302
1782984563127079700,3.22707958984375,-0.282319575548172,-0.16859912872314453,0.30620306730270386
1782984563137153800,3.23715380859375,-0.26603275537490845,-0.7818311452865601,-1.2972140312194824
1782984563147228700,3.247228759765625,0.08802732825279236,-0.9503170847892761,-2.6176772117614746
1782984563157302800,3.257302734375,0.33436572551727295,-0.8995417952537537,-3.3763465881347656
1782984563167376600,3.267376708984375,0.4468190371990204,-0.7835536599159241,-3.554330587387085
1782984563177451000,3.277450927734375,0.5365933775901794,-0.6247594952583313,-3.2380685806274414
1782984563187524900,3.28752490234375,0.5968610048294067,-0.409223735332489,-2.5630507469177246
1782984563197599000,3.297598876953125,0.6120335459709167,-0.2762092053890228,-1.7787977457046509
1782984563207672800,3.3076728515625,0.5615301728248596,-0.2058783322572708,-1.106567144393921
1782984563217748000,3.317748046875,0.5211840867996216,-0.21048906445503235,-0.7100903391838074
1782984563227821800,3.32782177734375,0.45415177941322327,-0.22830134630203247,-0.6114742755889893
1782984563237895700,3.337895751953125,0.3261621296405792,-0.227866992354393,-0.7797589302062988
1782984563247969800,3.3479697265625,0.17820142209529877,-0.21163742244243622,-1.1146037578582764
1782984563258043600,3.358043701171875,0.06234326958656311,-0.18808308243751526,-1.417327642440796
1782984563268118000,3.368117919921875,-0.009974603541195393,-0.20671163499355316,-1.6127272844314575
1782984563278192600,3.378192626953125,-0.06408257782459259,-0.2212197333574295,-1.6816283464431763
1782984563288267000,3.38826708984375,-0.08740494400262833,-0.16483768820762634,-1.6458561420440674
1782984563298340900,3.3983408203125,-0.0687716081738472,-0.06203753873705864,-1.5419307947158813
1782984563308415000,3.4084150390625,-0.0483640693128109,0.06807971745729446,-1.3574177026748657
1782984563318488800,3.41848876953125,-0.06132833659648895,0.16728965938091278,-1.1642695665359497
1782984563328562700,3.428562744140625,-0.11674872040748596,0.2351781576871872,-1.005904197692871
1782984563338636800,3.43863671875,-0.19926010072231293,0.20966054499149323,-0.8783048987388611
1782984563348711700,3.448711669921875,-0.29804739356040955,0.16143469512462616,-0.7617586255073547
1782984563358785800,3.458785888671875,-0.399474173784256,0.08773171901702881,-0.6671977639198303
1782984563368859600,3.468859619140625,-0.47537532448768616,0.04247475415468216,-0.5843811631202698
1782984563378934000,3.47893408203125,-0.43659862875938416,0.1092524528503418,-0.5614878535270691
1782984563389008000,3.4890078125,-0.4452112913131714,0.058229751884937286,-0.5944375395774841
1782984563399082000,3.49908203125,-0.45401304960250854,0.04370087385177612,-0.585410475730896
1782984563409155800,3.50915576171875,-0.45070672035217285,0.06598807126283646,-0.5620676279067993
1782984563419231000,3.51923095703125,-0.4756309688091278,0.21036149561405182,-0.4339312016963959
1782984563429304800,3.529304931640625,-0.4997038245201111,0.3671223521232605,-0.21544253826141357
1782984563439378700,3.539378662109375,-0.4812358617782593,0.4731321334838867,-0.0870017409324646
1782984563449452800,3.549452880859375,-0.3954392075538635,0.5226005911827087,-0.10784070938825607
1782984563459526700,3.559526611328125,-0.291701078414917,0.5340650081634521,-0.17632922530174255
1782984563469601000,3.56960107421875,-0.1331511288881302,0.4120032787322998,-0.1582559496164322
1782984563479675000,3.5796748046875,0.07551179826259613,0.27529335021972656,-0.004441886208951473
1782984563489750000,3.58975,0.1624392420053482,-0.022456040605902672,-0.1428450345993042
1782984563499823900,3.599823974609375,0.04507160559296608,-0.3460466265678406,-0.8657811284065247
1782984563509897700,3.609897705078125,-0.23562504351139069,-0.4537195563316345,-1.9082648754119873
1782984563519971800,3.619971923828125,-0.6221381425857544,0.06352784484624863,-2.4012088775634766
1782984563530045700,3.630045654296875,-0.7297008037567139,0.6575744152069092,-1.5653858184814453
1782984563540119800,3.640119873046875,-0.48767244815826416,0.7322140336036682,0.3138290345668793
1782984563550193700,3.650193603515625,-0.12928181886672974,0.3922889530658722,1.957221508026123
1782984563560268800,3.660268798828125,0.22094036638736725,0.2547294795513153,2.5827527046203613
1782984563570342700,3.6703427734375,0.6370209455490112,0.451144278049469,2.2959587574005127
1782984563580417000,3.6804169921875,1.052486538887024,0.6096601486206055,1.7176264524459839
1782984563590491000,3.690490966796875,1.3142201900482178,0.4464198350906372,1.3166495561599731
1782984563600564700,3.700564697265625,1.3892507553100586,0.029465213418006897,1.1646277904510498
1782984563610638800,3.710638916015625,1.23044753074646,-0.4123561382293701,1.0749272108078003
1782984563620713700,3.720713623046875,0.945100724697113,-0.6173005104064941,0.8606715798377991
1782984563630787800,3.730787841796875,0.6278178691864014,-0.43893367052078247,0.4043205678462982
1782984563640861700,3.74086181640625,0.3603435456752777,-0.04195943474769592,-0.03722939267754555
1782984563650935800,3.750935791015625,0.2729303240776062,0.2972761392593384,-0.07828335464000702
1782984563661009700,3.761009765625,0.39907920360565186,0.5628705620765686,0.40428435802459717
1782984563671084000,3.771083984375,0.6214441061019897,0.8088850975036621,1.2851794958114624
1782984563681158000,3.781157958984375,0.8240837454795837,0.9177641868591309,2.206763982772827
1782984563691233000,3.79123291015625,0.9050617218017578,0.7782433032989502,2.7747411727905273
1782984563701307000,3.801306884765625,0.8405881524085999,0.42561280727386475,2.817350149154663
1782984563711380700,3.811380615234375,0.7227363586425781,-0.054670169949531555,2.3761656284332275
1782984563721454800,3.821454833984375,0.627771258354187,-0.5406704545021057,1.6474559307098389
1782984563731528700,3.83152880859375,0.5466518998146057,-0.9343828558921814,0.7447982430458069
1782984563741602800,3.841602783203125,0.4592597186565399,-1.1488679647445679,-0.1945556402206421
1782984563751676700,3.8516767578125,0.3482362627983093,-1.143934726715088,-1.0221593379974365
1782984563761751800,3.861751708984375,0.305704802274704,-0.9947639107704163,-1.6909916400909424
1782984563771825700,3.87182568359375,0.2847750186920166,-0.722222089767456,-2.1925036907196045
1782984563781900000,3.881900146484375,0.20547592639923096,-0.3504682779312134,-2.4858510494232178
1782984563791974000,3.891973876953125,0.05396256595849991,0.03116084821522236,-2.490946054458618
1782984563802047700,3.9020478515625,-0.10698424279689789,0.30185839533805847,-2.110677480697632
1782984563812121900,3.912121826171875,-0.19202589988708496,0.3660871684551239,-1.4214249849319458
1782984563822195700,3.92219580078125,-0.2136494368314743,0.1872367411851883,-0.6600884199142456
1782984563832270800,3.932270751953125,-0.1579451560974121,-0.03586159273982048,-0.05519028380513191
1782984563842344700,3.9423447265625,-0.04232135787606239,-0.14165034890174866,0.3460562229156494
1782984563852418800,3.952418701171875,0.026994332671165466,-0.2084008753299713,0.5550118088722229
1782984563862492700,3.96249267578125,0.10432720184326172,-0.2381148338317871,0.6576234102249146
1782984563872567000,3.972567138671875,0.17286339402198792,-0.21050849556922913,0.6217993497848511
1782984563882641000,3.982640869140625,0.2165118008852005,-0.13184857368469238,0.49313434958457947
1782984563892714800,3.99271484375,0.23550227284431458,-0.058708321303129196,0.3216158449649811
1782984563902788900,4.002788818359375,0.23088568449020386,-0.02485714666545391,0.1503487527370453
1782984563912862700,4.01286279296875,0.20211048424243927,-0.028731247410178185,0.011871839873492718
1782984563922936800,4.022936767578125,0.17598168551921844,-0.05774878337979317,-0.04342443868517876
1782984563933011000,4.033010986328125,0.15611529350280762,-0.1286061853170395,-0.024631842970848083
1782984563943084800,4.043084716796875,0.13527899980545044,-0.19081735610961914,0.041310954838991165
1782984563953160000,4.053159912109375,0.09455180168151855,-0.17003165185451508,0.10684149712324142
1782984563963233800,4.06323388671875,0.039684295654296875,-0.11215396970510483,0.08498626202344894
1782984563973307600,4.0733076171875,-0.012141617946326733,-0.06810102611780167,-0.028626052662730217
1782984563983381800,4.0833818359375,-0.08008445054292679,-0.04259060323238373,-0.1659306436777115
1782984563993455600,4.09345556640625,-0.1546178013086319,-0.051950015127658844,-0.28982117772102356
1782984564003529700,4.10352978515625,-0.18768121302127838,-0.07511205971240997,-0.43232452869415283
1782984564013603600,4.113603515625,-0.18118390440940857,-0.10319935530424118,-0.5836807489395142
1782984564023678700,4.1236787109375,-0.16105280816555023,-0.10124832391738892,-0.6772916316986084
1782984564033752600,4.133752685546875,-0.05938130244612694,-0.13874083757400513,-0.7507709264755249
1782984564043827000,4.143826904296875,0.052202485501766205,-0.19308051466941833,-0.7584243416786194
1782984564053900800,4.15390087890625,0.09390625357627869,-0.1822795271873474,-0.7049118280410767
1782984564063974700,4.163974609375,0.10252530872821808,0.028624987229704857,-0.6858561038970947
1782984564074048800,4.174048828125,-0.006923686247318983,0.19550424814224243,-1.0089513063430786
1782984564084123600,4.18412353515625,-0.061040982604026794,0.010903513990342617,-1.821994662284851
1782984564094197800,4.19419775390625,-0.16673465073108673,-0.07159934937953949,-2.830625534057617
1782984564104271600,4.204271728515625,-0.3170296251773834,0.44315028190612793,-3.365156650543213
1782984564114345700,4.214345703125,-0.3585429787635803,1.5135273933410645,-2.650235176086426
1782984564124419600,4.224419677734375,-0.1863917112350464,2.0110790729522705,-0.7268840074539185
1782984564134493700,4.23449365234375,-0.016636500135064125,1.7040404081344604,1.4656957387924194
1782984564144567800,4.24456787109375,0.1091722920536995,1.0119761228561401,2.9770355224609375
1782984564154643000,4.254642822265625,0.14186285436153412,0.5507851243019104,3.4766652584075928
1782984564164716800,4.264716796875,0.1348973661661148,0.23493048548698425,3.2500693798065186
1782984564174790700,4.274790771484375,0.18054208159446716,0.07546466588973999,2.6848576068878174
1782984564184864800,4.28486474609375,0.16053321957588196,0.07257486879825592,2.324828624725342
1782984564194938600,4.294938720703125,0.06181250140070915,0.1333114504814148,2.317835807800293
1782984564205012700,4.3050126953125,-0.1486922651529312,0.1685730367898941,2.4335551261901855
1782984564215086600,4.315086669921875,-0.281497985124588,0.18297460675239563,2.578968048095703
1782984564225161700,4.32516162109375,-0.15803997218608856,0.21230480074882507,2.7921805381774902
1782984564235235600,4.335235595703125,0.13360066711902618,0.20226842164993286,3.085590362548828
1782984564245309700,4.345309814453125,0.04164544865489006,0.04577441141009331,3.334157705307007
1782984564255384600,4.355384521484375,0.2826354205608368,-0.010357033461332321,3.1842527389526367
1782984564265458700,4.365458740234375,0.28419309854507446,-0.4407334625720978,2.7603559494018555
1782984564275532800,4.37553271484375,0.22579558193683624,-0.77012038230896,2.0138285160064697
1782984564285606700,4.385606689453125,0.254791796207428,-1.0346108675003052,1.0782667398452759
1782984564295680800,4.3956806640625,0.2634428143501282,-1.256882905960083,0.12267745286226273
1782984564305754600,4.405754638671875,0.23539547622203827,-1.3823702335357666,-0.7324864864349365
1782984564315828700,4.415828857421875,0.14720410108566284,-1.42267906665802,-1.4836344718933105
1782984564325903600,4.425903564453125,0.08657138049602509,-1.3294260501861572,-2.0222361087799072
1782984564335977700,4.435977783203125,0.0642935037612915,-1.1279174089431763,-2.2532029151916504
1782984564346051600,4.446051513671875,0.03551431745290756,-0.8795904517173767,-2.190922975540161
1782984564356125700,4.456125732421875,0.010410829447209835,-0.6707072854042053,-1.9758292436599731
1782984564366199800,4.46619970703125,0.00836791843175888,-0.5271985530853271,-1.7625633478164673
1782984564376273700,4.476273681640625,0.020741498097777367,-0.43374985456466675,-1.6427676677703857
1782984564386348800,4.486348876953125,0.004851480480283499,-0.40815818309783936,-1.6506786346435547
1782984564396422700,4.496422607421875,-0.04831666499376297,-0.40786445140838623,-1.7095962762832642
1782984564406496800,4.506496826171875,-0.07554163038730621,-0.37657204270362854,-1.7016520500183105
1782984564416570600,4.516570556640625,-0.07994143664836884,-0.295136034488678,-1.5480332374572754
1782984564426644700,4.526644775390625,-0.08991976827383041,-0.20171287655830383,-1.288731575012207
1782984564436718600,4.536718505859375,-0.10561537742614746,-0.07791157811880112,-1.0504943132400513
1782984564446792700,4.546792724609375,-0.10814990848302841,0.04923492297530174,-0.9600285291671753
1782984564456867600,4.55686767578125,-0.12072695046663284,0.11812637001276016,-0.9828156232833862
1782984564466941700,4.566941650390625,-0.14054273068904877,0.1610831618309021,-1.0374647378921509
1782984564477015800,4.577015869140625,-0.13596715033054352,0.20934389531612396,-1.053450107574463
1782984564487089700,4.587089599609375,-0.11348315328359604,0.24076120555400848,-0.9819887280464172
1782984564497163800,4.597163818359375,-0.10155405104160309,0.2066735476255417,-0.8662877082824707
1782984564507237600,4.607237548828125,-0.06455022841691971,0.11247514933347702,-0.7156808376312256
1782984564517311700,4.617311767578125,-0.025004418566823006,0.00675351032987237,-0.5556581616401672
1782984564527386600,4.62738671875,-0.006287723314017057,-0.08525551110506058,-0.37723222374916077
1782984564537460700,4.637460693359375,-0.0000327568814100232,-0.11574790626764297,-0.17699022591114044
1782984564547534600,4.64753466796875,-0.017522001639008522,-0.09625915437936783,0.03315182775259018
1782984564557608700,4.657608642578125,-0.03508688136935234,-0.06973966956138611,0.22186635434627533
1782984564567682800,4.667682861328125,-0.004220045171678066,-0.02575809322297573,0.40121135115623474
1782984564577756700,4.677756591796875,0.03682352975010872,0.006189985200762749,0.5541396141052246
1782984564587831800,4.687831787109375,0.06781340390443802,0.017584053799510002,0.6647159457206726
1782984564597905700,4.69790576171875,0.11148791015148163,0.04465162381529808,0.7618733644485474
1782984564607979800,4.707979736328125,0.08068632334470749,-0.022642727941274643,0.9116271734237671
1782984564618053600,4.7180537109375,-0.04141109064221382,-0.09204044193029404,1.2164909839630127
1782984564628127700,4.728127685546875,-0.15218713879585266,-0.02617381326854229,1.5969676971435547
1782984564638201600,4.73820166015625,-0.218416228890419,0.04348675534129143,1.7058321237564087
1782984564648275700,4.748275634765625,-0.3005917966365814,-0.10348618030548096,1.2074642181396484
1782984564658350600,4.7583505859375,-0.35034576058387756,-0.20734599232673645,0.2341693490743637
1782984564668424700,4.7684248046875,-0.37369024753570557,0.07120094448328018,-0.5474724173545837
1782984564678498800,4.778498779296875,-0.3602614998817444,0.39742833375930786,-0.5027691125869751
1782984564688572700,4.78857275390625,-0.20714253187179565,0.5312550663948059,0.44308874011039734
1782984564698646800,4.798646728515625,0.0467107817530632,0.4427662491798401,1.7081568241119385
1782984564708720600,4.808720703125,0.26603007316589355,0.4379030466079712,2.5653696060180664
1782984564718795800,4.818795654296875,0.4158126413822174,0.6125390529632568,2.678786277770996
1782984564728869600,4.82886962890625,0.46053245663642883,0.7738357782363892,2.0977542400360107
1782984564738943700,4.83894384765625,0.4503088593482971,0.9092361927032471,1.0942374467849731
1782984564749017600,4.849017578125,0.5050421357154846,1.050054907798767,0.05686328187584877
1782984564759091700,4.859091796875,0.5305970311164856,1.2377527952194214,-0.8290247321128845
1782984564769165800,4.869165771484375,0.42108145356178284,1.3054347038269043,-1.5072453022003174
1782984564779239700,4.87923974609375,0.23861363530158997,0.9662590026855469,-1.9187595844268799
1782984564789314800,4.889314697265625,0.4736839532852173,0.5891926884651184,-1.6165072917938232
1782984564799388700,4.899388671875,0.9118887186050415,0.3213186264038086,-0.6770564913749695
1782984564809462800,4.909462890625,1.0919554233551025,0.3154847323894501,0.4116019308567047
1782984564819536600,4.91953662109375,0.9971378445625305,0.5038905739784241,1.2672110795974731
1782984564829610500,4.929610595703125,0.7671115398406982,0.7712823152542114,1.7076457738876343
1782984564839684600,4.9396845703125,0.5605751872062683,0.8832932710647583,1.8727293014526367
1782984564849759700,4.949759765625,0.43012741208076477,0.7666380405426025,1.8347848653793335
1782984564859833600,4.95983349609375,0.3857809901237488,0.47544270753860474,1.558002233505249
1782984564869907700,4.96990771484375,0.36119815707206726,0.028607143089175224,1.057418704032898
1782984564879981800,4.97998193359375,0.25848695635795593,-0.39526209235191345,0.3898729383945465
1782984564890055700,4.9900556640625,0.1534457504749298,-0.6076915264129639,-0.3171537220478058
1782984564900129800,5.0001298828125,0.057497382164001465,-0.709818422794342,-0.9803210496902466
1782984564910203600,5.01020361328125,-0.031258318573236465,-0.7812463045120239,-1.5210710763931274
1782984564920278800,5.02027880859375,-0.1253533959388733,-0.679489016532898,-1.8339723348617554
1782984564930353200,5.030353271484375,-0.27726036310195923,-0.4710032045841217,-1.8414517641067505
1782984564940427300,5.04042724609375,-0.4690106213092804,-0.29735150933265686,-1.6079274415969849
1782984564950501000,5.050501220703125,-0.5978591442108154,-0.17638914287090302,-1.298665165901184
1782984564960575000,5.060574951171875,-0.6290000081062317,-0.11972294002771378,-0.9994630217552185
1782984564970649300,5.0706494140625,-0.5892784595489502,-0.1499474197626114,-0.77370685338974
1782984564980723200,5.08072314453125,-0.4729457199573517,-0.2218860536813736,-0.622017502784729
1782984564990798300,5.09079833984375,-0.28720808029174805,-0.3030450940132141,-0.4754030108451843
1782984565000872200,5.1008720703125,-0.08717697858810425,-0.43140679597854614,-0.3181007504463196
1782984565010946300,5.1109462890625,0.11726723611354828,-0.5561711192131042,-0.1915595829486847
1782984565021020200,5.121020263671875,0.2927149534225464,-0.5864421725273132,-0.11011265218257904
1782984565031094300,5.13109423828125,0.4144320785999298,-0.5473549962043762,-0.0740867406129837
1782984565041168100,5.141168212890625,0.45682293176651,-0.471693754196167,-0.0833076760172844
1782984565051243300,5.1512431640625,0.4293566942214966,-0.3873045742511749,-0.1314871907234192
1782984565061317000,5.161317138671875,0.3693671226501465,-0.30980631709098816,-0.20699313282966614
1782984565071391200,5.17139111328125,0.3166322708129883,-0.24438337981700897,-0.31384289264678955
1782984565081465300,5.18146533203125,0.28915563225746155,-0.202168807387352,-0.47054994106292725
1782984565091539200,5.191539306640625,0.2993616759777069,-0.17923873662948608,-0.6331705451011658
1782984565101613300,5.20161328125,0.3310500979423523,-0.1943279355764389,-0.7394458651542664
1782984565111687200,5.211687255859375,0.35364222526550293,-0.2852431833744049,-0.7631168365478516
1782984565121762300,5.22176220703125,0.3708331882953644,-0.40163666009902954,-0.7500942349433899
1782984565131836200,5.231836181640625,0.35892701148986816,-0.5085556507110596,-0.6913273334503174
1782984565141910300,5.24191015625,0.3177662491798401,-0.602298378944397,-0.588172197341919
1782984565151984000,5.251984130859375,0.2976870834827423,-0.7111140489578247,-0.4772443175315857
1782984565162058200,5.262058349609375,0.28470921516418457,-0.8078688383102417,-0.44077473878860474
1782984565172132400,5.27213232421875,0.28231531381607056,-0.8516043424606323,-0.48429691791534424
1782984565182207200,5.282207275390625,0.3202674984931946,-0.774360179901123,-0.5591317415237427
1782984565192281300,5.29228125,0.35074496269226074,-0.45774251222610474,-0.5167784094810486
1782984565202355200,5.302355224609375,0.3089413344860077,-0.17794708907604218,-0.19534020125865936
1782984565212429300,5.31242919921875,0.32668837904930115,0.11774527281522751,0.35885563492774963
1782984565222503200,5.322503173828125,0.45047077536582947,0.3801175057888031,0.5960878729820251
1782984565232577000,5.332576904296875,0.3619813919067383,0.3941449224948883,0.10449951142072678
1782984565242651100,5.342651123046875,-0.061234328895807266,0.23119354248046875,-0.7534671425819397
1782984565252726300,5.352726318359375,-0.4128139317035675,0.17788824439048767,-1.6361206769943237
1782984565262800100,5.362800048828125,-0.5338977575302124,0.4153873324394226,-1.943394422531128
1782984565272874200,5.372874267578125,-0.48388704657554626,0.663343071937561,-1.4120264053344727
1782984565282948400,5.3829482421875,-0.3670200705528259,0.8629384636878967,-0.5631885528564453
1782984565293022200,5.393022216796875,-0.124564029276371,1.0782047510147095,-0.12470491230487823
1782984565303096300,5.403096435546875,0.12596538662910461,1.2480747699737549,-0.214663565158844
1782984565313171200,5.413171142578125,0.29534295201301575,1.3110421895980835,-0.4086029529571533
1782984565323245300,5.423245361328125,0.3736790418624878,1.3570706844329834,-0.4422975182533264
1782984565333319200,5.433319091796875,0.3548891246318817,1.2236828804016113,-0.28970372676849365
1782984565343393000,5.44339306640625,0.22958366572856903,0.7728027105331421,-0.054674163460731506
1782984565353467100,5.453467041015625,0.08987662941217422,0.2472153902053833,0.19492954015731812
1782984565363541200,5.463541259765625,-0.03130439296364784,-0.18875980377197266,0.5036133527755737
1782984565373615400,5.473615478515625,-0.034865040332078934,-0.36235448718070984,1.0102046728134155
1782984565383690200,5.483690185546875,-0.04874010756611824,-0.29318767786026,1.5840092897415161
1782984565393764400,5.493764404296875,-0.0939219668507576,-0.13683854043483734,2.055812120437622
1782984565403838200,5.503838134765625,-0.14945340156555176,0.14517129957675934,2.3398869037628174
1782984565413912300,5.513912353515625,-0.11167273670434952,0.46537089347839355,2.376102924346924
1782984565423986200,5.523986083984375,-0.04344148188829422,0.641826331615448,2.142606496810913
1782984565434060000,5.53406005859375,0.006882939953356981,0.5504564642906189,1.7267582416534424
1782984565444135200,5.54413525390625,0.010202303528785706,0.3505769371986389,1.3036344051361084
1782984565454209000,5.554208984375,-0.021144166588783264,0.062008775770664215,0.8869186639785767
1782984565464283100,5.564283203125,-0.09976521134376526,-0.24712403118610382,0.3965713083744049
1782984565474357200,5.574357177734375,-0.19317425787448883,-0.4549350142478943,-0.16012229025363922
1782984565484431400,5.584431396484375,-0.18331655859947205,-0.585044264793396,-0.6573118567466736
1782984565494505200,5.594505126953125,-0.11391831189393997,-0.6473931670188904,-1.0235569477081299
1782984565504580400,5.604580322265625,-0.047146473079919815,-0.6370931267738342,-1.2598307132720947
1782984565514654200,5.614654296875,-0.0005808354471810162,-0.5414315462112427,-1.3940668106079102
1782984565524728300,5.624728271484375,0.040530383586883545,-0.380418986082077,-1.4181665182113647
1782984565534802200,5.63480224609375,0.06492333859205246,-0.21004244685173035,-1.4018008708953857
1782984565544876000,5.6448759765625,0.09803815186023712,-0.07666628062725067,-1.3924009799957275
1782984565554950100,5.6549501953125,0.15384389460086823,-0.02304246835410595,-1.336921215057373
1782984565565024300,5.665024169921875,0.1830606311559677,-0.06292836368083954,-1.248616099357605
1782984565575099100,5.67509912109375,0.18236234784126282,-0.09165269136428833,-1.0922582149505615
1782984565585173200,5.68517333984375,0.1822720766067505,-0.13031193614006042,-0.8728025555610657
1782984565595247400,5.695247314453125,0.18179535865783691,-0.12103241682052612,-0.598865270614624
1782984565605321200,5.7053212890625,0.16037902235984802,-0.15158818662166595,-0.3169092535972595
1782984565615395300,5.715395263671875,0.11810853332281113,-0.23325136303901672,-0.06741952151060104
1782984565625469200,5.72546923828125,0.09112245589494705,-0.3185098171234131,0.12180393189191818
1782984565635543000,5.73554296875,0.08672424405813217,-0.3887128531932831,0.2660798728466034
1782984565645618200,5.7456181640625,0.08984386920928955,-0.41905584931373596,0.3651883602142334
1782984565655692000,5.755692138671875,0.06576463580131531,-0.3926069438457489,0.43021902441978455
1782984565665766100,5.76576611328125,-0.00549330236390233,-0.3189380466938019,0.45977291464805603
1782984565675840300,5.77584033203125,-0.09614676982164383,-0.23254109919071198,0.4642563462257385
1782984565685914400,5.785914306640625,-0.19628535211086273,-0.15184572339057922,0.46786174178123474
1782984565695988200,5.79598828125,-0.2734171450138092,-0.11078430712223053,0.47912663221359253
1782984565706063400,5.8060634765625,-0.325435608625412,-0.06865895539522171,0.5104323625564575
1782984565716137200,5.81613720703125,-0.3240574300289154,-0.0367625430226326,0.5407926440238953
1782984565726211300,5.82621142578125,-0.31710177659988403,-0.06155737116932869,0.5295535922050476
1782984565736285200,5.83628515625,-0.27902764081954956,-0.09827783703804016,0.4407486319541931
1782984565746359000,5.846359130859375,-0.21705375611782074,-0.10424917191267014,0.3065950870513916
1782984565756433200,5.85643310546875,-0.13277855515480042,-0.08374043554067612,0.13324406743049622
1782984565766508000,5.866508056640625,-0.07244677096605301,-0.15886341035366058,-0.09666289389133453
1782984565776582100,5.87658203125,-0.06167508289217949,-0.115073062479496,-0.1976480931043625
1782984565786656300,5.88665625,-0.12725089490413666,-0.11966461688280106,-0.09387003630399704
1782984565796730400,5.89673046875,-0.2532048225402832,-0.08852347731590271,0.13963912427425385
1782984565806804200,5.90680419921875,-0.47147032618522644,-0.09670763462781906,-0.09459361433982849
1782984565816878300,5.91687841796875,-0.692183792591095,-0.06754708290100098,-1.0026111602783203
1782984565826952200,5.9269521484375,-0.7780629992485046,0.15585164725780487,-1.6789997816085815
1782984565837027300,5.93702734375,-0.5461855530738831,0.28426527976989746,-1.3496993780136108
1782984565847101200,5.94710107421875,-0.2189967930316925,-0.046055376529693604,-0.314968079328537
1782984565857175000,5.957175048828125,-0.014808506704866886,-0.2845715582370758,0.6137531399726868
1782984565867249200,5.967249267578125,0.06198001280426979,-0.24552427232265472,0.9628706574440002
1782984565877323300,5.9773232421875,0.13699406385421753,-0.09038715064525604,0.810756504535675
1782984565887397400,5.9873974609375,0.21476396918296814,0.20799393951892853,0.48220473527908325
1782984565897472300,5.99747216796875,0.23023054003715515,0.483049213886261,0.3395833969116211
1782984565907546400,6.00754638671875,0.2259226143360138,0.5996738076210022,0.47634178400039673
1782984565917620200,6.0176201171875,0.2320912927389145,0.6368712782859802,0.6659420728683472
1782984565927694000,6.027694091796875,0.19990353286266327,0.701664924621582,0.630765974521637
1782984565937767400,6.037767333984375,0.15534751117229462,0.8480104207992554,0.4611828029155731
1782984565947841300,6.04784130859375,0.167832151055336,0.808141827583313,0.4591739773750305
1782984565957916400,6.05791650390625,0.24057266116142273,0.506739616394043,0.6972853541374207
1782984565967990300,6.067990234375,0.3480978012084961,0.11546640843153,1.0607237815856934
1782984565978064600,6.078064697265625,0.42205190658569336,-0.14390364289283752,1.408184289932251
1782984565988138500,6.088138427734375,0.41268423199653625,-0.10530431568622589,1.614255428314209
1782984565998212600,6.098212646484375,0.29737389087677,-0.002814428647980094,1.5566248893737793
1782984566008286500,6.108286376953125,0.11641263216733932,0.00620995881035924,1.235142707824707
1782984566018360300,6.1183603515625,-0.03989788144826889,-0.01188169326633215,0.7055310010910034
1782984566028435500,6.128435546875,-0.1475500464439392,-0.0652461126446724,0.054728224873542786
1782984566038509600,6.138509521484375,-0.2670047879219055,-0.14326554536819458,-0.5693833231925964
1782984566048583400,6.14858349609375,-0.35138973593711853,-0.12811881303787231,-1.0695455074310303
1782984566058657300,6.1586572265625,-0.3914886713027954,-0.0748465433716774,-1.4854776859283447
1782984566068731600,6.168731689453125,-0.42415446043014526,-0.00169563468080014,-1.7702921628952026
1782984566078805500,6.178805419921875,-0.4909188449382782,0.12075171619653702,-1.8456960916519165
1782984566088880600,6.188880615234375,-0.5810074806213379,0.28328895568847656,-1.6987265348434448
1782984566098954500,6.19895458984375,-0.6478919386863708,0.35887372493743896,-1.3807603120803833
1782984566109028600,6.209028564453125,-0.6693304181098938,0.2931722104549408,-0.997028112411499
1782984566119102500,6.2191025390625,-0.6563038229942322,0.08656871318817139,-0.6455433368682861
1782984566129176300,6.22917626953125,-0.6056752800941467,-0.16766169667243958,-0.3659212589263916
1782984566139250400,6.23925048828125,-0.5225103497505188,-0.4255734086036682,-0.1284908652305603
1782984566149324500,6.249324462890625,-0.4640677869319916,-0.5677377581596375,0.06592734903097153
1782984566159399400,6.2593994140625,-0.438518226146698,-0.6120309233665466,0.18578983843326569
1782984566169473500,6.2694736328125,-0.42424049973487854,-0.6194770932197571,0.25003647804260254
1782984566179547600,6.279547607421875,-0.3937419652938843,-0.6226579546928406,0.2768915295600891
1782984566189621500,6.28962158203125,-0.33981403708457947,-0.6410551071166992,0.2818681597709656
1782984566199695600,6.299695556640625,-0.2612774074077606,-0.6127067804336548,0.2941370904445648
1782984566209769500,6.30976953125,-0.1887693852186203,-0.6160480380058289,0.32340335845947266
1782984566219844600,6.3198447265625,-0.118034228682518,-0.5792300701141357,0.3413517475128174
1782984566229918500,6.32991845703125,-0.06986936181783676,-0.5404350161552429,0.3189406991004944
1782984566239992300,6.339992431640625,-0.06266151368618011,-0.49071165919303894,0.2707798182964325
1782984566250066400,6.35006640625,-0.08516149967908859,-0.4115140438079834,0.21411442756652832
1782984566260140500,6.360140625,-0.10802633315324783,-0.3283296823501587,0.11737163364887238
1782984566270214700,6.370214599609375,-0.0926567018032074,-0.2753964066505432,-0.015417838469147682
1782984566280289500,6.38028955078125,-0.034710843116045,-0.30301952362060547,-0.150966614484787
1782984566290363600,6.39036376953125,0.04350246861577034,-0.4118938148021698,-0.2318904846906662
1782984566300437500,6.4004375,0.11208419501781464,-0.5831007361412048,-0.19506829977035522
1782984566310511600,6.41051171875,0.21922263503074646,-0.673212468624115,0.0314205065369606
1782984566320585500,6.42058544921875,0.33632662892341614,-0.6579419374465942,0.3433304727077484
1782984566330659300,6.430659423828125,0.4141297936439514,-0.6260740160942078,0.5895389318466187
1782984566340733400,6.4407333984375,0.44515055418014526,-0.5870749354362488,0.7253832817077637
1782984566350808300,6.450808349609375,0.47438913583755493,-0.5665169358253479,0.8411375880241394
1782984566360882400,6.46088232421875,0.4706551432609558,-0.6457723379135132,0.9994055032730103
1782984566370956500,6.47095654296875,0.44409647583961487,-0.6552947759628296,1.1107383966445923
1782984566381030700,6.48103076171875,0.3928964138031006,-0.4375927746295929,0.6497647166252136
1782984566391104500,6.4911044921875,0.15946316719055176,-0.007514375261962414,-0.5361084342002869
1782984566401178600,6.5011787109375,-0.08037446439266205,0.4658350646495819,-1.8864309787750244
1782984566411253500,6.51125341796875,-0.12916438281536102,0.7949162721633911,-2.6103858947753906
1782984566421327600,6.52132763671875,-0.12630201876163483,0.7846192121505737,-2.12906551361084
1782984566431401500,6.5314013671875,-0.03803712874650955,0.43144887685775757,-0.7234171032905579
1782984566441475300,6.541475341796875,0.041917357593774796,0.0937853455543518,0.588621199131012
1782984566451549400,6.551549560546875,0.013034042902290821,-0.0368882417678833,1.2104051113128662
1782984566461623600,6.56162353515625,-0.05152684077620506,0.004452805500477552,1.2244378328323364
1782984566471698400,6.571698486328125,-0.15945543348789215,0.22902625799179077,0.867473304271698
1782984566481772500,6.5817724609375,-0.27160727977752686,0.4783511459827423,0.497463583946228
1782984566491846700,6.5918466796875,-0.24243181943893433,0.6187934875488281,0.3135872185230255
1782984566501920500,6.60192041015625,-0.06934764981269836,0.5588030815124512,0.2806878685951233
1782984566511994600,6.61199462890625,0.09622400254011154,0.36533138155937195,0.2806026339530945
1782984566522068500,6.622068359375,0.21599701046943665,0.09544529765844345,0.28242209553718567
1782984566532142300,6.632142333984375,0.28658008575439453,-0.1383378952741623,0.41413938999176025
1782984566542217500,6.642217529296875,0.4219738841056824,-0.06042685732245445,0.7267817258834839
1782984566552291300,6.652291259765625,0.6552199125289917,0.20657262206077576,1.1205942630767822
1782984566562365400,6.662365478515625,0.6659761667251587,0.5439416170120239,1.3361175060272217
1782984566572439600,6.672439453125,0.516230583190918,0.9213847517967224,1.410812258720398
1782984566582513700,6.682513671875,0.43743273615837097,1.102534294128418,1.4197756052017212
1782984566592587500,6.69258740234375,0.4048883616924286,0.9874197244644165,1.2090237140655518
1782984566602662700,6.70266259765625,0.3148096203804016,0.6610088348388672,0.754719614982605
1782984566612736500,6.712736572265625,0.16717034578323364,0.3704829812049866,0.18208937346935272
1782984566622810600,6.722810546875,0.01654728502035141,0.09687381237745285,-0.35200998187065125
1782984566632884500,6.732884521484375,-0.10410855710506439,-0.1357724815607071,-0.7308531403541565
1782984566642958300,6.742958251953125,-0.1434258669614792,-0.31085747480392456,-0.9960376620292664
1782984566653032400,6.753032470703125,-0.14263597130775452,-0.3555554449558258,-1.135553002357483
1782984566663107300,6.763107421875,-0.13690751791000366,-0.35083019733428955,-1.184584379196167
1782984566673181400,6.773181396484375,-0.15359248220920563,-0.275444358587265,-1.233886480331421
1782984566683255600,6.783255615234375,-0.13067279756069183,-0.140916109085083,-1.3199689388275146
1782984566693329700,6.79332958984375,-0.06798677146434784,0.0012181298807263374,-1.4293975830078125
1782984566703403500,6.803403564453125,0.028860410675406456,0.12744663655757904,-1.4991083145141602
1782984566713477600,6.8134775390625,0.1522901952266693,0.19818924367427826,-1.4404324293136597
1782984566723552500,6.823552490234375,0.2717215120792389,0.21158495545387268,-1.2558159828186035
1782984566733626600,6.833626708984375,0.34965094923973083,0.1584671437740326,-1.021071434020996
1782984566743700500,6.843700439453125,0.3796288073062897,0.13589072227478027,-0.8252773880958557
1782984566753774300,6.8537744140625,0.35456234216690063,0.11919456720352173,-0.7109561562538147
1782984566763848400,6.863848388671875,0.30452847480773926,0.10067041963338852,-0.682615339756012
1782984566773922600,6.873922607421875,0.2685464918613434,0.09232167154550552,-0.7126049399375916
1782984566783996700,6.88399658203125,0.2567790746688843,0.11043090373277664,-0.7033280730247498
1782984566794071600,6.894071533203125,0.2485533505678177,0.13894137740135193,-0.649440586566925
1782984566804145700,6.904145751953125,0.21416369080543518,0.18049921095371246,-0.5374512076377869
1782984566814219500,6.914219482421875,0.17613855004310608,0.22239205241203308,-0.4047461450099945
1782984566824293400,6.92429345703125,0.12739764153957367,0.26334962248802185,-0.2571777403354645
1782984566834367500,6.934367431640625,0.04924078285694122,0.28080928325653076,-0.1404242217540741
1782984566844441300,6.94444140625,-0.041551705449819565,0.29163503646850586,-0.0742340162396431
1782984566854516500,6.9545166015625,-0.08926889300346375,0.286471962928772,-0.03784165531396866
1782984566864590300,6.96459033203125,-0.10476396232843399,0.27729207277297974,0.016872989013791084
1782984566874664400,6.97466455078125,-0.12448973208665848,0.2873894274234772,0.1253717690706253
1782984566884738600,6.984738525390625,-0.1520928591489792,0.32812196016311646,0.30243468284606934
1782984566894812700,6.994812744140625,-0.1789495050907135,0.34136879444122314,0.47047191858291626
1782984566904886500,7.004886474609375,-0.1847408264875412,0.3687306344509125,0.5838655829429626
1782984566914961700,7.014961669921875,-0.20398135483264923,0.44884276390075684,0.7166364192962646
1782984566925035500,7.025035400390625,-0.1977253258228302,0.5159466862678528,0.9042798280715942
1782984566935109600,7.035109619140625,-0.16408507525920868,0.5099173188209534,1.1314150094985962
1782984566945183700,7.045183837890625,-0.21114206314086914,0.3821292519569397,1.196292757987976
1782984566955257600,7.055257568359375,-0.33813491463661194,0.11206981539726257,0.5562560558319092
1782984566965331700,7.065331787109375,-0.6255179643630981,0.01236425805836916,-0.7512244582176208
1782984566975406600,7.075406494140625,-1.1126455068588257,0.12258770316839218,-1.7631876468658447
1782984566985480700,7.085480712890625,-1.411203145980835,0.2841843068599701,-1.5366151332855225
1782984566995554600,7.095554443359375,-1.2048566341400146,0.3138521909713745,-0.13507312536239624
1782984567005628700,7.105628662109375,-0.6387983560562134,0.018338261172175407,1.3140883445739746
1782984567015702800,7.115702880859375,-0.07174902409315109,-0.48871907591819763,1.9021412134170532
1782984567025776600,7.125776611328125,0.40009281039237976,-0.9740037322044373,1.499427080154419
1782984567035850800,7.135850830078125,0.6822714805603027,-1.0904440879821777,0.7908682823181152
1782984567045925600,7.145925537109375,0.6630727648735046,-0.7952635884284973,0.6044137477874756
1782984567055999700,7.155999755859375,0.5469224452972412,-0.35296446084976196,0.9716562032699585
1782984567066073600,7.166073486328125,0.45442289113998413,-0.13013723492622375,1.406475305557251
1782984567076147700,7.176147705078125,0.4253230690956116,-0.11099789291620255,1.5557830333709717
1782984567086221600,7.1862216796875,0.40503618121147156,-0.1291465312242508,1.316153645515442
1782984567096295700,7.196295654296875,0.4582218825817108,-0.005203816574066877,1.0687193870544434
1782984567106370600,7.20637060546875,0.5361742377281189,-0.10317379236221313,0.9963588714599609
1782984567116444700,7.216444580078125,0.6301901936531067,-0.27648910880088806,1.0700008869171143
1782984567126518800,7.226518798828125,0.7026417851448059,-0.19031640887260437,1.2763210535049438
1782984567136592600,7.236592529296875,0.621508002281189,0.13807743787765503,1.5262024402618408
1782984567146666800,7.246666748046875,0.44617536664009094,0.38714611530303955,1.6094731092453003
1782984567156740600,7.25674072265625,0.2568616271018982,0.37991589307785034,1.362912654876709
1782984567166815700,7.266815673828125,0.11852797865867615,0.057621218264102936,0.7357016801834106
1782984567176889600,7.2768896484375,-0.06007292494177818,-0.39135685563087463,-0.1699669361114502
1782984567186963700,7.286963623046875,-0.27209410071372986,-0.7005215883255005,-1.1290199756622314
1782984567197037800,7.297037841796875,-0.4393344819545746,-0.8847588300704956,-1.9134085178375244
1782984567207111700,7.307111572265625,-0.48262709379196167,-0.6467816829681396,-2.2330567836761475
1782984567217185800,7.317185791015625,-0.4472576677799225,-0.2242690473794937,-2.133568286895752
1782984567227260700,7.3272607421875,-0.3970392346382141,0.09440986067056656,-1.7891558408737183
1782984567237334800,7.337334716796875,-0.3047116994857788,0.18509341776371002,-1.3290497064590454
1782984567247408600,7.34740869140625,-0.20702588558197021,0.1259685903787613,-0.8829132914543152
1782984567257482800,7.357482666015625,-0.11989551037549973,-0.01949780061841011,-0.5309624075889587
1782984567267556600,7.367556640625,-0.022066419944167137,-0.1622573435306549,-0.26798751950263977
1782984567277630700,7.377630615234375,0.07455279678106308,-0.23726527392864227,-0.08859990537166595
1782984567287704800,7.387704833984375,0.18288059532642365,-0.268123060464859,0.03187510743737221
1782984567297779700,7.39777978515625,0.2882736027240753,-0.22865287959575653,0.062496401369571686
1782984567307853800,7.407853759765625,0.35281237959861755,-0.12572303414344788,0.02111567184329033
1782984567317927700,7.417927734375,0.35816240310668945,-0.06462639570236206,-0.07520260661840439
1782984567328001800,7.428001708984375,0.3249642252922058,0.022474948316812515,-0.21912676095962524
1782984567338075600,7.43807568359375,0.2944851517677307,0.10393412411212921,-0.3311547636985779
1782984567348149800,7.448149658203125,0.2456800639629364,0.16769498586654663,-0.36975568532943726
1782984567358224600,7.458224609375,0.20054401457309723,0.2003069967031479,-0.38220515847206116
1782984567368298800,7.468298828125,0.16111138463020325,0.1535024791955948,-0.35193806886672974
1782984567378372600,7.47837255859375,0.13189145922660828,0.07317354530096054,-0.30348825454711914
1782984567388446700,7.48844677734375,0.10218948125839233,0.008196410723030567,-0.21994541585445404
1782984567398520800,7.498520751953125,0.06030861288309097,-0.052974801510572433,-0.08314335346221924
1782984567408594700,7.5085947265625,0.002672215923666954,-0.095339834690094,0.06397205591201782
1782984567418669800,7.518669921875,-0.03784564882516861,-0.14311960339546204,0.15951323509216309
1782984567428743700,7.52874365234375,-0.05928995460271835,-0.17490443587303162,0.18600928783416748
1782984567438817800,7.53881787109375,-0.08907394856214523,-0.14628584682941437,0.16969555616378784
1782984567448891600,7.5488916015625,-0.11343415081501007,-0.1338811069726944,0.10751074552536011
1782984567458965800,7.5589658203125,-0.12852974236011505,-0.1964358240365982,0.034443460404872894
1782984567469039600,7.56903955078125,-0.07289578020572662,-0.1843448132276535,0.07361802458763123
1782984567479114800,7.57911474609375,0.03326261416077614,-0.06482932716608047,0.18615682423114777
1782984567489188600,7.589188720703125,0.11127166450023651,0.2257644236087799,0.2023613601922989
1782984567499262700,7.5992626953125,0.21927934885025024,0.8101791143417358,0.20519550144672394
1782984567509336800,7.6093369140625,0.23788127303123474,1.2932254076004028,0.20583225786685944
1782984567519410700,7.61941064453125,0.12475418299436569,1.2286320924758911,0.37325188517570496
1782984567529484800,7.62948486328125,0.06779023259878159,0.5764926075935364,0.5107386112213135
1782984567539559700,7.6395595703125,-0.03641340136528015,0.007552192080765963,0.37544524669647217
1782984567549633800,7.6496337890625,-0.1925675868988037,-0.18229897320270538,0.2215299904346466
1782984567559707600,7.659707763671875,-0.37615126371383667,-0.02111540548503399,0.3008011281490326
1782984567569781800,7.66978173828125,-0.4774395227432251,0.06817612797021866,0.423795223236084
1782984567579855600,7.679855712890625,-0.31665730476379395,0.062011171132326126,0.2778089642524719
1782984567589929700,7.6899296875,-0.045526470988988876,0.0033984598703682423,-0.2418358027935028
1782984567600004600,7.700004638671875,0.20854149758815765,-0.06824057549238205,-0.7133998870849609
1782984567610078700,7.71007861328125,0.3288990557193756,-0.07183291018009186,-0.7814491987228394
1782984567620152800,7.72015283203125,0.3287286162376404,-0.03062395565211773,-0.30629709362983704
1782984567630226700,7.730226806640625,0.29097992181777954,0.0012572783743962646,0.4932754933834076
1782984567640300800,7.74030078125,0.3200365900993347,0.04548332840204239,1.1723061800003052
1782984567650374700,7.750374755859375,0.3473640978336334,0.030070284381508827,1.6247689723968506
1782984567660448800,7.76044873046875,0.3098590672016144,-0.017832260578870773,1.6973239183425903
1782984567670523600,7.770523681640625,0.3212994635105133,-0.02376312017440796,1.5362915992736816
1782984567680597800,7.78059765625,0.4668681025505066,0.09261462092399597,1.310770034790039
1782984567690671600,7.790671630859375,0.5115386247634888,0.266403466463089,1.1153744459152222
1782984567700745500,7.800745361328125,0.4211648106575012,0.40601062774658203,0.8774654865264893
1782984567710819800,7.81081982421875,0.33825793862342834,0.39377525448799133,0.6239514946937561
1782984567720893700,7.820893798828125,0.2969861328601837,0.12538322806358337,0.3279072940349579
1782984567730968800,7.83096875,0.16297240555286407,-0.35965269804000854,-0.1758333444595337
1782984567741042700,7.841042724609375,-0.013005813583731651,-0.7286299467086792,-0.7376679182052612
1782984567751116800,7.85111669921875,-0.16730697453022003,-0.9228971600532532,-1.2115145921707153
1782984567761190700,7.861190673828125,-0.29736244678497314,-0.917596697807312,-1.5481804609298706
1782984567771264800,7.8712646484375,-0.35499218106269836,-0.6809471249580383,-1.7066798210144043
1782984567781338600,7.881338623046875,-0.3737320601940155,-0.3530629873275757,-1.665886402130127
1782984567791413800,7.891413818359375,-0.37287184596061707,-0.11527173221111298,-1.4903182983398438
1782984567801487600,7.901487548828125,-0.357221782207489,-0.0020128171890974045,-1.3202024698257446
1782984567811561500,7.9115615234375,-0.32061049342155457,0.046434078365564346,-1.1513689756393433
1782984567821635800,7.9216357421875,-0.30330315232276917,0.04819096624851227,-0.9890468716621399
1782984567831709700,7.931709716796875,-0.28707757592201233,0.04488065466284752,-0.8364706635475159
1782984567841783800,7.94178369140625,-0.2905396819114685,0.060498498380184174,-0.7135950922966003
1782984567851858700,7.951858642578125,-0.3034520149230957,0.09239624440670013,-0.6348304748535156
1782984567861932800,7.961932861328125,-0.28714415431022644,0.09644903987646103,-0.5816564559936523
1782984567872006700,7.972006591796875,-0.2246972918510437,0.0774306058883667,-0.5428539514541626
1782984567882080800,7.982080810546875,-0.14858707785606384,0.018679412081837654,-0.4868040084838867
1782984567892154600,7.992154541015625,-0.08412765711545944,-0.04198446869850159,-0.38870832324028015
1782984567902228500,8.002228515625,-0.03308524936437607,-0.07221613824367523,-0.2872954308986664
1782984567912302800,8.012302734375,-0.0167909637093544,-0.04036233574151993,-0.18885700404644012
1782984567922376700,8.022376708984375,-0.04892067238688469,-0.022417157888412476,-0.1305484175682068
1782984567932450800,8.032450927734375,-0.13185523450374603,0.002713228575885296,-0.11929257214069366
1782984567942524200,8.042524169921874,-0.2337094247341156,0.01906557008624077,-0.12152136862277985
1782984567952599300,8.052599365234375,-0.3294604420661926,0.025659823790192604,-0.12261859327554703
1782984567962673200,8.062673095703126,-0.40212053060531616,0.022214224562048912,-0.09988691657781601
1782984567972747000,8.0727470703125,-0.45226573944091797,0.0162466149777174,-0.034443195909261703
1782984567982821000,8.082821044921875,-0.4758160710334778,-0.018603777512907982,0.07279084622859955
1782984567992895200,8.092895263671876,-0.4721161425113678,-0.043110717087984085,0.23872628808021545
1782984568002970000,8.10297021484375,-0.4406202733516693,-0.08817247301340103,0.42893698811531067
1782984568013044200,8.113044189453126,-0.42221328616142273,-0.07964183390140533,0.6195229291915894
1782984568023118300,8.123118408203124,-0.4308001399040222,-0.09564796090126038,0.7535355687141418
1782984568033192200,8.133192138671875,-0.4253869950771332,-0.09821631759405136,0.8394853472709656
1782984568043266300,8.143266357421876,-0.43660926818847656,-0.08280327171087265,0.918276846408844
1782984568053340200,8.153340087890625,-0.4430978000164032,-0.1521085798740387,1.0937402248382568
1782984568063414000,8.1634140625,-0.40760186314582825,-0.24428004026412964,1.1958857774734497
1782984568073489200,8.1734892578125,-0.31009528040885925,-0.28700727224349976,1.0388858318328857
1782984568083563000,8.18356298828125,-0.17070622742176056,-0.1652859002351761,0.6044321060180664
1782984568093637000,8.19363720703125,-0.10315541177988052,0.16662760078907013,-0.2234831601381302
1782984568103711200,8.203711181640625,-0.18779626488685608,0.6025676131248474,-1.1446154117584229
1782984568113785300,8.213785400390625,-0.2551950216293335,1.0436766147613525,-1.6248779296875
1782984568123859200,8.223859130859376,-0.22133105993270874,1.186073899269104,-1.5202960968017578
1782984568133934300,8.233934326171875,-0.06290200352668762,0.859241247177124,-1.0435450077056885
1782984568144008200,8.24400830078125,0.13601642847061157,0.203439399600029,-0.5488218069076538
1782984568154082300,8.254082275390624,0.22165969014167786,-0.4430631697177887,-0.17113526165485382
1782984568164156200,8.26415625,0.22628560662269592,-0.8523265719413757,0.15514138340950012
1782984568174230000,8.27422998046875,0.19122907519340515,-0.9495125412940979,0.2891079783439636
1782984568184304000,8.28430419921875,0.1095334142446518,-0.6261925101280212,0.32445985078811646
1782984568194379000,8.29437890625,0.04922160878777504,-0.2277117222547531,0.5145911574363708
1782984568204453000,8.304453125,0.0655696913599968,-0.07547558099031448,0.7124589681625366
1782984568214527200,8.31452734375,0.09183085709810257,-0.1258615255355835,0.7695574164390564
1782984568224601300,8.324601318359376,0.14168283343315125,-0.1374361515045166,0.7127758860588074
1782984568234675200,8.33467529296875,0.23409372568130493,-0.1028645932674408,0.5987718105316162
1782984568244749300,8.344749267578125,0.2807008922100067,-0.2032734900712967,0.5210298895835876
1782984568254824200,8.35482421875,0.37337490916252136,-0.25885045528411865,0.7345967888832092
1782984568264898300,8.364898193359375,0.40108537673950195,-0.28344103693962097,1.096851110458374
1782984568274972200,8.37497216796875,0.2805163562297821,-0.30132097005844116,1.3675907850265503
1782984568285047300,8.38504736328125,0.0910596027970314,-0.30002933740615845,1.427695393562317
1782984568295121200,8.39512109375,-0.06005534902215004,-0.3149195909500122,1.261840581893921
1782984568305195000,8.405195068359374,-0.18425506353378296,-0.32764285802841187,0.872992992401123
1782984568315269000,8.41526904296875,-0.2365398406982422,-0.27422595024108887,0.34232431650161743
1782984568325343200,8.42534326171875,-0.2353944033384323,-0.23072722554206848,-0.25484639406204224
1782984568335417300,8.435417236328124,-0.18400178849697113,-0.31569644808769226,-0.8964839577674866
1782984568345492200,8.4454921875,-0.0948607325553894,-0.33915355801582336,-1.436971664428711
1782984568355566300,8.45556640625,-0.04687722772359848,-0.3004181385040283,-1.7875142097473145
1782984568365640200,8.46564013671875,-0.058938153088092804,-0.17650926113128662,-1.8711196184158325
1782984568375714300,8.47571435546875,-0.06758011132478714,-0.062429290264844894,-1.708272933959961
1782984568385788200,8.4857880859375,-0.03966405615210533,-0.05320383235812187,-1.3315706253051758
1782984568395862000,8.495862060546875,0.0256947111338377,-0.13299213349819183,-0.8756281733512878
1782984568405937200,8.505937255859376,0.11233772337436676,-0.25636839866638184,-0.47050198912620544
1782984568416011000,8.516010986328125,0.17530018091201782,-0.3088265359401703,-0.16901618242263794
1782984568426085000,8.526085205078125,0.2328692078590393,-0.26295334100723267,0.02413143590092659
1782984568436159200,8.5361591796875,0.26529210805892944,-0.16224856674671173,0.1457231193780899
1782984568446233300,8.5462333984375,0.2840210795402527,-0.11279046535491943,0.1848454773426056
1782984568456307200,8.55630712890625,0.2667451500892639,-0.0720590129494667,0.12595713138580322
1782984568466382300,8.56638232421875,0.23602478206157684,-0.008537561632692814,0.05657219886779785
1782984568476456200,8.576456298828125,0.21010716259479523,0.08465576171875,0.0009563411585986614
1782984568486530300,8.5865302734375,0.15598426759243011,0.1331484615802765,-0.07256368547677994
1782984568496604200,8.596604248046875,0.10679488629102707,0.17563307285308838,-0.15724581480026245
1782984568506678000,8.606677978515625,0.08760468661785126,0.1878114491701126,-0.1888572722673416
1782984568516752100,8.616752197265624,0.06991037726402283,0.21357566118240356,-0.15304040908813477
1782984568526827000,8.626826904296875,0.04851960018277168,0.25256142020225525,-0.09259198606014252
1782984568536901000,8.636901123046876,0.04928312823176384,0.30648136138916016,-0.03430337831377983
1782984568546975200,8.646975341796875,0.06126149371266365,0.4179050922393799,0.004233360756188631
1782984568557049300,8.65704931640625,0.055926647037267685,0.4950709939002991,-0.0068448567762970924
1782984568567123200,8.667123291015624,0.04186861962080002,0.531621515750885,-0.059365589171648026
1782984568577197300,8.677197265625,0.034208305180072784,0.6001198887825012,-0.08560704439878464
1782984568587272200,8.687272216796876,0.04632648453116417,0.7529323697090149,-0.10049837827682495
1782984568597346300,8.69734619140625,0.07381296902894974,0.9494835138320923,-0.14035364985466003
1782984568607420200,8.707420166015625,0.11199657618999481,1.1194040775299072,-0.0922287330031395
1782984568617494000,8.717493896484376,0.11686243861913681,1.1281275749206543,0.13704706728458405
1782984568627568000,8.727568115234375,0.15102706849575043,0.8608103394508362,0.4193283021450043
1782984568637642200,8.737642333984375,0.24151115119457245,0.5311549305915833,0.5427716374397278
1782984568647717000,8.747717041015624,0.2631000876426697,0.4506968557834625,0.3186911642551422
1782984568657791200,8.757791259765625,0.13026240468025208,0.6973795890808105,-0.18170961737632751
1782984568667865300,8.767865234375,0.033056486397981644,1.0470247268676758,-0.4001239836215973
1782984568677939200,8.777939208984375,0.04205131158232689,1.1078108549118042,-0.17037999629974365
1782984568688013300,8.788013427734375,0.12490252405405045,0.9894628524780273,0.29444602131843567
1782984568698087200,8.798087158203124,0.20104655623435974,0.7628483772277832,0.7094999551773071
1782984568708162300,8.808162353515625,0.14095711708068848,0.5268622040748596,0.84297114610672
1782984568718236200,8.818236083984376,-0.01696646586060524,0.3768002688884735,0.670967161655426
1782984568728310000,8.82831005859375,-0.1700955629348755,0.4376572370529175,0.3699149489402771
1782984568738384100,8.838384033203125,-0.3382219970226288,0.5364064574241638,0.2349749654531479
1782984568748458200,8.848458251953126,-0.5455754399299622,0.4887861907482147,0.37639015913009644
1782984568758532400,8.858532470703125,-0.6668930649757385,0.3799574375152588,0.6612746119499207
1782984568768607200,8.868607177734376,-0.7361270189285278,0.37334296107292175,0.8393183946609497
1782984568778681300,8.878681396484374,-0.6919693946838379,0.38604995608329773,0.7717393636703491
1782984568788755200,8.888755126953125,-0.557842493057251,0.36327728629112244,0.6342270374298096
1782984568798829300,8.898829345703126,-0.36649489402770996,0.28029105067253113,0.6163969039916992
1782984568808903200,8.908903076171875,-0.21565932035446167,0.23614488542079926,0.7251795530319214
1782984568818977000,8.91897705078125,-0.1473340541124344,0.31199198961257935,0.8146370053291321
1782984568829052200,8.92905224609375,-0.12608575820922852,0.4651162922382355,0.8519697189331055
1782984568839126000,8.9391259765625,-0.18794886767864227,0.4631844162940979,0.8093652725219727
1782984568849200000,8.9492001953125,-0.17509564757347107,0.25942012667655945,0.6445862054824829
1782984568859274200,8.959274169921875,-0.08670506626367569,-0.007867776788771152,0.3091999292373657
1782984568869348400,8.969348388671875,0.05349784716963768,-0.3507486879825592,-0.17461255192756653
1782984568879422200,8.979422119140626,0.18978697061538696,-0.6778687834739685,-0.6739498972892761
1782984568889497300,8.989497314453125,0.3478136360645294,-0.8852717280387878,-1.0484635829925537
1782984568899571200,8.9995712890625,0.5094930529594421,-0.9834752678871155,-1.2934690713882446
1782984568909645300,9.009645263671874,0.6958698630332947,-0.9297266006469727,-1.3873047828674316
1782984568919719200,9.01971923828125,0.8252425193786621,-0.840114951133728,-1.3277477025985718
1782984568929793000,9.02979296875,0.8182786107063293,-0.7706937789916992,-1.1417077779769897
1782984568939867400,9.039867431640625,0.7505823969841003,-0.7099923491477966,-0.8040621280670166
1782984568949942300,9.0499423828125,0.6726322174072266,-0.6918567419052124,-0.3880433440208435
1782984568960016400,9.060016357421874,0.5893205404281616,-0.7048095464706421,-0.006119411438703537
1782984568970090500,9.070090576171875,0.5147344470024109,-0.6647117137908936,0.30557483434677124
1782984568980164600,9.08016455078125,0.43654268980026245,-0.5356681942939758,0.5377646684646606
1782984568990238500,9.090238525390625,0.3869687616825104,-0.3617856502532959,0.6563674807548523
1782984569000312600,9.1003125,0.32177990674972534,-0.167738139629364,0.5800380706787109
1782984569010387500,9.110387451171874,0.23226386308670044,0.03416702523827553,0.3963979482650757
1782984569020461600,9.120461669921875,0.12044651806354523,0.15985225141048431,0.20756757259368896
1782984569030535400,9.130535400390626,-0.009502424858510494,0.1886942833662033,0.08558307588100433
1782984569040609300,9.140609375,-0.13533252477645874,0.20074668526649475,0.055810268968343735
1782984569050683400,9.150683349609375,-0.24816080927848816,0.25188949704170227,0.1298389583826065
1782984569060757500,9.160757568359376,-0.3607270419597626,0.295622855424881,0.2521291673183441
1782984569070832400,9.170832275390625,-0.41609495878219604,0.322332501411438,0.3634682297706604
1782984569080906500,9.180906494140626,-0.4368087351322174,0.3114132881164551,0.382030725479126
1782984569090980600,9.190980712890624,-0.45097702741622925,0.24545583128929138,0.2971656322479248
1782984569101054500,9.201054443359375,-0.43421775102615356,0.14161092042922974,0.1597111076116562
1782984569111128600,9.211128662109376,-0.39368709921836853,0.07973131537437439,0.016535300761461258
1782984569121202400,9.221202392578125,-0.32697173953056335,0.07994969189167023,-0.026879550889134407
1782984569131276300,9.2312763671875,-0.28720274567604065,0.11353721469640732,0.018616028130054474
1782984569141351400,9.241351318359374,-0.2675808370113373,0.15257330238819122,0.11771997809410095
1782984569151425300,9.25142529296875,-0.2935378849506378,0.13428030908107758,0.15319408476352692
1782984569161499400,9.26149951171875,-0.2598709762096405,0.22350339591503143,-0.01930844970047474
1782984569171573500,9.271573486328125,-0.24485954642295837,0.39644402265548706,-0.5068890452384949
1782984569181647600,9.281647705078125,-0.3149789869785309,0.5036658048629761,-1.2002190351486206
1782984569191722500,9.291722412109374,-0.42760273814201355,0.557466983795166,-1.7767531871795654
1782984569201796600,9.301796630859375,-0.45998623967170715,0.5645520687103271,-1.8064162731170654
1782984569211870500,9.311870361328126,-0.5350644588470459,0.5963779091835022,-1.3289916515350342
1782984569221944300,9.3219443359375,-0.5804340839385986,0.655725359916687,-0.7657381892204285
1782984569232018400,9.332018310546875,-0.4448506832122803,0.627465009689331,-0.381730318069458
1782984569242092300,9.34209228515625,-0.26985013484954834,0.40198686718940735,-0.18349312245845795
1782984569252167400,9.35216748046875,-0.025791117921471596,0.14455504715442657,-0.1354702115058899
1782984569262241300,9.3622412109375,0.24075429141521454,0.06829090416431427,-0.21497276425361633
1782984569272315400,9.3723154296875,0.3963918089866638,0.19545578956604004,-0.2607381045818329
1782984569282389500,9.382389404296875,0.39325886964797974,0.33420246839523315,-0.08074171841144562
1782984569292463600,9.392463623046876,0.3778141438961029,0.49782976508140564,0.3488727807998657
1782984569302537500,9.402537353515624,0.31818142533302307,0.6091709136962891,0.6740665435791016
1782984569312612600,9.412612548828125,0.19379903376102448,0.6662986874580383,0.7109262943267822
1782984569322686500,9.4226865234375,0.04621037095785141,0.4847155511379242,0.524371862411499
1782984569332760300,9.43276025390625,-0.06911621987819672,-0.03519580513238907,0.38001418113708496
1782984569342834400,9.44283447265625,-0.06840169429779053,-0.48185184597969055,0.5425341129302979
1782984569352908300,9.452908203125,-0.0386429987847805,-0.7280067801475525,0.8492215871810913
1782984569362982400,9.462982421875,-0.03062368929386139,-0.7268205881118774,1.0939970016479492
1782984569373057300,9.473057373046874,-0.034032270312309265,-0.5806543231010437,1.2329809665679932
1782984569383131400,9.48313134765625,-0.07721196115016937,-0.4328997731208801,1.321223258972168
1782984569393205500,9.49320556640625,-0.17240531742572784,-0.42472440004348755,1.3358887434005737
1782984569403279600,9.503279541015624,-0.2827230393886566,-0.6056358218193054,1.1581099033355713
1782984569413353500,9.513353515625,-0.33144664764404297,-0.84550940990448,0.7791474461555481
1782984569423427300,9.52342724609375,-0.35175883769989014,-0.9698122143745422,0.17826507985591888
1782984569433502500,9.53350244140625,-0.3287011981010437,-0.8981872797012329,-0.533263623714447
1782984569443576300,9.543576416015625,-0.28949013352394104,-0.6925462484359741,-1.1887775659561157
1782984569453650400,9.553650390625,-0.24338576197624207,-0.5004755854606628,-1.6439615488052368
1782984569463724300,9.563724365234375,-0.2154470682144165,-0.30716660618782043,-1.8090925216674805
1782984569473798400,9.57379833984375,-0.2029736191034317,-0.14585253596305847,-1.6607320308685303
1782984569483872500,9.58387255859375,-0.20478084683418274,-0.10233116149902344,-1.2884008884429932
1782984569493946600,9.593946533203125,-0.18493948876857758,-0.15744954347610474,-0.7669366002082825
1782984569504021500,9.604021484375,-0.1064785048365593,-0.30922549962997437,-0.23865704238414764
1782984569514095600,9.614095703125,0.015797605738043785,-0.4853571057319641,0.14108522236347198
1782984569524169500,9.62416943359375,0.13598579168319702,-0.5982993841171265,0.3351452350616455
1782984569534243300,9.634243408203124,0.24193540215492249,-0.5798306465148926,0.38042670488357544
1782984569544317400,9.6443173828125,0.31637927889823914,-0.4673011302947998,0.3098295032978058
1782984569554391300,9.654391357421876,0.3185385763645172,-0.3314250707626343,0.12705515325069427
1782984569564466400,9.664466552734375,0.2544908821582794,-0.2498180866241455,-0.10014151781797409
1782984569574540300,9.674540283203125,0.1653309017419815,-0.23560479283332825,-0.29849374294281006
1782984569584614400,9.684614501953124,0.07710304111242294,-0.2187855988740921,-0.4355301558971405
1782984569594688500,9.6946884765625,0.009079781360924244,-0.2016359120607376,-0.48325827717781067
1782984569604762600,9.7047626953125,-0.05819965526461601,-0.15359222888946533,-0.392411470413208
1782984569614837500,9.71483740234375,-0.10120491683483124,-0.10007812827825546,-0.18983490765094757
1782984569624911600,9.72491162109375,-0.11890508234500885,-0.10337166488170624,-0.0026527747977524996
1782984569634985500,9.7349853515625,-0.12368439137935638,-0.0930926576256752,0.0999433770775795
1782984569645059300,9.745059326171875,-0.12053599953651428,-0.07794859260320663,0.12106623500585556
1782984569655133400,9.755133544921875,-0.1257139891386032,-0.031621843576431274,0.09042390435934067
1782984569665207300,9.765207275390624,-0.159352645277977,0.015266038477420807,0.05107330530881882
1782984569675282400,9.775282470703125,-0.20359094440937042,0.013479056768119335,0.06665252894163132
1782984569685356300,9.785356201171876,-0.2231353521347046,0.004034955520182848,0.13363395631313324
1782984569695430400,9.795430419921875,-0.21686413884162903,-0.04584232345223427,0.22682222723960876
1782984569705504500,9.80550439453125,-0.16057130694389343,0.014179201796650887,0.36643683910369873
1782984569715578600,9.81557861328125,-0.11298327893018723,0.1588117480278015,0.5525484085083008
1782984569725652500,9.825652587890625,-0.10682524740695953,0.2754440903663635,0.6905148029327393
1782984569735727600,9.8357275390625,-0.08154279738664627,0.3669804036617279,0.621061384677887
1782984569745801500,9.845801513671875,-0.04109284281730652,0.3234233260154724,0.23443247377872467
1782984569755875300,9.855875244140625,-0.006846188101917505,0.40639039874076843,-0.3430505692958832
1782984569765949400,9.865949462890624,0.008753810077905655,0.7089260220527649,-0.8248257040977478
1782984569776023300,9.876023193359375,-0.031794413924217224,1.0419143438339233,-0.7931855320930481
1782984569786097400,9.886097412109375,-0.003931624814867973,1.143642544746399,-0.1855703890323639
1782984569796172300,9.89617236328125,0.0775347352027893,0.94943767786026,0.5221273899078369
1782984569806246400,9.906246337890625,0.10593921691179276,0.5975155830383301,0.8783848285675049
1782984569816320500,9.916320556640626,0.049311887472867966,0.09953831136226654,0.6423065066337585
1782984569826394600,9.92639453125,-0.0015544871566817164,-0.3368890881538391,0.25367140769958496
1782984569836468500,9.936468505859375,0.01697658747434616,-0.3082435727119446,0.046115562319755554
1782984569846542300,9.946542236328124,0.06454996764659882,0.24818158149719238,0.0990632027387619
1782984569856617500,9.956617431640625,0.1395384520292282,0.8758769035339355,0.38171541690826416
1782984569866691300,9.96669140625,0.13121473789215088,1.0899889469146729,0.7444174289703369
1782984569876765400,9.976765380859375,0.08677910268306732,0.7404962182044983,1.058082103729248
1782984569886839300,9.98683935546875,0.0036304211243987083,-0.018514029681682587,1.192175269126892
1782984569896913400,9.996913330078126,-0.042692601680755615,-0.6127539277076721,1.1105698347091675
1782984569906987500,10.006987548828125,-0.02148132398724556,-0.8177134990692139,0.9725890755653381
1782984569917062400,10.0170625,0.028329908847808838,-0.5696059465408325,0.8841375112533569
1782984569927136500,10.027136474609375,0.06407511979341507,-0.15319088101387024,0.8844664096832275
1782984569937211400,10.03721142578125,0.051079161465168,0.2269420623779297,1.0402756929397583
1782984569947285500,10.047285400390624,0.06000954285264015,0.3970339000225067,1.391075849533081
1782984569957359600,10.057359619140625,0.060755226761102676,0.2769405245780945,1.6942943334579468
1782984569967433500,10.06743359375,0.02755519561469555,0.07438981533050537,1.7729824781417847
1782984569977508600,10.077508544921875,-0.011901666410267353,-0.12938834726810455,1.391619086265564
1782984569987582500,10.08758251953125,-0.0625360831618309,-0.28459978103637695,0.5305445790290833
1782984569997656300,10.09765625,-0.13844576478004456,-0.3899903893470764,-0.5074648261070251
1782984570007730400,10.10773046875,-0.17181196808815002,-0.399367094039917,-1.3730566501617432
1782984570017804300,10.11780419921875,-0.1108626052737236,-0.32900744676589966,-1.8728041648864746
1782984570027878400,10.12787841796875,0.010528541170060635,-0.08349595963954926,-1.9771376848220825
1782984570037953300,10.137953369140625,0.154850035905838,0.16199688613414764,-1.80545973777771
1782984570048027400,10.14802734375,0.3308176100254059,0.282207727432251,-1.41351318359375
1782984570058101500,10.1581015625,0.46740660071372986,0.08910483866930008,-0.9322179555892944
1782984570068175600,10.168175537109375,0.46982449293136597,-0.26895663142204285,-0.48830097913742065
1782984570078249500,10.17824951171875,0.41812774538993835,-0.5351643562316895,-0.11810293793678284
1782984570088323300,10.1883232421875,0.3669590950012207,-0.7023008465766907,0.1406838744878769
1782984570098398500,10.1983984375,0.3022184371948242,-0.7035456299781799,0.28804245591163635
1782984570108472300,10.208472412109375,0.24811473488807678,-0.564339280128479,0.2971171736717224
1782984570118546400,10.21854638671875,0.22770586609840393,-0.3357178270816803,0.192190483212471
1782984570128620300,10.228620361328124,0.18927538394927979,-0.19994507730007172,0.049667954444885254
1782984570138694400,10.2386943359375,0.15860909223556519,-0.15344440937042236,-0.05552531033754349
1782984570148768500,10.2487685546875,0.175287663936615,-0.169308602809906,-0.10981518030166626
1782984570158843400,10.258843505859375,0.18495973944664001,-0.21386462450027466,-0.1401219516992569
1782984570168917500,10.26891748046875,0.1787143498659134,-0.24996936321258545,-0.1574775129556656
1782984570178991600,10.27899169921875,0.176951602101326,-0.30563661456108093,-0.17627009749412537
1782984570189065500,10.2890654296875,0.17174673080444336,-0.35524678230285645,-0.19386906921863556
1782984570199139300,10.299139404296875,0.15186916291713715,-0.4068971872329712,-0.1623106151819229
1782984570209213400,10.30921337890625,0.1443185657262802,-0.47384825348854065,0.026218287646770477
1782984570219288300,10.319288330078125,0.11599823832511902,-0.48961204290390015,0.42355766892433167
1782984570229362400,10.329362548828126,-0.027651067823171616,-0.3395487666130066,0.5982919335365295
1782984570239436300,10.339436279296875,-0.10984794050455093,-0.12498001754283905,0.658859372138977
1782984570249510400,10.349510498046875,-0.09704292565584183,-0.0909927561879158,0.7917631268501282
1782984570259584500,10.35958447265625,-0.040472593158483505,-0.08245226740837097,0.9487002491950989
1782984570269658600,10.36965869140625,0.02341238223016262,0.023375097662210464,0.9763097763061523
1782984570279733500,10.3797333984375,0.10064298659563065,0.20691323280334473,0.9881411194801331
1782984570289807600,10.3898076171875,0.19394923746585846,0.2907775044441223,1.1663649082183838
1782984570299881500,10.399881591796875,0.21139799058437347,0.12125079333782196,1.53896164894104
