time,seconds_elapsed,z,y,x
1782987749066447600,0.069447509765625,1.6263053168028592,-0.3000789251178503,0.658214244819805
1782987749076522500,0.0795224609375,1.228859657910466,-1.0631287052229046,-0.04754208789765835
1782987749086596600,0.0895966796875,0.7085393144994974,-0.8965051876097917,-0.5203230468247085
1782987749096671500,0.09967138671875,0.3723012807637453,-0.7466004573464393,-0.6608386019740253
1782987749106745600,0.10974560546875,0.31763562459647654,-0.7639446831181645,-0.5240170425044373
1782987749116820500,0.119820556640625,0.4097971909433603,-0.8899471442684531,-0.32212694466635583
1782987749126894600,0.12989453125,0.5951981820017099,-1.0036150245025754,-0.19045052953287958
1782987749136969500,0.139969482421875,0.8567676359832286,-1.1000754570871591,-0.11942922023981808
1782987749147043600,0.150043701171875,1.0858832656055688,-1.2571245061472058,-0.07282244043089449
1782987749157118500,0.160118408203125,1.0869634620577096,-1.3908175218001007,0.10466134776212274
1782987749167192600,0.170192626953125,1.079780857077241,-1.5173384538665413,0.32294118365868923
1782987749177267500,0.180267333984375,1.1487854197204113,-1.558001595905423,0.4603546080742031
1782987749187341600,0.190341552734375,1.29481769246459,-1.5671359194755554,0.6136130326796323
1782987749197416400,0.20041650390625,1.400119310891628,-1.5618760992512106,0.8001209620665758
1782987749207490600,0.210490478515625,1.3977327080160378,-1.536018604417145,0.9812957867972553
1782987749217565400,0.2205654296875,1.302954821690917,-1.423152395954728,1.002673286673054
1782987749227639600,0.2306396484375,1.2174918761998414,-1.2328484352856874,0.8942207299344241
1782987749237714400,0.24071435546875,1.061705102160573,-1.1088351021260023,0.8773920524694026
1782987749247788500,0.25078857421875,0.8702747678101063,-1.041432421721518,0.8478391371835022
1782987749257863400,0.260863525390625,0.7545195599079132,-1.011696624149382,0.6762232181105763
1782987749267937500,0.2709375,0.6350596522688865,-1.0215151305913925,0.45619091252349314
1782987749278012400,0.281012451171875,0.3927817587345838,-1.117938738296926,0.24524689940772948
1782987749288086500,0.29108642578125,0.14005904355347157,-1.1547533882141112,-0.007831716538965701
1782987749298161400,0.301161376953125,-0.0810059660822153,-1.0970865044042468,-0.2567810506612062
1782987749308235500,0.311235595703125,-0.2593786659389734,-1.022409449082613,-0.37004685290046035
1782987749318310400,0.321310302734375,-0.27489772211015223,-1.0248112495273352,-0.36638109693452714
1782987749328384500,0.331384521484375,-0.1297831487327814,-1.0404366886824368,-0.36940088314712044
1782987749338459400,0.34145947265625,0.07198796236813068,-1.05869861382097,-0.3118343179065734
1782987749348533500,0.351533447265625,0.4396002085328102,-1.0876923608541489,-0.2595324682611972
1782987749358608400,0.3616083984375,0.8379074526906013,-1.1483917442277074,-0.18317089391872285
1782987749368682500,0.3716826171875,1.1573533415794373,-1.2539715950742363,-0.06034041386805474
1782987749378757400,0.38175732421875,1.4183154773175715,-1.3635869850471616,0.08268113275282084
1782987749388831500,0.39183154296875,1.542548590707779,-1.4517252872273325,0.25789770666621625
1782987749398906400,0.40190625,1.4703344183683396,-1.5301523427322505,0.42251565661057827
1782987749408980500,0.41198046875,1.2619167088598011,-1.5827961376830935,0.5822844860233366
1782987749419055400,0.422055419921875,0.9560884264349937,-1.5373624202415346,0.5992606822002678
1782987749429129700,0.432129638671875,0.6704997989624738,-1.4481652566581964,0.5788030736483634
1782987749439204400,0.442204345703125,0.3942553384184837,-1.3872121907845139,0.49484921754598615
1782987749449278700,0.45227880859375,0.18913024071455,-1.424937233544886,0.4022119965113699
1782987749459353300,0.462353271484375,-0.06201075823307037,-1.5389979124888777,0.2981638122115284
1782987749469427700,0.472427734375,-0.28448271205723286,-1.5924682213917374,0.15918101958744227
1782987749479502600,0.482502685546875,-0.4845119479268789,-1.5741308929294346,0.08451781012807041
1782987749489576700,0.49257666015625,-0.6119488257944583,-1.5335691654384136,0.06031031099073589
1782987749499651600,0.502651611328125,-0.6037193421095609,-1.4540078452065586,0.14146127503421158
1782987749509725700,0.5127255859375,-0.3813058404743671,-1.3482137670874594,0.26680826795045287
1782987749519800600,0.522800537109375,-0.14142390216588974,-1.2706348528444766,0.43011418544817714
1782987749529874700,0.532874755859375,0.06941840414106845,-1.305610304635763,0.6081185269165784
1782987749539949600,0.542949462890625,0.2976484831005335,-1.4465356096297501,0.7336840579543262
1782987749550023700,0.553023681640625,0.4570195453673601,-1.5869219854414462,0.8977994652040302
1782987749560098600,0.5630986328125,0.3954144453257322,-1.739119795078039,1.0521645358771086
1782987749570172700,0.573172607421875,0.31662440172731876,-1.9374287830263375,1.1634534120202065
1782987749580246500,0.58324658203125,0.332724472656846,-2.0131383962661027,1.1261718752436338
1782987749590321700,0.59332177734375,0.24548107348978518,-1.9780390258342027,1.0034697708129883
1782987749600395800,0.603395751953125,0.07751227874755859,-1.852208414119482,0.8349768060661852
1782987749610470700,0.613470703125,-0.12514496753811835,-1.6195201867073774,0.767347842625156
1782987749620544800,0.623544677734375,-0.39515959378182886,-1.3201637306451797,0.7545299351714551
1782987749630619600,0.63361962890625,-0.754887224176526,-1.071252098184824,0.814206697499007
1782987749640693800,0.64369384765625,-1.0567916111558675,-0.9353308850884438,0.8659697640925645
1782987749650768600,0.6537685546875,-1.1977169161498546,-0.7901812403976917,0.8881362223889678
1782987749660842800,0.6638427734375,-1.201897416704893,-0.6536690756708383,1.0299704589214176
1782987749670917600,0.673917724609375,-1.1972136428028344,-0.5772703111231327,1.1359728460289538
1782987749680991700,0.68399169921875,-1.2181740132451058,-0.5294874002069234,1.0185426906518638
1782987749691066600,0.694066650390625,-1.325872171419859,-0.3797960204333067,0.622426599862799
1782987749701140700,0.704140625,-1.545962783065438,-0.17025661341845988,0.08449563482888042
1782987749711215600,0.714215576171875,-1.6848878541529178,0.10303016636371612,-0.3502678742624819
1782987749721289700,0.724289794921875,-1.7010522224903106,0.4842196869820356,-0.5581522806119174
1782987749731364600,0.734364501953125,-1.6499404594123364,0.795952809536457,-0.5396331658419221
1782987749741438700,0.744438720703125,-1.57285254355669,0.9630120882183313,-0.3814049899999052
1782987749751513600,0.754513671875,-1.2774229055494069,1.1111211672365664,-0.3265828280966729
1782987749761587700,0.764587646484375,-0.736123486995697,1.215260171625018,-0.4116131543241441
1782987749771662600,0.77466259765625,-0.09319617009162902,1.2274416078060866,-0.4457067087143659
1782987749781736700,0.78473681640625,0.5543015234678983,1.100250813654065,-0.4410775145437568
1782987749791811600,0.7948115234375,1.0575912371009588,0.9910077641248702,-0.41939058339260515
1782987749801885700,0.8048857421875,1.3526917892843484,0.9626187049865722,-0.42741197728477415
1782987749811960600,0.814960693359375,1.4058330123633145,0.963423007106781,-0.5058882787588983
1782987749822034700,0.82503466796875,1.2911650151759386,1.0534440542936325,-0.6210675864692777
1782987749832109600,0.835109619140625,1.1125795493513344,1.174396246317029,-0.6812414115987717
1782987749842183700,0.84518359375,1.0234913991004229,1.2792676566332577,-0.7330897453229874
1782987749852258600,0.855258544921875,1.0818436348259448,1.316446171426773,-0.7281199210211634
1782987749862332700,0.865332763671875,1.233544600856304,1.088325982582569,-0.737493825500831
1782987749872407600,0.875407470703125,1.4836404746651648,0.8280378005832433,-0.6847755040090531
1782987749882481700,0.885481689453125,1.765838290655613,0.7310819856971502,-0.6883179258562624
1782987749892556500,0.895556640625,2.0173820251852272,0.6326631125211716,-0.5869868184953928
1782987749902630700,0.905630615234375,2.155719067251682,0.5392986001253127,-0.3410961412914097
1782987749912705500,0.91570556640625,2.1697148593783377,0.5030272633045911,-0.1266034957833588
1782987749922779600,0.925779541015625,2.0677309871971605,0.476012999650836,-0.03579787409007549
1782987749932854500,0.9358544921875,1.9331483292281626,0.46479836267530916,-0.07027852810174226
1782987749942928600,0.9459287109375,1.8662632429569959,0.42412557602524753,-0.159577398493886
1782987749953003500,0.95600341796875,1.671878734976053,0.3633680327236652,-0.24381182510331273
1782987749963077600,0.96607763671875,1.3781699294120073,0.29798575223088264,-0.4443142314426601
1782987749973152500,0.976152587890625,1.1398901656031608,0.22587270217835903,-0.6344971960805356
1782987749983225900,0.986225830078125,1.0140361730128526,0.052982233124971384,-0.74507923912853
1782987749993301000,0.996301025390625,1.0040455248743294,-0.10994506031870842,-0.7802803163692354
1782987750003375000,1.006375,1.091798627129197,-0.21907821973264216,-0.7885776045933366
1782987750013450000,1.016449951171875,1.1786083110541103,-0.29237200400233265,-0.783632549406588
1782987750023524000,1.026524169921875,1.238807635951042,-0.3537088084965944,-0.7430809049181639
1782987750033599000,1.036598876953125,1.2527724484175442,-0.45170916399955746,-0.7300114338561892
1782987750043673000,1.046673095703125,1.2659633539021014,-0.5614782832294702,-0.685635993295908
1782987750053748000,1.056748046875,1.1894254731446503,-0.6952899568259716,-0.6924759223185479
1782987750063822000,1.066822021484375,0.9934814607620238,-0.7701210336655377,-0.7604749611809849
1782987750073897000,1.07689697265625,0.8124836730986833,-0.7939443923234939,-0.810992265497148
1782987750083971000,1.08697119140625,0.5698568199962377,-0.853775468429923,-0.7421110369727015
1782987750094046000,1.0970458984375,0.28003274691104885,-0.9726169519096612,-0.6709039958491921
1782987750104120000,1.1071201171875,0.060767480173707006,-1.0886153209179639,-0.6435873882479966
1782987750114195000,1.11719482421875,-0.07905658558011054,-1.194027413982153,-0.6559668312191963
1782987750124269000,1.12726904296875,-0.08633212954103946,-1.335970956107974,-0.6034807110480964
1782987750134344000,1.137343994140625,-0.06252513749599456,-1.48534669406116,-0.48308103834092614
1782987750144418000,1.14741796875,0.007992752319574355,-1.5917331851154566,-0.36697657860964533
1782987750154493000,1.157492919921875,0.04914660048484802,-1.7182792516231535,-0.2534051444873214
1782987750164567000,1.167567138671875,-0.0006347907721996307,-1.7645839066803455,-0.18775266875103114
1782987750174642000,1.177641845703125,-0.08051555221676826,-1.7540110747396944,-0.14473521867096423
1782987750184716000,1.187716064453125,-0.13145371229350566,-1.7008710207045077,-0.10490575097724794
1782987750194791000,1.197791015625,-0.27578561086058617,-1.583330682951212,-0.022448270912468433
1782987750204865000,1.207864990234375,-0.4748889640569687,-1.5398375781834124,0.07865633421614765
1782987750214940000,1.21793994140625,-0.5786509518265723,-1.6189298195987938,0.27573914137035604
1782987750225014000,1.228013916015625,-0.43499709865152836,-1.8381921637266874,0.6753340872511268
1782987750235089000,1.2380888671875,-0.15599135670065878,-1.9668945314854382,0.9038434215433895
1782987750245163000,1.2481630859375,-0.06943710884153842,-2.0356886662483213,0.9469121634192764
1782987750255238100,1.258238037109375,-0.3303536518722772,-1.8648668201625347,0.8888220857612789
1782987750265312000,1.26831201171875,-0.985062591984868,-1.5219950475007296,0.8485572953902184
1782987750275387100,1.27838720703125,-1.9210417118489742,-1.0801403380393981,0.7702000902511179
1782987750285461000,1.2884609375,-2.7194097658336163,-0.462064553797245,0.5885175351940095
1782987750295536000,1.2985361328125,-3.00090674007833,0.1458697756588459,0.4717002510182559
1782987750305610000,1.30860986328125,-2.667063492524624,0.482754875126481,0.5228048537030816
1782987750315685000,1.31868505859375,-1.8469664218127726,0.5245242248415947,0.7182260112553834
1782987750325759000,1.328759033203125,-1.007086207744479,0.37603696016073224,1.0488828838579356
1782987750335834000,1.338834228515625,-0.3209621386706829,0.20979016690552232,1.177201366865635
1782987750345908000,1.348907958984375,0.17291969514787195,0.17930793488025665,1.0047473895333707
1782987750355983000,1.358983154296875,0.4676069903552532,0.23378362143337725,0.7493178996115922
1782987750366057000,1.369056884765625,0.5834469539314509,0.26740181339681146,0.5177661288835108
1782987750376132000,1.379132080078125,0.630944618165493,0.3354267173528671,0.31285467393025757
1782987750386206000,1.3892060546875,0.6384358507037162,0.42611762662529945,0.20114830302745101
1782987750396281000,1.399281005859375,0.6461486170381308,0.5353764582455158,0.1831198943838477
1782987750406355000,1.40935498046875,0.5057160639971494,0.6138695647239685,0.21822233355566859
1782987750416430000,1.41943017578125,0.2342600067734718,0.6712555857658385,0.26283625904694197
1782987750426504000,1.42950390625,-0.06153554193675518,0.7423609200805426,0.17012582664564252
1782987750436578000,1.439578125,-0.27647885382175447,0.7269722122907638,0.051194911316782235
1782987750446653000,1.44965283203125,-0.4282032007277012,0.7378215230852365,-0.058418286699056625
1782987750456727000,1.45972705078125,-0.5109457813441753,0.7532166606158017,-0.14307678393945097
1782987750466802000,1.469802001953125,-0.4852583823800087,0.8111462870150804,-0.22798647946193812
1782987750476877000,1.479876953125,-0.3487824580103159,0.921624431297183,-0.26536080908849835
1782987750486951000,1.489950927734375,-0.07888648971021175,1.030473513072729,-0.2662745629325509
1782987750497025000,1.50002490234375,0.29300445668697356,1.1058622237950564,-0.26491438049525023
1782987750507100000,1.510099853515625,0.7373200033038854,1.1609200941503046,-0.26619667539075015
1782987750517174000,1.520174072265625,1.1400550007760524,1.1286954023718834,-0.25216215868890285
1782987750527249000,1.530248779296875,1.4420593409985303,1.083385603570938,-0.2091344794757664
1782987750537323000,1.540322998046875,1.5987585537075995,1.0156500379502773,-0.21039500093087551
1782987750547398000,1.55039794921875,1.6770698738783596,0.9526397472858429,-0.30034897423088547
1782987750557472000,1.560471923828125,1.8034908527016638,0.8469792324185371,-0.38982656219080086
1782987750567547000,1.570546875,1.9006255312860012,0.7144587676763534,-0.4920366443432867
1782987750577621000,1.58062109375,1.8810171599745749,0.5884492922633886,-0.5968640693873166
1782987750587695900,1.59069580078125,1.7866040153086185,0.5109364289939403,-0.6874616012878716
1782987750597770000,1.60077001953125,1.5894769306212664,0.48966801551580424,-0.6553738337621092
1782987750607844900,1.610844970703125,1.3319050218433142,0.5412433044523001,-0.5658510914862156
1782987750617919000,1.6209189453125,1.1535580409497022,0.6291226634353398,-0.46626522035747764
1782987750627993900,1.630993896484375,1.0519085152894259,0.6979670670807361,-0.236942523855716
1782987750638068000,1.64106787109375,0.9725888948589563,0.651605128878355,0.03698752226606011
1782987750648143000,1.65114306640625,1.00171328253448,0.5270914449810982,0.31215470896735786
1782987750658217000,1.661217041015625,1.0435545284420251,0.3340162660330534,0.5353656445905566
1782987750668292000,1.6712919921875,0.9788070387214421,0.1854530135065317,0.6280893748648464
1782987750678366000,1.681365966796875,0.848864900034666,0.14082535175085067,0.5744660673573613
1782987750688441000,1.691441162109375,0.6129179630875587,0.06075637425780296,0.5410889906734228
1782987750698515000,1.701514892578125,0.24772972919940947,-0.04981880065798759,0.5308692099541426
1782987750708590000,1.711590087890625,-0.07017711355388163,-0.15566168635487557,0.5119391762956976
1782987750718664000,1.721663818359375,-0.28425182591080667,-0.21875614817142486,0.5261266916021704
1782987750728739000,1.731739013671875,-0.414855643376708,-0.2397550970584154,0.5631649211421609
1782987750738813000,1.74181298828125,-0.4553331997156143,-0.2845318118959665,0.5839294767513871
1782987750748888000,1.75188818359375,-0.5182546430528163,-0.4070966998130083,0.6215820387974381
1782987750758962000,1.7619619140625,-0.6922761619627475,-0.5506476771354675,0.5639809137001633
1782987750769037000,1.772037109375,-0.9195902951210737,-0.6552168896347283,0.38694574605748056
1782987750779111000,1.78211083984375,-1.1734779624283314,-0.7061404366642237,0.19182693245261906
1782987750789186000,1.79218603515625,-1.3988380389094353,-0.7288397597283125,0.04611906935721635
1782987750799260000,1.802260009765625,-1.5845546717882155,-0.6975076328754425,0.07237170098870992
1782987750809335000,1.8123349609375,-1.8417618389070034,-0.6986883670926094,0.2606935479298234
1782987750819409000,1.822408935546875,-1.519099326059222,-0.7720400190293788,0.631977760605514
1782987750829484000,1.832484130859375,-0.6524439177900553,-1.136512213602662,1.2479602258302271
1782987750839558000,1.842557861328125,-0.48113867210149763,-1.4837509493023155,1.064996106529981
1782987750849633000,1.852633056640625,-0.9862556011617183,-1.4704150823891162,0.519901095085591
1782987750859707000,1.862706787109375,-2.1727596339017152,-1.5042004476130009,-0.2838756860747933
1782987750869782000,1.872781982421875,-3.1414509368002412,-1.588024393725395,-1.0322741327539087
1782987750879855900,1.88285595703125,-3.650679977354407,-1.7237866168677807,-1.5819009424090384
1782987750889931000,1.892930908203125,-3.5171687480092046,-1.5369985553652048,-1.8842261851489543
1782987750900004900,1.9030048828125,-2.75851194216609,-1.0248439827531575,-1.6708970304623245
1782987750910080000,1.913080078125,-1.5515098957985638,-0.6716396166473627,-0.7224367608182132
1782987750920153900,1.92315380859375,-0.2278998240917921,-0.3979372418016195,0.13174670389071105
1782987750930229000,1.93322900390625,0.6775239985108376,-0.30653380034565925,0.6319251536354422
1782987750940302800,1.943302734375,0.9308698140263557,-0.3227741565287113,0.7258953768394887
1782987750950378000,1.9533779296875,0.7086994734972715,-0.1818979513734579,0.21416078320518134
1782987750960451800,1.963451904296875,0.3124509154349565,-0.01703296786546707,-0.561438681871444
1782987750970527000,1.97352685546875,-0.3225228121161461,0.07228373044431209,-1.2990377943776548
1782987750980601600,1.9836015625,-1.0797943010807036,0.0969920552432537,-1.8463408372603356
1782987750990676500,1.993676513671875,-1.6190367871046065,0.11253741489946842,-2.25942698674649
1782987751000750600,2.00375048828125,-1.7764532081723212,0.18885726899206637,-2.492138887295127
1782987751010825500,2.013825439453125,-1.5550994447231292,0.3281950125336647,-2.4315309815973043
1782987751020899600,2.023899658203125,-1.0692296524465084,0.4224252018481493,-2.100395823958516
1782987751030974500,2.033974365234375,-0.4145388325124979,0.5516197370380163,-1.6436489580526947
1782987751041048600,2.044048583984375,0.3521972348898649,0.7787526684105396,-1.2341378905743359
1782987751051123500,2.05412353515625,1.113684295722842,1.0037252068787812,-0.8897966298818588
1782987751061197600,2.064197509765625,1.6914666480213403,1.147191428527236,-0.6497456916820258
1782987751071272400,2.0742724609375,2.0668506972312928,1.2256342661231756,-0.47736843284778296
1782987751081346600,2.0843466796875,2.3461335025578736,1.3020195866674185,-0.38329504153020677
1782987751091421400,2.09442138671875,2.507024906259775,1.3483031989365815,-0.33277868706211444
1782987751101495600,2.10449560546875,2.546449154153466,1.3441589387387036,-0.2156288099311292
1782987751111570700,2.11457080078125,2.3999802435576916,1.2961311131507158,-0.089793522041291
1782987751121644500,2.12464453125,2.1433447388470173,1.2700047382473945,0.033168694630265234
1782987751131719700,2.1347197265625,1.8890134194254875,1.2901432709127665,0.11723697089254856
1782987751141793500,2.14479345703125,1.6534277170062064,1.2187579506129025,0.21756270060315727
1782987751151868700,2.15486865234375,1.365441965264082,1.1526841807246206,0.2896690286539495
1782987751161942500,2.164942626953125,0.9628443304359913,1.0540636474967002,0.432390423284471
1782987751172016400,2.175016357421875,0.5520739105463027,0.9000871377497911,0.5597922298386693
1782987751182091500,2.185091552734375,0.2593915254205465,0.6727724200695753,0.49192616970613595
1782987751192166700,2.195166748046875,0.12070318569839,0.5044201789677143,0.27789661166518925
1782987751202240500,2.205240478515625,0.15449030448794365,0.40287586724758145,0.04851619362682104
1782987751212314400,2.215314453125,0.2349579259097576,0.2688426598548889,-0.14821341617554426
1782987751222389500,2.225389404296875,0.336635508620739,0.04933130940198898,-0.3350090033974498
1782987751232463600,2.235463623046875,0.4696767823666334,-0.1607218923538923,-0.5267566600687802
1782987751242538500,2.24553857421875,0.6056821666151285,-0.36623218998312945,-0.7010208286281675
1782987751252612600,2.255612548828125,0.7543208224654198,-0.49572775394618507,-0.8841208492677658
1782987751262687500,2.2656875,0.8130740402072668,-0.5395552052348852,-0.9237222072940319
1782987751272761600,2.27576171875,0.737191993010044,-0.4983189394831657,-0.8908770455297083
1782987751282836500,2.28583642578125,0.7127005258321761,-0.415980263492465,-0.8076919087775051
1782987751292910600,2.29591064453125,0.6511334197133779,-0.3844400468468666,-0.6052056351445615
1782987751302985500,2.3059853515625,0.3880336874246597,-0.4385398858249187,-0.41732364092543717
1782987751313059600,2.3160595703125,0.21529811667203902,-0.5385732084602117,-0.29019875161647796
1782987751323134500,2.326134521484375,0.0939513723731041,-0.665915393781662,-0.20586115689352152
1782987751333208600,2.33620849609375,-0.03838789058327675,-0.8333692247390747,-0.13647753180488945
1782987751343283500,2.346283447265625,-0.13259060736894607,-0.9114631027668714,-0.09483283138275146
1782987751353357600,2.356357666015625,-0.1544400356054306,-0.8951298076033591,-0.11139482073560357
1782987751363432400,2.366432373046875,-0.1561217050820589,-0.8638643162459134,-0.1471868496067822
1782987751373506600,2.376506591796875,-0.18950725733339785,-0.8102665815711021,-0.11037614521235227
1782987751383581400,2.38658154296875,-0.2929132712721825,-0.7443243291079997,-0.09362111750543117
1782987751393655600,2.396655517578125,-0.35447862382531165,-0.6615712270975113,-0.045320320194959636
1782987751403730400,2.40673046875,-0.37832945501208304,-0.6452309176713228,0.1518767609886825
1782987751413804500,2.416804443359375,-0.22010288660526275,-0.809725898823142,0.513461417426914
1782987751423879400,2.42687939453125,0.1570762293279171,-0.9643979896187782,0.8669844940930604
1782987751433953500,2.43695361328125,0.4441121329993009,-1.007815691062808,1.1122582084424792
1782987751444028400,2.4470283203125,0.4433680366337299,-0.9155091632872819,1.2447729740962385
1782987751454102500,2.4571025390625,0.050340194183588025,-0.7225175709694623,1.1485361211344598
1782987751464177400,2.467177490234375,-0.5933645368337631,-0.509655741533637,0.7984310362182557
1782987751474251500,2.47725146484375,-1.27152391063869,-0.2860223427146673,0.41401831576973197
1782987751484326400,2.487326416015625,-1.8839409384667871,0.015535422784090041,0.016714695696532725
1782987751494400500,2.497400390625,-2.2725404430806635,0.27968437186479567,-0.27402546932026745
1782987751504475600,2.5074755859375,-2.3241221617579457,0.46761809627115725,-0.3626334348388016
1782987751514549500,2.517549560546875,-2.1095909378051756,0.4728957444131374,-0.23560236129313705
1782987751524624600,2.527624755859375,-1.7244214076399802,0.3906266265273094,-0.017554507521539926
1782987751534698500,2.537698486328125,-1.2298013226747513,0.3725526251763105,0.1609377270616591
1782987751544773600,2.547773681640625,-0.690242610308528,0.4509422712802887,0.2532083067409694
1782987751554847500,2.557847412109375,-0.24396190109848975,0.519644636106491,0.38013548152074217
1782987751564922600,2.567922607421875,0.05371054739952087,0.5367033229351044,0.45596521400883794
1782987751574996500,2.57799658203125,0.24454993011951445,0.5754407576084136,0.3374517934396863
1782987751585071600,2.588071533203125,0.3502683126538992,0.6003811375975608,0.03392433530315757
1782987751595145500,2.5981455078125,0.3062169894814491,0.672756053456664,-0.29801176345497365
1782987751605220600,2.608220703125,0.17456980044245718,0.7604349214315413,-0.5499056265965104
1782987751615294500,2.61829443359375,-0.0383680168390274,0.8447533730626106,-0.7138032263770699
1782987751625369600,2.62836962890625,-0.29407179365754127,0.9853455005794763,-0.77052245407328
1782987751635443500,2.638443359375,-0.4532511327445507,1.1243155798524618,-0.7606061863452196
1782987751645518600,2.6485185546875,-0.4319663526535034,1.2653273940861225,-0.6728671126157045
1782987751655592400,2.658592529296875,-0.23187866459488868,1.4651567234694958,-0.5458861618220806
1782987751665667600,2.66866748046875,0.017259177836775778,1.6463152546525,-0.38701369672715663
1782987751675741400,2.678741455078125,0.2835486460775137,1.80894385741055,-0.22350801887363195
1782987751685816600,2.688816650390625,0.6023463001906871,1.9471628260552882,-0.05127338338047266
1782987751695890400,2.698890380859375,0.9704489602208137,1.9316285723149775,0.09238236949071288
1782987751705965600,2.708965576171875,1.359602591586113,1.8514707474946974,0.17211086298301814
1782987751716039400,2.719039306640625,1.7306781299471854,1.6789403439253567,0.2679568169310689
1782987751726114600,2.729114501953125,2.0544658474326134,1.478097453585267,0.35589375132024287
1782987751736188400,2.7391884765625,2.2786843526631593,1.3185714930176735,0.4393573396876454
1782987751746263600,2.749263671875,2.3527841926187274,1.1331734245687723,0.511204578410834
1782987751756337400,2.75933740234375,2.2465438320368527,0.9193056329607963,0.6095714291386306
1782987751766412500,2.76941259765625,2.033587894576788,0.6762210992187261,0.6179046654589474
1782987751776486400,2.779486328125,1.8086223703712223,0.47823710544109344,0.5191948465123772
1782987751786561500,2.7895615234375,1.5477239475190638,0.33405601352155206,0.3771292854420841
1782987751796635400,2.799635498046875,1.267183835607767,0.16783844636082648,0.2732712899520993
1782987751806710500,2.80971044921875,0.9814315420061349,0.012836100697517394,0.24392025391384958
1782987751816784400,2.819784423828125,0.6937023953735828,-0.16744330956339834,0.20279680088683963
1782987751826859500,2.829859619140625,0.3778647601097822,-0.3633294542789459,0.1518577640272677
1782987751836933400,2.839933349609375,0.041776363977789874,-0.5268570517033339,0.07778656564429402
1782987751847008500,2.850008544921875,-0.23000234932899474,-0.6342489204078913,-0.009079159316793083
1782987751857082400,2.860082275390625,-0.449874934309721,-0.6541951453715562,-0.07397321790121496
1782987751867157500,2.870157470703125,-0.5851110877513885,-0.7024550261497498,-0.07839030369110404
1782987751877231600,2.880231689453125,-0.6148889708995818,-0.7827648266613483,-0.025137583061680197
1782987751887306500,2.890306396484375,-0.5225836121678352,-0.81217270745337,-0.0015966946069151163
1782987751897380600,2.900380615234375,-0.383113182157278,-0.7875403705000877,0.01948467186652124
1782987751907454500,2.910454345703125,-0.1709960336089134,-0.7705430584698915,0.05170052275136113
1782987751917529600,2.920529541015625,0.07143208205103874,-0.7491033800780773,0.12845686856508254
1782987751927603500,2.930603515625,0.3260369577169418,-0.7445406022071838,0.2456304918978363
1782987751937678600,2.9406787109375,0.5633452461451292,-0.6970324165791273,0.3680307638376951
1782987751947752400,2.95075244140625,0.7049240466117859,-0.6914543241858482,0.47056905503123997
1782987751957827600,2.96082763671875,0.794171771338582,-0.7387526664555072,0.5367916588056832
1782987751967901400,2.9709013671875,0.8825614179313183,-0.8435416591852903,0.558658476568386
1782987751977976800,2.980976806640625,0.952577787965536,-0.991998528727889,0.5673762552268803
1782987751988050700,2.99105078125,0.99039284709692,-1.1373819821745157,0.5959693125046789
1782987751998125800,3.001125732421875,0.9172446087777614,-1.2616396454840897,0.636105069668591
1782987752008200000,3.011199951171875,0.6983464217871427,-1.3446370776444674,0.6448305201768875
1782987752018274800,3.02127490234375,0.3562766131579876,-1.3402046481549739,0.5975405073441564
1782987752028349000,3.031348876953125,0.012685878571867941,-1.4498475106567144,0.6873800604842603
1782987752038423800,3.041423828125,-0.08426467561721801,-1.7887077095896005,1.0250168551020324
1782987752048498000,3.051497802734375,-0.07299100193083286,-2.078897693377733,1.3468015622019767
1782987752058572800,3.06157275390625,-0.19357611420750617,-2.2781483460903167,1.5422927162505686
1782987752068647000,3.07164697265625,-0.45765725874900814,-2.343545824152231,1.6057530887700617
1782987752078721800,3.0817216796875,-0.9460527701109647,-2.3422914401769637,1.5457587849259375
1782987752088796000,3.0917958984375,-1.5946476112574337,-2.280069085019827,1.524739377772808
1782987752098870800,3.101870849609375,-2.2078490674614906,-1.9744079758554696,1.3720863717146217
1782987752108945000,3.11194482421875,-2.726808059391379,-1.365866912677884,0.9782624104507267
1782987752119019800,3.122019775390625,-3.141122435498237,-0.7058072591871023,0.5608468534581363
1782987752129094000,3.132093994140625,-3.2974791183799503,-0.15199147340953348,0.25453984760567544
1782987752139168800,3.142168701171875,-3.150532068878412,0.2280178975135088,0.062452218390256165
1782987752149243000,3.152242919921875,-2.711277897304296,0.4679781617552042,0.011376403408497571
1782987752159317800,3.16231787109375,-2.0299632743388414,0.6493360149025916,0.10308072750717401
1782987752169391900,3.172391845703125,-1.1839642851293086,0.8230331241637467,0.2560651574768126
1782987752179466800,3.182466796875,-0.25602292577028274,0.9637713821530342,0.4688363860197365
1782987752189540900,3.192540771484375,0.5025280816107988,1.0023656089633703,0.7772235591471195
1782987752199615700,3.20261572265625,1.0428618700027465,0.9109609984636307,1.0861385555408893
1782987752209689900,3.21268994140625,1.2993243562340735,0.7710492544263601,1.364008279199153
1782987752219764700,3.2227646484375,1.2673404874742031,0.6571060643821954,1.429231569737941
1782987752229838800,3.2328388671875,0.8891483951061964,0.7363859373241662,1.2420488098293543
1782987752239913700,3.242913818359375,0.221969264999032,0.9412322180867194,0.8988090806379914
1782987752249987800,3.25298779296875,-0.5056412451952695,1.0986112297534942,0.6040173021428287
1782987752260062700,3.263062744140625,-1.1003747322946786,1.1961299392193556,0.35303149375692006
1782987752270136800,3.27313671875,-1.410824829301238,1.152795824405551,0.2059399212181568
1782987752280212000,3.2832119140625,-1.3776900369405745,1.0145400308817625,0.1327745856337249
1782987752290285800,3.293285888671875,-1.0056816016435624,0.8504588912278414,0.07853811466395855
1782987752300361000,3.30336083984375,-0.4846294368267059,0.7175099719405174,-0.013167963000386952
1782987752310434800,3.313434814453125,0.052262102156877516,0.7124339838504791,-0.11245368213877081
1782987752320510000,3.323510009765625,0.5212380427777766,0.7315788293033838,-0.1168079318255186
1782987752330583800,3.333583740234375,0.810996064889431,0.7794406506747007,-0.02742898193448782
1782987752340659000,3.343658935546875,1.02172497394979,0.8693804493188858,0.03830547299683094
1782987752350732800,3.35373291015625,1.2457540940880776,0.98834117526412,0.049337154620885844
1782987752360808000,3.363807861328125,1.406277833521366,1.0324830993294716,0.059349868460744616
1782987752370881800,3.3738818359375,1.4908569819152355,1.0259534052997827,0.09282470643073319
1782987752380957000,3.38395703125,1.467321208027005,0.972069254899025,0.04421097071357071
1782987752391030800,3.39403076171875,1.4002777163237332,0.9356406816899776,-0.020876929942518472
1782987752401106000,3.40410595703125,1.241485915249586,0.8989262772768736,-0.056679553272947665
1782987752411179800,3.4141796875,1.0204431174457074,0.8423375440925359,0.015696166303753853
1782987752421255000,3.4242548828125,0.7474959448814391,0.8276473399609326,0.12446085773147642
1782987752431328800,3.434328857421875,0.5126876565754414,0.8506886083304882,0.20985819064043462
1782987752441404000,3.44440380859375,0.41611411900520323,0.8466226740658283,0.2684854439150542
1782987752451477800,3.454477783203125,0.5270750783681869,0.7776064209848642,0.2916872366085648
1782987752461553000,3.464552978515625,0.8048667683541775,0.6171200909525155,0.41280514058768747
1782987752471626800,3.474626708984375,1.1616776345193385,0.4239806145966053,0.6379786815207451
1782987752481702000,3.484701904296875,1.4737082787156104,0.2360819615036249,0.8267852432388811
1782987752491775700,3.494775634765625,1.6909779877215623,0.10617547865211963,0.9173968036647886
1782987752501851000,3.504850830078125,1.77479550409317,-0.039327217260003086,1.009733653513342
1782987752511924700,3.5149248046875,1.6426397810101507,-0.2204407402575016,1.1173569928862155
1782987752522000000,3.524999755859375,1.3840794457167387,-0.35502573631405826,1.1435179276462644
1782987752532073700,3.53507373046875,1.0256015231221913,-0.4213923516690731,1.0614626717068254
1782987752542148900,3.54514892578125,0.6522241375595331,-0.46245910607278345,0.9512676552150398
1782987752552222700,3.55522265625,0.3914344357788562,-0.4736597145229578,0.8914448354803025
1782987752562296800,3.565296875,0.16078209810853003,-0.4806254618823528,0.9061995562154799
1782987752572371700,3.575371826171875,-0.058413610523939126,-0.5390507628440857,0.9612349955432117
1782987752582446800,3.58544677734375,-0.26736732660532,-0.5590589471280575,1.0012996602322906
1782987752592520700,3.595520751953125,-0.5233429061025381,-0.5288613772630691,1.056397058880329
1782987752602595800,3.605595947265625,-0.790814862126112,-0.48187458516061304,1.0418200327996163
1782987752612669700,3.615669677734375,-1.0231061991751194,-0.41291093904972076,0.9932198872163891
1782987752622743800,3.625743896484375,-1.2148270409047603,-0.35234745701551434,0.8970359334856272
1782987752632818700,3.635818603515625,-1.3107646186590194,-0.30643910779953,0.790072884652391
1782987752642893800,3.645893798828125,-1.386231070792675,-0.3146931414037943,0.6566485298730432
1782987752652968000,3.655968017578125,-1.520358386209607,-0.3396341059148311,0.5172484616849571
1782987752663041800,3.666041748046875,-1.5444558856338262,-0.4328811294108629,0.4320447516519576
1782987752673117000,3.676116943359375,-1.3384019826471805,-0.6885317147374153,0.62660454313457
1782987752683190800,3.686190673828125,-0.9759604171186685,-0.9507301142722367,0.9607325259137898
1782987752693266000,3.696265869140625,-0.5930372045755385,-1.0194833325028418,1.1426292351782321
1782987752703339800,3.70633984375,-0.4458253666579723,-0.9054857819229364,0.9728974493514746
1782987752713415000,3.716414794921875,-0.6064502283781766,-0.660732438185811,0.5967183773063123
1782987752723488800,3.72648876953125,-1.0082342087358236,-0.5091343480080366,0.2816872361198067
1782987752733564000,3.73656396484375,-1.3652911586165428,-0.413417719528079,0.20531945123225448
1782987752743637800,3.7466376953125,-1.614597343352437,-0.22666414481699465,0.17035970846675336
1782987752753713000,3.756712890625,-1.6920318806886672,0.09229425281584262,0.13899996295459568
1782987752763786800,3.766786865234375,-1.6636451596379278,0.34967151580452915,0.19577735057882964
1782987752773862000,3.77686181640625,-1.4626315889060497,0.4414981511086225,0.3787788062147796
1782987752783935700,3.786935791015625,-1.0930798991113901,0.40038814208507534,0.6305095877490937
1782987752794011000,3.797010986328125,-0.5462444737404585,0.3520622103333473,0.7952236915443092
1782987752804084700,3.807084716796875,0.03609656477570534,0.40928631881177424,0.8950592996504158
1782987752814160000,3.817159912109375,0.5743956324696541,0.5192085827767848,1.0032171842914075
1782987752824233700,3.827233642578125,0.935250221067667,0.5925292550534009,1.1938250963430852
1782987752834308900,3.837308837890625,1.1295061342328787,0.6568769318014382,1.3877663175359367
1782987752844382700,3.8473828125,1.16340957287848,0.7799445085436105,1.4767603597626089
1782987752854457900,3.857457763671875,1.0822855333745478,0.9825245979398488,1.4451913554139435
1782987752864531700,3.86753173828125,0.9150088125497102,1.1720710182398557,1.3197894905053078
1782987752874606800,3.87760693359375,0.6931780792385339,1.3448942672759294,1.0996223064921795
1782987752884680700,3.8876806640625,0.44445583187043664,1.4682383228719234,0.865708263612166
1782987752894755800,3.897755859375,0.18809914410114287,1.5644535485237836,0.6255768805872649
1782987752904829700,3.90782958984375,-0.01568506038784981,1.569018664482236,0.3836152133952826
1782987752914904800,3.91790478515625,-0.10534954922199248,1.5228548792004584,0.205950734873116
1782987752924978700,3.927978759765625,-0.13715513880550861,1.4043126709282396,0.15110153883248567
1782987752935053800,3.9380537109375,-0.17568156107664107,1.3175176000505684,0.14474720136970282
1782987752945127700,3.948127685546875,-0.21322364848554134,1.2797832049399613,0.15805479203648864
1782987752955202800,3.958202880859375,-0.14988894817233084,1.3227502400070428,0.12483078702241182
1782987752965276700,3.968276611328125,-0.0017611644536256789,1.328087509381771,0.05320515516065061
1782987752975351800,3.978351806640625,0.21561960371136665,1.2493459811002015,0.02108260858245194
1782987752985425200,3.988425048828125,0.4818284079313278,1.1387883418411016,0.04604520040340721
1782987752995500300,3.998500244140625,0.7718862897723913,1.0607307041704654,0.03843523685634136
1782987753005574100,4.00857421875,1.015436102938652,0.966466612586379,0.06769611039310694
1782987753015649300,4.018649169921875,1.224111586600542,0.8929057018131017,0.153427497562021
1782987753025723100,4.02872314453125,1.3641086708337067,0.8345067043364047,0.29201858745478093
1782987753035798300,4.03879833984375,1.3799375236064195,0.7471089913904666,0.4294930213425308
1782987753045872000,4.0488720703125,1.3307628660708666,0.6294990955322981,0.5898304444234818
1782987753055947300,4.058947265625,1.2892811011254788,0.5493231505334377,0.7280369919780642
1782987753066021000,4.069021240234375,1.2636135759055613,0.44165889462828634,0.8782426779493689
1782987753076096300,4.07909619140625,1.1215613127082587,0.2983177606642246,1.0074369208782912
1782987753086170000,4.089170166015625,0.9107184218794107,0.1132306578606367,1.0850029025744645
1782987753096245200,4.099245361328125,0.6934674175739288,-0.04741583116948604,1.0404060012832284
1782987753106319400,4.1093193359375,0.4322907623022795,-0.20188860000073908,0.9426607895851135
1782987753116394200,4.119394287109375,0.16805881111323834,-0.31575287958979603,0.7878365769676864
1782987753126468400,4.12946826171875,-0.0974842226743698,-0.3854740660697222,0.6587605535909533
1782987753136543200,4.139543212890625,-0.27783436008393764,-0.42663492849767204,0.5556371559858322
1782987753146617300,4.149617431640625,-0.38646307710707184,-0.429303855445981,0.4945008424997329
1782987753156692200,4.159692138671875,-0.44708851846158504,-0.4703957442909479,0.5948778640061616
1782987753166766300,4.169766357421875,-0.4716331771314144,-0.5797013376623392,0.7763830166697502
1782987753176841200,4.17984130859375,-0.4782078793466091,-0.6944605202645063,0.9900364348746835
1782987753186915300,4.189915283203125,-0.44934418843388557,-0.7469213598638772,1.1145987802192567
1782987753196990200,4.199990234375,-0.43704409430921076,-0.7907265993207693,1.1017099994864314
1782987753207064300,4.210064208984375,-0.4597112686693668,-0.8024684750407933,0.9950761826075613
1782987753217139200,4.22013916015625,-0.5341659134119748,-0.7549392466247081,0.7993133720107376
1782987753227213300,4.23021337890625,-0.6850345202714204,-0.7506091084659099,0.5927784805741161
1782987753237288200,4.2402880859375,-0.8310247074395418,-0.9308218832314014,0.5462539722211659
1782987753247362300,4.2503623046875,-0.8214075687885284,-1.1825438969373703,0.575592660234496
1782987753257437200,4.260437255859375,-0.7033855849981308,-1.3475596870929003,0.5123799788657576
1782987753267511300,4.27051123046875,-0.6599743132948875,-1.3819681526511907,0.22736367138847707
1782987753277586200,4.280586181640625,-0.8778285441905259,-1.320439040455222,-0.21556692367605865
1782987753287660300,4.290660400390625,-1.3553513638824224,-1.1850029805272817,-0.5984979907320812
1782987753297735200,4.300735107421875,-1.8920102631539106,-0.9312585210829972,-0.8944339342936873
1782987753307809300,4.310809326171875,-2.2825129710406062,-0.4416255768805742,-1.2268620543524622
1782987753317884200,4.32088427734375,-2.434234395337105,0.06426818177103996,-1.4336211829990149
1782987753327958300,4.330958251953125,-2.249493914014101,0.4526046515345573,-1.383218737234175
1782987753338032000,4.3410322265625,-1.7522540019392967,0.5618973854243755,-1.0319910049635916
1782987753348107300,4.351107177734375,-1.0811965690940617,0.5349778143167495,-0.5401936492688953
1782987753358181000,4.36118115234375,-0.5097475114703178,0.5370277325838804,-0.18914711878411472
1782987753368256300,4.37125634765625,-0.15347148283421994,0.6204834299057722,0.09603285482227801
1782987753378330000,4.381330078125,0.020235563299059865,0.72442428137362,0.2192695775862783
1782987753388405200,4.3914052734375,0.1446802736133337,0.9000281010389327,0.11602269973196089
1782987753398479000,4.40147900390625,0.2701023045271635,0.9506640632987022,-0.11216675495617091
1782987753408554200,4.41155419921875,0.4201251082122326,0.8545914609879255,-0.3260126269932836
1782987753418628000,4.421628173828125,0.601880436244607,0.6464736112087964,-0.5084895472984761
1782987753428703200,4.431703125,0.718361035811901,0.4942319624304771,-0.7047337847366929
1782987753438777000,4.441777099609375,0.6804442698717117,0.40095512831807134,-0.9133043467193841
1782987753448852200,4.451852294921875,0.5427238983988761,0.37552258089780804,-1.0323026281960308
1782987753458926000,4.461926025390625,0.3637871349185705,0.37640462442934514,-1.099552163865417
1782987753469001200,4.472001220703125,0.2445487610757351,0.4485053995221853,-1.1042257816996426
1782987753479075300,4.482075439453125,0.2513882517069578,0.5871124907016754,-1.0115640838108957
1782987753489150200,4.492150146484375,0.39341771855056284,0.6648901423871517,-0.8386072715230286
1782987753499224300,4.502224365234375,0.6196300279468298,0.7123369532167911,-0.5554837189897894
1782987753509299200,4.51229931640625,0.8908043456196785,0.736017104011774,-0.2492596421804279
1782987753519373300,4.522373291015625,1.0791489889144896,0.7474971139252186,0.0010369418323040009
1782987753529448200,4.5324482421875,1.1268763702511786,0.7527695013701915,0.1464192993003875
1782987753539522300,4.542522216796875,1.1550357122868298,0.7498428002685308,0.22493505600206554
1782987753549597200,4.55259716796875,1.2224170576423405,0.7318781045109033,0.26571473709270355
1782987753559671300,4.56267138671875,1.2891390623062848,0.6719435680299997,0.3087404435444623
1782987753569746200,4.57274609375,1.3316992701381445,0.6016454584449529,0.35498496591225265
1782987753579820300,4.5828203125,1.3916004888713358,0.5517611913353204,0.3955844681303948
1782987753589895200,4.592895263671875,1.4272148230880497,0.4606108478575945,0.4018370987843722
1782987753599969300,4.60296923828125,1.3897224200397729,0.30655425861179825,0.3538322156805545
1782987753610044200,4.613044189453125,1.2313041284531354,0.1660123999774456,0.24859189898669717
1782987753620118300,4.6231181640625,1.040070777979493,0.05581248811483383,0.08001834328435362
1782987753630193200,4.633193115234375,0.8939835601776838,-0.04857026190161705,-0.061888447027653455
1782987753640267300,4.643267333984375,0.749310885348916,-0.14218202705681324,-0.10750796936489641
1782987753650342100,4.653342041015625,0.5816857894778251,-0.19221359368264673,-0.12098382927067577
1782987753660416300,4.663416259765625,0.4196083908617496,-0.23569793062210082,-0.0752393653795123
1782987753670491100,4.6734912109375,0.2923047839850187,-0.2977244709461927,-0.02187843513526022
1782987753680565200,4.683565185546875,0.22032909657657146,-0.35996260819435116,-0.005866992337256669
1782987753690640100,4.69364013671875,0.2175695687353611,-0.4635848952323198,0.018534458469599484
1782987753700714200,4.70371435546875,0.16975567815899847,-0.5788800844073295,0.07838745414689183
1782987753710789000,4.7137890625,0.015534838262200354,-0.6648287675887345,0.10023958579711616
1782987753720863200,4.72386328125,-0.059388008514046665,-0.7438005974948406,0.1599365871950984
1782987753730938000,4.733938232421875,-0.08213935402631758,-0.8226724741578102,0.1935162737790495
1782987753741012200,4.74401220703125,-0.09728256262242793,-0.8991682693392038,0.18214388895854353
1782987753751087400,4.75408740234375,-0.18656828127205372,-0.9579805237919091,0.18898878641724584
1782987753761161200,4.7641611328125,-0.33406010517477985,-1.0057494061827659,0.214023420561105
1782987753771236400,4.774236328125,-0.4927390935242176,-0.9756190563350915,0.2289279980957508
1782987753781310200,4.784310302734375,-0.5551672003865241,-0.9276672185927629,0.2666057676482946
1782987753791385300,4.79438525390625,-0.6068494568288326,-0.8446241937249899,0.37442842898555095
1782987753801459200,4.804459228515625,-0.638143589758873,-0.7733727289378642,0.4569459686744958
1782987753811534300,4.814534423828125,-0.5798930608421564,-0.7098872219771146,0.5701899974733591
1782987753821608200,4.824608154296875,-0.5177519542276859,-0.6511842731177806,0.6134009242989122
1782987753831683300,4.834683349609375,-0.41835634497404095,-0.6090794078379869,0.5827945544373244
1782987753841757200,4.844757080078125,-0.31401100435853,-0.7008955217480659,0.739839438778907
1782987753851832300,4.854832275390625,-0.17404899143874644,-0.8622919523626565,0.986517174707353
1782987753861906200,4.86490625,-0.13948738114535808,-0.9142167853891849,0.9883632409654557
1782987753871981300,4.874981201171875,-0.33023207131922244,-0.7919535107672214,0.7230981473363935
1782987753882055200,4.88505517578125,-0.721509270709753,-0.6014221710830927,0.42278292924463745
1782987753892130300,4.89513037109375,-1.1692664822131396,-0.5428507396489382,0.33103900378793477
1782987753902204200,4.9052041015625,-1.5324749404609201,-0.5275725064963102,0.43612610268145796
1782987753912279300,4.915279296875,-1.7637644069910048,-0.37527825074791904,0.4070589981511235
1782987753922353200,4.925353271484375,-1.9483412221848964,-0.05894143379032612,0.13586086121127008
1782987753932428300,4.93542822265625,-2.1041548842310904,0.3115624421626329,-0.21816738849803805
1782987753942502100,4.945502197265625,-2.1002754124492404,0.527213025534153,-0.4370369339160621
1782987753952577300,4.955577392578125,-1.7591402543216943,0.5903367134451866,-0.46127588763758537
1782987753962651100,4.965651123046875,-1.0476251388818025,0.551896215891838,-0.3234584855310619
1782987753972726300,4.975726318359375,-0.16123802518248556,0.47353462683856484,-0.07442308056056499
1782987753982800400,4.98580029296875,0.6396329515337944,0.4135106585085392,0.228914554092288
1782987753992875500,4.99587548828125,1.227263328629732,0.40665421674251556,0.4750706042341888
1782987754002949400,5.005949462890625,1.5670406424075365,0.4520253903418779,0.6307188465856015
1782987754013024500,5.0160244140625,1.6870137602657078,0.49666591157913204,0.6365887615323066
1782987754023098400,5.026098388671875,1.5775649590313434,0.5268272410869598,0.4955886377364397
1782987754033173500,5.036173583984375,1.2956804467737675,0.6022662206918001,0.21801899300329386
1782987754043247400,5.046247314453125,0.9162357239961624,0.7099018350243568,-0.053057782579213376
1782987754053321500,5.056321533203125,0.45754386150240894,0.720983201009035,-0.3091379184294492
1782987754063396400,5.066396240234375,0.02595101833641529,0.7129699904233217,-0.5198183121729641
1782987754073470700,5.076470703125,-0.32925124358832836,0.6973153251737356,-0.7083036791127175
1782987754083545300,5.08654541015625,-0.5095534502029418,0.686627926942706,-0.772942520827055
1782987754093620500,5.096620361328125,-0.553432923939824,0.6644459057509898,-0.7034583579733967
1782987754103694600,5.106694580078125,-0.4711655596196651,0.7331704824090004,-0.5481197660930455
1782987754113768700,5.116768798828125,-0.25414018076360223,0.8874678946733474,-0.4194075345274061
1782987754123843600,5.126843505859375,0.030410335832834243,1.0287994423806666,-0.26602811389081177
1782987754133917700,5.136917724609375,0.33170448195934293,1.121407583451271,-0.07934161306656896
1782987754143992600,5.14699267578125,0.6660843206077813,1.1749474504590034,0.07523783100955188
1782987754154066700,5.157066650390625,1.0005758029371499,1.1781471232831477,0.20882555965706706
1782987754164141600,5.1671416015625,1.3071072651952504,1.0862883392751217,0.2853027232032269
1782987754174215700,5.177215576171875,1.5671861883580684,0.9849661458730697,0.3297483063902706
1782987754184290600,5.18729052734375,1.7834727315455674,0.8828706300109624,0.37134113049469886
1782987754194364700,5.19736474609375,1.864877341556549,0.7667530185371637,0.44330878072716295
1782987754204439600,5.207439453125,1.7503350165754556,0.6709399439454078,0.4700773259915411
1782987754214513700,5.217513671875,1.5137562114655971,0.6338467693477868,0.37347675428390503
1782987754224588500,5.227588623046875,1.2603618806332348,0.6068126319497823,0.255335089636594
1782987754234662700,5.23766259765625,1.024926984861493,0.5209755924493074,0.2311511540379375
1782987754244737500,5.247737548828125,0.7475415375888347,0.39814182446300983,0.34457565397024154
1782987754254811600,5.257811767578125,0.47683659099340436,0.26464053198993204,0.5003669580541551
1782987754264886500,5.267886474609375,0.23797055172920226,0.15854747092425822,0.5832284158099442
1782987754274960600,5.277960693359375,0.12074001057744026,0.09982523284256457,0.6156709881227463
1782987754285035500,5.288035400390625,0.041381811702251435,-0.020117489877343176,0.6740406864397227
1782987754295109600,5.298109619140625,-0.0527507624566555,-0.11462883422076701,0.7401259275700897
1782987754305184500,5.3081845703125,-0.2081014831662178,-0.1951344495654106,0.7698585102718323
1782987754315258600,5.318258544921875,-0.4026555024951696,-0.24063421798050402,0.7623796988237649
1782987754325333500,5.32833349609375,-0.5661977129667997,-0.25739421412348745,0.7710860062401741
1782987754335407600,5.33840771484375,-0.6460825660645961,-0.2855751834690571,0.7961633104819804
1782987754345482500,5.348482421875,-0.6944359703451395,-0.36231706236600875,0.7555384546268731
1782987754355556600,5.358556640625,-0.829438899552822,-0.4663420849859714,0.6190360806416719
1782987754365631500,5.368631591796875,-1.0954776079028845,-0.5230687653362751,0.40110082039907574
1782987754375705600,5.37870556640625,-1.3513409591972827,-0.4931722242444753,0.12087094348073005
1782987754385780500,5.388780517578125,-1.496339212718606,-0.43563130490183827,-0.20184381101094184
1782987754395854600,5.3988544921875,-1.5473796641260384,-0.3612853812307119,-0.4770501972114667
1782987754405929500,5.408929443359375,-1.5056103144109247,-0.412917953312397,-0.5969885360172018
1782987754416003600,5.419003662109375,-1.219995383453369,-0.6181552792191505,-0.5289024399258196
1782987754426078500,5.429078369140625,-0.7124532730728388,-0.8246978425055742,-0.30949199256412685
1782987754436152600,5.439152587890625,-0.35330665743649003,-1.0292495242357254,-0.09766009069792926
1782987754446227500,5.4492275390625,-0.3481155185341835,-1.0960019240379333,-0.11254968985915183
1782987754456301600,5.459301513671875,-0.7063251455813646,-0.9586246669143438,-0.42547034169770775
1782987754466376400,5.46937646484375,-1.1678887641191482,-0.7398071439445019,-0.7647972813595086
1782987754476450600,5.479450439453125,-1.564829396098852,-0.5204325716137885,-0.9617083852086216
1782987754486525400,5.489525390625,-1.8363789768248795,-0.21221534822583196,-1.0636433767467737
1782987754496599600,5.499599609375,-1.9448826061636209,0.1563262877434492,-1.0245212536048143
1782987754506674400,5.50967431640625,-1.8564070348531008,0.4844342065155506,-0.823161426718533
1782987754516748500,5.51974853515625,-1.5940806250244377,0.6140174487620592,-0.4797081278417259
1782987754526823400,5.529823486328125,-1.1837059264540672,0.6009937165379524,-0.0916588044565171
1782987754536897500,5.5398974609375,-0.7791390373796224,0.5793628994882106,0.1464524709176272
1782987754546972400,5.549972412109375,-0.4663339016795158,0.6072556995421647,0.23211685726493594
1782987754557046500,5.560046630859375,-0.45563072135746474,0.6794137577801942,0.21939627270586787
1782987754567121400,5.570121337890625,-0.6982599125474691,0.7941261786311864,0.12184263805709779
1782987754577195500,5.580195556640625,-1.0473603504657745,0.9702999071389437,-0.11727160381451249
1782987754587270400,5.5902705078125,-1.32255033352077,1.0979875448971985,-0.41206491667963563
1782987754597344500,5.600344482421875,-1.4460481183737515,1.1499176386207342,-0.7037403167199343
1782987754607419400,5.61041943359375,-1.298710023728013,1.2031442018955945,-0.9533407351620494
1782987754617493500,5.620493408203125,-0.8584545661568641,1.2320108154177665,-1.042002549759671
1782987754627568400,5.630568359375,-0.26650106516480443,1.1473802290976047,-0.8965579407103359
1782987754637642500,5.640642578125,0.33860476286709307,1.0261404523044824,-0.6810122790180146
1782987754647717400,5.65071728515625,0.8857090683072805,0.9273439779877662,-0.5163721172418445
1782987754657791500,5.66079150390625,1.2273580211758612,0.9156400961905717,-0.36086627903580665
1782987754667866400,5.670866455078125,1.4140169033408163,0.9668500589460134,-0.2583732882887125
1782987754677940500,5.6809404296875,1.4594886147052049,1.0184604191958904,-0.20922807604335247
1782987754688015400,5.691015380859375,1.3459545899838208,1.0332453158736228,-0.22327464850917458
1782987754698089500,5.70108935546875,1.1969184592485427,1.0313082103312015,-0.24042598205730317
1782987754708164400,5.711164306640625,1.005361283648014,1.0178975246161222,-0.2464426119983196
1782987754718238700,5.72123876953125,0.8199187915354966,1.0053916787862778,-0.2052115338783711
1782987754728313300,5.731313232421875,0.602163929361105,0.9955576825141906,-0.10637918453067541
1782987754738387700,5.7413876953125,0.3115571814656257,0.9744611184716224,0.009281038564443587
1782987754748462600,5.751462646484375,-0.03220072638094425,0.9640946227580308,0.09991824488826095
1782987754758536700,5.76153662109375,-0.3914659999608993,1.038023197799921,0.15114128632098436
1782987754768611600,5.771611572265625,-0.713702396351099,1.0739829844534396,0.10745397415533661
1782987754778685700,5.781685791015625,-0.8395166414529085,1.0621294650524855,0.048253962494060394
1782987754788760600,5.791760498046875,-0.7354664843916893,0.9856190568238496,-0.07756378973908722
1782987754798834700,5.801834716796875,-0.5320318239927292,0.850694453549385,-0.16001096760556102
1782987754808909600,5.81190966796875,-0.3803519007503986,0.740467069157958,-0.19571619497612117
1782987754818983700,5.821983642578125,-0.3863578631669283,0.7369429866850375,-0.1884166856177151
1782987754829058600,5.83205859375,-0.5565583624839783,0.7963859402567147,-0.15998035327158866
1782987754839132700,5.842132568359375,-0.7550397843897342,0.8975041355192661,-0.03776121005229652
1782987754849207600,5.85220751953125,-0.9310977775633335,0.9244143542766571,0.08979469108507036
1782987754859281700,5.86228173828125,-1.001700423052907,0.9264327083617448,0.21475904135927557
1782987754869356500,5.8723564453125,-1.0232307023376226,0.9283546163350344,0.35030331090204414
1782987754879430700,5.8824306640625,-0.9425614208638667,0.8660913446456193,0.5446444181326776
1782987754889505500,5.892505615234375,-0.722495943659544,0.7230471478015184,0.815645351999998
1782987754899579600,5.90257958984375,-0.41960254564285276,0.6300666662871838,1.0540809639576822
1782987754909654500,5.912654541015625,-0.15224106425642966,0.6633423284232616,1.052496398179978
1782987754919727600,5.9227275390625,-0.08399871815741061,0.8047609698921442,0.8659059781413525
1782987754929802800,5.932802734375,-0.4255108929038047,1.102576626253128,0.38783816485255956
1782987754939876600,5.942876708984375,-1.057643259549141,1.5923217986583709,-0.24123481422215698
1782987754949951700,5.95295166015625,-1.6858897246718405,2.0054419965445995,-0.6560303979746996
1782987754960025600,5.963025634765625,-2.0740964305758474,2.343061255505681,-0.824124207336083
1782987754970100700,5.973100830078125,-2.164167746645212,2.5023838024556637,-0.7474441416289657
1782987754980174600,5.983174560546875,-1.9962381148695945,2.3587913240790366,-0.4093892677295953
1782987754990249500,5.99324951171875,-1.5803981366306543,2.17116564270854,0.004810030630230903
1782987755000323600,6.003323486328125,-1.3131553131878375,1.9150059388160705,0.20956410306468604
1782987755010398500,6.0133984375,-1.4245838900625705,1.6685978136092423,0.15240765299499034
1782987755020472600,6.02347265625,-1.9943150378525256,1.5968758087009192,-0.17280432513989508
1782987755030547500,6.03354736328125,-2.8193577482730148,1.7633640094965695,-0.6200915810439735
1782987755040621600,6.04362158203125,-3.7298856160163876,1.9145552724391222,-1.1066779971573502
1782987755050696400,6.053696533203125,-4.415081464329361,2.2069500727951525,-1.5334624901935456
1782987755060770600,6.0637705078125,-4.693296932685375,2.593913500639796,-1.8604244538009165
1782987755070845400,6.073845458984375,-4.544245604380965,2.836088518321514,-1.8702365305021404
1782987755080919600,6.08391943359375,-4.071746750330925,2.8008465245485303,-1.4744687416940927
1782987755090994400,6.093994384765625,-3.3577240359842775,2.5137369711190463,-0.8669314487315714
1782987755101068500,6.104068603515625,-2.5497604706585406,2.231321712985635,-0.4046295059818774
1782987755111143400,6.114143310546875,-1.751883999583125,2.1029531072258947,-0.10328677147328853
1782987755121217500,6.124217529296875,-1.1346873362630605,1.9967367120414972,0.14071896876692772
1782987755131292400,6.13429248046875,-0.6768892077386379,1.9059703994452952,0.2872778957337141
1782987755141366500,6.144366455078125,-0.40755847210586066,1.8873124607264995,0.3602146832592785
1782987755151441400,6.15444140625,-0.30383681634664533,1.9513088398188352,0.3560162086561322
1782987755161515500,6.164515625,-0.40637130814790723,1.9831535923689603,0.32412031044065953
1782987755171590400,6.17459033203125,-0.6954127064228057,1.9790303749591112,0.2728704540662467
1782987755181664500,6.18466455078125,-1.1145640011668205,2.0083289501577615,0.11696429143100977
1782987755191739400,6.194739501953125,-1.5125164405375717,2.062381442862749,0.020102146177738905
1782987755201813500,6.2048134765625,-1.8051380353868007,2.1165514244675636,0.02964052050411701
1782987755211888600,6.214888671875,-1.9489584773004054,2.1602111179739234,0.061884939896315334
1782987755221962500,6.22496240234375,-1.971785226136446,2.2006915969222782,0.08290975387692451
1782987755232037600,6.23503759765625,-1.8452584488511083,2.241070953583717,0.07585472079887985
1782987755242111500,6.245111572265625,-1.6200193684011697,2.2822294779241084,0.05527268214970827
1782987755252186600,6.2551865234375,-1.3709089984983205,2.3129414270520208,0.06427841090410948
1782987755262261500,6.265261474609375,-1.1142419296056032,2.319906589889526,0.06230930278822779
1782987755272336400,6.27533642578125,-0.8922837705224752,2.344327329918742,0.05206102662682533
1782987755282410500,6.285410400390625,-0.7413011818945408,2.3412042294621465,0.04445975784286856
1782987755292485400,6.2954853515625,-0.7200310148507356,2.310810260242224,0.03297477949336171
1782987755302559500,6.3055595703125,-0.7397919463753699,2.2660814761996266,0.012132044081389903
1782987755312634400,6.31563427734375,-0.793643948072195,2.2601550087600946,-0.039498628304153675
1782987755322708500,6.32570849609375,-0.8614233528345823,2.2537860582500695,-0.06434701916091144
1782987755332783400,6.335783447265625,-0.9069663758695125,2.2513795816302298,-0.07883907037191093
1782987755342857500,6.345857421875,-0.8860334779560566,2.26529295617044,-0.09032989394031464
1782987755352932400,6.355932373046875,-0.8432114043176173,2.261292488357425,-0.10985972012281417
1782987755363006500,6.36600634765625,-0.7811527152895927,2.177453929197788,-0.04064721381738782
1782987755373081300,6.376081298828125,-0.6309463717311621,2.0129893431842327,0.0880829187311232
1782987755383155500,6.386155517578125,-0.40026656153202056,1.8389374291360376,0.3079220398336649
1782987755393230300,6.396230224609375,-0.061601592910289764,1.6584475909948349,0.5635095698613674
1782987755403304400,6.406304443359375,0.23153087407052517,1.4610077870965004,0.8339128300964832
1782987755413379300,6.41637939453125,0.35833529925346375,1.230230946263671,1.1395832185458392
1782987755423453400,6.426453369140625,0.2768868501007557,1.134958554419875,1.1669596665754913
1782987755433528300,6.4365283203125,-0.06939560778737068,1.2355652930289507,0.8275762474860996
1782987755443602400,6.4466025390625,-0.7273714407414198,1.4376017770677805,0.3136644559431821
1782987755453677300,6.45667724609375,-1.6073229684352874,1.4902029019206762,0.02346533900052309
1782987755463751700,6.466751708984375,-2.4436814381182193,1.429920574915409,-0.08873604887761175
1782987755473826300,6.476826416015625,-2.8449609760850665,1.3759142594397067,-0.04427461053431034
1782987755483900700,6.486900634765625,-2.589855165159702,1.1451309888660908,0.21324593338258563
1782987755493975300,6.496975341796875,-1.771325197634101,0.7325117262393236,0.6619815614640713
1782987755504049700,6.507049560546875,-0.8311573939085006,0.1582698230266571,1.0225886781070381
1782987755514124300,6.517124267578125,-0.0924959128677845,-0.40206162825524805,1.2110055829204618
1782987755524198700,6.52719873046875,0.31653380083441734,-0.8520417765051126,1.2224514713685959
1782987755534273300,6.537273193359375,0.44877895576655863,-1.0328507635980844,0.9807138952560722
1782987755544347600,6.54734765625,0.36695699712634083,-0.9862731368184089,0.5650714123506099
1782987755554422300,6.55742236328125,0.19462416195571422,-0.845017576956749,0.13818075552619993
1782987755564496600,6.56749658203125,-0.1304752226501703,-0.6931196270495653,-0.20458843354396522
1782987755574571300,6.5775712890625,-0.6633236237227916,-0.49506724421083925,-0.469622567961365
1782987755584645600,6.587645751953125,-1.163554534307122,-0.20592413912713525,-0.7035494703229517
1782987755594720300,6.59772021484375,-1.4998311464875935,0.0762958886951208,-0.8306339545562863
1782987755604794600,6.607794677734375,-1.435114636427164,0.09103285457789898,-0.8513161656443029
1782987755614869200,6.617869140625,-0.9546861584216356,-0.12464520132243632,-0.6784685128193348
1782987755624943600,6.627943603515625,-0.25320436121821405,-0.4844868134856224,-0.4418496679600328
1782987755635018200,6.638018310546875,0.5528700293600559,-0.8750742770463228,-0.2633855634927749
1782987755645092600,6.648092529296875,1.1961223404347896,-1.0438859523534774,-0.04741670795232057
1782987755655167200,6.658167236328125,1.5677578507661818,-1.0337602796584366,0.18717691468968986
1782987755665241600,6.66824169921875,1.695254934388399,-0.9062637805581092,0.3396737072728574
1782987755675316200,6.678316162109375,1.6465326967954634,-0.6829062760710716,0.3502518729757517
1782987755685390600,6.688390625,1.498304959833622,-0.4266635700702667,0.30196218158118426
1782987755695465200,6.69846533203125,1.2585457711219787,-0.21976854008436203,0.28892902394160624
1782987755705539600,6.70853955078125,0.9697031102895736,-0.07291676765084266,0.2814193058986217
1782987755715614500,6.718614501953125,0.6620382600873709,0.022024200281500816,0.22573278225101528
1782987755725688600,6.7286884765625,0.47901451955437657,0.021428572475910186,0.08666771817095577
1782987755735763500,6.738763427734375,0.3533259466588497,-0.07079495319128036,-0.048915202881768344
1782987755745837600,6.748837646484375,0.26486323482990265,-0.13558277492225168,-0.1454627292279154
1782987755755912400,6.758912353515625,0.19171967268586157,0.01726619209945202,-0.1597360961869359
1782987755765986600,6.768986572265625,0.021015900021791458,0.09517360764443873,-0.08718085532486439
1782987755776061400,6.7790615234375,-0.038169279396533966,0.13662556197345255,0.07258512454368174
1782987755786135600,6.789135498046875,-0.04405950647890568,0.2653857973992824,0.11635207781679928
1782987755796210400,6.79921044921875,-0.038377369189262385,0.35006723712384696,0.1091368857409805
1782987755806284500,6.809284423828125,-0.007604045262932777,0.3562316049724817,0.17477533295191824
1782987755816359400,6.819359375,0.027733225578069686,0.2687204947799444,0.21531433715447781
1782987755826433500,6.82943359375,0.08156769161820411,0.17897651096880435,0.19197803136110306
1782987755836508400,6.83950830078125,0.042194297128915786,0.1445364812284708,0.11918839722126721
1782987755846582500,6.84958251953125,-0.18354454953670502,0.1645265453338623,-0.005132467517629266
1782987755856657400,6.859657470703125,-0.4750958848059177,0.27870880483090876,-0.12622304509840904
1782987755866731500,6.8697314453125,-0.7496902400553226,0.41797815931141374,-0.2104960501525551
1782987755876806400,6.879806396484375,-0.9758487734377383,0.5644295342504978,-0.21826354234889148
1782987755886880500,6.889880615234375,-1.1503221277683973,0.7017436630100011,-0.09285210589431225
1782987755896955400,6.899955322265625,-1.2118214293479919,0.795346660336852,0.057212856432050464
1782987755907029500,6.910029541015625,-1.1024299112588167,0.9008084377616643,0.2604539670202881
1782987755917104400,6.9201044921875,-0.854431886512041,0.9309300197809934,0.5128038303010165
1782987755927178500,6.930178466796875,-0.5626157628268003,0.8782505689948796,0.8096461115851998
1782987755937253400,6.94025341796875,-0.30370120726823807,0.8418155660450458,1.0016434321686625
1782987755947327500,6.950327392578125,-0.12931027052402497,0.8690414266228675,1.0487316388189791
1782987755957402400,6.96040234375,-0.16103227347731588,0.9468424591839313,0.9125937142319976
1782987755967476500,6.9704765625,-0.39449323882758613,1.1341805557847022,0.7325679134059697
1782987755977551400,6.98055126953125,-0.5461567954570055,1.3195990824997423,0.6005002339325844
1782987755987625000,6.990625,-0.5419096594065428,1.3074386891067027,0.6994225265860557
1782987755997699800,7.000699951171875,-0.26229133851528164,1.0266735362678765,0.8720282604139298
1782987756007774000,7.01077392578125,0.16127426553964613,0.6042167702376842,0.9876290084067731
1782987756017848800,7.020848876953125,0.5008551799625158,0.1564051981985569,0.9357019834231585
1782987756027923000,7.0309228515625,0.7583867567300796,-0.31266368140280243,0.7103739095155149
1782987756037997800,7.040997802734375,0.9606132103830576,-0.6767927616268395,0.1554837725047022
1782987756048072000,7.051072021484375,0.9178548496305942,-0.9611772740066051,-0.6318563992481678
1782987756058146800,7.061146728515625,0.6556295620888472,-1.1245645861774682,-1.4047987008795142
1782987756068221000,7.071220947265625,0.1905558896034956,-1.0347650727868078,-1.9264941320359705
1782987756078295800,7.0812958984375,-0.6818360164910554,-0.7642074257075786,-2.1227000102251767
1782987756088370000,7.091369873046875,-1.6781588381588457,-0.3714256669729948,-2.040197083583474
1782987756098444800,7.10144482421875,-2.3622043473929164,0.14909575196802616,-1.6945640295147895
1782987756108519000,7.111518798828125,-2.7048750445246696,0.4933452427238226,-1.1730658744961022
1782987756118594000,7.121593994140625,-2.650207050269842,0.4057897088676691,-0.699924119432643
1782987756128668000,7.13166796875,-2.2693992224454878,0.1141670619279146,-0.4030340534839779
1782987756138743000,7.141742919921875,-1.694650538754463,-0.1263847384661436,-0.39738150761499996
1782987756148817000,7.15181689453125,-1.1582815623402596,-0.31129063948392866,-0.4914776222210377
1782987756158892000,7.16189208984375,-0.6428478219270706,-0.4022895917922258,-0.649213776762411
1782987756168966000,7.1719658203125,-0.18218378257751464,-0.3304810776442289,-0.9015220659237354
1782987756179041000,7.182041015625,0.20228665940761564,-0.1558732832789421,-1.1399945027604699
1782987756189115000,7.192114990234375,0.52471945515275,-0.05974690495431423,-1.286377634768933
1782987756199190000,7.20218994140625,0.8020189777076244,-0.017571312525868413,-1.345532857440412
1782987756209263900,7.212263916015625,0.932113092085719,-0.021311083576083183,-1.339340724802017
1782987756219339000,7.222339111328125,0.9333113619595765,-0.03220481803417206,-1.3093724336482584
1782987756229412900,7.232412841796875,0.8422767538160085,-0.008805822268128394,-1.2710852269604802
1782987756239488000,7.242488037109375,0.7003957555323839,0.08143266706168652,-1.1513806969106197
1782987756249561900,7.252561767578125,0.4719505725175142,0.2635363701403141,-0.8918797928314656
1782987756259637000,7.262636962890625,0.3244306915640831,0.4993406837463379,-0.5808030883591622
1782987756269710800,7.2727109375,0.3532084577590227,0.7598866398990154,-0.2557081607326865
1782987756279786000,7.282785888671875,0.4099105881899595,1.017795233285427,0.09585464871115983
1782987756289859800,7.29285986328125,0.4153571631580591,1.1529974844574928,0.5751959160018711
1782987756299935000,7.30293505859375,0.4713058448731899,1.0440040257751941,1.1338567306578158
1782987756310008800,7.3130087890625,0.6929319955229759,0.7450035435438156,1.6539175463497637
1782987756320084000,7.323083984375,1.1925906591773032,0.5361965424567461,1.9427499780490993
1782987756330157800,7.33315771484375,1.7807044358760118,0.5448480509459972,1.9675228925168513
1782987756340233000,7.34323291015625,2.1057710872560738,0.6058925944954157,1.7569634948045014
1782987756350306800,7.353306884765625,2.009579242479801,0.663100920882821,1.4228960831061004
1782987756360382000,7.3633818359375,1.456110662704706,0.8198013026356696,1.2381275447323918
1782987756370455800,7.373455810546875,0.5489566553086042,1.0221773938924072,1.3898442928537726
1782987756380531000,7.383531005859375,-0.4481131853342056,1.3267477852106093,1.7785376132309436
1782987756390604800,7.393604736328125,-1.1004250011771917,1.6613988420158623,2.2677160916641355
1782987756400680000,7.403679931640625,-1.4136995079547165,1.8259154504776,2.899245231719315
1782987756410753800,7.41375390625,-1.3735586362242698,1.7467863841831683,3.4122067368000746
1782987756420829000,7.423828857421875,-1.0468021320611238,1.5306073930233717,3.6646909670501944
1782987756430902800,7.43390283203125,-0.6952320891588926,1.1920920620054005,3.7669215074688194
1782987756440978000,7.44397802734375,-0.4639291786253452,0.9810650467813015,3.698070089560747
1782987756451051800,7.4540517578125,-0.385537778955698,1.009925230562687,3.3540091071143743
1782987756461127000,7.464126953125,-0.4610194286584854,1.2478010897457599,2.8998931742340326
1782987756471200800,7.47420068359375,-0.597234656265378,1.4701467868417502,2.563593765699863
1782987756481276000,7.48427587890625,-0.6313140359997749,1.6260551414340734,2.3616522664681074
1782987756491349800,7.494349853515625,-0.6977180607557296,1.7952444178819655,2.19183930516392
1782987756501425000,7.5044248046875,-0.7617430814206599,1.9418489375561474,2.1094123663678763
1782987756511499000,7.5144990234375,-0.7244961775660514,1.9791917030006645,1.9920584910973906
1782987756521574000,7.524573974609375,-0.5177443554431199,1.86045543346107,1.8287487742073834
1782987756531648000,7.53464794921875,-0.21867373058497905,1.7218389899313449,1.692226234216988
1782987756541723000,7.544722900390625,0.09351005834639071,1.630619672870636,1.589198552071303
1782987756551797000,7.554796875,0.24575404521226882,1.5051637396872042,1.4947566197022795
1782987756561872000,7.564871826171875,0.2317202591627836,1.3998299725562333,1.4679673969760536
1782987756571946000,7.574946044921875,0.22651626077890394,1.3497709334015846,1.3548779011517762
1782987756582020900,7.585020751953125,0.24286942968666553,1.369908297023177,1.2217260066382587
1782987756592095000,7.595094970703125,0.1054839892566204,1.435075473460555,1.095393948207423
1782987756602169900,7.605169921875,-0.30343992598354813,1.627861314073205,0.9551641511969268
1782987756612244000,7.615243896484375,-0.775389329457283,1.8115087394624947,0.7730452505491674
1782987756622318800,7.62531884765625,-1.062571948122978,1.9241613051742315,0.6793075209267437
1782987756632393000,7.63539306640625,-1.1491285340696573,1.9191227264851332,0.7663703028298914
1782987756642467800,7.6454677734375,-1.00583474637866,1.733689002200961,1.041580451890081
1782987756652542000,7.6555419921875,-0.6117717156618833,1.4485358435362576,1.3109880521513522
1782987756662616800,7.665616943359375,-0.14905541995763777,1.1690507936358452,1.382939335770905
1782987756672691000,7.67569091796875,0.29676410148143767,0.9018681759476661,1.228393063312024
1782987756682765800,7.685765869140625,0.6359066244870424,0.7471925780206918,0.870301363556087
1782987756692840000,7.69583984375,0.6238216344177723,0.6894377236664295,0.4954743637070059
1782987756702914800,7.705914794921875,0.1514244871765375,0.7363532040983438,0.28983335237018765
1782987756712989000,7.715989013671875,-0.717637397712469,1.0495201588481664,0.26670170230343937
1782987756723063800,7.726063720703125,-1.718996459981799,1.4713152460992336,0.15074147334843874
1782987756733138000,7.736137939453125,-2.258300320804119,1.9333838915497064,-0.12077303606420754
1782987756743212800,7.746212890625,-2.2179490211933848,2.293604858419299,-0.419012763056159
1782987756753287000,7.756286865234375,-1.8316881886601446,2.3580565800637006,-0.7427374252427369
1782987756763362000,7.766362060546875,-1.2956535587668419,2.1173083803147077,-0.9340933061175047
1782987756773436000,7.776435791015625,-0.919593217730522,1.7605822698235511,-0.791383967250958
1782987756783511000,7.786510986328125,-0.723191524708271,1.4933008679360151,-0.5679543473757803
1782987756793585000,7.7965849609375,-0.7903051590383052,1.4707207873374222,-0.570527193538472
1782987756803660000,7.806659912109375,-0.9392799149751663,1.5325737246602773,-0.7953627346888185
1782987756813734000,7.81673388671875,-1.1086655907779932,1.4633540579617024,-0.9969068321008234
1782987756823809000,7.82680908203125,-1.2417086180895567,1.3296499363929033,-1.188152384468913
1782987756833883000,7.8368828125,-1.3350620245695113,1.1741431483387947,-1.3573875458851457
1782987756843958000,7.8469580078125,-1.4384814825117587,1.0253010788708925,-1.5352251159518957
1782987756854032000,7.857031982421875,-1.4726222370445727,0.9209761965215205,-1.800680179195106
1782987756864107000,7.86710693359375,-1.3676912054955959,0.8007207545906305,-2.1808805426456033
1782987756874180900,7.877180908203125,-1.2527274402320385,0.5914321074664592,-2.5097885257542134
1782987756884256000,7.887256103515625,-1.1638619928210974,0.39802988852113486,-2.77848622418046
1782987756894329900,7.897329833984375,-1.0335112733334302,0.25552374407649037,-2.9725699956491587
1782987756904405000,7.907405029296875,-0.7885819885075092,0.13354074770063162,-3.023426614922285
1782987756914479600,7.917479736328125,-0.5278314496934413,0.027331951300799844,-3.0305025446578857
1782987756924554000,7.927553955078125,-0.24380583375394344,-0.16821224810928107,-2.9231963084101675
1782987756934627800,7.9376279296875,-0.05962240179181098,-0.3450371340021491,-2.7418726497933266
1782987756944703000,7.947702880859375,-0.08436813599169254,-0.4747331889733672,-2.5761902124226093
1782987756954776800,7.95777685546875,-0.2641822668284178,-0.5668474090471863,-2.428087417014688
1782987756964852000,7.96785205078125,-0.41361119627356524,-0.5552791363283992,-2.2870322020307183
1782987756974926600,7.977926513671875,-0.42333354886472224,-0.5002124981448054,-2.2393471985310316
1782987756985001000,7.9880009765625,-0.343953722679615,-0.49505584603399033,-2.144451238784194
1782987756995075800,7.998075927734375,-0.249545254188776,-0.6236889479488134,-1.9847157271191476
1782987757005150000,8.00814990234375,-0.133556822052598,-0.8496694944158196,-1.811777765662223
1782987757015224800,8.018224853515624,0.023719898283481596,-1.0288900432735681,-1.5987461326174437
1782987757025299200,8.02829931640625,0.08211480410695075,-1.1832093751087784,-1.3993787216573952
1782987757035373800,8.038373779296874,0.11011048001348972,-1.3886676502898334,-1.2128368169356136
1782987757045448200,8.0484482421875,0.054506081691384316,-1.568067355106771,-1.0836332216564566
1782987757055522800,8.058522705078126,0.01192132394015789,-1.6578043246552348,-1.0528155471317469
1782987757065597200,8.06859716796875,-0.03634732466638088,-1.6673486903309822,-1.1402526422400028
1782987757075671800,8.078671875,-0.1190519113600254,-1.6504007704004644,-1.1408755233787
1782987757085746200,8.08874609375,-0.29645138227045537,-1.6183710166722536,-1.0229278469335288
1782987757095820800,8.09882080078125,-0.5671756180882453,-1.6093068357288836,-0.8256260632663964
1782987757105895200,8.108895263671876,-0.65083122189641,-1.7357023878499864,-0.5230535677671432
1782987757115969800,8.1189697265625,-0.6334685836851597,-1.880888272897899,-0.18424919067472217
1782987757126044200,8.129044189453126,-0.6587134995788335,-1.9978630857229231,0.08040054753497243
1782987757136118800,8.139118896484375,-0.8789449809998273,-1.9294465521007775,-0.005028934077918529
1782987757146193200,8.149193115234375,-1.464958570548892,-1.524827056056261,-0.6110144675537943
1782987757156267800,8.159267822265624,-2.3861440259069204,-0.9424097374334931,-1.4406938978642225
1782987757166342100,8.169342041015625,-3.22493059951961,-0.36431408140212296,-1.9723523584999143
1782987757176416800,8.179416748046876,-3.624761692243814,0.2260264314353466,-2.196561657510698
1782987757186491100,8.1894912109375,-3.4177193627417086,0.6393737160757184,-2.058321938338876
1782987757196565800,8.199565673828126,-2.6700328637242317,0.6594602262929081,-1.7279460746347903
1782987757206640000,8.20964013671875,-1.5276801073998212,0.35903088030219077,-1.3005598893783985
1782987757216715000,8.219715087890625,-0.4915443307816982,-0.08019464969933032,-0.7677217174388468
1782987757226789000,8.2297890625,0.15101006115674973,-0.5415589462727308,-0.21223799844905733
1782987757236864000,8.239864013671875,0.5025134685635566,-0.7693325136363506,-0.06941007470414041
1782987757246938000,8.249938232421876,0.5313181227654218,-0.6726230747267603,-0.5644800953939557
1782987757257013000,8.260012939453125,0.13591127622425556,-0.43035219545513387,-1.3624704021073877
1782987757267087000,8.270087158203125,-0.4154360736131668,-0.2165510393425822,-1.9615709983751177
1782987757277162000,8.280161865234374,-0.9774801740318536,0.13531740198433398,-2.269812479421496
1782987757287236000,8.290236083984375,-1.4977169308125973,0.4756935584381222,-2.5571909129202366
1782987757297311000,8.30031103515625,-1.861999740293622,0.8092468831345438,-2.7817750365927814
1782987757307385000,8.310385009765625,-2.057696499916911,1.1580042067036032,-2.8763690907835957
1782987757317460000,8.3204599609375,-1.9747358926355838,1.4284963873311876,-2.774198463858664
1782987757327534000,8.3305341796875,-1.4908791937470436,1.5679674018636345,-2.444093379919976
1782987757337609000,8.34060888671875,-0.8484323538362979,1.5678101654753087,-1.9657466766245661
1782987757347683000,8.35068310546875,-0.1840162587016821,1.4863333670109509,-1.577828578403592
1782987757357758000,8.360758056640625,0.4998866271913051,1.3653601321995257,-1.2927524304978548
1782987757367832000,8.37083203125,1.1632651959717273,1.1958882394179702,-1.0725336624279618
1782987757377907000,8.380906982421875,1.6292162358134985,1.0071242016673088,-0.9146127989694476
1782987757387981000,8.39098095703125,1.8665397218108175,0.8774123646050691,-0.767392193223536
1782987757398056000,8.401055908203125,1.8478063797682522,0.8585971894979476,-0.6856523599088191
1782987757408130000,8.411130126953125,1.624785559889674,0.9315209714114665,-0.6993858478374779
1782987757418205000,8.421204833984374,1.2445634229987859,1.0813649113982915,-0.8124372036084532
1782987757428279000,8.431279052734375,0.8860720564007759,1.1593988759323954,-0.9421715447634458
1782987757438354000,8.44135400390625,0.5777256536751986,1.084359124778211,-1.0609937390208244
1782987757448428000,8.451427978515625,0.33502690438032146,0.9492606262415647,-1.0989819627620279
1782987757458503000,8.4615029296875,0.11359832212924957,0.7820014410734176,-1.0664797692164778
1782987757468577000,8.471576904296874,-0.15143208596110344,0.6907604967027903,-1.1177088750638067
1782987757478652000,8.48165185546875,-0.4977174664586782,0.6626181058019399,-1.1972739946879445
1782987757488726000,8.49172607421875,-0.967279682534933,0.6434545556485652,-1.29147948795259
1782987757498801000,8.50180078125,-1.3363637548178433,0.6453788017094135,-1.3698948530197144
1782987757508875000,8.511875,-1.5224842923223971,0.6241138953626155,-1.3911810944154859
1782987757518950000,8.521949951171875,-1.4865630841135977,0.5926648641318083,-1.339963825136423
1782987757529024000,8.53202392578125,-1.3133172257512806,0.6620283232152462,-1.2271157368525862
1782987757539099000,8.542098876953125,-0.9365870226293802,0.6081295597672463,-0.960747504287213
1782987757549173000,8.552173095703125,-0.4065630313277244,0.47376259037554264,-0.5707252003286033
1782987757559248000,8.562247802734374,0.049071781682968135,0.33500761515796185,-0.3264518951933831
1782987757569322000,8.572322021484375,0.24063363345861433,0.2032335848689079,-0.35456579065211113
1782987757579396900,8.58239697265625,0.13676818531453608,0.07271393855512141,-0.5440184682540595
1782987757589471000,8.592470947265625,-0.1884907737672329,-0.03498948031663895,-0.7674876894872635
1782987757599545900,8.6025458984375,-0.5432505526214838,-0.030229718568921086,-0.9669371527075767
1782987757609620000,8.612619873046874,-0.8767787428766488,0.0700046795964241,-1.1623719003938138
1782987757619694800,8.62269482421875,-1.1381330928027629,0.14705577057301997,-1.2770420895382761
1782987757629769000,8.63276904296875,-1.343973645299673,0.22109540477395057,-1.384699915702641
1782987757639843800,8.64284375,-1.3357511758774518,0.31447219212949273,-1.4261575691200792
1782987757649918000,8.65291796875,-0.948592517721653,0.3428811250120401,-1.3500544265180825
1782987757659992800,8.662992919921875,-0.33627310504913327,0.20258710365891455,-1.2392697005048394
1782987757670068000,8.67306787109375,0.34212183107733724,-0.015977905854582787,-0.9860270531028509
1782987757680141800,8.683141845703124,0.9100561585783958,-0.266615631455183,-0.7488141148079186
1782987757690217000,8.693217041015625,1.375533151167631,-0.5358727173298597,-0.7268480744544417
1782987757700290800,8.703290771484374,1.6386287918031215,-0.6361281582832337,-0.892197772739455
1782987757710366000,8.713365966796875,1.7329273701786994,-0.5588724846452474,-1.1219248853236437
1782987757720439800,8.723439697265626,1.7845640339136122,-0.4075777613282203,-1.258359016378224
1782987757730515000,8.733514892578125,1.7857330776929854,-0.24877719242572782,-1.246466772402078
1782987757740588800,8.7435888671875,1.4941753126829862,-0.10865209789872168,-0.9944893956955522
1782987757750664000,8.753663818359374,0.8679115458101033,0.04655716851353645,-0.5582086869742721
1782987757760737800,8.76373779296875,0.36938802366554735,0.07376783152222632,-0.1987435069080442
1782987757770813000,8.77381298828125,0.14134031553566456,-0.010142623829841614,-0.11657821472287178
1782987757780886800,8.78388671875,0.19910802937150002,-0.21204349879026413,-0.18479294216260314
1782987757790962000,8.7939619140625,0.5315104304671288,-0.5455874711364508,-0.30029782856553794
1782987757801035800,8.804035888671875,0.9564379705250262,-0.8895657437354326,-0.38773850387036796
1782987757811111000,8.81411083984375,1.157189675450325,-1.0405705441951751,-0.3590473930455744
1782987757821184800,8.824184814453124,1.1104892990738153,-0.9541805469870567,-0.20718056892901657
1782987757831260000,8.834260009765625,0.9166858058512211,-0.7578712084233761,-0.12266732537820935
1782987757841333800,8.844333740234376,0.7628326302230357,-0.5843979710459709,-0.1245667292587459
1782987757851409000,8.854408935546875,0.6689800420492887,-0.5085696998625994,-0.16737696632891894
1782987757861483000,8.86448291015625,0.6615870091885327,-0.5426192689806223,-0.27211642082855103
1782987757871558000,8.874557861328125,0.66556468064785,-0.5819149220585823,-0.4553419675439596
1782987757881632000,8.884632080078125,0.663194444385171,-0.6837269448041915,-0.5914044888071716
1782987757891707000,8.894706787109374,0.6626964317351579,-0.9531453587204217,-0.6916923707254231
1782987757901781000,8.904781005859375,0.659626522770524,-1.2237228795439004,-0.6916847719408571
1782987757911855900,8.91485595703125,0.669153060528636,-1.3176292437314987,-0.6590576368413865
1782987757921930000,8.924929931640625,0.6872831759810447,-1.3448369841307402,-0.7652794388532638
1782987757932004900,8.9350048828125,0.7056570370614528,-1.3680220448851586,-0.9062694796465337
1782987757942079000,8.945078857421874,0.7917226246207952,-1.342936703467369,-1.0009142411112786
1782987757952153900,8.95515380859375,0.976474211859703,-1.2007459085822105,-1.0926438457816838
1782987757962228000,8.96522802734375,0.9788543849945068,-1.054489179432392,-0.9107214906193315
1782987757972302800,8.975302734375,0.7527437824070453,-1.02786070022583,-0.5064104760020971
1782987757982377500,8.98537744140625,0.3875105403333902,-1.053883030232787,-0.17543357766494153
1782987757992452400,8.995452392578125,0.06695113724470138,-0.9918383697301149,-0.17785452120155096
1782987758002526500,9.0055263671875,-0.26085750631988047,-0.9178712162435054,-0.3526685056634247
1782987758012601300,9.015601318359375,-0.48467035335898395,-0.9755763862371444,-0.5214448173962534
1782987758022675500,9.025675537109375,-0.5031254629820585,-1.1136708517193794,-0.6870113733023405
1782987758032750300,9.035750244140624,-0.34374504836499686,-1.1690858649492264,-0.7883373660966754
1782987758042824400,9.045824462890625,-0.1274994217097759,-1.1549912886232137,-0.8052249341420828
1782987758052899600,9.055899658203124,-0.022849545189738273,-1.0449544583678245,-0.7695577006943524
1782987758062973400,9.065973388671875,0.03161971162259578,-0.8450970719337463,-0.8510288000702857
1782987758073048600,9.076048583984376,-0.0026665888607501982,-0.4940542677760124,-0.8659085354246199
1782987758083122400,9.086122314453124,-0.12345336118936538,-0.03347673766613007,-0.744513275808841
1782987758093197600,9.096197509765625,-0.3171510559499264,0.40158173578381534,-0.3959240022830665
1782987758103271400,9.106271484375,-0.6346960796535015,0.5754419266521931,0.265913474535197
1782987758113346600,9.1163466796875,-0.9886994871824979,0.47764323120117186,1.0475981047444045
1782987758123420400,9.12642041015625,-1.3191326340317726,0.3155313457936048,1.3593867568783462
1782987758133495600,9.13649560546875,-1.581238094586134,0.18726035518944262,0.9374621980287134
1782987758143569400,9.1465693359375,-1.6853133860886096,0.1920896750420332,0.0691736355997622
1782987758153644500,9.15664453125,-1.7339169657379387,0.20582418588399887,-0.7815538434363901
1782987758163718400,9.166718505859375,-1.6869523854672908,0.19634733248651026,-1.26524819137007
1782987758173793500,9.17679345703125,-1.5012281538039445,0.21267945860624313,-1.3887937608875334
1782987758183867400,9.186867431640625,-1.1078946064054966,0.26272797636687756,-1.3243575290732086
1782987758193942500,9.196942626953126,-0.5641816969692707,0.4015367275983095,-1.1310901885539293
1782987758204016400,9.207016357421875,-0.052527475094795224,0.48001405198574065,-0.8075076382517814
1782987758214091500,9.217091552734376,0.35927111879885193,0.5830161612987518,-0.37730961044505235
1782987758224166400,9.22716650390625,0.5792758057266474,0.6708832453221082,-0.05350464956387877
1782987758234240500,9.237240478515625,0.5967839898884296,0.8524491882622242,0.05592252436056733
1782987758244315400,9.2473154296875,0.38097383204102514,1.1314344719469547,0.0360686538554728
1782987758254389500,9.257389404296875,0.11423895812034607,1.419527191194892,-0.02840922514349222
1782987758264464400,9.26746435546875,-0.06592939298152924,1.6983464706629514,-0.0105799923337996
1782987758274538500,9.27753857421875,-0.3321060484975576,1.9980209066331385,0.07487360080704092
1782987758284613400,9.28761328125,-0.6952046166300774,2.1949071683019397,0.35563188551366326
1782987758294687500,9.2976875,-0.9205547562390566,2.30193955604434,0.7002756362840533
1782987758304762400,9.307762451171875,-0.9187713799536228,2.351162144374847,0.8374237608268856
1782987758314836500,9.31783642578125,-0.5420891076266765,2.2885493285953995,0.8494605278402566
1782987758324911600,9.32791162109375,0.04248772711753845,2.094527224186063,0.8340840950101613
1782987758334985500,9.3379853515625,0.7278431499063969,1.7979016543924808,0.8701099326372146
1782987758345060600,9.348060546875,1.3716004878938197,1.4169640627086162,0.9273973156102001
1782987758355134500,9.358134521484375,1.8897814811885356,1.0830489189624786,0.9756449214287102
1782987758365209600,9.368209716796875,2.2328554984241724,0.9053431585818529,0.9854241187736391
1782987758375283500,9.378283447265625,2.5034920559585094,0.8489958329379558,1.0184538433246313
1782987758385358600,9.388358642578124,2.7184295226246116,0.7733838348537683,1.0930626557156442
1782987758395432400,9.398432373046875,2.775307594144344,0.692230569255352,1.2004011867977677
1782987758405507600,9.408507568359376,2.5738959640055894,0.630282354864478,1.295476887025684
1782987758415581400,9.41858154296875,2.2292805625468493,0.5471101506590843,1.2620396045871078
1782987758425656600,9.428656494140625,1.721413457995653,0.4554430898308754,1.193140548145026
1782987758435730400,9.43873046875,1.1927613395690917,0.3041612259954214,1.069853045041859
1782987758445805600,9.4488056640625,0.7702355999559164,0.06088321550786495,0.8893328117623924
1782987758455879400,9.45887939453125,0.46034196778833864,-0.18897241980433463,0.7130098840422928
1782987758465954600,9.46895458984375,0.31539573671519755,-0.4142115002542734,0.5699940365098416
1782987758476028400,9.4790283203125,0.24840894363522528,-0.6457271767556667,0.4467237768024206
1782987758486103600,9.489103515625,0.13120178335905075,-0.7139326979756355,0.36378859622329474
1782987758496177400,9.499177490234375,-0.07044716266691685,-0.7076695459276438,0.30849209480658174
1782987758506252500,9.50925244140625,-0.3276730344861746,-0.6509983951568603,0.19693536150753496
1782987758516326400,9.519326416015625,-0.6000514672517776,-0.4933440736800432,0.16020649017766117
1782987758526401500,9.529401611328124,-0.802105486947298,-0.3589548924565315,0.14466054599955677
1782987758536475400,9.539475341796875,-0.8961094662904738,-0.2695750657826662,0.10281864250488579
1782987758546550500,9.549550537109376,-0.8787918362647295,-0.17124153280258178,0.06107939566709101
1782987758556624400,9.559624267578124,-0.8149012556344271,-0.14157938498854636,0.015423706037923693
1782987758566699500,9.569699462890625,-0.7385913384139537,-0.15303133785128592,0.03529876546151936
1782987758576773400,9.5797734375,-0.6678676968932151,-0.10541092402040958,0.11421711161471902
1782987758586848500,9.5898486328125,-0.6556394989609718,-0.018334698113799095,0.10638912140280007
1782987758596922400,9.59992236328125,-0.6447293978899717,0.09301379926204681,0.1375080438964069
1782987758606997500,9.60999755859375,-0.6048112289994955,0.12486731964051723,0.21029650899246333
1782987758617071400,9.6200712890625,-0.6050625734120607,0.015506196689605713,0.3263767110653221
1782987758627146500,9.630146484375,-0.6014987434506416,-0.1964940474808216,0.41059681688845157
1782987758637220400,9.640220458984375,-0.5197679702252149,-0.35613457433879375,0.3574051057312637
1782987758647295500,9.65029541015625,-0.32928573037981984,-0.3981348102003336,0.2370467148825526
1782987758657369300,9.660369384765625,-0.03336801659464836,-0.42048225108683107,0.18934972868412733
1782987758667444500,9.670444580078126,0.012694061878323554,-0.3983353012084961,0.2656462019011378
1782987758677518300,9.680518310546875,-0.2913122658163309,-0.2632733352899551,0.38914296384081243
1782987758687593500,9.690593505859376,-0.772955380308628,0.009778466692566871,0.4781953121259808
1782987758697668600,9.700668701171875,-1.1927777061820029,0.325396906247735,0.4454626708254218
1782987758707742500,9.710742431640625,-1.414157773116231,0.6062076517939567,0.38664427889287467
1782987758717817600,9.720817626953124,-1.4741525153517723,0.8376268821835517,0.4212428601957857
1782987758727891500,9.730891357421875,-1.4755863475471733,0.8411790217071771,0.45900268200859423
1782987758737966600,9.740966552734376,-1.105952240166068,0.3849228619277477,0.47977717448994517
1782987758748040400,9.75104052734375,-0.5509878688752651,0.12889701354801655,0.4203879969321191
1782987758758115600,9.761115478515626,-0.032383097210526464,0.10383972918093204,0.26694340210482476
1782987758768189400,9.771189453125,0.3181540955126285,-0.06283902575075626,-0.12598346418887377
1782987758778264600,9.7812646484375,0.2920797430574894,-0.2195867537766695,-0.5493097065299749
1782987758788338400,9.79133837890625,-0.08399579554796219,-0.08640110312402248,-0.850999427845329
