time,seconds_elapsed,z,y,x
1782987749055114500,0.058114501953125,0.40746498107910156,-0.3613126575946808,-0.29872676730155945
1782987749065188600,0.068188720703125,0.3276154100894928,-0.4468267560005188,-0.28753751516342163
1782987749075263500,0.078263427734375,0.2577258050441742,-0.47123461961746216,-0.21200066804885864
1782987749085337600,0.088337646484375,0.1985517144203186,-0.39827120304107666,-0.12795449793338776
1782987749095412500,0.09841259765625,0.14512044191360474,-0.2536138892173767,-0.08063758909702301
1782987749105486600,0.108486572265625,0.11093397438526154,-0.02473650500178337,-0.06666690856218338
1782987749115561500,0.1185615234375,0.10464039444923401,0.20835161209106445,-0.09884349256753922
1782987749125635600,0.128635498046875,0.10566837340593338,0.3948538303375244,-0.1470368504524231
1782987749135710500,0.13871044921875,0.09426498413085938,0.5249140858650208,-0.20497950911521912
1782987749145784600,0.14878466796875,0.06340613961219788,0.5699747800827026,-0.2368018925189972
1782987749155859500,0.158859375,0.0252827201038599,0.5910608768463135,-0.22967101633548737
1782987749165933600,0.16893359375,-0.013879596255719662,0.616042971611023,-0.19132016599178314
1782987749176008400,0.179008544921875,-0.05386935546994209,0.5958604216575623,-0.1454959511756897
1782987749186082600,0.18908251953125,-0.08428878337144852,0.5098262429237366,-0.1192595511674881
1782987749196157400,0.199157470703125,-0.09153391420841217,0.37216290831565857,-0.11881506443023682
1782987749206231600,0.2092314453125,-0.07245209813117981,0.2687225341796875,-0.13836106657981873
1782987749216306400,0.219306396484375,-0.041006289422512054,0.2179722785949707,-0.15816514194011688
1782987749226380500,0.229380615234375,0.0065500447526574135,0.1859288513660431,-0.17598435282707214
1782987749236455700,0.23945556640625,0.07492590695619583,0.17117200791835785,-0.18819546699523926
1782987749246529500,0.249529541015625,0.15175090730190277,0.14723286032676697,-0.18301668763160706
1782987749256604700,0.259604736328125,0.2144332081079483,0.06682350486516953,-0.1838449388742447
1782987749266678500,0.269678466796875,0.2606070935726166,-0.04968126863241196,-0.19014650583267212
1782987749276753700,0.279753662109375,0.2933613061904907,-0.12598562240600586,-0.192434161901474
1782987749286827500,0.28982763671875,0.3027808964252472,-0.13829369843006134,-0.1807980090379715
1782987749296902700,0.299902587890625,0.3055031895637512,-0.10294662415981293,-0.13876107335090637
1782987749306976500,0.3099765625,0.3127800226211548,-0.031614117324352264,-0.06514225155115128
1782987749317051600,0.3200517578125,0.31049689650535583,0.0649169459939003,0.01913774199783802
1782987749327125500,0.33012548828125,0.30132415890693665,0.1447332203388214,0.10361480712890625
1782987749337200600,0.34020068359375,0.29801037907600403,0.20334140956401825,0.17880596220493317
1782987749347274500,0.3502744140625,0.2896616458892822,0.22727683186531067,0.22967500984668732
1782987749357349600,0.360349609375,0.28064578771591187,0.20053470134735107,0.24389229714870453
1782987749367423500,0.370423583984375,0.2738605737686157,0.15108752250671387,0.22634871304035187
1782987749377498600,0.38049853515625,0.2763644754886627,0.09404287487268448,0.18578371405601501
1782987749387572500,0.390572509765625,0.27517351508140564,0.010668623261153698,0.13220517337322235
1782987749397647600,0.400647705078125,0.27985721826553345,-0.09453076869249344,0.08791147917509079
1782987749407721500,0.410721435546875,0.2894962728023529,-0.18985702097415924,0.05926145985722542
1782987749417796600,0.420796630859375,0.31006836891174316,-0.2701374888420105,0.05290822312235832
1782987749427870500,0.430870361328125,0.3322248160839081,-0.32552802562713623,0.054069627076387405
1782987749437945600,0.440945556640625,0.3388022780418396,-0.34264495968818665,0.05716129019856453
1782987749448019500,0.45101953125,0.32364678382873535,-0.3366893529891968,0.07219536602497101
1782987749458094600,0.461094482421875,0.2730776071548462,-0.3022506833076477,0.12053067237138748
1782987749468168400,0.47116845703125,0.1968717873096466,-0.25651195645332336,0.20693586766719818
1782987749478243600,0.48124365234375,0.10309256613254547,-0.2045598030090332,0.3235679566860199
1782987749488317400,0.4913173828125,0.011992746964097023,-0.14552603662014008,0.4466880261898041
1782987749498392600,0.501392578125,-0.053339652717113495,-0.09346523880958557,0.5592278838157654
1782987749508466400,0.511466552734375,-0.09354113787412643,-0.07490060478448868,0.6547980904579163
1782987749518541600,0.52154150390625,-0.1117081567645073,-0.08047327399253845,0.7126733660697937
1782987749528615400,0.531615478515625,-0.11680837720632553,-0.07410778105258942,0.7132243514060974
1782987749538690600,0.541690673828125,-0.1113683357834816,-0.08132974058389664,0.6523130536079407
1782987749548764400,0.551764404296875,-0.08906249701976776,-0.1277150809764862,0.5590531826019287
1782987749558839600,0.561839599609375,-0.08088286221027374,-0.13755546510219574,0.45956358313560486
1782987749568913400,0.571913330078125,-0.0948261097073555,-0.06012618914246559,0.37044569849967957
1782987749578987500,0.581987548828125,-0.13839462399482727,-0.015441007912158966,0.2844090759754181
1782987749589062400,0.5920625,-0.21001209318637848,-0.06142580881714821,0.18434134125709534
1782987749599136500,0.602136474609375,-0.29034286737442017,-0.1347586065530777,0.0799611434340477
1782987749609211400,0.61221142578125,-0.3491148352622986,-0.18217246234416962,-0.01576378382742405
1782987749619285500,0.622285400390625,-0.3746497631072998,-0.18815605342388153,-0.08225705474615097
1782987749629360600,0.632360595703125,-0.37528467178344727,-0.11853437125682831,-0.13080115616321564
1782987749639434500,0.6424345703125,-0.3538643419742584,-0.012781841680407524,-0.14926324784755707
1782987749649509600,0.652509521484375,-0.312616765499115,0.027249997481703758,-0.14939774572849274
1782987749659583500,0.66258349609375,-0.26030081510543823,-0.008697351440787315,-0.13988253474235535
1782987749669658600,0.67265869140625,-0.20184311270713806,-0.12573742866516113,-0.12174960225820541
1782987749679732500,0.682732421875,-0.17184047400951385,-0.2956271171569824,-0.11003835499286652
1782987749689807600,0.6928076171875,-0.161912739276886,-0.44496574997901917,-0.09596434235572815
1782987749699881500,0.702881591796875,-0.1726817637681961,-0.45348092913627625,-0.07814513891935349
1782987749709956600,0.71295654296875,-0.19038964807987213,-0.2999174892902374,-0.05668991059064865
1782987749720030500,0.723030517578125,-0.18821118772029877,-0.08962788432836533,-0.023188410326838493
1782987749730105600,0.733105712890625,-0.15867513418197632,0.09895507246255875,0.043182358145713806
1782987749740179500,0.743179443359375,-0.10323131084442139,0.31344500184059143,0.15064676105976105
1782987749750254600,0.753254638671875,-0.05054972693324089,0.5137860774993896,0.27856719493865967
1782987749760328400,0.763328369140625,-0.0149224903434515,0.6407091617584229,0.39367005228996277
1782987749770403600,0.773403564453125,0.00672368286177516,0.6644754409790039,0.46969106793403625
1782987749780477400,0.7834775390625,0.016205601394176483,0.59348464012146,0.5051355957984924
1782987749790552600,0.793552490234375,0.014089720323681831,0.459773451089859,0.49794426560401917
1782987749800626400,0.80362646484375,-0.001677791471593082,0.3183039426803589,0.461307168006897
1782987749810701600,0.81370166015625,-0.031014375388622284,0.24777278304100037,0.4088956117630005
1782987749820775400,0.823775390625,-0.047208257019519806,0.2560957074165344,0.3511819839477539
1782987749830850600,0.8338505859375,-0.0532003715634346,0.38364484906196594,0.2866978049278259
1782987749840924400,0.84392431640625,-0.03524480760097504,0.5618934035301208,0.21901117265224457
1782987749850999600,0.85399951171875,-0.014197844080626965,0.7148691415786743,0.13592161238193512
1782987749861073400,0.864073486328125,-0.007525027729570866,0.8469286561012268,0.05777541548013687
1782987749871148500,0.8741484375,-0.014958709478378296,0.8906577229499817,-0.004699414130300283
1782987749881222400,0.884222412109375,-0.046119559556245804,0.7994660139083862,-0.05307839810848236
1782987749891297500,0.894297607421875,-0.07200787961483002,0.599983274936676,-0.0833558738231659
1782987749901371400,0.904371337890625,-0.06845469027757645,0.36219069361686707,-0.10091356188058853
1782987749911446500,0.914446533203125,-0.047623712569475174,0.16217239201068878,-0.12475418299436569
1782987749921520400,0.924520263671875,-0.0017915084026753902,0.0431530624628067,-0.16015425324440002
1782987749931595500,0.934595458984375,0.05519933998584747,0.010231331922113895,-0.21358445286750793
1782987749941669400,0.94466943359375,0.11715245246887207,0.02966175600886345,-0.2783797085285187
1782987749951744500,0.95474462890625,0.17286498844623566,0.07192186266183853,-0.32820770144462585
1782987749961818400,0.964818359375,0.21547210216522217,0.15309233963489532,-0.3398073613643646
1782987749971893500,0.9748935546875,0.2391582578420639,0.20766450464725494,-0.3189191222190857
1782987749981966800,0.984966796875,0.24793390929698944,0.20326310396194458,-0.2740994691848755
1782987749992041700,0.995041748046875,0.2312912791967392,0.14883661270141602,-0.20202580094337463
1782987750002115800,1.00511572265625,0.19809390604496002,0.055506136268377304,-0.12594568729400635
1782987750012191000,1.01519091796875,0.16455112397670746,-0.036619529128074646,-0.06985258311033249
1782987750022264800,1.025264892578125,0.1406170278787613,-0.10478527098894119,-0.0342533104121685
1782987750032340000,1.035340087890625,0.11226555705070496,-0.1433963030576706,-0.036909013986587524
1782987750042413800,1.045413818359375,0.08573327958583832,-0.16143709421157837,-0.06461521238088608
1782987750052489000,1.055489013671875,0.06018131598830223,-0.13086506724357605,-0.10967429727315903
1782987750062562800,1.065562744140625,0.03404292091727257,-0.052934855222702026,-0.14479953050613403
1782987750072638000,1.075637939453125,0.013124857097864151,0.010541857220232487,-0.16133110225200653
1782987750082711800,1.0857119140625,-0.0004569984448608011,0.06951489299535751,-0.14352653920650482
1782987750092787000,1.095786865234375,-0.017061008140444756,0.15638267993927002,-0.09790658950805664
1782987750102860800,1.10586083984375,-0.03855937719345093,0.23001669347286224,-0.035052791237831116
1782987750112936000,1.11593603515625,-0.0720643401145935,0.2825177013874054,0.03309350460767746
1782987750123010000,1.126010009765625,-0.10815336555242538,0.29676002264022827,0.09975428879261017
1782987750133085000,1.1360849609375,-0.14473268389701843,0.2715124785900116,0.1487082540988922
1782987750143159000,1.146158935546875,-0.18549449741840363,0.21938614547252655,0.17900118231773376
1782987750153234000,1.15623388671875,-0.2165277749300003,0.14009878039360046,0.18661648035049438
1782987750163308000,1.16630810546875,-0.2527094781398773,0.08384429663419724,0.17644400894641876
1782987750173383000,1.1763828125,-0.28235793113708496,0.05073428526520729,0.15301911532878876
1782987750183457000,1.18645703125,-0.2995590269565582,0.015896674245595932,0.10853499919176102
1782987750193532000,1.196531982421875,-0.3038323223590851,0.033303361386060715,0.06265406310558319
1782987750203606000,1.20660595703125,-0.3011670410633087,0.19256465137004852,0.012942962348461151
1782987750213681000,1.216680908203125,-0.2983534038066864,0.40035539865493774,-0.040640637278556824
1782987750223755000,1.226755126953125,-0.2700099050998688,0.40842264890670776,-0.11581448465585709
1782987750233830000,1.236829833984375,-0.2502170205116272,0.23903441429138184,-0.24013642966747284
1782987750243904000,1.246904052734375,-0.24400120973587036,-0.08183813840150833,-0.3856757879257202
1782987750253979000,1.256978759765625,-0.23364657163619995,-0.42695000767707825,-0.505319356918335
1782987750264053000,1.267052978515625,-0.21041955053806305,-0.5699878334999084,-0.540810763835907
1782987750274128000,1.2771279296875,-0.17594759166240692,-0.46558713912963867,-0.46203580498695374
1782987750284202000,1.287201904296875,-0.10770276188850403,-0.16917598247528076,-0.27222779393196106
1782987750294276900,1.29727685546875,-0.0087218526750803,0.23909194767475128,-0.0033515882678329945
1782987750304351000,1.30735107421875,0.10438739508390427,0.56172114610672,0.25943902134895325
1782987750314425900,1.31742578125,0.22660118341445923,0.6487084627151489,0.46729686856269836
1782987750324500000,1.3275,0.3497622609138489,0.5590898990631104,0.619406521320343
1782987750334574800,1.337574951171875,0.4394673705101013,0.3872246742248535,0.7171040773391724
1782987750344649000,1.34764892578125,0.4650702178478241,0.17152461409568787,0.7480867505073547
1782987750354723800,1.357723876953125,0.4603936970233917,-0.009010539390146732,0.7084844708442688
1782987750364798000,1.3677978515625,0.4456736147403717,-0.09274458140134811,0.6241565346717834
1782987750374872800,1.377872802734375,0.41679003834724426,-0.09037596732378006,0.49921754002571106
1782987750384947000,1.387947021484375,0.3953494429588318,-0.05914774164557457,0.34587323665618896
1782987750395021800,1.398021728515625,0.39343172311782837,-0.02173059619963169,0.18090826272964478
1782987750405096000,1.408095947265625,0.41785556077957153,-0.002936667762696743,0.04110482707619667
1782987750415170800,1.4181708984375,0.4449803829193115,0.020427243784070015,-0.04031812772154808
1782987750425245000,1.428244873046875,0.4542196989059448,0.027089940384030342,-0.06101221963763237
1782987750435319000,1.438319091796875,0.44856101274490356,-0.0015715312911197543,-0.04279513284564018
1782987750445394000,1.448393798828125,0.42265644669532776,-0.028858812525868416,0.018081266433000565
1782987750455468000,1.458468017578125,0.38827022910118103,-0.03348126262426376,0.10077907145023346
1782987750465543000,1.46854296875,0.34878408908843994,-0.015839416533708572,0.17795056104660034
1782987750475617800,1.47861767578125,0.31912365555763245,0.013265205547213554,0.24508512020111084
1782987750485692000,1.48869189453125,0.3033745288848877,0.05240302160382271,0.29347342252731323
1782987750495766000,1.49876611328125,0.2966407239437103,0.07933396846055984,0.3145155906677246
1782987750505841000,1.5088408203125,0.29400739073753357,0.08694848418235779,0.3073034882545471
1782987750515915000,1.5189150390625,0.28619128465652466,0.07980907708406448,0.29415518045425415
1782987750525990000,1.528989990234375,0.2799781262874603,0.04638827219605446,0.27584463357925415
1782987750536064000,1.53906396484375,0.26717472076416016,0.018878882750868797,0.26467907428741455
1782987750546139000,1.549138916015625,0.24575570225715637,-0.018394719809293747,0.2662809491157532
1782987750556213000,1.559212890625,0.19684942066669464,-0.07852569967508316,0.267492413520813
1782987750566288000,1.569287841796875,0.11603792011737823,-0.15075142681598663,0.2690562307834625
1782987750576362000,1.579362060546875,0.005792907904833555,-0.211881622672081,0.2582930624485016
1782987750586436900,1.589436767578125,-0.11727416515350342,-0.2583298087120056,0.2328425645828247
1782987750596511000,1.599510986328125,-0.23514460027217865,-0.2396477460861206,0.20613372325897217
1782987750606585900,1.6095859375,-0.3296564519405365,-0.13570855557918549,0.18196287751197815
1782987750616660000,1.619659912109375,-0.3994283676147461,-0.01438106968998909,0.14258751273155212
1782987750626734800,1.62973486328125,-0.42948025465011597,0.11148951202630997,0.10578794777393341
1782987750636809000,1.63980908203125,-0.42823362350463867,0.2021152824163437,0.07753021270036697
1782987750646883800,1.6498837890625,-0.40966129302978516,0.20555315911769867,0.05918928608298302
1782987750656958000,1.6599580078125,-0.38802576065063477,0.14280562102794647,0.05467842519283295
1782987750667032800,1.67003271484375,-0.37159591913223267,0.04631476849317551,0.05868488550186157
1782987750677107000,1.68010693359375,-0.35776638984680176,-0.048337172716856,0.08139818906784058
1782987750687181800,1.690181884765625,-0.3460807204246521,-0.12657605111598969,0.11015579849481583
1782987750697256000,1.700255859375,-0.3376328945159912,-0.16012495756149292,0.14255288243293762
1782987750707330800,1.710330810546875,-0.32959040999412537,-0.16396549344062805,0.16234657168388367
1782987750717405000,1.720405029296875,-0.3093980550765991,-0.12746661901474,0.15577761828899384
1782987750727479800,1.730479736328125,-0.27379506826400757,-0.10066162794828415,0.13222062587738037
1782987750737554000,1.740553955078125,-0.2259330004453659,-0.11947260051965714,0.08151110261678696
1782987750747628800,1.75062890625,-0.17941023409366608,-0.19180218875408173,0.03809864819049835
1782987750757703000,1.760702880859375,-0.146501824259758,-0.2799608111381531,0.017434651032090187
1782987750767777800,1.77077783203125,-0.13777969777584076,-0.3693615198135376,0.030127275735139847
1782987750777852000,1.780851806640625,-0.1500755250453949,-0.4446030259132385,0.0819486603140831
1782987750787927000,1.790927001953125,-0.160454660654068,-0.5032045245170593,0.14697213470935822
1782987750798001200,1.801001220703125,-0.1384822428226471,-0.426932156085968,0.223907932639122
1782987750808076000,1.811075927734375,-0.07948070764541626,-0.17337818443775177,0.3202911913394928
1782987750818150100,1.821150146484375,-0.026758909225463867,-0.12320102751255035,0.4062249958515167
1782987750828225000,1.83122509765625,0.022173479199409485,-0.42003190517425537,0.3479451835155487
1782987750838299100,1.841299072265625,0.0736132338643074,-0.6736548542976379,0.20096905529499054
1782987750848374000,1.8513740234375,0.11211135983467102,-0.711081862449646,0.03675615042448044
1782987750858448100,1.8614482421875,0.08663129806518555,-0.4342270791530609,-0.04646417126059532
1782987750868523000,1.87152294921875,-0.040177248418331146,-0.024878984317183495,-0.034023482352495193
1782987750878597000,1.88159716796875,-0.24974697828292847,0.3474482297897339,0.0692022368311882
1782987750888672000,1.891672119140625,-0.4449356496334076,0.5363446474075317,0.2213185429573059
1782987750898746000,1.90174609375,-0.5257918834686279,0.5427969694137573,0.37078338861465454
1782987750908821000,1.911821044921875,-0.47391989827156067,0.3298703134059906,0.4600972831249237
1782987750918895000,1.92189501953125,-0.32539433240890503,-0.07294131815433502,0.4373323321342468
1782987750928970000,1.931969970703125,-0.1311686784029007,-0.4635447561740875,0.3445669710636139
1782987750939044000,1.942044189453125,0.04190430790185928,-0.7155746221542358,0.22767896950244904
1782987750949119000,1.952118896484375,0.1461087465286255,-0.8224688172340393,0.1104479506611824
1782987750959193000,1.962193115234375,0.17606796324253082,-0.8088246583938599,0.0188386682420969
1782987750969268000,1.97226806640625,0.14988642930984497,-0.666847288608551,-0.034754250198602676
1782987750979342300,1.98234228515625,0.09410838782787323,-0.42284366488456726,-0.013483318500220776
1782987750989417500,1.99241748046875,-0.00108257494866848,-0.18281055986881256,0.08738763630390167
1782987750999491300,2.0024912109375,-0.13104483485221863,-0.040537573397159576,0.25601792335510254
1782987751009566500,2.01256640625,-0.2574901282787323,-0.03552230820059776,0.44395560026168823
1782987751019640300,2.022640380859375,-0.3581509590148926,-0.08027726411819458,0.601029098033905
1782987751029715500,2.032715576171875,-0.41716712713241577,-0.1463651955127716,0.6958171129226685
1782987751039789300,2.042789306640625,-0.44945529103279114,-0.2076658457517624,0.7092218995094299
1782987751049864400,2.052864501953125,-0.4614001214504242,-0.2654319405555725,0.6401642560958862
1782987751059938300,2.062938232421875,-0.45282766222953796,-0.2773192226886749,0.5131072402000427
1782987751070013400,2.073013427734375,-0.43257513642311096,-0.24107520282268524,0.3585379123687744
1782987751080087300,2.08308740234375,-0.4149729609489441,-0.1945340633392334,0.19299954175949097
1782987751090162400,2.093162353515625,-0.4035216271877289,-0.16826331615447998,0.03755589574575424
1782987751100236300,2.103236328125,-0.38876426219940186,-0.1627814620733261,-0.09693693369626999
1782987751110311400,2.1133115234375,-0.376615971326828,-0.17346100509166718,-0.18149256706237793
1782987751120385500,2.123385498046875,-0.35587048530578613,-0.17476435005664825,-0.2281080037355423
1782987751130460400,2.13346044921875,-0.32608091831207275,-0.1611931473016739,-0.24730566143989563
1782987751140534500,2.143534423828125,-0.28665441274642944,-0.11251509189605713,-0.25232598185539246
1782987751150609400,2.153609375,-0.21900078654289246,-0.08844251185655594,-0.2309839427471161
1782987751160683500,2.16368359375,-0.11972720175981522,-0.08390821516513824,-0.15523645281791687
1782987751170757600,2.173757568359375,-0.018881279975175858,-0.0976722314953804,-0.012226838618516922
1782987751180832500,2.18383251953125,0.05048421397805214,-0.14850132167339325,0.1535900980234146
1782987751190907400,2.193907470703125,0.09506499767303467,-0.2025216817855835,0.30005010962486267
1782987751200981500,2.2039814453125,0.13071273267269135,-0.24751845002174377,0.39740675687789917
1782987751211055600,2.2140556640625,0.1571267694234848,-0.272418737411499,0.4388785660266876
1782987751221130500,2.224130615234375,0.16134175658226013,-0.24381957948207855,0.43949028849601746
1782987751231204600,2.23420458984375,0.13761325180530548,-0.19540438055992126,0.39302024245262146
1782987751241279500,2.244279541015625,0.07415439188480377,-0.13052311539649963,0.31919848918914795
1782987751251353600,2.254353515625,-0.00986461527645588,-0.06581816077232361,0.2270057201385498
1782987751261428500,2.264428466796875,-0.09348680824041367,0.017105218023061752,0.1339958906173706
1782987751271502600,2.274502685546875,-0.15256717801094055,0.12767966091632843,0.05889447405934334
1782987751281577500,2.284577392578125,-0.18644151091575623,0.1961953490972519,0.010289122350513935
1782987751291651600,2.294651611328125,-0.19862733781337738,0.20017144083976746,-0.006618754006922245
1782987751301726500,2.3047265625,-0.20150461792945862,0.23172137141227722,0.02316044643521309
1782987751311800600,2.314800537109375,-0.21563242375850677,0.2000041902065277,0.07818961143493652
1782987751321875500,2.32487548828125,-0.24046187102794647,0.1171276867389679,0.12483593821525574
1782987751331949600,2.334949462890625,-0.27370530366897583,0.0666341558098793,0.15030056238174438
1782987751342024400,2.3450244140625,-0.30008551478385925,0.04009229317307472,0.1399696171283722
1782987751352098600,2.3550986328125,-0.32434558868408203,0.04244066774845123,0.08670932799577713
1782987751362173400,2.36517333984375,-0.34867116808891296,0.08721080422401428,0.0035052525345236063
1782987751372247600,2.37524755859375,-0.36440539360046387,0.18166913092136383,-0.08716393262147903
1782987751382322400,2.385322509765625,-0.3870451748371124,0.32534080743789673,-0.16421157121658325
1782987751392396500,2.395396484375,-0.41326215863227844,0.48425137996673584,-0.2043752372264862
1782987751402471400,2.405471435546875,-0.42708662152290344,0.6931816935539246,-0.214273139834404
1782987751412545500,2.415545654296875,-0.4186241626739502,0.7359419465065002,-0.2199464738368988
1782987751422620400,2.425620361328125,-0.3719346821308136,0.5088595151901245,-0.2684546113014221
1782987751432694500,2.435694580078125,-0.29998698830604553,0.16577671468257904,-0.3652922213077545
1782987751442769400,2.445769287109375,-0.19990672171115875,-0.21659834682941437,-0.4981203079223633
1782987751452843500,2.455843505859375,-0.10624334961175919,-0.4482076168060303,-0.6187343597412109
1782987751462918400,2.46591845703125,-0.06045402213931084,-0.45855799317359924,-0.706157386302948
1782987751472992500,2.475992431640625,-0.04753343015909195,-0.3181249797344208,-0.7402392029762268
1782987751483067400,2.4860673828125,-0.03959161788225174,-0.08285227417945862,-0.6984336972236633
1782987751493141500,2.4961416015625,-0.03952477127313614,0.16540546715259552,-0.5786241888999939
1782987751503216400,2.50621630859375,-0.038052842020988464,0.31779900193214417,-0.3901222050189972
1782987751513290500,2.51629052734375,-0.03675828129053116,0.3461400866508484,-0.16852137446403503
1782987751523365400,2.526365478515625,-0.028364529833197594,0.3016496002674103,0.056178584694862366
1782987751533439500,2.536439453125,-0.026194851845502853,0.17436860501766205,0.2440163940191269
1782987751543514400,2.546514404296875,-0.018449313938617706,-0.01702532172203064,0.3718308210372925
1782987751553588500,2.55658837890625,0.003034938359633088,-0.20163963735103607,0.4276898205280304
1782987751563663400,2.566663330078125,0.03632365167140961,-0.3323363959789276,0.4066852033138275
1782987751573737500,2.576737548828125,0.05615647882223129,-0.4228958487510681,0.3055228888988495
1782987751583812400,2.586812255859375,0.05727234482765198,-0.47083115577697754,0.1589888483285904
1782987751593886500,2.596886474609375,0.03767307475209236,-0.4659551680088043,0.0034884747583419085
1782987751603961300,2.60696142578125,0.0012713931500911713,-0.4213155508041382,-0.13878531754016876
1782987751614035500,2.617035400390625,-0.043360255658626556,-0.3506017029285431,-0.24094922840595245
1782987751624110300,2.6271103515625,-0.0940609872341156,-0.23672226071357727,-0.29271069169044495
1782987751634184700,2.637184814453125,-0.1379126012325287,-0.10464465618133545,-0.2898384630680084
1782987751644259300,2.64725927734375,-0.16894002258777618,-0.008048605173826218,-0.23530305922031403
1782987751654333700,2.657333740234375,-0.1767558604478836,0.04622102528810501,-0.15584206581115723
1782987751664408300,2.667408203125,-0.16287493705749512,0.05050498619675636,-0.06277576833963394
1782987751674482700,2.677482666015625,-0.12395789474248886,0.03143222630023956,0.03467222675681114
1782987751684557300,2.687557373046875,-0.0786290317773819,0.029229257255792618,0.11266103386878967
1782987751694631700,2.697631591796875,-0.032167255878448486,0.04488890990614891,0.16067969799041748
1782987751704706300,2.707706298828125,0.005599562544375658,0.04090056195855141,0.166695237159729
1782987751714780700,2.71778076171875,0.0360429547727108,0.01799497939646244,0.1429949700832367
1782987751724855300,2.727855224609375,0.05987824872136116,-0.026219353079795837,0.09385672211647034
1782987751734929700,2.7379296875,0.0824381485581398,-0.1220737099647522,0.01979207992553711
1782987751745004300,2.74800439453125,0.11471699178218842,-0.23911111056804657,-0.08905424177646637
1782987751755078700,2.75807861328125,0.15376479923725128,-0.3368518054485321,-0.19164852797985077
1782987751765153500,2.768153564453125,0.17633268237113953,-0.4115159213542938,-0.2802729308605194
1782987751775227600,2.7782275390625,0.16784732043743134,-0.4765971601009369,-0.36629197001457214
1782987751785302500,2.788302490234375,0.13710884749889374,-0.5160039663314819,-0.4373520314693451
1782987751795376600,2.798376708984375,0.10133301466703415,-0.5236690640449524,-0.5002002120018005
1782987751805451500,2.808451416015625,0.0745951384305954,-0.5217620134353638,-0.5562139749526978
1782987751815525600,2.818525634765625,0.04766711965203285,-0.5272638201713562,-0.6026861071586609
1782987751825600500,2.8286005859375,0.02731790766119957,-0.5219462513923645,-0.6293987035751343
1782987751835674600,2.838674560546875,-0.008106661960482597,-0.4854836165904999,-0.6285664439201355
1782987751845749500,2.84874951171875,-0.04729454591870308,-0.4239523410797119,-0.5965872406959534
1782987751855823600,2.85882373046875,-0.0932423323392868,-0.3638458549976349,-0.5291053652763367
1782987751865898500,2.8688984375,-0.13932380080223083,-0.29402390122413635,-0.43554428219795227
1782987751875972600,2.87897265625,-0.18839894235134125,-0.23534540832042694,-0.3280401825904846
1782987751886047500,2.889047607421875,-0.23278690874576569,-0.19042374193668365,-0.21280547976493835
1782987751896121600,2.89912158203125,-0.2714807689189911,-0.1451912820339203,-0.10513307899236679
1782987751906195500,2.909195556640625,-0.30792534351348877,-0.12706154584884644,-0.017471401020884514
1782987751916270600,2.9192705078125,-0.335329532623291,-0.14225435256958008,0.045159220695495605
1782987751926344400,2.929344482421875,-0.35341373085975647,-0.16100060939788818,0.07780451327562332
1782987751936419600,2.939419677734375,-0.3571317493915558,-0.1669626235961914,0.0885104238986969
1782987751946493400,2.949493408203125,-0.35085204243659973,-0.137481689453125,0.07603351771831512
1782987751956568600,2.959568603515625,-0.34082895517349243,-0.07779386639595032,0.05042802169919014
1782987751966642400,2.969642333984375,-0.34000417590141296,-0.028713136911392212,0.021503694355487823
1782987751976717800,2.9797177734375,-0.34549349546432495,-0.03549780696630478,-0.010753578506410122
1782987751986792000,2.9897919921875,-0.35285311937332153,-0.10350082814693451,-0.04523299261927605
1782987751996866800,2.99986669921875,-0.3586446940898895,-0.2137136161327362,-0.07021370530128479
1782987752006941000,3.00994091796875,-0.36852264404296875,-0.2894989252090454,-0.08712078630924225
1782987752017015800,3.020015869140625,-0.37657737731933594,-0.2841196060180664,-0.09440959244966507
1782987752027090000,3.03008984375,-0.39681339263916016,-0.11034221947193146,-0.09691961854696274
1782987752037164800,3.040164794921875,-0.40371203422546387,-0.03490285575389862,-0.10728491097688675
1782987752047239000,3.050239013671875,-0.40656962990760803,-0.08169432729482651,-0.15768523514270782
1782987752057313800,3.060313720703125,-0.41202324628829956,-0.22610130906105042,-0.22896261513233185
1782987752067388000,3.070387939453125,-0.42748475074768066,-0.4374447166919708,-0.337799608707428
1782987752077462800,3.080462890625,-0.45733267068862915,-0.5512365102767944,-0.4524332582950592
1782987752087537000,3.090536865234375,-0.48089152574539185,-0.5022932291030884,-0.5349614024162292
1782987752097612000,3.100612060546875,-0.5013461709022522,-0.38457271456718445,-0.5730273127555847
1782987752107686000,3.110685791015625,-0.5058293342590332,-0.2113652378320694,-0.5523084402084351
1782987752117761000,3.120760986328125,-0.4826287031173706,-0.010300840251147747,-0.44703209400177
1782987752127835000,3.1308349609375,-0.4261997938156128,0.1413147896528244,-0.2816564440727234
1782987752137910000,3.140909912109375,-0.3777443766593933,0.2831622064113617,-0.06470229476690292
1782987752147984000,3.15098388671875,-0.35102221369743347,0.4259086847305298,0.19139419496059418
1782987752158059000,3.16105908203125,-0.3380723297595978,0.5243828296661377,0.4365434944629669
1782987752168132900,3.1711328125,-0.31650951504707336,0.5196165442466736,0.6249163150787354
1782987752178208000,3.1812080078125,-0.27349919080734253,0.4258333444595337,0.7284565567970276
1782987752188281900,3.19128173828125,-0.2055896371603012,0.2748539447784424,0.728874683380127
1782987752198357000,3.20135693359375,-0.116932213306427,0.08234360814094543,0.6209290623664856
1782987752208430800,3.211430908203125,-0.022777484729886055,-0.11035580188035965,0.423051118850708
1782987752218506000,3.221506103515625,0.0786530002951622,-0.24981489777565002,0.17888692021369934
1782987752228579800,3.231579833984375,0.18266542255878448,-0.3120250105857849,-0.05227439105510712
1782987752238655000,3.241655029296875,0.2744837701320648,-0.26592835783958435,-0.21818000078201294
1782987752248728800,3.251728759765625,0.3609771132469177,-0.15182814002037048,-0.28362026810646057
1782987752258804000,3.261803955078125,0.4355591833591461,-0.0070861391723155975,-0.22723634541034698
1782987752268877800,3.2718779296875,0.48045504093170166,0.1154743954539299,-0.0805417150259018
1782987752278953000,3.281952880859375,0.49716874957084656,0.14499633014202118,0.10375329107046127
1782987752289026800,3.29202685546875,0.49154284596443176,0.10287950932979584,0.2753612697124481
1782987752299102000,3.30210205078125,0.46369388699531555,0.014152304269373417,0.3990134298801422
1782987752309175800,3.31217578125,0.43071091175079346,-0.09386418014764786,0.45819181203842163
1782987752319251000,3.3222509765625,0.3959590494632721,-0.18706336617469788,0.46017986536026
1782987752329324800,3.33232470703125,0.3772013485431671,-0.2270243614912033,0.434034526348114
1782987752339400000,3.34239990234375,0.3680179715156555,-0.21367952227592468,0.36940255761146545
1782987752349473800,3.352473876953125,0.3614301085472107,-0.19135157763957977,0.2876181900501251
1782987752359549000,3.362548828125,0.3556379973888397,-0.17065376043319702,0.19082240760326385
1782987752369622800,3.372622802734375,0.3552084267139435,-0.15462659299373627,0.09363195300102234
1782987752379698000,3.382697998046875,0.34138956665992737,-0.15193013846874237,-0.01061935443431139
1782987752389771800,3.392771728515625,0.3174069821834564,-0.16293644905090332,-0.10736160725355148
1782987752399847000,3.402846923828125,0.2856573164463043,-0.18830199539661407,-0.19557082653045654
1782987752409921000,3.412921142578125,0.2713034152984619,-0.1758384108543396,-0.27194949984550476
1782987752419996000,3.422995849609375,0.28106868267059326,-0.10095910727977753,-0.3185611963272095
1782987752430070000,3.433070068359375,0.2937171161174774,0.05012202262878418,-0.33025646209716797
1782987752440145000,3.443144775390625,0.3023625314235687,0.2464103102684021,-0.321842223405838
1782987752450219000,3.453218994140625,0.3070637881755829,0.4143652319908142,-0.29873156547546387
1782987752460294000,3.4632939453125,0.32253196835517883,0.5228980779647827,-0.27772295475006104
1782987752470368000,3.473367919921875,0.3493146002292633,0.5733077526092529,-0.2585178315639496
1782987752480443000,3.48344287109375,0.393425315618515,0.5550488233566284,-0.24782231450080872
1782987752490517000,3.49351708984375,0.43664202094078064,0.46668940782546997,-0.25254783034324646
1782987752500591900,3.503591796875,0.47991493344306946,0.3417128622531891,-0.26624739170074463
1782987752510666000,3.513666015625,0.5204096436500549,0.2207781821489334,-0.28102606534957886
1782987752520740900,3.523740966796875,0.561880886554718,0.13919997215270996,-0.3020448088645935
1782987752530815000,3.53381494140625,0.5869079828262329,0.11765739321708679,-0.32160040736198425
1782987752540889900,3.543889892578125,0.5977225303649902,0.1402125060558319,-0.3562997877597809
1782987752550964000,3.5539638671875,0.6130676865577698,0.18421244621276855,-0.3968099355697632
1782987752561037800,3.564037841796875,0.6404985189437866,0.23744425177574158,-0.44862547516822815
1782987752571113000,3.574113037109375,0.678662896156311,0.2779892683029175,-0.4937817454338074
1782987752581187800,3.584187744140625,0.7227624654769897,0.30520784854888916,-0.5199981927871704
1782987752591262000,3.594261962890625,0.7759660482406616,0.3305387794971466,-0.5110097527503967
1782987752601336800,3.6043369140625,0.8350288271903992,0.34519362449645996,-0.4624946713447571
1782987752611411000,3.614410888671875,0.8902915716171265,0.34071603417396545,-0.39109185338020325
1782987752621484800,3.62448486328125,0.939651370048523,0.34229955077171326,-0.3046046495437622
1782987752631560000,3.634559814453125,0.9848912954330444,0.3503851890563965,-0.20725251734256744
1782987752641634800,3.644634765625,1.0158116817474365,0.3740902543067932,-0.11948058754205704
1782987752651709000,3.654708984375,1.0339661836624146,0.4801572859287262,-0.020679712295532227
1782987752661782800,3.66478271484375,1.0263521671295166,0.7075992226600647,0.07260176539421082
1782987752671858000,3.67485791015625,1.012857437133789,0.9020512700080872,0.14320668578147888
1782987752681931800,3.684931884765625,1.0015517473220825,0.8782724142074585,0.16781137883663177
1782987752692007000,3.6950068359375,0.9844891428947449,0.6683242917060852,0.13791552186012268
1782987752702080800,3.705080810546875,0.9544998407363892,0.3951915204524994,0.05609682574868202
1782987752712156000,3.715156005859375,0.9177988171577454,0.23730230331420898,-0.04338901862502098
1782987752722229800,3.725229736328125,0.877413272857666,0.2517049312591553,-0.13367603719234467
1782987752732305000,3.735304931640625,0.8357031345367432,0.3686493933200836,-0.2061142921447754
1782987752742378800,3.745378662109375,0.8008109331130981,0.5221513509750366,-0.23967544734477997
1782987752752454000,3.755453857421875,0.7839578986167908,0.7016819715499878,-0.23464685678482056
1782987752762527700,3.76552783203125,0.7788947224617004,0.8900244235992432,-0.18819227814674377
1782987752772603000,3.775602783203125,0.7836633920669556,1.0640902519226074,-0.10020969063043594
1782987752782676700,3.7856767578125,0.7737748026847839,1.1909900903701782,-0.0002777676854748279
1782987752792751900,3.795751953125,0.7479575872421265,1.2309503555297852,0.10665453970432281
1782987752802826000,3.805825927734375,0.714152991771698,1.149138331413269,0.19056382775306702
1782987752812900900,3.81590087890625,0.7010401487350464,0.9426008462905884,0.2421921342611313
1782987752822975000,3.82597509765625,0.7077203989028931,0.7050260901451111,0.25036537647247314
1782987752833049900,3.8360498046875,0.734918475151062,0.502841055393219,0.22036193311214447
1782987752843124000,3.8461240234375,0.7727446556091309,0.3419125974178314,0.1661096066236496
1782987752853198800,3.85619873046875,0.8297253847122192,0.22355160117149353,0.0859665721654892
1782987752863273000,3.86627294921875,0.8836272358894348,0.17988960444927216,-0.0059902481734752655
1782987752873347800,3.876347900390625,0.9255083799362183,0.19996371865272522,-0.10241691768169403
1782987752883422000,3.886421875,0.9624640345573425,0.2735503315925598,-0.1822694092988968
1782987752893496800,3.896496826171875,0.9974398612976074,0.3822823762893677,-0.2347342073917389
1782987752903571000,3.906571044921875,1.0218008756637573,0.4596512019634247,-0.2291668802499771
1782987752913645800,3.916645751953125,1.0154308080673218,0.456188827753067,-0.1845512092113495
1782987752923720000,3.926719970703125,0.9875816106796265,0.3840658962726593,-0.10834671556949615
1782987752933794800,3.936794921875,0.9499732851982117,0.3094651699066162,-0.016805345192551613
1782987752943869000,3.946868896484375,0.9220724105834961,0.2805118262767792,0.0795385017991066
1782987752953943800,3.95694384765625,0.8992000818252563,0.28578808903694153,0.1599249541759491
1782987752964018000,3.967017822265625,0.8684437870979309,0.3090537190437317,0.19657377898693085
1782987752974092800,3.9770927734375,0.8265301585197449,0.3539833724498749,0.19414710998535156
1782987752984166400,3.98716650390625,0.7810854315757751,0.4087928235530853,0.16068235039710999
1782987752994241300,3.9972412109375,0.7242583632469177,0.4477623403072357,0.10240919888019562
1782987753004315400,4.0073154296875,0.6602253317832947,0.47173449397087097,0.03172490745782852
1782987753014390300,4.017390380859375,0.6054606437683105,0.4730740785598755,-0.03224262595176697
1782987753024464400,4.02746435546875,0.5520868897438049,0.4374132752418518,-0.08679375052452087
1782987753034539300,4.037539306640625,0.509428083896637,0.3883376121520996,-0.12874865531921387
1782987753044613400,4.04761328125,0.472963809967041,0.3518962562084198,-0.15724848210811615
1782987753054688300,4.057688232421875,0.44189751148223877,0.30246397852897644,-0.1800272911787033
1782987753064762400,4.067762451171875,0.4150872230529785,0.22350525856018066,-0.20526659488677979
1782987753074837200,4.077837158203125,0.39873114228248596,0.162624329328537,-0.22784940898418427
1782987753084911400,4.087911376953125,0.3896782696247101,0.12443780153989792,-0.2505432665348053
1782987753094986200,4.097986328125,0.371162086725235,0.09354992210865021,-0.27325284481048584
1782987753105060400,4.108060302734375,0.3389149308204651,0.08709415793418884,-0.28980785608291626
1782987753115135500,4.118135498046875,0.2972777485847473,0.09660270810127258,-0.30034226179122925
1782987753125209300,4.128209228515625,0.25274330377578735,0.1409296840429306,-0.2976447343826294
1782987753135284500,4.138284423828125,0.19790855050086975,0.21817547082901,-0.27870485186576843
1782987753145358300,4.1483583984375,0.15005767345428467,0.277352511882782,-0.24255777895450592
1782987753155433500,4.15843359375,0.11255690455436707,0.29282867908477783,-0.20140981674194336
1782987753165507300,4.16850732421875,0.09607486426830292,0.2910906970500946,-0.14445064961910248
1782987753175582500,4.17858251953125,0.09962086379528046,0.26528385281562805,-0.08276944607496262
1782987753185656300,4.18865625,0.10716533660888672,0.18246382474899292,-0.023513581603765488
1782987753195731500,4.1987314453125,0.11456705629825592,0.0760396420955658,0.017584586516022682
1782987753205805300,4.208805419921875,0.1264365017414093,-0.017068998888134956,0.048349689692258835
1782987753215880400,4.21888037109375,0.1300988793373108,-0.10944100469350815,0.05808567255735397
1782987753225954300,4.228954345703125,0.13132447004318237,-0.10970785468816757,0.05728805810213089
1782987753236029400,4.239029541015625,0.11697482317686081,-0.022475747391581535,0.06079331040382385
1782987753246103300,4.249103271484375,0.08671225607395172,0.03959055244922638,0.03707359731197357
1782987753256178400,4.259178466796875,0.0476524718105793,-0.036079175770282745,-0.025297101587057114
1782987753266252300,4.269252197265625,0.006958573590964079,-0.24923431873321533,-0.14245247840881348
1782987753276327400,4.279327392578125,-0.05223897099494934,-0.47859346866607666,-0.2983459532260895
1782987753286401300,4.2894013671875,-0.13130369782447815,-0.5157597661018372,-0.43764472007751465
1782987753296476400,4.299476318359375,-0.20692682266235352,-0.32318976521492004,-0.5239489674568176
1782987753306550300,4.30955029296875,-0.2799411118030548,-0.02022484503686428,-0.5459922552108765
1782987753316625400,4.31962548828125,-0.33205676078796387,0.3475603759288788,-0.4921359121799469
1782987753326699300,4.32969921875,-0.3543138802051544,0.6818299293518066,-0.35571548342704773
1782987753336773400,4.3397734375,-0.3494828939437866,0.8131512403488159,-0.17308522760868073
1782987753346848300,4.34984814453125,-0.31201329827308655,0.6919145584106445,0.014978150837123394
1782987753356922400,4.35992236328125,-0.2624689042568207,0.4159735143184662,0.19021867215633392
1782987753366997200,4.369997314453125,-0.18965648114681244,0.14784511923789978,0.34733080863952637
1782987753377071400,4.3800712890625,-0.10919173806905746,-0.0001661812566453591,0.4642012119293213
1782987753387146200,4.390146240234375,-0.024872859939932823,-0.03321095183491707,0.5186077356338501
1782987753397220400,4.400220458984375,0.03910665586590767,-0.015519305132329464,0.5132505297660828
1782987753407295200,4.410295166015625,0.07722608000040054,0.026803119108080864,0.4570184051990509
1782987753417369300,4.420369384765625,0.07953796535730362,0.0338120274245739,0.3680632412433624
1782987753427444200,4.4304443359375,0.05832083150744438,-0.019273295998573303,0.2692660987377167
1782987753437518300,4.440518310546875,0.015720639377832413,-0.08332205563783646,0.17158640921115875
1782987753447593200,4.45059326171875,-0.0374152809381485,-0.11572739481925964,0.0896017849445343
1782987753457667300,4.460667236328125,-0.08970724791288376,-0.0976349487900734,0.03828400745987892
1782987753467742200,4.4707421875,-0.1433829963207245,-0.01059139147400856,0.010960771702229977
1782987753477816300,4.48081640625,-0.19483979046344757,0.0998522937297821,0.0026517093647271395
1782987753487891200,4.49089111328125,-0.23337386548519135,0.20417283475399017,0.00002956108801299706
1782987753497965300,4.50096533203125,-0.2321179211139679,0.24070101976394653,-0.007219030521810055
1782987753508040400,4.51104052734375,-0.202146977186203,0.21258071064949036,-0.015086540952324867
1782987753518114300,4.5211142578125,-0.16082057356834412,0.173776313662529,-0.022302109748125076
1782987753528189400,4.531189453125,-0.11653726547956467,0.1642232984304428,-0.010412161238491535
1782987753538263300,4.54126318359375,-0.0773824080824852,0.1652616560459137,0.0070078419521451
1782987753548338400,4.55133837890625,-0.04111361503601074,0.14476969838142395,0.02184511162340641
1782987753558412300,4.561412353515625,-0.003438939806073904,0.11745551973581314,0.033014941960573196
1782987753568487400,4.5714873046875,0.04297889396548271,0.09346017241477966,0.03436676040291786
1782987753578561300,4.581561279296875,0.09147798269987106,0.054961252957582474,0.0334562286734581
1782987753588636400,4.591636474609375,0.1348142772912979,-0.004750014282763004,0.017066335305571556
1782987753598710300,4.601710205078125,0.16800124943256378,-0.05302140489220619,-0.0028868666850030422
1782987753608785400,4.611785400390625,0.18561699986457825,-0.05463208630681038,-0.009822004474699497
1782987753618859300,4.621859375,0.18602019548416138,-0.04796779155731201,-0.019052786752581596
1782987753628934400,4.631934326171875,0.1675804704427719,-0.04837898537516594,-0.015014901757240295
1782987753639008300,4.64200830078125,0.13764281570911407,-0.047027431428432465,-0.011948804371058941
1782987753649083400,4.65208349609375,0.12475045025348663,-0.03780463710427284,-0.0043534692376852036
1782987753659157200,4.6621572265625,0.12436775863170624,-0.01943921111524105,0.0033475933596491814
1782987753669232400,4.672232421875,0.12672892212867737,0.015537148341536522,0.01655048131942749
1782987753679306200,4.68230615234375,0.12831269204616547,0.04230937361717224,0.033902574330568314
1782987753689381400,4.69238134765625,0.11184344440698624,0.055267516523599625,0.03790583834052086
1782987753699455200,4.702455322265625,0.1015993282198906,0.054309044033288956,0.037452299147844315
1782987753709530400,4.7125302734375,0.10193248838186264,0.07703592628240585,0.03881663829088211
1782987753719604200,4.722604248046875,0.09777289628982544,0.09862431138753891,0.04110749065876007
1782987753729679400,4.732679443359375,0.08424749970436096,0.09746157377958298,0.025247300043702126
1782987753739753200,4.742753173828125,0.06324714422225952,0.0972202941775322,-0.01395656168460846
1782987753749828400,4.752828369140625,0.04789721965789795,0.12569640576839447,-0.06259706616401672
1782987753759902200,4.762902099609375,0.03409991413354874,0.18289072811603546,-0.10823991894721985
1782987753769977300,4.772977294921875,0.02179078198969364,0.2652154266834259,-0.13646170496940613
1782987753780051200,4.78305126953125,0.01549613568931818,0.3453768491744995,-0.14071238040924072
1782987753790126300,4.793126220703125,0.019963588565587997,0.405643105506897,-0.12599201500415802
1782987753800200200,4.8032001953125,0.04110802337527275,0.427421897649765,-0.09328014403581619
1782987753810275300,4.813275390625,0.06550311297178268,0.4176803231239319,-0.05270582064986229
1782987753820349200,4.82334912109375,0.09157279133796692,0.4004281163215637,-0.021830463781952858
1782987753830424300,4.83342431640625,0.11601555347442627,0.4452938437461853,-0.01239275373518467
1782987753840498200,4.843498291015625,0.14743392169475555,0.4637463688850403,-0.019151058048009872
1782987753850573300,4.8535732421875,0.19534233212471008,0.3322732746601105,-0.06892766803503036
1782987753860647200,4.863647216796875,0.2400813102722168,0.19952721893787384,-0.16162565350532532
1782987753870722300,4.873722412109375,0.2771812677383423,0.10811448842287064,-0.27332955598831177
1782987753880796400,4.88379638671875,0.30634447932243347,0.12062042206525803,-0.3683508634567261
1782987753890871300,4.893871337890625,0.332269549369812,0.1990337371826172,-0.41641107201576233
1782987753900945400,4.9039453125,0.3725605309009552,0.2079595923423767,-0.40705376863479614
1782987753911020300,4.914020263671875,0.4285455048084259,0.15472273528575897,-0.34952789545059204
1782987753921094400,4.924094482421875,0.47339552640914917,0.13286884129047394,-0.2362159937620163
1782987753931169300,4.934169189453125,0.49864786863327026,0.23257651925086975,-0.06983447819948196
1782987753941243400,4.944243408203125,0.5116952657699585,0.4462943971157074,0.1280786097049713
1782987753951318300,4.954318359375,0.5059694647789001,0.6582742929458618,0.3291512727737427
1782987753961392400,4.964392333984375,0.4928869307041168,0.72767174243927,0.49377909302711487
1782987753971467300,4.97446728515625,0.48237091302871704,0.6170629262924194,0.590788722038269
1782987753981541600,4.984541748046875,0.49053776264190674,0.3904998302459717,0.6201822757720947
1782987753991616500,4.994616455078125,0.5136545300483704,0.14124473929405212,0.58682781457901
1782987754001690600,5.004690673828125,0.5473864078521729,-0.06792445480823517,0.49006399512290955
1782987754011765500,5.014765625,0.5810724496841431,-0.212553009390831,0.33899563550949097
1782987754021839600,5.024839599609375,0.6004498600959778,-0.2911498248577118,0.15917819738388062
1782987754031914500,5.03491455078125,0.6044976115226746,-0.3227873742580414,-0.0047119311057031155
1782987754041988600,5.044988525390625,0.6013593673706055,-0.3401317298412323,-0.12663383781909943
1782987754052062500,5.0550625,0.5712350010871887,-0.31460481882095337,-0.19435828924179077
1782987754062137600,5.0651376953125,0.5204256176948547,-0.25530368089675903,-0.20938651263713837
1782987754072211500,5.07521142578125,0.44796738028526306,-0.1726308912038803,-0.18226434290409088
1782987754082286600,5.08528662109375,0.36996448040008545,-0.1046702191233635,-0.1247246190905571
1782987754092361500,5.095361572265625,0.29588013887405396,-0.025178857147693634,-0.04049656167626381
1782987754102435600,5.105435546875,0.23758725821971893,0.03528209030628204,0.045012217015028
1782987754112509400,5.115509521484375,0.20837824046611786,0.062183480709791183,0.11452791094779968
1782987754122584600,5.12558447265625,0.19853892922401428,0.08998049050569534,0.1671048402786255
1782987754132658400,5.135658447265625,0.2022457718849182,0.13707156479358673,0.19809098541736603
1782987754142733600,5.145733642578125,0.21129199862480164,0.17292357981204987,0.21985433995723724
1782987754152807400,5.155807373046875,0.21871663630008698,0.1874157041311264,0.22948512434959412
1782987754162882600,5.165882568359375,0.22119496762752533,0.18041904270648956,0.21391788125038147
1782987754172956400,5.175956298828125,0.2241785079240799,0.12395843118429184,0.1832965910434723
1782987754183031600,5.186031494140625,0.22250497341156006,0.03726508095860481,0.13234366476535797
1782987754193105400,5.19610546875,0.21762846410274506,-0.06485596299171448,0.06713802367448807
1782987754203180500,5.2061806640625,0.2122291624546051,-0.11856286227703094,-0.0029145635198801756
1782987754213254400,5.21625439453125,0.1980728656053543,-0.11454761773347855,-0.06466208398342133
1782987754223329500,5.22632958984375,0.1693221777677536,-0.09129822254180908,-0.12122070044279099
1782987754233403600,5.236403564453125,0.13462971150875092,-0.06599686294794083,-0.1696489453315735
1782987754243478500,5.246478515625,0.10945911705493927,-0.028901156038045883,-0.1941998302936554
1782987754253552600,5.256552734375,0.09371424466371536,0.012921657413244247,-0.19598256051540375
1782987754263627500,5.26662744140625,0.07326728850603104,0.03454146534204483,-0.17673616111278534
1782987754273701600,5.27670166015625,0.058755990117788315,0.019829098135232925,-0.15195517241954803
1782987754283776500,5.286776611328125,0.04207368567585945,-0.015182148665189743,-0.127900168299675
1782987754293850600,5.2968505859375,0.0299078319221735,-0.06065775454044342,-0.11295291781425476
1782987754303925500,5.306925537109375,0.01894705928862095,-0.09099595248699188,-0.09569936245679855
1782987754313999600,5.31699951171875,0.011146128177642822,-0.09011337906122208,-0.07740291208028793
1782987754324074500,5.327074462890625,0.01744743250310421,-0.08205172419548035,-0.04960110783576965
1782987754334148600,5.337148681640625,0.027606060728430748,-0.09700271487236023,-0.03198962286114693
1782987754344223500,5.347223388671875,0.04136049002408981,-0.16909262537956238,-0.02756504900753498
1782987754354297600,5.357297607421875,0.050029344856739044,-0.2549755573272705,-0.021441375836730003
1782987754364372500,5.36737255859375,0.03984461724758148,-0.2786819636821747,0.0005984122981317341
1782987754374446600,5.377446533203125,0.007527690846472979,-0.2516311705112457,0.02375779300928116
1782987754384521500,5.387521484375,-0.03809518739581108,-0.19305121898651123,0.05782201886177063
1782987754394595600,5.397595703125,-0.08003517985343933,-0.06754975020885468,0.08312737941741943
1782987754404670500,5.40767041015625,-0.13369175791740417,0.17932234704494476,0.11377955973148346
1782987754414744600,5.41774462890625,-0.19298116862773895,0.31539762020111084,0.13434742391109467
1782987754424819500,5.4278193359375,-0.23814812302589417,0.18847830593585968,0.10619834065437317
1782987754434893600,5.4378935546875,-0.26291659474372864,-0.10105657577514648,0.03472282737493515
1782987754444968400,5.447968505859375,-0.29168379306793213,-0.3785425126552582,-0.0502900667488575
1782987754455042600,5.45804248046875,-0.34694358706474304,-0.44977036118507385,-0.12584634125232697
1782987754465117400,5.468117431640625,-0.42728981375694275,-0.3474423885345459,-0.18733634054660797
1782987754475191600,5.478191650390625,-0.49662867188453674,-0.22785447537899017,-0.21739570796489716
1782987754485266400,5.488266357421875,-0.5497813820838928,-0.10759357362985611,-0.20049448311328888
1782987754495340500,5.498340576171875,-0.5832615494728088,0.052740175276994705,-0.12991006672382355
1782987754505415700,5.508415771484375,-0.5831864476203918,0.2112632393836975,-0.02419961243867874
1782987754515489500,5.518489501953125,-0.5472167730331421,0.2921929657459259,0.08905051648616791
1782987754525564700,5.528564697265625,-0.4904059171676636,0.23218849301338196,0.18690410256385803
1782987754535638500,5.538638427734375,-0.4258623719215393,0.03362959995865822,0.2519736588001251
1782987754545713700,5.548713623046875,-0.3723461329936981,-0.23692919313907623,0.2845529019832611
1782987754555787500,5.55878759765625,-0.31766611337661743,-0.47233426570892334,0.287139356136322
1782987754565862700,5.568862548828125,-0.24576155841350555,-0.5597008466720581,0.2692943215370178
1782987754575936500,5.5789365234375,-0.18312321603298187,-0.5275439620018005,0.24756479263305664
1782987754586011600,5.58901171875,-0.14565493166446686,-0.3652102053165436,0.23545698821544647
1782987754596085500,5.59908544921875,-0.13221316039562225,-0.08630186319351196,0.2302369326353073
1782987754606160600,5.60916064453125,-0.13698847591876984,0.20236454904079437,0.24598580598831177
1782987754616234500,5.619234375,-0.15557387471199036,0.3621635437011719,0.2809576392173767
1782987754626309600,5.6293095703125,-0.17846561968326569,0.4021892547607422,0.3185388445854187
1782987754636383500,5.639383544921875,-0.19158940017223358,0.33185890316963196,0.3481377363204956
1782987754646458600,5.649458740234375,-0.21166405081748962,0.16985242068767548,0.35516902804374695
1782987754656532500,5.659532470703125,-0.23135599493980408,-0.012153868563473225,0.32999229431152344
1782987754666607600,5.669607666015625,-0.23736009001731873,-0.12693877518177032,0.2744408845901489
1782987754676681500,5.679681396484375,-0.22861719131469727,-0.17608900368213654,0.18410219252109528
1782987754686756600,5.689756591796875,-0.21813100576400757,-0.1677253544330597,0.06662403047084808
1782987754696830500,5.69983056640625,-0.20997187495231628,-0.09682881087064743,-0.05709710717201233
1782987754706905600,5.709905517578125,-0.203454852104187,-0.01972976326942444,-0.15695872902870178
1782987754716979500,5.7199794921875,-0.1861983686685562,0.010930146090686321,-0.22337929904460907
1782987754727054600,5.7300546875,-0.15987728536128998,-0.012019111774861813,-0.24770914018154144
1782987754737128400,5.74012841796875,-0.12065371125936508,-0.06541921943426132,-0.22761425375938416
1782987754747203600,5.75020361328125,-0.07378740608692169,-0.09288813173770905,-0.16701295971870422
1782987754757277400,5.76027734375,-0.01677844673395157,-0.05757541209459305,-0.07490327209234238
1782987754767352600,5.7703525390625,0.03689223900437355,0.05483688414096832,0.04869003966450691
1782987754777426400,5.780426513671875,0.078433558344841,0.17737771570682526,0.18053250014781952
1782987754787501600,5.79050146484375,0.09223379194736481,0.2308494597673416,0.2949104607105255
1782987754797575400,5.800575439453125,0.0839388445019722,0.20136693120002747,0.36865633726119995
1782987754807650600,5.810650634765625,0.07493682205677032,0.16321715712547302,0.4123225808143616
1782987754817724400,5.820724365234375,0.06874044984579086,0.16281980276107788,0.4348214864730835
1782987754827799600,5.830799560546875,0.07705696672201157,0.19470450282096863,0.44567015767097473
1782987754837873400,5.840873291015625,0.1007351353764534,0.26472219824790955,0.4646928310394287
1782987754847948500,5.850948486328125,0.13309040665626526,0.35289013385772705,0.484581857919693
1782987754858022400,5.8610224609375,0.16276948153972626,0.4386245012283325,0.5041478276252747
1782987754868097500,5.87109765625,0.19777911901474,0.5270534157752991,0.5294873118400574
1782987754878171600,5.881171630859375,0.24406619369983673,0.6374512910842896,0.5664506554603577
1782987754888246500,5.89124658203125,0.29271042346954346,0.6903864145278931,0.6044270396232605
1782987754898320600,5.901320556640625,0.3380560874938965,0.5879905223846436,0.6169154047966003
1782987754908395500,5.9113955078125,0.3597507178783417,0.29974037408828735,0.5787310004234314
1782987754918468400,5.92146826171875,0.3525069057941437,-0.045887596905231476,0.5056895613670349
1782987754928543500,5.93154345703125,0.326553076505661,-0.26247477531433105,0.4233541786670685
1782987754938617300,5.941617431640625,0.2897993326187134,-0.3003009855747223,0.36378273367881775
1782987754948692500,5.9516923828125,0.23857475817203522,-0.12075944244861603,0.34374910593032837
1782987754958766300,5.961766357421875,0.19002586603164673,0.15817232429981232,0.33779454231262207
1782987754968841500,5.971841552734375,0.1512656807899475,0.42400240898132324,0.3345811665058136
1782987754978915300,5.981915283203125,0.13469655811786652,0.5531454682350159,0.32049837708473206
1782987754988990500,5.991990478515625,0.15413178503513336,0.41706594824790955,0.2596187889575958
1782987754999064300,6.002064208984375,0.18013781309127808,0.01697658747434616,0.12254402786493301
1782987755009139500,6.012139404296875,0.17647384107112885,-0.5018708109855652,-0.07517144829034805
1782987755019213300,6.02221337890625,0.13556209206581116,-0.8565956354141235,-0.2634603977203369
1782987755029288400,6.032288330078125,0.0656123012304306,-0.936958372592926,-0.428015798330307
1782987755039362300,6.0423623046875,-0.027183683589100838,-0.722367525100708,-0.5425003170967102
1782987755049437400,6.0524375,-0.11487625539302826,-0.325242280960083,-0.5755575895309448
1782987755059511300,6.06251123046875,-0.18601541221141815,0.16847583651542664,-0.5223097801208496
1782987755069586400,6.07258642578125,-0.2383987158536911,0.559924840927124,-0.39287272095680237
1782987755079660300,6.082660400390625,-0.2750949561595917,0.7484851479530334,-0.20306843519210815
1782987755089735400,6.0927353515625,-0.27720630168914795,0.7795895338058472,-0.004799016285687685
1782987755099809500,6.1028095703125,-0.28470471501350403,0.6882354021072388,0.16643372178077698
1782987755109884400,6.112884521484375,-0.28622084856033325,0.5007837414741516,0.29054155945777893
1782987755119958500,6.12295849609375,-0.2914249300956726,0.28575026988983154,0.34848207235336304
1782987755130033400,6.133033447265625,-0.28576356172561646,0.08862493932247162,0.35415515303611755
1782987755140107500,6.143107421875,-0.27184349298477173,-0.08304481953382492,0.3136013448238373
1782987755150181600,6.153181640625,-0.26062068343162537,-0.2273644506931305,0.22127965092658997
1782987755160256500,6.163256591796875,-0.2441234588623047,-0.3021625280380249,0.11917752027511597
1782987755170330600,6.17333056640625,-0.22637082636356354,-0.29668280482292175,0.03272226080298424
1782987755180405500,6.183405517578125,-0.21239908039569855,-0.24539963901042938,-0.008294947445392609
1782987755190479600,6.193479736328125,-0.20888184010982513,-0.1891789734363556,-0.0036008600145578384
1782987755200554500,6.203554443359375,-0.19815729558467865,-0.15568013489246368,0.048286572098731995
1782987755210628600,6.213628662109375,-0.17620858550071716,-0.14273211359977722,0.14103062450885773
1782987755220703500,6.223703369140625,-0.15608814358711243,-0.14764991402626038,0.25057363510131836
1782987755230777600,6.233777587890625,-0.14375130832195282,-0.1755926012992859,0.36216220259666443
1782987755240852500,6.2438525390625,-0.13407205045223236,-0.2143796682357788,0.44886621832847595
1782987755250926600,6.253926513671875,-0.13551682233810425,-0.24439989030361176,0.5017520785331726
1782987755261001500,6.26400146484375,-0.1371309608221054,-0.2595894932746887,0.515033483505249
1782987755271075600,6.27407568359375,-0.1288972645998001,-0.27350637316703796,0.4898599684238434
1782987755281150500,6.284150390625,-0.12313365191221237,-0.29342976212501526,0.4412706196308136
1782987755291224600,6.294224609375,-0.1133824810385704,-0.2914204001426697,0.38406217098236084
1782987755301299500,6.304299560546875,-0.11198299378156662,-0.2832886874675751,0.33089137077331543
1782987755311373600,6.31437353515625,-0.11637108027935028,-0.2868751883506775,0.29574963450431824
1782987755321448400,6.324448486328125,-0.12464499473571777,-0.2774808704853058,0.28181836009025574
1782987755331522600,6.3345224609375,-0.1280306726694107,-0.25719985365867615,0.28836575150489807
1782987755341597400,6.344597412109375,-0.13828809559345245,-0.25590500235557556,0.30387839674949646
1782987755351671600,6.354671630859375,-0.14498434960842133,-0.2568344473838806,0.3112758696079254
1782987755361746400,6.364746337890625,-0.1567792296409607,-0.2029150277376175,0.3011534512042999
1782987755371820500,6.374820556640625,-0.17414464056491852,-0.10978508740663528,0.2811456620693207
1782987755381895400,6.3848955078125,-0.18492218852043152,-0.04613953083753586,0.23247851431369781
1782987755391969500,6.394969482421875,-0.18044275045394897,-0.0777837410569191,0.14198030531406403
1782987755402044400,6.40504443359375,-0.14805550873279572,-0.2237531989812851,0.013636982999742031
1782987755412118500,6.415118408203125,-0.09852124750614166,-0.4681594669818878,-0.14052195847034454
1782987755422193400,6.425193359375,-0.05686461552977562,-0.7262765169143677,-0.32985034584999084
1782987755432267500,6.435267578125,-0.02449548989534378,-0.9415286183357239,-0.5518453121185303
1782987755442342400,6.44534228515625,0.011386345140635967,-1.0286105871200562,-0.7482598423957825
1782987755452416500,6.45541650390625,0.04926528409123421,-0.8281458616256714,-0.863429069519043
1782987755462491400,6.465491455078125,0.08603528141975403,-0.34461331367492676,-0.8588657379150391
1782987755472565500,6.4755654296875,0.13599032163619995,0.30825290083885193,-0.7310712933540344
1782987755482640400,6.485640380859375,0.19220219552516937,0.8157046437263489,-0.5303506851196289
1782987755492714500,6.495714599609375,0.28212037682533264,0.9468408226966858,-0.34141698479652405
1782987755502789400,6.505789306640625,0.3614005446434021,0.6718127131462097,-0.2321767807006836
1782987755512863500,6.515863525390625,0.41286346316337585,0.19725394248962402,-0.20027343928813934
1782987755522938400,6.5259384765625,0.42567434906959534,-0.18835046887397766,-0.2276315689086914
1782987755533012500,6.536012451171875,0.40848231315612793,-0.3611672520637512,-0.32877016067504883
1782987755543087400,6.54608740234375,0.38135695457458496,-0.4150128960609436,-0.5123596787452698
1782987755553161500,6.556161376953125,0.35735252499580383,-0.43873342871665955,-0.7625336050987244
1782987755563236400,6.566236328125,0.366713285446167,-0.376723051071167,-0.9990659952163696
1782987755573310500,6.576310546875,0.39252597093582153,-0.16488376259803772,-1.1562457084655762
1782987755583385300,6.58638525390625,0.4354446828365326,0.17733456194400787,-1.1746747493743896
1782987755593459500,6.59645947265625,0.484316885471344,0.567479133605957,-1.0460913181304932
1782987755603534300,6.606534423828125,0.5212794542312622,0.8934969305992126,-0.8009997606277466
1782987755613608400,6.6166083984375,0.543049156665802,1.0622062683105469,-0.5025627017021179
1782987755623683300,6.626683349609375,0.533111572265625,1.0300630331039429,-0.24272875487804413
1782987755633757400,6.63675732421875,0.47903451323509216,0.814781904220581,-0.05272499471902847
1782987755643832300,6.646832275390625,0.42243728041648865,0.4813660979270935,0.06113925576210022
1782987755653906400,6.656906494140625,0.3840656578540802,0.1638944000005722,0.09234298020601273
1782987755663981300,6.666981201171875,0.3790130913257599,-0.0017230651574209332,0.059190619736909866
1782987755674055400,6.677055419921875,0.3818877041339874,-0.010464359074831009,-0.028722457587718964
1782987755684130300,6.68713037109375,0.4082474112510681,0.08196597546339035,-0.15654008090496063
1782987755694204400,6.697204345703125,0.46601802110671997,0.22661183774471283,-0.2929929792881012
1782987755704279300,6.707279296875,0.5453802347183228,0.39825311303138733,-0.4027218818664551
1782987755714353400,6.717353515625,0.6113083958625793,0.5315307378768921,-0.46286430954933167
1782987755724428300,6.72742822265625,0.64577716588974,0.5857588052749634,-0.462088018655777
1782987755734502700,6.737502685546875,0.6456767320632935,0.5872240662574768,-0.40813130140304565
1782987755744577300,6.747577392578125,0.6251778602600098,0.5482058525085449,-0.3194674849510193
1782987755754651600,6.757651611328125,0.602068305015564,0.4633077383041382,-0.21105417609214783
1782987755764726500,6.7677265625,0.6043758988380432,0.4238836169242859,-0.09174882620573044
1782987755774800600,6.777800537109375,0.6265933513641357,0.44384241104125977,0.02039262279868126
1782987755784875500,6.78787548828125,0.6563568115234375,0.4716639220714569,0.10746067762374878
1782987755794949600,6.79794970703125,0.6833306550979614,0.49474743008613586,0.14305701851844788
1782987755805024500,6.8080244140625,0.7072775363922119,0.5240451097488403,0.13480068743228912
1782987755815098600,6.8180986328125,0.7268586754798889,0.5651600360870361,0.10126136988401413
1782987755825173500,6.828173583984375,0.7368601560592651,0.5884382128715515,0.047142479568719864
1782987755835247600,6.83824755859375,0.7324832677841187,0.5464601516723633,0.004338555503636599
1782987755845322500,6.848322509765625,0.7206827998161316,0.4765271246433258,-0.020070914179086685
1782987755855396600,6.858396728515625,0.6974582076072693,0.43467316031455994,-0.025411084294319153
1782987755865471500,6.868471435546875,0.6711541414260864,0.4513610601425171,-0.008168714120984077
1782987755875545600,6.878545654296875,0.6508680582046509,0.5126017928123474,0.015984026715159416
1782987755885620500,6.888620361328125,0.644798994064331,0.6277526021003723,0.04104437306523323
1782987755895694600,6.898694580078125,0.6546092629432678,0.7690314054489136,0.06817905604839325
1782987755905769500,6.90876953125,0.6779875159263611,0.9293180704116821,0.07794220000505447
1782987755915843600,6.918843505859375,0.7145799398422241,1.0308867692947388,0.05980234593153
1782987755925918500,6.92891845703125,0.7618350386619568,1.0102392435073853,0.010647318325936794
1782987755935992600,6.93899267578125,0.8125794529914856,0.8932319283485413,-0.06879717111587524
1782987755946067500,6.9490673828125,0.8672666549682617,0.7365850806236267,-0.17122527956962585
1782987755956141600,6.9591416015625,0.9183516502380371,0.6339172720909119,-0.2519283890724182
1782987755966216400,6.969216552734375,0.9812946915626526,0.6929555535316467,-0.29205477237701416
1782987755976290600,6.97929052734375,1.0650303363800049,0.8926900029182434,-0.26707085967063904
1782987755986365000,6.989364990234375,1.1552273035049438,1.115097999572754,-0.1997820883989334
1782987755996438800,6.999438720703125,1.2410207986831665,1.212661623954773,-0.12046196311712265
1782987756006514000,7.009513916015625,1.3063089847564697,1.08758544921875,-0.0685468390583992
1782987756016587800,7.019587890625,1.3492697477340698,0.8113229870796204,-0.05584462359547615
1782987756026663000,7.029662841796875,1.3556736707687378,0.4798414409160614,-0.0893477201461792
1782987756036736800,7.03973681640625,1.2850455045700073,0.10497914254665375,-0.215431347489357
1782987756046812000,7.04981201171875,1.1268426179885864,-0.26472488045692444,-0.4585936665534973
1782987756056885800,7.0598857421875,0.9112751483917236,-0.4971197545528412,-0.7984945178031921
1782987756066961000,7.0699609375,0.7031129002571106,-0.5095247626304626,-1.1638988256454468
1782987756077034800,7.08003466796875,0.5459517240524292,-0.2935839593410492,-1.468429684638977
1782987756087110000,7.09010986328125,0.4751095473766327,0.10252823680639267,-1.6151368618011475
1782987756097183700,7.100183837890625,0.5094088912010193,0.5679761171340942,-1.5716253519058228
1782987756107259000,7.1102587890625,0.6064409017562866,0.9213365316390991,-1.3478500843048096
1782987756117332700,7.120332763671875,0.7136182188987732,1.0816383361816406,-1.0143357515335083
1782987756127407900,7.130407958984375,0.7823438048362732,1.0478383302688599,-0.6514070630073547
1782987756137482000,7.14048193359375,0.8024301528930664,0.8245793581008911,-0.311648428440094
1782987756147556900,7.150556884765625,0.7908203601837158,0.5520157814025879,-0.02395060658454895
1782987756157632000,7.160632080078125,0.7645032405853271,0.381801962852478,0.18612486124038696
1782987756167705900,7.170705810546875,0.7508841156959534,0.34349238872528076,0.31178346276283264
1782987756177780000,7.180780029296875,0.7430427074432373,0.388006329536438,0.3427429795265198
1782987756187854800,7.190854736328125,0.7452685832977295,0.4742959439754486,0.32141798734664917
1782987756197930000,7.200929931640625,0.7536271810531616,0.5470532178878784,0.2774835526943207
1782987756208003800,7.21100390625,0.7540953755378723,0.5716270208358765,0.25282055139541626
1782987756218078000,7.221077880859375,0.7435183525085449,0.5359808802604675,0.2708083391189575
1782987756228152800,7.23115283203125,0.7114480137825012,0.47194570302963257,0.34201034903526306
1782987756238228000,7.24122802734375,0.6665860414505005,0.36303359270095825,0.45792680978775024
1782987756248301800,7.2513017578125,0.6375442743301392,0.2652026414871216,0.6029841303825378
1782987756258376000,7.2613759765625,0.6241440176963806,0.2504388689994812,0.747919499874115
1782987756268450800,7.271450927734375,0.6286996006965637,0.27296629548072815,0.8616279363632202
1782987756278526000,7.28152587890625,0.6420524716377258,0.2923714220523834,0.9422293305397034
1782987756288599800,7.291599853515625,0.6807745695114136,0.34511902928352356,0.9888396859169006
1782987756298674000,7.301673828125,0.7331615686416626,0.49549415707588196,0.9996364116668701
1782987756308748800,7.311748779296875,0.7723295092582703,0.708630383014679,0.9634392857551575
1782987756318824000,7.321823974609375,0.7768393158912659,0.8280177712440491,0.8606390953063965
1782987756328897800,7.331897705078125,0.7484329342842102,0.6942226886749268,0.6461739540100098
1782987756338973000,7.341972900390625,0.6887616515159607,0.3522813618183136,0.3373596668243408
1782987756349046800,7.352046875,0.5981981754302979,0.04942427575588226,-0.01540665328502655
1782987756359122000,7.362121826171875,0.4928467273712158,-0.009018528275191784,-0.3465214669704437
1782987756369195800,7.37219580078125,0.41940367221832275,0.19980844855308533,-0.5913021564483643
1782987756379270000,7.382269775390625,0.4151948094367981,0.590273380279541,-0.7255979180335999
1782987756389345000,7.392344970703125,0.49076706171035767,1.0063990354537964,-0.7371379733085632
1782987756399420000,7.402419921875,0.6219578385353088,1.3577303886413574,-0.6520563364028931
1782987756409494000,7.412493896484375,0.7679073214530945,1.550624966621399,-0.5369779467582703
1782987756419569000,7.42256884765625,0.8934037089347839,1.5063035488128662,-0.4186302721500397
1782987756429643000,7.43264306640625,0.9904136061668396,1.27378511428833,-0.31389161944389343
1782987756439718000,7.4427177734375,1.0446422100067139,1.0025973320007324,-0.24472612142562866
1782987756449792000,7.4527919921875,1.077282428741455,0.809046745300293,-0.1996806263923645
1782987756459867000,7.462866943359375,1.1144788265228271,0.7812910079956055,-0.19421714544296265
1782987756469941000,7.47294091796875,1.1631039381027222,0.8996331095695496,-0.2167549431324005
1782987756480016000,7.483015869140625,1.2238447666168213,1.0840823650360107,-0.25462934374809265
1782987756490090000,7.493090087890625,1.3207800388336182,1.2658846378326416,-0.2696266770362854
1782987756500164900,7.503164794921875,1.4279789924621582,1.4307278394699097,-0.2444600760936737
1782987756510239000,7.513239013671875,1.5119926929473877,1.547257661819458,-0.1952805519104004
1782987756520313900,7.52331396484375,1.5692332983016968,1.5773993730545044,-0.14191213250160217
1782987756530388000,7.533387939453125,1.6177781820297241,1.5175490379333496,-0.10392027348279953
1782987756540462800,7.543462890625,1.6563067436218262,1.3862730264663696,-0.09257520735263824
1782987756550537000,7.553536865234375,1.6861002445220947,1.2705798149108887,-0.10404624044895172
1782987756560611800,7.56361181640625,1.7037363052368164,1.256007194519043,-0.1435675472021103
1782987756570686000,7.57368603515625,1.7140512466430664,1.2987477779388428,-0.20701682567596436
1782987756580760800,7.5837607421875,1.7220375537872314,1.2785413265228271,-0.3093431890010834
1782987756590835000,7.5938349609375,1.741307020187378,1.2132288217544556,-0.41919034719467163
1782987756600909800,7.603909912109375,1.7774783372879028,1.2337602376937866,-0.48454350233078003
1782987756610984000,7.61398388671875,1.8190157413482666,1.4062217473983765,-0.49316948652267456
1782987756621058800,7.624058837890625,1.865995168685913,1.6682122945785522,-0.45636674761772156
1782987756631133000,7.6341328125,1.920103669166565,1.8841028213500977,-0.378402441740036
1782987756641207800,7.644207763671875,1.9952679872512817,1.9997445344924927,-0.298158198595047
1782987756651282000,7.654281982421875,2.075559616088867,1.9636496305465698,-0.24949398636817932
1782987756661356800,7.664356689453125,2.1320083141326904,1.8193291425704956,-0.23969700932502747
1782987756671431000,7.674430908203125,2.14666485786438,1.6142394542694092,-0.29640981554985046
1782987756681505800,7.684505859375,2.1249797344207764,1.2753875255584717,-0.4344364106655121
1782987756691580000,7.694579833984375,2.0864713191986084,0.8932803869247437,-0.6327582597732544
1782987756701654800,7.70465478515625,2.0616235733032227,0.6066989898681641,-0.7989203333854675
1782987756711729000,7.71472900390625,2.0907249450683594,0.511135458946228,-0.8483792543411255
1782987756721803800,7.7248037109375,2.141301155090332,0.6755576729774475,-0.7801448106765747
1782987756731878000,7.7348779296875,2.1928348541259766,1.0731713771820068,-0.6527400016784668
1782987756741953000,7.744953125,2.227311372756958,1.5367217063903809,-0.5587050914764404
1782987756752027000,7.75502685546875,2.2363898754119873,1.831826090812683,-0.5597639679908752
1782987756762102000,7.76510205078125,2.25123929977417,1.841055989265442,-0.6287792325019836
1782987756772176000,7.77517578125,2.2842676639556885,1.7157630920410156,-0.7227827310562134
1782987756782251000,7.7852509765625,2.33349609375,1.5596139430999756,-0.8098291754722595
1782987756792324900,7.795324951171875,2.388692855834961,1.4585787057876587,-0.8819081783294678
1782987756802400000,7.80539990234375,2.446617841720581,1.4124397039413452,-0.9369104504585266
1782987756812473900,7.815473876953125,2.5019094944000244,1.4026517868041992,-0.9924455881118774
1782987756822549000,7.825549072265625,2.5468058586120605,1.3867180347442627,-1.0377256870269775
1782987756832622800,7.835622802734375,2.5817360877990723,1.3832658529281616,-1.0682756900787354
1782987756842698000,7.845697998046875,2.6161956787109375,1.409848928451538,-1.0847231149673462
1782987756852771800,7.855771728515625,2.636732578277588,1.4511157274246216,-1.1053292751312256
1782987756862847000,7.865846923828125,2.6353976726531982,1.4609100818634033,-1.1254353523254395
1782987756872920800,7.8759208984375,2.605724334716797,1.466493844985962,-1.1356006860733032
1782987756882996000,7.885995849609375,2.553429365158081,1.4989087581634521,-1.12539541721344
1782987756893069800,7.89606982421875,2.48181414604187,1.5604110956192017,-1.0980596542358398
1782987756903145000,7.90614501953125,2.408872604370117,1.5804665088653564,-1.0620801448822021
1782987756913218800,7.91621875,2.3426260948181152,1.5116184949874878,-1.0299421548843384
1782987756923294000,7.9262939453125,2.275402784347534,1.3751959800720215,-0.9976856708526611
1782987756933367800,7.936367919921875,2.2093403339385986,1.1937544345855713,-0.9598360061645508
1782987756943443000,7.94644287109375,2.1513986587524414,1.0188689231872559,-0.8856435418128967
1782987756953516800,7.956516845703125,2.098543167114258,0.9255579113960266,-0.7668572068214417
1782987756963592000,7.966592041015625,2.042076587677002,0.9184209108352661,-0.6069831252098083
1782987756973665800,7.976665771484375,1.980309247970581,0.9384036660194397,-0.4529813230037689
1782987756983741000,7.986740966796875,1.9144889116287231,0.9339830875396729,-0.3102191090583801
1782987756993815000,7.99681494140625,1.8476516008377075,0.9233131408691406,-0.19479557871818542
1782987757003890000,8.006889892578124,1.7805719375610352,0.937998354434967,-0.1041458398103714
1782987757013964000,8.016964111328125,1.710437536239624,0.9486778974533081,-0.050161704421043396
1782987757024039000,8.027038818359374,1.6249037981033325,0.9421238303184509,-0.02532666176557541
1782987757034113000,8.037113037109375,1.536559820175171,0.9210795760154724,-0.036988113075494766
1782987757044188000,8.04718798828125,1.4405403137207031,0.9145409464836121,-0.06497367471456528
1782987757054262000,8.057261962890625,1.3322218656539917,0.8998402953147888,-0.11454788595438004
1782987757064337000,8.0673369140625,1.2132635116577148,0.8706792593002319,-0.17828185856342316
1782987757074411000,8.077410888671874,1.1007614135742188,0.866126298904419,-0.2464875429868698
1782987757084486000,8.08748583984375,1.008406162261963,0.9201860427856445,-0.3063974678516388
1782987757094560000,8.09756005859375,0.9318286180496216,1.066440224647522,-0.358227401971817
1782987757104635000,8.107634765625,0.8776606917381287,1.2005069255828857,-0.41214999556541443
1782987757114709000,8.117708984375,0.8570166826248169,1.13367760181427,-0.46669474244117737
1782987757124783900,8.127783935546875,0.8467022776603699,0.8140913248062134,-0.514798104763031
1782987757134858000,8.13785791015625,0.8245823383331299,0.31793108582496643,-0.5410549640655518
1782987757144932900,8.147932861328124,0.779228150844574,-0.15444336831569672,-0.5106589794158936
1782987757155007000,8.158007080078125,0.6998555660247803,-0.36661607027053833,-0.42691856622695923
1782987757165081900,8.168081787109376,0.6179439425468445,-0.22540755569934845,-0.27970436215400696
1782987757175156000,8.178156005859375,0.5702405571937561,0.27422675490379333,-0.06478645652532578
1782987757185230800,8.18823095703125,0.560684084892273,0.9253073334693909,0.18652381002902985
1782987757195305000,8.198304931640624,0.5575628876686096,1.3999955654144287,0.3994528651237488
1782987757205379800,8.2083798828125,0.5781789422035217,1.4857062101364136,0.5342338681221008
1782987757215454000,8.218453857421874,0.6217402219772339,1.1963564157485962,0.5844869017601013
1782987757225528800,8.22852880859375,0.6703336238861084,0.6434586048126221,0.5753700733184814
1782987757235603200,8.238603271484376,0.6869882345199585,0.056771136820316315,0.5203076601028442
1782987757245677800,8.248677734375,0.6369703412055969,-0.40401244163513184,0.4217488467693329
1782987757255752200,8.258752197265625,0.5365822315216064,-0.6462868452072144,0.28140610456466675
1782987757265826800,8.268826904296875,0.438028484582901,-0.7325786352157593,0.13650351762771606
1782987757275901200,8.278901123046875,0.3580724000930786,-0.6644133925437927,0.0009262474486604333
1782987757285975800,8.288975830078124,0.28989148139953613,-0.4367158114910126,-0.10331840068101883
1782987757296050200,8.29905029296875,0.24054309725761414,-0.1058899462223053,-0.1571880280971527
1782987757306124800,8.309124755859376,0.19933174550533295,0.2684173285961151,-0.13910382986068726
1782987757316200000,8.319199951171875,0.17662642896175385,0.6174392700195312,-0.060573600232601166
1782987757326273800,8.329273681640625,0.16702014207839966,0.8435631990432739,0.0681508257985115
1782987757336348200,8.33934814453125,0.18514029681682587,0.9288339018821716,0.20426471531391144
1782987757346422800,8.3494228515625,0.21891769766807556,0.9548119306564331,0.3234584927558899
1782987757356498000,8.359497802734374,0.2552078068256378,0.9125406742095947,0.41496044397354126
1782987757366571800,8.36957177734375,0.28594279289245605,0.767268717288971,0.4592466652393341
1782987757376647000,8.37964697265625,0.2983914911746979,0.5161980986595154,0.46238014101982117
1782987757386720800,8.389720703125,0.30629095435142517,0.19276945292949677,0.43889081478118896
1782987757396796000,8.3997958984375,0.31515368819236755,-0.10959174484014511,0.4081134498119354
1782987757406870000,8.4098701171875,0.32599860429763794,-0.2827443480491638,0.37808099389076233
1782987757416945000,8.41994482421875,0.3432401716709137,-0.29874327778816223,0.32587185502052307
1782987757427019000,8.43001904296875,0.3497691750526428,-0.2390245646238327,0.2635890245437622
1782987757437094000,8.440093994140625,0.3547903001308441,-0.17038238048553467,0.19713836908340454
1782987757447168000,8.45016796875,0.3531647324562073,-0.14383172988891602,0.15026088058948517
1782987757457243000,8.460242919921875,0.33507493138313293,-0.20611241459846497,0.1184222474694252
1782987757467317000,8.47031689453125,0.3093610405921936,-0.30128687620162964,0.10343024879693985
1782987757477392000,8.480391845703124,0.277237206697464,-0.38161739706993103,0.10706999152898788
1782987757487466000,8.490466064453125,0.23893775045871735,-0.37669533491134644,0.14255741238594055
1782987757497540900,8.500540771484374,0.2038135826587677,-0.29642605781555176,0.2120363563299179
1782987757507615000,8.510614990234375,0.1719786822795868,-0.1432839184999466,0.3064057230949402
1782987757517689900,8.52068994140625,0.14260907471179962,0.03427514806389809,0.4071858823299408
1782987757527764000,8.530763916015625,0.13077612221240997,0.17217177152633667,0.49064934253692627
1782987757537838800,8.5408388671875,0.14714257419109344,0.2609335780143738,0.5600390434265137
1782987757547913000,8.550912841796874,0.1841259002685547,0.20899929106235504,0.5834820866584778
1782987757557987800,8.56098779296875,0.21756801009178162,-0.045219674706459045,0.5572193264961243
1782987757568062000,8.57106201171875,0.22395293414592743,-0.3841063976287842,0.488313227891922
1782987757578136800,8.58113671875,0.19408158957958221,-0.6375775337219238,0.40080946683883667
1782987757588211000,8.5912109375,0.13440494239330292,-0.7061116099357605,0.32059505581855774
1782987757598285800,8.601285888671875,0.06732018291950226,-0.6579486131668091,0.24730512499809265
1782987757608360000,8.61135986328125,0.00800492987036705,-0.5865673422813416,0.1814422309398651
1782987757618434800,8.621434814453124,-0.04863997548818588,-0.473224014043808,0.15023237466812134
1782987757628509000,8.631509033203125,-0.10149333626031876,-0.2313312292098999,0.17866908013820648
1782987757638583800,8.641583740234376,-0.1551845222711563,0.12825357913970947,0.2555425465106964
1782987757648658000,8.651657958984375,-0.21683616936206818,0.4210934340953827,0.34866636991500854
1782987757658732800,8.66173291015625,-0.2649317979812622,0.4934435188770294,0.4100154936313629
1782987757668807000,8.671806884765624,-0.3012740910053253,0.3515351414680481,0.4261039197444916
1782987757678881800,8.6818818359375,-0.33310553431510925,0.0763712003827095,0.3903333842754364
1782987757688956000,8.691955810546874,-0.3798946142196655,-0.23110352456569672,0.306378036737442
1782987757699030800,8.70203076171875,-0.45308199524879456,-0.4726189374923706,0.17826800048351288
1782987757709105000,8.71210498046875,-0.5492223501205444,-0.5628705620765686,0.009771936573088169
1782987757719179800,8.7221796875,-0.6416314244270325,-0.49499908089637756,-0.19961324334144592
1782987757729254000,8.73225390625,-0.6855562329292297,-0.3471046984195709,-0.4438304305076599
1782987757739328800,8.742328857421874,-0.6413272619247437,-0.1821698099374771,-0.6288514137268066
1782987757749403000,8.75240283203125,-0.4941178560256958,0.05842362716794014,-0.6919723153114319
1782987757759478000,8.76247802734375,-0.30727818608283997,0.36051928997039795,-0.6325308680534363
1782987757769552000,8.7725517578125,-0.1493988037109375,0.609021008014679,-0.5129501223564148
1782987757779627000,8.782626953125,-0.06487913429737091,0.7248303890228271,-0.36231347918510437
1782987757789700900,8.792700927734375,-0.05372527986764908,0.6738199591636658,-0.24114683270454407
1782987757799776000,8.80277587890625,-0.08449677377939224,0.47204849123954773,-0.14252492785453796
1782987757809849900,8.812849853515624,-0.11550529301166534,0.1738402396440506,-0.06634733080863953
1782987757819925000,8.822925048828125,-0.10547608882188797,-0.12185826152563095,0.02647368609905243
1782987757829998800,8.832998779296876,-0.0510765016078949,-0.3099125921726227,0.12830790877342224
1782987757840074000,8.843073974609375,0.02304513193666935,-0.3682829439640045,0.21264968812465668
1782987757850147800,8.85314794921875,0.10245100408792496,-0.3172975182533264,0.2603338360786438
1782987757860223000,8.863222900390625,0.1682870090007782,-0.16711361706256866,0.2675536870956421
1782987757870296800,8.873296875,0.20774467289447784,0.03850850835442543,0.2652023732662201
1782987757880372000,8.8833720703125,0.2274121195077896,0.2325083464384079,0.2637946307659149
1782987757890445800,8.89344580078125,0.22961321473121643,0.37052080035209656,0.2839907109737396
1782987757900521000,8.90352099609375,0.22397343814373016,0.4214271306991577,0.3372747004032135
1782987757910594800,8.9135947265625,0.20819208025932312,0.391520619392395,0.4076812267303467
1782987757920670000,8.923669921875,0.15382897853851318,0.3245495855808258,0.45922937989234924
1782987757930743800,8.933743896484375,0.0709676519036293,0.3045010566711426,0.48212748765945435
1782987757940819000,8.94381884765625,-0.012586365453898907,0.3611592650413513,0.4573635458946228
1782987757950892800,8.953892822265624,-0.08786167949438095,0.3840358257293701,0.3819609582424164
1782987757960968000,8.963968017578125,-0.12233496457338333,0.3418193757534027,0.2911439538002014
1782987757971042800,8.974042724609374,-0.07277833670377731,0.31447750329971313,0.2236650437116623
1782987757981117000,8.984116943359375,0.007546599488705397,0.3318477272987366,0.1854979544878006
1782987757991192600,8.994192626953126,0.07453522086143494,0.37987035512924194,0.18679092824459076
1782987758001266400,9.004266357421875,0.11183305829763412,0.4701635241508484,0.2251550853252411
1782987758011341600,9.014341552734376,0.11284878849983215,0.6196656227111816,0.3137448728084564
1782987758021415400,9.02441552734375,0.06921848654747009,0.7260134220123291,0.4176451861858368
1782987758031490600,9.034490478515625,-0.017885256558656693,0.6917912364006042,0.49767929315567017
1782987758041564400,9.044564453125,-0.1052076444029808,0.5032588839530945,0.5399881601333618
1782987758051639600,9.0546396484375,-0.1943223476409912,0.23094479739665985,0.5123730301856995
1782987758061713400,9.06471337890625,-0.28022500872612,-0.016329970210790634,0.417591392993927
1782987758071788500,9.07478857421875,-0.3454865515232086,-0.1713280826807022,0.2590653896331787
1782987758081862400,9.0848623046875,-0.35010209679603577,-0.21249549090862274,0.05586513131856918
1782987758091937500,9.0949375,-0.262815922498703,-0.1944190114736557,-0.1535799652338028
1782987758102011400,9.105011474609375,-0.0626697689294815,-0.19885317981243134,-0.32812222838401794
1782987758112086500,9.11508642578125,0.22022397816181183,-0.2917484939098358,-0.4269036650657654
1782987758122160400,9.125160400390625,0.49257081747055054,-0.4244237244129181,-0.44270020723342896
1782987758132235500,9.135235595703126,0.6659005284309387,-0.4715616703033447,-0.4008116126060486
1782987758142309400,9.145309326171875,0.7051997184753418,-0.48129764199256897,-0.349716454744339
1782987758152384500,9.155384521484375,0.6406721472740173,-0.4467247724533081,-0.2884594798088074
1782987758162458400,9.165458251953124,0.5225889086723328,-0.3050224781036377,-0.18572965264320374
1782987758172533500,9.175533447265625,0.35936322808265686,-0.06692150980234146,-0.04578746110200882
1782987758182607400,9.185607421875,0.1678268164396286,0.17417286336421967,0.09586181491613388
1782987758192682500,9.1956826171875,-0.02738075703382492,0.31879955530166626,0.19835330545902252
1782987758202756400,9.20575634765625,-0.19857141375541687,0.30574339628219604,0.24071966111660004
1782987758212831500,9.21583154296875,-0.3210371434688568,0.146951362490654,0.2142726182937622
1782987758222905300,9.2259052734375,-0.4288349747657776,-0.05216546729207039,0.10727159678936005
1782987758232980500,9.23598046875,-0.5141898393630981,-0.22306716442108154,-0.03886910155415535
1782987758243054300,9.246054443359375,-0.5906795263290405,-0.2958313822746277,-0.18668092787265778
1782987758253129500,9.25612939453125,-0.6546212434768677,-0.24694427847862244,-0.329876184463501
1782987758263203300,9.266203369140625,-0.6940852999687195,-0.11486293375492096,-0.44764435291290283
1782987758273278500,9.276278564453126,-0.6791952848434448,0.05805131793022156,-0.5113540887832642
1782987758283352300,9.286352294921874,-0.5878749489784241,0.2647709548473358,-0.47991546988487244
1782987758293427500,9.296427490234375,-0.4615718722343445,0.4731118977069855,-0.35267630219459534
1782987758303501300,9.306501220703124,-0.3326573073863983,0.6622354984283447,-0.16837356984615326
1782987758313576400,9.316576416015625,-0.22511407732963562,0.7641879320144653,0.02894137054681778
1782987758323650600,9.326650634765626,-0.14259204268455505,0.7051584720611572,0.1928783804178238
1782987758333725400,9.336725341796875,-0.08189060539007187,0.49384167790412903,0.3048238158226013
1782987758343799600,9.346799560546875,-0.047454334795475006,0.2200324982404709,0.3600383400917053
1782987758353874400,9.35687451171875,-0.033371537923812866,-0.0005749764968641102,0.37185052037239075
1782987758363948500,9.366948486328125,-0.02725532278418541,-0.12307053059339523,0.3320631682872772
1782987758374023400,9.3770234375,-0.004807271994650364,-0.1823439747095108,0.23827993869781494
1782987758384097500,9.38709765625,0.053285058587789536,-0.2502170205116272,0.08908220380544662
1782987758394172400,9.39717236328125,0.13506753742694855,-0.32783111929893494,-0.0812826082110405
1782987758404246500,9.40724658203125,0.2325725257396698,-0.3722185790538788,-0.23361089825630188
1782987758414321400,9.4173212890625,0.32874804735183716,-0.4369882345199585,-0.3350515067577362
1782987758424395500,9.4273955078125,0.39688050746917725,-0.49385684728622437,-0.36674177646636963
1782987758434470400,9.437470458984375,0.43257564306259155,-0.5287021994590759,-0.33862999081611633
1782987758444544500,9.44754443359375,0.42820727825164795,-0.5476162433624268,-0.27695730328559875
1782987758454619400,9.457619384765625,0.3877096474170685,-0.5771450996398926,-0.21519993245601654
1782987758464694500,9.467694580078126,0.3172610402107239,-0.6231221556663513,-0.1857544183731079
1782987758474768400,9.477768310546875,0.23665009438991547,-0.666858434677124,-0.1823945790529251
1782987758484843500,9.487843505859376,0.15130110085010529,-0.6893166303634644,-0.20668846368789673
1782987758494917400,9.49791748046875,0.07202838361263275,-0.6888473629951477,-0.23588789999485016
1782987758504992500,9.507992431640625,0.005116465035825968,-0.6633862257003784,-0.24681644141674042
1782987758515066400,9.51806640625,-0.029474269598722458,-0.5961832404136658,-0.22120508551597595
1782987758525141500,9.5281416015625,-0.0528232678771019,-0.46056094765663147,-0.17685680091381073
1782987758535215400,9.53821533203125,-0.06318403035402298,-0.2990471422672272,-0.1238686814904213
1782987758545290500,9.54829052734375,-0.07564229518175125,-0.16018354892730713,-0.05458095297217369
1782987758555364400,9.5583642578125,-0.09355871379375458,-0.07654164731502533,0.013968013226985931
1782987758565439500,9.568439453125,-0.10831715166568756,-0.03874393180012703,0.07658904790878296
1782987758575513300,9.578513427734375,-0.1208617091178894,-0.022124210372567177,0.14179867506027222
1782987758585588500,9.58858837890625,-0.12899872660636902,-0.04689107462763786,0.1988033801317215
1782987758595662600,9.59866259765625,-0.13674426078796387,-0.09474621713161469,0.24599751830101013
1782987758605737500,9.608737548828126,-0.12454858422279358,-0.1238737404346466,0.26788657903671265
1782987758615811600,9.6188115234375,-0.10108533501625061,-0.03304503485560417,0.2473677098751068
1782987758625886500,9.628886474609375,-0.07256874442100525,0.1797838807106018,0.1999775618314743
1782987758635960600,9.638960693359374,-0.06339175254106522,0.4256647527217865,0.12480638176202774
1782987758646035500,9.649035400390625,-0.08786381036043167,0.5923344492912292,0.012026302516460419
1782987758656109600,9.659109619140626,-0.13658954203128815,0.5594505071640015,-0.11953678727149963
1782987758666184400,9.669184326171875,-0.19426694512367249,0.31938570737838745,-0.23085425794124603
1782987758676258600,9.679258544921876,-0.2370612770318985,0.03970160707831383,-0.26320821046829224
1782987758686333400,9.68933349609375,-0.2617240250110626,-0.10284515470266342,-0.22989684343338013
1782987758696407600,9.699407470703125,-0.2588677704334259,-0.10473892837762833,-0.16541798412799835
1782987758706482400,9.709482421875,-0.18667587637901306,-0.017342770472168922,-0.08400062471628189
1782987758716556500,9.719556640625,-0.09209903329610825,0.09455127269029617,0.08687976747751236
1782987758726631400,9.72963134765625,-0.09643998742103577,0.1355873942375183,0.30836501717567444
1782987758736705500,9.73970556640625,-0.13187307119369507,0.019360648468136787,0.4416775405406952
1782987758746780400,9.749780517578126,-0.11431911587715149,-0.15929432213306427,0.465300053358078
1782987758756854500,9.7598544921875,-0.09689139574766159,-0.2608688771724701,0.3578982353210449
1782987758766929400,9.769929443359375,-0.1251762956380844,-0.2665368914604187,0.15613128244876862
1782987758777003500,9.78000341796875,-0.19634607434272766,-0.2745679020881653,-0.06154219061136246
1782987758787078400,9.790078369140625,-0.2977893352508545,-0.24496528506278992,-0.18658000230789185
1782987758797152500,9.800152587890626,-0.3655582666397095,-0.2467450648546219,-0.2002774327993393
