time,seconds_elapsed,z,y,x
1782986913962774300,0.067774169921875,-3.6265912457585334,2.369040623153746,2.8937127320334315
1782986913972849400,0.077849365234375,-4.04594420055449,1.5237316620349883,3.551087384223938
1782986913982923300,0.08792333984375,-3.3202561828553674,0.04070756570249796,3.2599419994071126
1782986913992998400,0.097998291015625,-2.8610078555226326,-1.6199083092421291,2.8980314720153806
1782986914003072300,0.108072265625,-2.6668273456811904,-3.4446704980313774,2.559559980139136
1782986914013147400,0.1181474609375,-2.4131314015537497,-5.088713131576776,2.034186152730882
1782986914023221200,0.12822119140625,-2.0054653774201867,-6.476847990164161,2.14464530005157
1782986914033296400,0.13829638671875,-1.280585753494501,-7.546876684033871,2.119123905304074
1782986914043370200,0.148370361328125,-0.3452455160558224,-8.143481225702166,1.6028142588391898
1782986914053444400,0.1584443359375,-1.1375666910916566,-7.374241066524386,1.319463473421335
1782986914063519200,0.168519287109375,-2.645059750509262,-5.269895043635368,-0.0821238641962409
1782986914073593300,0.17859326171875,-4.059847638222575,-2.11366739346385,-2.021394475696981
1782986914083667700,0.188667724609375,-4.299951110327243,0.2364385198563337,-3.478486258393526
1782986914093741800,0.198741943359375,-2.7876819225490093,1.352110774526,-4.068024514937401
1782986914103816700,0.208816650390625,-1.1149252356946469,0.9069763127416371,-4.393379920130968
1782986914113890800,0.218890869140625,-0.2069815392255783,0.0031441432446241376,-4.323380501231551
1782986914123965700,0.228965576171875,-0.9109282652378081,-0.400562329608202,-3.6003824532687663
1782986914134039800,0.239039794921875,-3.425184291794896,-0.17750702293813228,-2.27760664042905
1782986914144115000,0.249114990234375,-5.853704401138424,0.7710214896366,-1.244740533131361
1782986914154188800,0.259188720703125,-6.858251445794105,1.6406132436186074,-0.8418702919069677
1782986914164262700,0.2692626953125,-5.761030793616175,1.700918951499462,-0.49127113986350596
1782986914174337800,0.279337890625,-3.156370273512602,1.3786442689254879,0.2496775022663176
1782986914184411600,0.28941162109375,-0.31779695263803004,0.9823726222485303,1.0329073891561478
1782986914194486800,0.29948681640625,2.1058926678091288,0.6612170068323612,1.6760856851466
1782986914204560600,0.309560546875,3.917024975174665,0.6648290598496794,1.5968413219094275
1782986914214635800,0.3196357421875,5.276218401437998,0.7475441679373384,1.085190534101054
1782986914224709600,0.329709716796875,6.1910255539357655,0.4658139694586396,0.8408977205477655
1782986914234784800,0.33978466796875,6.574187835931777,0.04778904839605093,0.9021449470624328
1782986914244858600,0.349858642578125,6.321572672778368,0.052605801028013224,0.12784187847189604
1782986914254933800,0.359933837890625,5.611683697235584,0.42840515304058785,-0.2728370632532984
1782986914265007900,0.3700078125,4.7180724775016305,0.46046091799288985,0.08639211609996855
1782986914275082000,0.38008203125,4.036459163850545,0.6304115342020988,0.2234387530297041
1782986914285156900,0.390156982421875,3.838170634168386,0.9466463520899414,0.07173939443454146
1782986914295231000,0.40023095703125,3.990894513505697,1.0997107154279946,0.11295030654929578
1782986914305305900,0.410305908203125,4.2633413353323935,1.0648968839392066,0.20215134259015322
1782986914315380000,0.4203798828125,4.662355850976705,1.0345827019572258,0.18647395405210554
1782986914325454800,0.430454833984375,4.830991585195064,1.0687532671064137,0.12816935686059294
1782986914335529000,0.440529052734375,4.674540794289112,1.1531310477092862,0.0000253536369651556
1782986914345603800,0.450603759765625,4.253949237608909,1.2498495467081665,-0.23748788277879357
1782986914355678000,0.460677978515625,3.7311522749513384,1.2771119399040938,-0.6927353769723326
1782986914365752800,0.4707529296875,3.2556255975127217,1.2258929170593618,-1.2468696541145443
1782986914375827000,0.480826904296875,2.9973896718680857,1.2453881833851337,-1.6876432903409002
1782986914385901800,0.49090185546875,2.8244933575958013,1.3368167592823506,-1.75272308075577
1782986914395976000,0.500975830078125,2.685032864457369,1.3401143395230173,-1.6942694304823875
1782986914406050000,0.511050048828125,2.390777530926466,1.2029378656685352,-1.4025278333380817
1782986914416125000,0.521125,2.0217063181251285,0.9824711141869426,-0.8454775956839322
1782986914426199000,0.531198974609375,1.2340268314152956,0.9665250647753476,-0.39970432453937826
1782986914436274000,0.54127392578125,0.07656009258925914,1.0492626769557594,-0.27393450310118495
1782986914446348000,0.55134814453125,-1.1819546988725662,1.1204892995625733,-0.12269731865767389
1782986914456423000,0.5614228515625,-2.4585353083789347,1.003058267402649,0.12752521373815834
1782986914466497000,0.5714970703125,-3.8212411266773936,0.6842807792946696,0.1610640568550676
1782986914476572000,0.581572021484375,-5.291392005172372,0.1144417872160673,0.17853753502964972
1782986914486646000,0.59164599609375,-6.293650062108039,-0.806917271143198,-0.03272241216748953
1782986914496721000,0.601720947265625,-6.491888322907686,-1.627213663819432,-0.3835070768456906
1782986914506795000,0.611794921875,-6.064288933292031,-2.36171334900558,0.2075561973083764
1782986914516868900,0.621868896484375,-5.444357876572012,-2.757271586716175,1.949448014383018
1782986914526944000,0.631944091796875,-5.246454546815157,-2.616328746065497,3.674164313316345
1782986914537017900,0.642017822265625,-5.445646747338771,-2.6817116110801695,4.011555024218559
1782986914547093000,0.652093017578125,-5.048279998901486,-3.3887656554579735,3.1729987522304057
1782986914557166800,0.662166748046875,-4.324553052142262,-5.061329450088739,2.1748053143851456
1782986914567242000,0.672241943359375,-3.8426159231394528,-6.809642020925879,1.248162908795476
1782986914577315800,0.68231591796875,-2.923507274055481,-7.774419365251064,0.48132118906155225
1782986914587391000,0.692390869140625,-1.6755916180193424,-8.44570125450194,-0.39330848602242763
1782986914597464800,0.70246484375,-0.8227116371244192,-7.717042696559429,-1.1216804821085185
1782986914607540000,0.7125400390625,-1.8923323347151277,-4.923900755038857,-0.6680433457210659
1782986914617613800,0.72261376953125,-4.370554924860596,-1.959513189062476,0.7149123566627502
1782986914627689000,0.73268896484375,-6.665316552099585,-0.16900865918397903,2.5069667463317513
1782986914637762800,0.7427626953125,-7.719322331929207,0.2724023981630802,2.5214070673555136
1782986914647837000,0.7528369140625,-7.136134321194887,0.12454817068874835,1.0182416618786752
1782986914657911800,0.762911865234375,-6.069552552908658,-0.1905167266368866,-0.47794572127908463
1782986914667986000,0.77298583984375,-5.474245649835467,-0.2714221549540758,-0.8293087703671306
1782986914678060800,0.783060791015625,-4.438263017952442,0.06951017407774925,0.11743260306250303
1782986914688135000,0.793135009765625,-2.2317402306586502,1.1487690531075,1.8037343060687183
1782986914698209800,0.803209716796875,0.5485515816390514,1.7303437834262847,3.1476068290814756
1782986914708284000,0.813283935546875,3.0068320384740828,1.8085940210595726,3.6529061289712783
1782986914718358800,0.82335888671875,4.3080321254521605,1.853996758840978,3.0872119816124437
1782986914728433000,0.833432861328125,4.429191238224506,1.9212994860023258,0.9508493567377329
1782986914738507800,0.8435078125,4.511292598327994,1.7222037315905092,-1.1137542191538958
1782986914748582000,0.853581787109375,4.988995450761914,1.1729293886348604,-2.126207433824241
1782986914758655700,0.86365576171875,5.8544081654936075,1.022939025914669,-2.2953372351698578
1782986914768731000,0.87373095703125,6.7409262120962135,1.4204451828226445,-1.9732365939885377
1782986914778804700,0.8838046875,7.284400636601448,2.096396817450225,-1.1560961080599577
1782986914788880000,0.8938798828125,7.5478867378592485,2.4807965322867034,-0.15709588387645781
1782986914798953700,0.90395361328125,7.657776268598437,2.5203505440399048,0.6340752443414182
1782986914809028900,0.91402880859375,7.750760257244109,2.4501848286628722,0.9839104262750595
1782986914819102700,0.924102783203125,7.80710173766911,2.3830124498829246,0.8275258324731141
1782986914829177900,0.934177734375,7.756400308957695,2.3974697220414876,0.3052505556020886
1782986914839251700,0.944251708984375,7.446862650620937,2.4550804917499423,-0.3619450872484594
1782986914849326800,0.954326904296875,6.9599640998184675,2.4823279796376823,-1.0875915308281778
1782986914859400700,0.964400634765625,6.418910764980316,2.356576862899959,-1.7205229388967156
1782986914869474800,0.974474853515625,5.787997710996866,2.0322195288330316,-2.2474163770876823
1782986914879549700,0.9845498046875,5.220070982280373,1.792636281210184,-2.765551923805475
1782986914889623800,0.994623779296875,5.05358745765984,1.8297174731090664,-3.089723672172427
1782986914899699000,1.004698974609375,5.182570395925641,1.8341577936440705,-2.827252008654177
1782986914909772800,1.014772705078125,4.96168074285686,1.7909063886776566,-2.4033479664251205
1782986914919848000,1.024847900390625,4.578602632012963,1.8296014455139635,-2.1767137783549724
1782986914929921800,1.034921875,4.176541588279605,2.086319367811084,-1.5524930616170167
1782986914939997000,1.044996826171875,3.232296159851551,2.4194074130833148,-0.33036947049591686
1782986914950070800,1.05507080078125,0.8635054198056459,1.8788859931647777,0.44806609478946774
1782986914960146000,1.06514599609375,-1.6489426805466412,0.7156067686676979,0.5319623389530926
1782986914970219800,1.0752197265625,-3.299965089976787,-0.3113599053278565,-0.5198845092769712
1782986914980295000,1.085294921875,-4.422537041032314,-1.0199822219356893,-2.0722988796345887
1782986914990368800,1.09536865234375,-7.889697603291273,-2.1367089540943502,-1.6016256335765122
1782986915000442600,1.105442626953125,-12.469448820817469,-3.5757296580493447,-0.023706673475727438
1782986915010517800,1.115517822265625,-15.103416683948039,-3.7758863196909425,1.1512687609687446
1782986915020591600,1.125591552734375,-15.51742886223793,-2.909341970580816,1.5863327873766422
1782986915030666800,1.135666748046875,-14.093255306541918,-2.469894322261214,1.8785089765459297
1782986915040740900,1.145740966796875,-12.95045071479678,-3.0232161870419976,2.574887313130498
1782986915050815700,1.155815673828125,-11.233409480535983,-4.498065452486276,3.3881308646857735
1782986915060889900,1.165889892578125,-8.63052006175816,-7.806412586361169,4.033164213958383
1782986915070964700,1.17596484375,-5.651335908666253,-10.73090770241022,4.273481036552787
1782986915081038800,1.186038818359375,-2.338761512485146,-10.40393550966978,2.6329692074820397
1782986915091117000,1.196116943359375,-0.5472381609529257,-8.379463818484544,1.7749210301689802
1782986915101191200,1.206191162109375,-1.6648381688147782,-5.435249856486916,1.2737008162863552
1782986915111266000,1.21626611328125,-3.6843928618639707,-1.98608204703629,-1.2060882194582372
1782986915121340200,1.226340087890625,-4.844506315806508,0.38209552954733367,-3.3971687421441077
1782986915131414300,1.236414306640625,-6.910207843002676,-0.16651655010730027,-4.656441950757801
1782986915141489200,1.2464892578125,-8.858941863897442,-1.0262389442428945,-4.641677512346208
1782986915151563300,1.256563232421875,-8.663675896906852,0.11829290968626736,-4.614683414697647
1782986915161638100,1.26663818359375,-5.253924736565351,1.8602181175738572,-3.5761867541670798
1782986915171712300,1.276712158203125,-0.6812485719919205,4.0810429864645,-0.7168386485502123
1782986915181787100,1.286787109375,4.31373998170495,4.341949592623115,1.21174105758816
1782986915191861200,1.296861328125,8.548660693717002,1.6191639206156134,3.436605849519372
1782986915201936100,1.30693603515625,8.654571968474984,-0.08633943606466055,6.285119549649954
1782986915212010200,1.31701025390625,7.552612597337364,0.8438096624717116,2.4333956064254045
1782986915222084000,1.327083984375,7.711833437478542,0.5334297080919146,1.080591881199181
1782986915232159200,1.3371591796875,8.19932995417416,0.8084569018006325,2.155447264572978
1782986915242233000,1.347233154296875,6.712367057088017,1.8223244402483105,1.9223393504440784
1782986915252308200,1.35730810546875,4.908595633879304,1.6482707726344465,1.9807418550521134
1782986915262382000,1.367382080078125,5.042582079520821,1.6116203733682632,1.0545026234358548
1782986915272457200,1.377457275390625,5.546134828004241,1.7512746355131268,0.8007289378970861
1782986915282531000,1.387531005859375,5.993033961373567,1.7101441682234406,0.9713476626262069
1782986915292606200,1.397606201171875,6.864103678953647,2.0674811040893197,1.3217562605336308
1782986915302680000,1.40768017578125,7.813635523352026,2.4389003413215278,2.033055687396228
1782986915312755200,1.417755126953125,8.242049151960014,2.5348218447238207,2.0794220095127818
1782986915322829000,1.4278291015625,8.31908446084559,3.023262364271283,1.702887475093454
1782986915332904200,1.437904296875,8.314360354933141,3.276899271687865,1.4761900125287473
1782986915342978000,1.44797802734375,7.92724495139718,3.274383197213709,1.1148767203778027
1782986915353052200,1.45805224609375,7.35479869942963,3.3387069085642693,0.7306948860757052
1782986915363127000,1.468126953125,6.988269572326541,3.5029020299866795,0.7317547703921794
1782986915373201200,1.478201171875,6.942125076267123,3.5532287801668048,0.9321420259192585
1782986915383276300,1.4882763671875,7.0518404194831845,3.366330244027078,1.180794276791066
1782986915393350100,1.49835009765625,7.383254978585243,3.435718253029883,1.4470092184908687
1782986915403425300,1.50842529296875,7.625414214175939,3.923396556033194,1.8911704513289034
1782986915413499100,1.5184990234375,7.7312039083808655,4.179780131809413,2.3598646523989735
1782986915423574300,1.52857421875,8.193051604557036,4.211465894405544,2.618175542975962
1782986915433648000,1.538648193359375,8.937136279690264,4.045437420076132,2.305501924701035
1782986915443723300,1.54872314453125,9.682893856471777,3.53092254807353,2.0732019659541545
1782986915453797000,1.558797119140625,10.182661241197586,0.843758516806364,-1.1171762294918297
1782986915463871000,1.56887109375,10.243891078186035,1.0046633645117282,-3.0935236489772793
1782986915473946000,1.578946044921875,8.482480540844797,1.0301368284642696,-3.6671605720341205
1782986915484020000,1.58902001953125,3.5035376975417134,-0.28229163175374267,-1.147926903194934
1782986915494095000,1.59909521484375,-3.1484692911297083,-1.6172463965564965,1.049167253757268
1782986915504169000,1.6091689453125,-9.05190130751133,-2.1914742712438104,1.3344278183192013
1782986915514244000,1.619244140625,-14.961838468003272,-3.3804286197453735,1.8164497029960154
1782986915524318200,1.629318115234375,-19.13306149160862,-5.5622132716238495,3.9461116611883043
1782986915534393000,1.63939306640625,-21.402051548731325,-7.010704691496491,5.410556144735216
1782986915544467200,1.64946728515625,-24.09311784813404,-7.887168961596489,5.7321174183428285
1782986915554542000,1.6595419921875,-27.280698083424568,-8.152614380228519,5.015115980446338
1782986915564616200,1.6696162109375,-27.815530936312673,-8.059860693207384,3.6227193727612494
1782986915574691000,1.679691162109375,-26.919711392879485,-8.416632396405936,1.118329345049709
1782986915584765200,1.68976513671875,-27.10075418872833,-9.106646458655595,-2.1258821473926304
1782986915594839000,1.699839111328125,-26.587459798431397,-8.929531649905442,-4.835128831130266
1782986915604914200,1.7099140625,-25.256816759347913,-7.508249139475822,-6.55710050753057
1782986915614988000,1.719988037109375,-22.451209888529775,-5.116182737782597,-7.263162033739685
1782986915625063200,1.730063232421875,-17.88728869282007,-2.322458320198953,-6.176797122097015
1782986915635137000,1.740136962890625,-12.694616005074977,0.4883695001378655,-3.444211063826084
1782986915645212200,1.750212158203125,-7.132503855738044,2.744548883265257,-0.873061110593006
1782986915655286000,1.7602861328125,-1.305287648552656,4.113779134896397,1.102949916544929
1782986915665361200,1.770361083984375,4.896452776142954,4.793937281303108,2.3379113253965973
1782986915675435000,1.78043505859375,10.457968713152408,4.870811262147129,2.8804151513040064
1782986915685510100,1.79051025390625,14.612198516380786,4.826203181874752,3.581742634728551
1782986915695584000,1.800583984375,17.747538861346243,4.623264196038246,4.283507632787526
1782986915705658000,1.810658203125,20.145154129338263,4.0643434883371,4.123296904826164
1782986915715733000,1.82073291015625,21.983246339821815,3.7087048808217045,2.9114725528687235
1782986915725807000,1.83080712890625,22.47344977738857,3.346225029109418,1.5241447728805244
1782986915735882000,1.840882080078125,20.90947495229244,2.9486823395833373,2.2832936000242827
1782986915745956000,1.8509560546875,18.294716816544533,3.3315120286241173,1.1111118148863315
1782986915756031000,1.861031005859375,15.198627116471528,3.4302471281424163,1.0335266170330346
1782986915766105000,1.87110498046875,11.970213351011276,3.3443238716632124,1.1027420459479094
1782986915776180000,1.881179931640625,8.941503242728114,3.430202996739745,0.839791659002006
1782986915786254000,1.891254150390625,6.429900361028313,3.588635316851735,0.27784396816249934
1782986915796329000,1.901328857421875,4.588001159477233,3.6500486937135457,-0.21785335411280393
1782986915806403000,1.911403076171875,4.368726540389657,3.9343218546733256,-0.8136448258325457
1782986915816477200,1.921477294921875,3.9533717153191565,4.0959462488248946,-2.3932325228631495
1782986915826552000,1.931552001953125,2.5191502283394334,1.3574375225067137,-8.13026927742958
1782986915836626200,1.941626220703125,4.396084502914547,-1.5153580937042832,-9.136192286613584
1782986915846701000,1.951701171875,7.328313428086042,-2.6170611519932745,-10.128464371585846
1782986915856775200,1.961775146484375,9.496326744243502,0.6116130179688334,-3.8975980979099867
1782986915866850000,1.97185009765625,10.01927802067995,3.6781469532117246,1.1046230373889208
1782986915876924200,1.981924072265625,10.312125825500488,4.782794832780957,2.049341344025731
1782986915886999000,1.9919990234375,9.537609771746396,4.614337669999897,1.0866278734277932
1782986915897073200,2.0020732421875,7.316600193938613,4.225574499256909,0.16982859726473687
1782986915907148000,2.01214794921875,5.368019902300834,4.265934858956933,-0.6513956508461386
1782986915917222100,2.02222216796875,4.678398054239153,4.097865818710625,-0.8926200898047536
1782986915927296300,2.032296142578125,5.0857396687239405,3.5264831043213603,-0.9556145253129303
1782986915937371100,2.04237109375,5.504328068888187,2.1002251435667274,-1.243041620258987
1782986915947445200,2.0524453125,5.561521197706461,0.5355199583694339,-1.7781369234755635
1782986915957520100,2.06252001953125,4.414164349484444,-0.4443585089758038,-2.242415646190941
1782986915967594200,2.07259423828125,0.8121849824130535,-0.7552981430649757,-2.3913225975885988
1782986915977669000,2.082669189453125,-3.6074487383931872,-0.7929550890251994,-1.5049556498944758
1782986915987743200,2.0927431640625,-7.563274276605248,-0.4693170091435313,-0.23372356180921194
1782986915997818000,2.102818115234375,-9.612367783349752,-0.9123203041180967,1.2206010211963205
1782986916007892200,2.112892333984375,-9.458680027416348,-2.7918346583142877,2.8288772717684507
1782986916017967000,2.122967041015625,-9.130653941708802,-5.872764490917325,3.3107179546594616
1782986916028041200,2.133041259765625,-9.27618527919352,-9.31642961129844,3.948504986065626
1782986916038115000,2.143114990234375,-11.669087547188997,-11.395142011237144,1.715344951736927
1782986916048190200,2.153190185546875,-16.464167276525497,-12.80729545879364,-3.960207698819041
1782986916058264000,2.16326416015625,-18.288662338811157,-14.185399337232113,-2.2743606442451476
1782986916068339200,2.173339111328125,-21.53246305849552,-11.485661071074007,0.0513134961951524
1782986916078413000,2.1834130859375,-25.813590225887296,-8.023525058978796,0.6322858036413789
1782986916088485000,2.193485107421875,-33.67449311184883,-4.894750356139243,-0.7714763207320123
1782986916098559000,2.20355908203125,-37.87986390424967,-1.1650339592099188,-1.9255074590861796
1782986916108634000,2.213634033203125,-35.00138352040052,0.8028451993986964,-2.1110168789550663
1782986916118708000,2.2237080078125,-28.89166379227638,1.0369348180413245,-2.763037895157933
1782986916128783000,2.233783203125,-20.667419761598108,0.7581079397886991,-3.7445211673513055
1782986916138857000,2.24385693359375,-12.124516608494519,0.9319666693523526,-4.0573417928814886
1782986916148931000,2.25393115234375,-4.092363421902061,1.0682689907208085,-4.470870279307663
1782986916159006000,2.264005859375,3.022649200809002,1.453999661900103,-4.16256274728775
1782986916169080000,2.274080078125,8.475209088537097,3.1362264801502224,-1.3955005650497971
1782986916179155000,2.284155029296875,13.622853132510185,4.244895578059554,1.1859475679010152
1782986916189229000,2.29422900390625,18.58424687511921,3.9383804824143644,1.2435111374668777
1782986916199304000,2.304303955078125,22.278453274989126,3.105100689524412,-2.0840772879727183
1782986916209378000,2.3143779296875,24.521233370578287,1.9883324563115834,-4.488822407844663
1782986916219453200,2.324453125,25.879271781587597,2.371573648762703,-4.068738216164708
1782986916229527000,2.334527099609375,25.653015048527717,3.910710969722271,-2.0837017326585947
1782986916239602200,2.344602294921875,23.453414753973483,4.171856645333767,-0.5308313256291672
1782986916249676000,2.354676025390625,19.690054738378524,4.823916532242298,-0.13127097613774238
1782986916259750000,2.36475,15.549371814465522,5.785071009895205,0.03623392741978168
1782986916269825000,2.374824951171875,11.411102965956927,5.854690489566326,0.06361996526168659
1782986916279899000,2.38489892578125,8.36936561831832,5.729416342690587,-0.11436461206031963
1782986916289974000,2.39497412109375,6.879142258131504,5.653529034796357,-0.37115108781531453
1782986916300048000,2.4050478515625,6.813211696106195,5.244244469550251,-0.278507875431329
1782986916310123000,2.415123046875,8.130051835286617,4.736658520027995,-0.5145024874450639
1782986916320196900,2.42519677734375,8.206460536706446,3.8905753596663475,-1.1961334463506936
1782986916330272000,2.43527197265625,7.705835073846578,3.325512495948374,-1.8243674903832374
1782986916340346000,2.44534619140625,7.936359401223063,3.30659035333544,-1.4340167581878602
1782986916350421000,2.4554208984375,7.561223189294338,3.663600833725929,-0.5496139867061749
1782986916360495000,2.4654951171875,7.003671139597892,3.98797950284183,0.3929246743366122
1782986916370569000,2.47556884765625,6.206261116990446,4.082503122144938,1.33064420812726
1782986916380644000,2.48564404296875,5.140625105121732,4.41914067659229,1.8454099861510096
1782986916390718000,2.495718017578125,4.331880618551374,4.524046865960956,1.8278712607204912
1782986916400793000,2.50579296875,3.97126919105947,4.515658100061119,1.3386748082391917
1782986916410867000,2.515866943359375,4.258797846683859,4.409669960674643,0.6507919127993286
1782986916420942000,2.525942138671875,5.137458750045299,4.11289767588675,0.08348757203118876
1782986916431016000,2.536015869140625,6.249680572000146,3.8457697109952567,-0.5001063343565911
1782986916441091000,2.546091064453125,6.901126710924506,3.3559295537829397,-0.9042726067408918
1782986916451165000,2.5561650390625,7.406627086344361,2.7793799581497907,-1.1377129676945508
1782986916461240000,2.566239990234375,7.7795175651729105,2.337035127083957,-1.6574436746492982
1782986916471314000,2.57631396484375,6.73834028725624,1.094570429930091,-2.6576658418431878
1782986916481388000,2.586387939453125,4.769071427854895,-0.15977292106598615,-2.97812529168874
1782986916491463000,2.596462890625,1.8791998814195394,-1.1150056074544787,-3.088555505175888
1782986916501537000,2.606537109375,-2.857127214697003,-2.617697988592088,-2.4835709654361007
1782986916511612000,2.61661181640625,-8.679333484765888,-4.670025362691283,-1.9936423992879688
1782986916521686000,2.62668603515625,-15.177695387601851,-7.81931766064167,-1.1686481311190873
1782986916531761000,2.636760986328125,-20.59623200969696,-11.79709667198658,0.09847653991365805
1782986916541835000,2.6468349609375,-23.554436503124236,-12.573897037285565,1.439462017981708
1782986916551910000,2.656909912109375,-32.31096019507646,-11.282136394304036,4.91798422447145
1782986916561984000,2.66698388671875,-43.24557611413002,-9.411085332548618,5.42483542997837
1782986916572059000,2.677058837890625,-52.126198479437825,-6.184046362572908,4.899726975508034
1782986916582133000,2.687133056640625,-55.72334151239395,-4.343937843830883,3.8173441192388533
1782986916592206800,2.697206787109375,-50.75407309088707,-2.6619015797168015,2.2397243612803517
1782986916602282000,2.707281982421875,-40.26679645018577,-0.8001543528795242,2.0382433191671967
1782986916612355800,2.71735595703125,-28.249176035833358,0.007783201222121715,3.66341203315556
1782986916622431000,2.727430908203125,-16.267054804885387,-0.6399778194487095,4.749765254360437
1782986916632504800,2.7375048828125,-6.649592328745126,-4.015169123062491,2.091235489164293
1782986916642580000,2.747580078125,2.1303823814213274,-3.680782854673266,-3.299418854270875
1782986916652653800,2.75765380859375,10.696376487255096,0.5010673614084721,-5.991837445065379
1782986916662729000,2.76772900390625,17.863522032785415,3.795684076094627,-6.673144469246268
1782986916672802800,2.777802734375,22.143398323333262,5.416552754801511,-5.249982720941305
1782986916682878000,2.7878779296875,24.00331658117771,5.402970219650864,-3.0612977881550787
1782986916692951800,2.797951904296875,24.473809940624236,4.709127539023757,-1.5536065758168696
1782986916703026200,2.808026123046875,24.092135851359366,3.923330797320604,-1.1862955045558512
1782986916713100800,2.818100830078125,23.71597263447046,4.474807618756592,-1.3459648191168903
1782986916723175200,2.828175048828125,22.420478065657615,5.765506477725506,-0.9589404548652469
1782986916733249800,2.838249755859375,19.364875858795642,6.924111865192652,-0.09512684589326381
1782986916743324200,2.84832421875,15.125036979603767,7.849745532131195,-0.2730526422327384
1782986916753398800,2.858398681640625,11.252238099646569,8.502835346609354,-0.6093797059588134
1782986916763473200,2.86847314453125,8.679332315722107,8.718691097164154,-0.6398094771444797
1782986916773547800,2.8785478515625,7.403644271141291,8.260422428518533,-0.2614518920164555
1782986916783622100,2.8886220703125,7.604940165945887,7.336230192559957,0.14769487219415603
1782986916793696800,2.89869677734375,8.350143615975975,6.3597682556599375,0.39426019725669176
1782986916803771100,2.908771240234375,9.075065325477718,5.4667433113813395,0.7911363491654395
1782986916813845000,2.918844970703125,9.448936047515273,4.826768414542078,0.7896759212240576
1782986916823920000,2.928920166015625,9.39078780992925,4.452499925358593,0.20635146116111427
1782986916833994000,2.938993896484375,9.2628675324589,4.216382892541587,-0.5878322928762063
1782986916844069000,2.949069091796875,9.31643136486411,4.057233364070952,-1.1383772768221796
1782986916854143000,2.95914306640625,9.279315978434681,3.9047640440165994,-1.2451429764524102
1782986916864218000,2.969218017578125,8.905300294968486,3.5182083201900123,-1.1751504987504333
1782986916874292000,2.9792919921875,8.51063871383667,3.19120222517997,-1.0887589671723543
1782986916884367000,2.9893671875,8.42514654225111,2.9807565169751644,-0.8668527574721723
1782986916894441000,2.99944091796875,8.586307410544157,2.6200506891980764,-0.6360789123140275
1782986916904516000,3.00951611328125,8.903084957006573,2.276973457092047,-0.4091139213869348
1782986916914590000,3.01958984375,8.931014581939577,1.8792498580411074,0.06272329498317558
1782986916924664000,3.0296640625,8.571655200335384,1.420039524631202,0.4137856395250186
1782986916934739000,3.039739013671875,7.919868285149335,1.0412766466379164,0.5011365907197818
1782986916944813000,3.04981298828125,7.017873267951607,0.790833274565637,0.23445129156187175
1782986916954888000,3.059887939453125,5.9577709248125545,0.679783467875421,-0.08427160768150352
1782986916964962000,3.069962158203125,4.983410344105959,0.6416670877099037,-0.342618382422626
1782986916975037200,3.080037109375,3.8844899022728203,0.2611424607411027,-0.10783173969285562
1782986916985111000,3.090111083984375,2.2664479714244603,-0.2712231252506375,0.2296491519771516
1782986916995186200,3.100186279296875,0.07260229487419129,-1.2091846511036157,0.4564650532897562
1782986917005260000,3.110260009765625,-2.7623504974156616,-2.472953417570889,0.03297576587405056
1782986917015335200,3.120335205078125,-6.517146682804823,-4.047485000255704,-0.037029352113790805
1782986917025409000,3.130408935546875,-9.823796365112067,-6.0302288427799935,-0.22003478980511426
1782986917035483000,3.14048291015625,-12.03027531326413,-8.437311611819267,-0.4440391408283263
1782986917045558000,3.15055810546875,-14.812412461167574,-10.537278981232642,0.08363061549738049
1782986917055632000,3.1606318359375,-18.996732282233236,-11.602658972513675,0.7505528482340276
1782986917065707000,3.17070703125,-23.683309551274775,-11.058395443457364,1.1467205961450935
1782986917075780900,3.18078076171875,-28.67168716239929,-9.071067780274152,1.0239134239047765
1782986917085855500,3.19085546875,-33.376634785389896,-7.188864040863513,-0.08001699157748371
1782986917095929300,3.200929443359375,-36.88904552521706,-6.095683603987097,-1.1182952235843986
1782986917106004500,3.21100439453125,-39.089372965002056,-5.008260707724094,-1.9864555565237998
1782986917116078300,3.221078369140625,-38.97137670017481,-3.65107599093467,-2.9455747289568186
1782986917126153500,3.231153564453125,-35.95219722130298,-2.0491747552871704,-4.099216064275801
1782986917136227300,3.241227294921875,-30.390899310958385,-0.6421729914054274,-5.163246686774492
1782986917146301400,3.251301513671875,-22.94158634457588,0.22146979104429482,-5.349540242758393
1782986917156376300,3.261376220703125,-14.520335056197643,0.7566618326336145,-4.60019574740082
1782986917166450400,3.271450439453125,-5.892804823905229,1.2422984006762503,-3.615325170856714
1782986917176525600,3.281525634765625,1.5064970341175794,1.9078952300280332,-2.0017098242789504
1782986917186599400,3.291599365234375,7.441576234650611,2.5930466546773907,-0.6943892816592008
1782986917196674600,3.301674560546875,11.292381893986462,3.0117481598272917,-0.14118480531354433
1782986917206748400,3.31174853515625,13.332488376677036,3.1546567475929854,0.19834707320267334
1782986917216823600,3.321823486328125,14.973747516983746,3.42762847007662,0.4686135370492935
1782986917226897400,3.3318974609375,16.490482451999185,4.016919473861158,0.03703972737733274
1782986917236972500,3.34197265625,17.879771741318702,4.647454049921035,-0.09084500385560094
1782986917247046400,3.35204638671875,19.404426947939395,5.164570044332742,0.17194606434274465
1782986917257120300,3.362120361328125,20.677029301464557,5.377138443779945,0.30478359567746516
1782986917267195400,3.3721953125,20.953819120931623,5.498292295855284,-0.2788928196283057
1782986917277269200,3.382269287109375,20.480931559824942,6.087697865930199,-0.28866014387235045
1782986917287344400,3.392344482421875,19.81938605169058,6.1141691087484356,0.34751499535776675
1782986917297418500,3.40241845703125,18.579810353976487,5.799001920092105,-0.15787731657773255
1782986917307493400,3.412493408203125,16.964737794327736,5.816722285699844,-0.33219270386770366
1782986917317567500,3.4225673828125,15.239224499797821,6.028275955146551,-0.5257326142506673
1782986917327642400,3.432642333984375,13.18922907577753,6.11516805665791,-0.6658045538183301
1782986917337716500,3.442716552734375,10.632799210357666,5.7668093770176165,-0.7762717383150011
1782986917347791400,3.452791259765625,8.599124806541203,5.348407439336181,-0.5722987697882578
1782986917357865500,3.462865478515625,7.110920969483256,4.8603000972658394,-0.5175442297611386
1782986917367939600,3.472939697265625,6.041072892877459,4.18371250282228,-0.29634474355820567
1782986917378014500,3.483014404296875,5.527611913841962,3.4829540514573454,-0.030520335545949635
1782986917388088600,3.493088623046875,5.774410499671101,2.9258167200416323,-0.003540741346776485
1782986917398163500,3.50316357421875,6.399966995057463,2.6467972418263552,-0.12192352127358316
1782986917408237600,3.513237548828125,7.022292837959528,2.330899693068862,-0.0041387072399258614
1782986917418312400,3.5233125,7.363834238800406,1.9978888046860694,0.23438049134798347
1782986917428386600,3.533386474609375,7.480065832042694,1.6495298327848313,0.39712066472172736
1782986917438461400,3.54346142578125,7.3569555852025745,1.2280394275687634,0.4499580094832927
1782986917448535600,3.55353564453125,6.9436910104095935,0.8364229132212698,0.28644714399799703
1782986917458609700,3.563609619140625,5.840175642001628,0.5555211283907294,0.3735551532823592
1782986917468684500,3.5736845703125,4.257580872109532,0.2096766235284507,0.680524787762016
1782986917478758700,3.583758544921875,3.075329820638895,-0.023087591729313135,0.5464687840156257
1782986917488833500,3.59383349609375,1.8967045584499835,-0.36379619500786065,0.3254987591870129
1782986917498907600,3.60390771484375,0.377184376630187,-0.7794052871003746,-0.012045096450299024
1782986917508982500,3.613982421875,-1.857180357313156,-1.0626168101780116,-0.7436983061641455
1782986917519056600,3.624056640625,-5.499263186714053,-1.2066365740559994,-1.4924278844937682
1782986917529131500,3.634131591796875,-9.529768995118141,-1.4244173013240098,-1.9310116094604133
1782986917539205600,3.64420556640625,-12.034766779464482,-2.3903498070336875,-1.2998521795004605
1782986917549280500,3.654280517578125,-12.609860331070422,-4.181539834958315,0.05030775321871042
1782986917559354600,3.664354736328125,-12.985375897705554,-6.7491703088283534,1.0310742554448544
1782986917569429500,3.674429443359375,-14.1479712315917,-9.535411384919286,0.9950323434658348
1782986917579503600,3.684503662109375,-18.133779235613346,-9.761914201694726,-0.038600656551122665
1782986917589577500,3.694577392578125,-24.013491938233376,-8.152088310527802,-1.1839426578193901
1782986917599652600,3.704652587890625,-28.401313055193423,-6.331549292391538,-2.771135861417651
1782986917609726500,3.7147265625,-31.81297092593908,-5.358688594853878,-5.317195139470696
1782986917619801600,3.724801513671875,-34.52417049731016,-3.4251509740471837,-8.999702918240427
1782986917629875500,3.73487548828125,-35.63524373375177,-0.12267083250954747,-9.6370474665761
1782986917639950600,3.74495068359375,-33.30909912625551,1.1800440429456531,-9.643718030381201
1782986917650024400,3.7550244140625,-28.15592375164032,1.24061600054726,-8.182823056009411
1782986917660099600,3.765099609375,-21.130393831455706,1.0780277297995984,-5.793496892935037
1782986917670173400,3.77517333984375,-14.37481131749749,0.3785878136873245,-2.9363936436355114
1782986917680248600,3.78524853515625,-8.907237985032797,-0.8506624509759246,-1.5736922092512249
1782986917690322400,3.795322509765625,-3.3523160394608973,-0.8797877154342829,-2.391058539824933
1782986917700396500,3.805396484375,2.5431489435642955,0.031736323739588256,-2.657226865904033
1782986917710471400,3.815471435546875,8.558294198980928,0.8419099663302302,-2.0088387993760404
1782986917720545500,3.825545654296875,14.739251363366842,1.2797504717141388,-1.3993255301654337
1782986917730620400,3.835620361328125,18.964134665489194,1.7094436187386512,-0.23759938032925126
1782986917740694500,3.845694580078125,21.03050137859583,1.877850220376253,1.7360124767124652
1782986917750769400,3.855769287109375,22.099187425684928,2.065536984284222,2.740195364230871
1782986917760843500,3.865843505859375,21.552388240671156,1.5270783421143888,1.941260616274178
1782986917770918400,3.87591845703125,20.22531779937744,1.2142948337242006,1.3200664077505468
1782986917780992500,3.885992431640625,19.421620074802636,2.139217137522995,2.17190243255049
1782986917791067400,3.8960673828125,18.45046618118286,3.102776630491018,2.812525271904468
1782986917801141500,3.9061416015625,16.754772855377198,3.622598961251974,2.4559745179802177
1782986917811215400,3.91621533203125,14.70007086110115,3.8357901687726375,2.0544135327234865
1782986917821290500,3.92629052734375,12.700910136783122,4.049377097612619,1.6742510170653462
1782986917831364400,3.9363642578125,11.154026731741428,4.644771971230209,1.4105540495358406
1782986917841439500,3.946439453125,9.896928236818313,4.901760527162254,1.1094284649092703
1782986917851513300,3.956513427734375,8.98947670778036,4.59123473457098,0.7722939207252114
1782986917861588500,3.96658837890625,8.85584798953533,4.191455956555902,0.5539714877959341
1782986917871662300,3.976662353515625,9.067839465877412,3.876027194353938,0.75059252265729
1782986917881737500,3.986737548828125,9.019953094586729,3.587579085797071,0.7897538087658583
1782986917891811300,3.996811279296875,8.839099099308251,3.3650928111866114,0.3432848104421049
1782986917901885400,4.006885498046875,8.876636510542035,3.2267987314790485,0.2752768576208502
1782986917911960300,4.016960205078125,8.797478218153119,3.309867475309968,0.4019727809280157
1782986917922034400,4.027034423828125,8.542004158437251,3.1831708944156762,0.5031566618379205
1782986917932109600,4.037109619140625,8.18722684392631,2.921916789993644,0.5262866314042359
1782986917942183400,4.047183349609375,7.8576739870429035,2.508718850696087,0.3670632339797914
1782986917952258600,4.057258544921875,7.653434440001845,2.0448533849567174,0.2409986673787236
1782986917962332400,4.06733251953125,7.358421566101908,1.7409651306837797,0.3307183204662055
1782986917972407600,4.077407470703125,6.810320650839805,1.3708995000176132,0.15270502850636838
1782986917982481400,4.0874814453125,6.290251651841402,0.963267085892707,-0.16650697856135666
1782986917992556500,4.097556640625,5.872265309223533,0.8330230416499078,-0.047292570115998384
1782986918002630400,4.10763037109375,5.054696295684575,0.8211103394076228,0.10607618299610912
1782986918012704300,4.117704345703125,3.4455700772196054,0.7846278440542519,-0.430185533651337
1782986918022779400,4.127779296875,0.6300906316846608,0.947835269613564,-1.1968836801961065
1782986918032853200,4.137853271484375,-4.210516923117638,0.6411689289294182,-2.0948044336922464
1782986918042928400,4.147928466796875,-10.227478872567415,-0.29003990779295563,-2.616073894521594
1782986918053002500,4.15800244140625,-14.184104036724566,-2.313734038734436,-2.6973250675365326
1782986918063077400,4.168077392578125,-15.103599054777622,-4.962928697091341,-1.9068302311450243
1782986918073151500,4.1781513671875,-15.416436339181661,-8.13849583850503,-0.8057398979268967
1782986918083226400,4.188226318359375,-17.1792807087183,-10.981719031012057,-0.6143254187326878
1782986918093301500,4.198301513671875,-20.607482887029647,-11.851190665745735,-0.9693460404802113
1782986918103376600,4.208376708984375,-25.899344263279435,-11.286492251425981,-1.0720941019669175
1782986918113450500,4.218450439453125,-29.78590278851986,-10.99724977762103,-0.7572582641568034
1782986918123525600,4.228525634765625,-30.95693861849308,-10.897013625890017,-0.4712034074120223
1782986918133599500,4.238599609375,-29.97318360197544,-10.033892236965894,0.227279427171126
1782986918143673600,4.248673583984375,-29.105977574086186,-7.570519425427913,0.3394848336372524
1782986918153748500,4.25874853515625,-31.38754654227495,-4.3920781898826355,-0.4760341885693371
1782986918163822600,4.268822509765625,-32.737474127542974,-1.2412944843307137,-2.229753586886078
1782986918173897500,4.2788974609375,-28.429395824861526,0.9223612211391329,-3.699476449227333
1782986918183971600,4.2889716796875,-21.19954277100563,1.0903019588306546,-2.6958313218474386
1782986918194046500,4.29904638671875,-13.292897540044784,0.326961671346426,-0.7156757422506809
1782986918204120600,4.30912060546875,-6.065693539392948,0.06812368815541267,-1.29189888240844
1782986918214195500,4.319195556640625,1.1686147403061389,1.7088775092884898,-1.5738041451931
1782986918224269600,4.32926953125,8.776350089928508,3.9149651200354096,-0.46200361739024515
1782986918234344700,4.3393447265625,15.90160002901554,4.821118133695423,0.9912006563484668
1782986918244418600,4.34941845703125,21.919704134237765,4.410474555055797,2.4324290994808075
1782986918254492400,4.359492431640625,26.072124257695673,3.645577393518388,2.820321624869108
1782986918264567600,4.369567626953125,27.27757673653364,3.028944793821871,2.2869560680545864
1782986918274641400,4.379641357421875,25.753534108853337,3.099617874199152,1.54760543570593
1782986918284716500,4.389716552734375,22.331032188010216,4.027926313304901,1.0323775200631469
1782986918294790400,4.399790283203125,18.08130904366374,5.214312857145071,0.5849454488608986
1782986918304865500,4.409865478515625,13.71764154022932,6.438583433699607,0.20913995936848223
1782986918314939400,4.419939453125,9.924917482984066,7.523078459817171,-0.427472913691774
1782986918325014500,4.4300146484375,7.436625918766856,8.30487414918542,-1.136861611562222
1782986918335088400,4.44008837890625,6.489052222698927,8.376238426697254,-1.5046262718096375
1782986918345162800,4.450162841796875,6.827047913756966,7.970368638330697,-1.711029865016788
1782986918355237600,4.460237548828125,7.71245244615972,7.124641451799869,-1.4853464018002152
1782986918365311700,4.470311767578125,8.570234812143445,6.088728378021717,-1.0386739898588508
1782986918375386600,4.48038671875,9.517429738026857,5.3643280620455736,-0.4146287392856553
1782986918385460700,4.490460693359375,10.095360558885336,4.908752870267629,0.31813276046365496
1782986918395535600,4.50053564453125,9.971693262684346,4.304179541677236,0.7096436224795878
1782986918405609700,4.510609619140625,9.600002807295322,3.6493922756314277,0.9221421715609729
1782986918415684600,4.5206845703125,9.225125538563727,3.2237706158295274,1.073212000080943
1782986918425758700,4.5307587890625,8.88643718906641,2.967709696136415,1.2113880794320255
1782986918435833600,4.54083349609375,8.425452247199416,2.853552571080625,1.2701971920795738
1782986918445907700,4.55090771484375,7.856614248856902,2.7023122082993387,1.373552060353011
1782986918455981600,4.560981689453125,7.397243756449222,2.5563722900137305,1.366184308063984
1782986918466056700,4.571056640625,6.799967599129676,2.6275948209673166,1.343113521338999
1782986918476130800,4.581130859375,6.131685476216673,2.4431176667556165,0.9372832612652331
1782986918486205700,4.591205810546875,5.85585777978003,2.3329604249909517,0.7852423226907849
1782986918496279800,4.60127978515625,5.8672506959319115,2.495721714217961,0.5021009057072923
1782986918506354700,4.611354736328125,5.866915764889121,2.425863165093958,0.4351056735925376
1782986918516428800,4.6214287109375,5.9491141556262965,2.387843815562129,0.3250362927744165
1782986918526503700,4.631503662109375,6.048443129384517,2.559234109185636,0.13827281772382558
1782986918536577800,4.641577880859375,5.5469537431716915,2.9210759552553296,-0.0010644508937373758
1782986918546652700,4.651652587890625,4.7188709344029425,2.691792567850649,-0.552408110936731
1782986918556726800,4.661726806640625,4.600494145825505,2.279268290030956,-0.3961159081259742
1782986918566800600,4.671800537109375,4.344526749634743,2.0790984766468403,0.11126520300656556
1782986918576875800,4.681875732421875,3.3909693029820915,1.4032850814461708,0.3554958380438387
1782986918586949600,4.69194970703125,1.6429355490863322,0.31983430368453264,0.40782150695621966
1782986918597024800,4.702024658203125,-1.1875088258683681,-1.1369248860567807,0.09982428299449383
1782986918607098600,4.7120986328125,-4.133864476069808,-3.950850964669883,-0.6671428897500038
1782986918617173800,4.722173828125,-6.646666796687245,-7.534641471838951,-1.248302609527111
1782986918627247600,4.73224755859375,-9.933765975350141,-11.33966386964321,-1.020189288815111
1782986918637322800,4.74232275390625,-14.7091134147346,-13.567183267736434,-1.105342656900361
1782986918647396600,4.752396728515625,-22.806776892113685,-13.387282627660035,-0.5186740740412846
1782986918657471700,4.7624716796875,-32.605500775289535,-10.827066229438781,1.329140379435569
1782986918667545600,4.772545654296875,-41.47417551317215,-8.053166164004802,2.6651599969908593
1782986918677619700,4.78261962890625,-45.31604149472713,-7.561123820573091,2.9310753712221977
1782986918687694600,4.792694580078125,-42.31806613192558,-8.885576772844791,3.3725250070139765
1782986918697768700,4.802768798828125,-35.90132745028734,-9.493047576442361,4.327752140444517
1782986918707843600,4.812843505859375,-29.969349138379094,-9.114162241113185,2.668704537729919
1782986918717917700,4.822917724609375,-25.912481977272034,-7.8223595125555985,-0.3031584238947369
1782986918727991600,4.832991455078125,-21.38757411056757,-5.88549362410903,-2.5856460230320693
1782986918738066700,4.843066650390625,-15.356617538034914,-3.9866827410295604,-4.384688079631328
1782986918748140500,4.853140625,-7.785423574346304,-2.3643027809768915,-4.554732219342887
1782986918758215700,4.863215576171875,0.34900165371894837,-0.6034335109055042,-3.174369456061721
1782986918768289500,4.87328955078125,7.029970532980561,0.9621513797357678,-1.3679657846532762
1782986918778364700,4.88336474609375,11.666210530447959,2.1105048377797004,0.31933946937229485
1782986918788438500,4.8934384765625,14.770563031953573,3.370997066794336,1.1146559172339736
1782986918798513700,4.903513671875,16.87707587748766,4.2609751907229425,1.0877404377795756
1782986918808587500,4.91358740234375,18.767196381372212,4.908326169288158,0.9243826439641416
1782986918818662700,4.92366259765625,20.441593236649034,5.110469036310911,0.6065196038199588
1782986918828736500,4.933736572265625,21.458137593090534,5.370705780383944,0.0634575960405171
1782986918838810600,4.943810546875,21.24156288061142,5.818958081927895,-0.7000272144809365
1782986918848885500,4.953885498046875,19.475890594172476,6.215339326459169,-1.3481751886427402
1782986918858959600,4.963959716796875,16.57182334912419,7.037048508542775,-1.882444416298717
1782986918869034500,4.974034423828125,12.91796649529934,7.63421536026895,-2.214157812216878
1782986918879108600,4.984108642578125,9.137685740041732,8.14998169363737,-2.5351506382867695
1782986918889183500,4.99418359375,5.772366426622868,8.315720537370442,-2.8971903450161216
1782986918899257600,5.004257568359375,3.2076912954270838,8.326585630255938,-2.5389357097834346
1782986918909332500,5.01433251953125,1.622376160660386,8.129590647515654,-1.8441865818358956
1782986918919406600,5.024406494140625,1.5856740312069653,7.409592365890741,-1.2308344651147722
1782986918929480400,5.03448046875,3.2505741593420505,6.507035623157024,-0.691399159932509
1782986918939555600,5.0445556640625,5.545900434726477,5.588227418324351,-0.22048110880050806
1782986918949629400,5.05462939453125,7.693371313592791,4.680425176152586,0.2419289339661598
1782986918959704600,5.06470458984375,8.97703925101161,3.9538101067364213,0.5312483089322224
1782986918969778400,5.0747783203125,9.532508649215101,3.521481350511312,0.3986531349860131
1782986918979853600,5.084853515625,9.571988426688312,3.34741511567682,0.36581367231011386
1782986918989927400,5.094927490234375,9.262248523777723,3.1298657129466534,0.4449567305972799
1782986919000002600,5.10500244140625,8.939897561097144,2.8918735339075323,0.5092023717429489
1782986919010076400,5.115076416015625,8.882014111927152,2.5427757263377306,0.5229460157394409
1782986919020151600,5.125151611328125,8.821606697237492,2.2396488118261098,0.6793217686478048
1782986919030225400,5.135225341796875,8.711126799389719,2.0655729323804377,0.6370492917161434
1782986919040300500,5.145300537109375,8.511681500887871,1.9896303871676324,0.5420194033913314
1782986919050374400,5.15537451171875,8.2865914735198,1.888652477158606,0.28746899785902347
1782986919060448800,5.16544873046875,8.163554291915894,1.820383827574551,0.133110795318149
1782986919070523400,5.1755234375,7.80948775602281,1.8030872403368352,0.09913018151680007
1782986919080597800,5.18559765625,7.161539396086335,1.6532850936651229,0.015383081766590475
1782986919090672000,5.195672119140625,6.249891584402323,1.4273895951330662,0.07914634622279554
1782986919100746200,5.205746337890625,4.790625672537088,1.1495087655588985,0.09581864581601694
1782986919110821000,5.215821044921875,2.9927929917275904,0.7329130005165934,-0.06042495034635067
1782986919120895500,5.2258955078125,0.9631284080743789,0.3810457282334566,0.1332298368542455
1782986919130970000,5.23597021484375,-1.4153379228115082,-0.16319880386143923,0.33163981922529634
1782986919141044500,5.24604443359375,-4.578728304219245,-1.0898246967077254,0.3691175361610949
1782986919151119400,5.256119384765625,-8.985520663630961,-2.9485177966713905,0.4164912817545235
1782986919161193500,5.266193359375,-13.15705932905674,-5.011719323745369,0.58354164647758
1782986919171267300,5.276267333984375,-15.834163738602399,-7.114860647019744,0.7005714774254709
1782986919181342500,5.286342529296875,-17.156082203960416,-9.54000864958167,1.7047072378665207
1782986919191416300,5.296416259765625,-18.74153470137119,-11.987210078519581,2.6355717911958694
1782986919201491500,5.306491455078125,-20.85451586613655,-13.002359765732288,2.0139092345081266
1782986919211565300,5.3165654296875,-23.375161301469802,-13.611761245131492,1.2758461577519773
1782986919221640400,5.326640380859375,-24.142888717997074,-13.930186558800935,0.7801497487921267
1782986919231714300,5.33671435546875,-22.43169620976448,-13.550829514306782,0.6319365518122911
1782986919241789400,5.34678955078125,-22.663061664140223,-11.132639075797796,-0.5823529846822842
1782986919251863300,5.35686328125,-25.703337707054615,-6.786553990805149,-2.829626044309139
1782986919261938400,5.3669384765625,-28.74436661416292,-2.268159451517463,-4.4906037383034825
1782986919272012300,5.37701220703125,-29.962575698721405,1.1121543096765876,-5.20888674044311
1782986919282086400,5.38708642578125,-25.787153469860552,2.5030910739421843,-5.4198646558284755
1782986919292161300,5.397161376953125,-18.00194850670099,2.24459094440341,-3.904221899963915
1782986919302235400,5.4072353515625,-9.667809684586524,1.9271417822897432,-1.9623386217467487
1782986919312310300,5.417310302734375,-2.8940947170883415,1.1296645396649836,-0.41279407120440154
1782986919322384400,5.42738427734375,2.289354799759388,0.7252204001873731,0.3978416724726557
1782986919332459300,5.437459228515625,6.370950743931531,1.2897683001205325,-0.44678946244977413
1782986919342533400,5.447533447265625,10.385766231250763,2.14344206174165,-1.5113396518431603
1782986919352608300,5.457608154296875,14.439430212402343,2.601147543546557,-1.5610745736099778
1782986919362682400,5.467682373046875,17.944581190359592,2.632485515618324,-0.35489787215068935
1782986919372757200,5.47775732421875,20.23723269357681,2.6550553670838473,1.312871966201812
1782986919382831400,5.487831298828125,20.68444805328846,2.0469193775758145,1.583473890814185
1782986919392905200,5.4979052734375,19.341929867494105,1.9301850955083966,1.3564090562418103
1782986919402980400,5.50798046875,16.866429395788906,2.341302136878669,1.239346565133333
1782986919413054200,5.51805419921875,13.790760552453994,3.0459272005438804,0.9754543672926723
1782986919423129300,5.52812939453125,10.934068806564808,3.7674510843008755,0.24988252331912517
1782986919433203200,5.538203125,9.007776919102668,4.16915527742058,-0.34657822596430776
1782986919443278300,5.5482783203125,8.095902897447347,4.377107707504928,-0.3276252863543108
1782986919453352200,5.558352294921875,7.897094143283367,4.710632390628755,-0.3469017953628674
1782986919463427300,5.56842724609375,7.926020962560177,4.962508425852656,-0.2757952920043841
1782986919473501200,5.578501220703125,7.626976641187071,5.0610605700194835,-0.0896890022208914
1782986919483576300,5.588576416015625,7.247894906502962,5.283872715583444,0.11110369230192153
1782986919493650200,5.598650146484375,7.019981053885817,5.221572619014978,0.396976726206392
1782986919503724300,5.608724365234375,6.767108116579055,5.151085124337673,0.7616417399380355
1782986919513799200,5.618799072265625,6.348090677347779,5.031299053484201,0.916258812610805
1782986919523873300,5.628873291015625,6.272339563053846,4.751704697990418,0.8974806085132062
1782986919533948200,5.6389482421875,6.424866458514332,4.611104679428041,0.8945883211378007
1782986919544022300,5.649022216796875,6.931931599032878,4.436766641914844,0.7093040152616799
1782986919554097200,5.65909716796875,7.7334642545282835,4.31401938316822,0.38479547268841413
1782986919564171300,5.669171142578125,8.296882565909623,4.249192106209695,0.19218065952742472
1782986919574246100,5.67924609375,8.642541338941454,3.9641105514764785,0.03203879555119201
1782986919584320300,5.6893203125,8.790139545828103,3.695675011117756,-0.07938642032267525
1782986919594395100,5.69939501953125,8.672257847291231,3.3218937209293244,-0.0478033874486573
1782986919604469200,5.70946923828125,8.317093579289317,2.9275854832798243,0.11675923384558409
1782986919614543000,5.719543212890625,7.982771608307957,2.634048527151346,0.3217321366624906
1782986919624618200,5.7296181640625,7.5541417066007845,2.5487103770837187,0.6809487122625112
1782986919634692000,5.739692138671875,6.915518224370479,2.6735779889851807,0.9015747459590434
1782986919644767200,5.749767333984375,6.172085291144252,2.64283476793617,0.6406326300956309
1782986919654841000,5.759841064453125,5.461998162680864,2.6528803611323237,0.209670486048609
1782986919664916200,5.769916259765625,4.313344260385632,2.455172261686623,0.09883925401251763
1782986919674990000,5.779989990234375,2.850366634520888,1.252694707006216,0.06818568400833755
1782986919685065200,5.790065185546875,0.7634136449813842,-0.5109431509956717,-0.22342702605929224
1782986919695139000,5.80013916015625,-2.8433307445347307,-3.0421804152309893,-0.35834761074576527
1782986919705214200,5.810214111328125,-8.742361895608902,-6.586271072435379,-0.5214641431512311
1782986919715288000,5.8202880859375,-15.655376028203964,-9.362006536602973,-0.6126510557796806
1782986919725363200,5.83036328125,-21.58123322688341,-10.316666391539574,-0.013799502369575202
1782986919735437000,5.84043701171875,-26.524946351373195,-10.347208829319477,1.0335397687755525
1782986919745511200,5.85051123046875,-29.949744274199006,-10.715483338785171,0.7635404862314462
1782986919755586300,5.86058642578125,-30.56190937309265,-11.521844145089387,-0.16646986142136155
1782986919765660200,5.87066015625,-29.61437600903511,-11.618735662567614,0.1280238474426791
1782986919775735300,5.8807353515625,-29.44829697356224,-11.755221523809432,1.0409681652106344
1782986919785809200,5.89080908203125,-29.814027643764017,-9.46557563214898,1.0410295400090515
1782986919795884300,5.90088427734375,-29.244214662909506,-6.165646782529354,-0.6178128955222666
1782986919805958100,5.910958251953125,-27.08371186851263,-3.6909675640791653,-2.496543844255805
1782986919816033300,5.921033203125,-22.05455801036358,-2.2381448370039463,-3.3223186683431267
1782986919826107100,5.931107177734375,-13.90544842338562,-1.4131535645097493,-3.5045825304195284
1782986919836182300,5.941182373046875,-4.513828254285454,-0.9032385875180363,-2.3285936080835756
1782986919846256400,5.95125634765625,3.6930858714073893,-0.6446744528323411,-0.5475570541763678
1782986919856330200,5.961330322265625,9.758985747027397,-0.23347996231168508,0.6508209927633405
1782986919866405400,5.9714052734375,12.96537355864048,0.5056377380639314,1.1474858814291655
1782986919876479500,5.9814794921875,13.575476464307307,0.9840200971946119,1.6767770284116268
1782986919886554400,5.991554443359375,13.564219741755723,1.5962594303682445,1.392243755210936
1782986919896628500,6.00162841796875,14.025778099596499,2.557261347807944,0.5742764630693942
1782986919906703400,6.011703369140625,14.924278260415791,3.2696254812926053,-0.03515126501591876
1782986919916777500,6.021777587890625,15.840337458801269,3.782333011612296,-0.18453969805389642
1782986919926852400,6.031852294921875,16.448953340780733,4.356284407445788,0.20344929171251133
1782986919936926500,6.041926513671875,16.176135932075976,4.859547525332868,0.5885450077228248
1782986919947000300,6.052000244140625,14.855995582306385,5.243394574722648,0.9332918535415082
1782986919957075500,6.062075439453125,12.905190015834568,5.827298624771833,0.8298200078248977
1782986919967149300,6.0721494140625,10.201132132911681,6.285775383210182,0.5846233407670631
1782986919977224400,6.082224365234375,7.213152678945661,6.46629386292398,0.14816127499635331
1782986919987298300,6.09229833984375,4.658027466383576,6.6190580742716785,-0.22278014299049972
1782986919997373400,6.10237353515625,3.3230800081044434,6.466774339917301,-0.20949648118857292
1782986920007447300,6.112447265625,3.341434579962492,6.149013043114542,-0.3770310126993805
1782986920017522400,6.1225224609375,4.622942124477029,5.8871314544439315,-0.41305162616204466
1782986920027596300,6.13259619140625,6.391921635767817,5.7070005127429955,-0.34641463290043173
1782986920037671400,6.14267138671875,7.632933503764868,5.476204382687807,-0.42616928374730045
1782986920047745300,6.152745361328125,8.114358007070422,5.191335301661491,-0.43992056306097654
1782986920057820400,6.1628203125,8.133504021567106,4.95505986341238,-0.34324115396346894
1782986920067894300,6.172894287109375,7.874146982938051,4.760684707781672,-0.29209760750774294
1782986920077968400,6.182968505859375,7.6426307219147676,4.592346495205164,-0.2574047720501199
1782986920088043300,6.193043212890625,7.68244426138699,4.411469995833933,-0.03181450354233384
1782986920098117000,6.2031171875,7.881194563362002,4.289864308337867,0.13049436574205756
1782986920108192300,6.213192138671875,8.288786353215574,4.010611605888605,0.13363127552829682
1782986920118266000,6.22326611328125,8.919906912469864,3.7385450155511495,0.2552260032389313
1782986920128341200,6.23334130859375,9.534081013098358,3.511584518136084,0.3712266372695565
1782986920138415000,6.2434150390625,9.706607325014472,3.2223020045816897,0.6285001476228237
1782986920148490200,6.253490234375,9.143474260315298,2.806893988019228,1.0486608386050909
1782986920158564000,6.263564208984375,8.192754082915187,2.2978937877848744,1.3843763828366995
1782986920168638000,6.273637939453125,6.984904479807615,1.6495666576638817,1.7657658099412916
1782986920178713000,6.283713134765625,5.638694453758001,0.9141647629410028,2.2149957243457434
1782986920188787200,6.293787109375,3.799328570076823,-0.14702449865192174,2.572836810341477
1782986920198862000,6.303862060546875,1.2620102323621512,-1.7454744248017668,2.990013005620241
1782986920208936200,6.313936279296875,-2.4218419467538594,-3.694804073502123,2.913912054975331
1782986920219011000,6.324010986328125,-8.014539203968644,-6.0584898916244505,2.5708757394015787
1782986920229085200,6.334085205078125,-14.860780478495359,-9.488414071422815,2.3080231137417258
1782986920239160000,6.34416015625,-20.287005901527404,-12.667708124405145,1.0754798719476908
1782986920249234200,6.354234130859375,-23.332862959444522,-13.35211895982027,-2.1561767478913065
1782986920259309000,6.36430908203125,-26.460485277378556,-14.149289912974833,-5.945072771281003
1782986920269383200,6.374383056640625,-29.42436898548603,-14.76596284468174,-7.890447544875741
1782986920279458000,6.3844580078125,-29.158720153236388,-15.026908613806961,-7.734695257627964
1782986920289532200,6.3945322265625,-26.646505861639977,-14.24737736223936,-5.9692801608204835
1782986920299606000,6.40460595703125,-25.304520759809016,-12.785303407216071,-4.831867198985814
1782986920309681200,6.41468115234375,-25.97802324771881,-9.301423180824518,-4.670530097343027
1782986920319755000,6.424755126953125,-28.40823847054243,-6.1391615111857645,-2.9788886772766707
1782986920329830100,6.434830078125,-27.379318616652487,-4.8109071208044885,-1.9945406633019447
1782986920339904000,6.444904052734375,-20.952060879087448,-3.8248353517770766,-1.8576377456918358
1782986920349979100,6.454979248046875,-13.106951774585246,-2.3673519394144416,-1.499651406006515
1782986920360053000,6.465052978515625,-5.89933042628169,-0.37788755646348,-2.3481657390378414
1782986920370128100,6.475128173828125,0.03479775713682175,1.8598019379884003,-2.7690213534817096
1782986920380202000,6.485201904296875,4.2177182327985765,3.6892587143346667,-2.0315943826720115
1782986920390277000,6.495277099609375,7.460344063484668,4.409758515740931,-0.5990614698337391
1782986920400351000,6.50535107421875,11.007112999987601,4.496258695325255,0.6158066702663898
1782986920410425000,6.515425048828125,15.003682051998377,4.393499747118353,1.6719664132595062
1782986920420500000,6.5255,18.748043937134742,3.7043800033599137,2.3310433393232524
1782986920430574000,6.535573974609375,21.47216378035545,3.381929087436199,3.0547879678696392
1782986920440649000,6.54564892578125,22.35045234327316,3.7152737378180025,3.3103789319634433
1782986920450723000,6.55572314453125,20.699297247374055,4.5051469351798294,2.4597107818990946
1782986920460798000,6.5657978515625,16.784523850518465,5.232503762874007,1.6403934633880852
1782986920470872000,6.5758720703125,12.864716551148891,5.835526354891061,0.891780131849274
1782986920480947000,6.585947021484375,10.161730681371688,6.284387143722176,0.01942886829236522
1782986920491021000,6.59602099609375,8.605666775530576,6.471350561791658,-0.3970597283147275
1782986920501096000,6.606095947265625,7.949982852905988,6.411696595817804,-0.6464399281349033
1782986920511170000,6.616170166015625,8.045446383407711,6.128699738404155,-0.8686915172066539
1782986920521244200,6.626244140625,8.843311164045334,5.788918332973123,-0.8186659419301897
1782986920531319000,6.636319091796875,9.569102057597041,5.416683103182912,-0.7273121117696165
1782986920541393200,6.64639306640625,9.846114579904079,4.946939685320854,-0.6302307708077133
1782986920551468000,6.656468017578125,9.908521643978357,4.703365322235227,-0.43207931150868534
1782986920561542100,6.666542236328125,9.734531689250469,4.550907984879613,-0.310854768817313
1782986920571617000,6.676616943359375,9.316149040791391,4.455011615918576,-0.35019659912455825
1782986920581691100,6.686691162109375,8.708398251208662,4.390351219959557,-0.43697263650819657
1782986920591766000,6.69676611328125,7.918168495494127,4.335682348921895,-0.3364410454945639
1782986920601840000,6.706840087890625,6.824370803502202,4.313350105604529,-0.15827497412580996
1782986920611915000,6.7169150390625,5.894387124660611,4.151234420804679,-0.16916644356157629
1782986920621989000,6.726989013671875,5.496124304166436,3.903758081844449,-0.22808113547544925
1782986920632063200,6.737063232421875,5.688408040475845,3.659540160158276,-0.19333130913358182
1782986920642138000,6.74713818359375,6.295467925184965,3.3995471617132424,-0.0474722375318408
1782986920652212200,6.757212158203125,6.772841107273101,3.068395345200598,0.1139739139759913
1782986920662287000,6.767287109375,7.166442950218915,2.8615388936594126,0.23179606434535233
1782986920672361200,6.777361328125,7.409932557630539,2.6889517914667724,0.5760377736534923
1782986920682436000,6.78743603515625,7.191396774211525,2.4379987163066863,0.9477095974072813
1782986920692510200,6.79751025390625,6.470412404158711,2.3072820861160754,1.3165242050990462
1782986920702585300,6.80758544921875,5.0698587935030455,2.168024714334309,1.4426419631920755
1782986920712659200,6.8176591796875,3.354349591115117,1.7923951659306883,1.1711151788197458
1782986920722734300,6.827734375,1.6784189503997564,1.4101727951332925,0.7300599491730332
1782986920732808200,6.83780810546875,-0.16045827298164367,0.5254442622959613,0.31810689537003634
1782986920742882000,6.847882080078125,-1.8214210616678,-0.9175649267733097,-0.11446224548220633
1782986920752957200,6.857957275390625,-3.348795464119315,-2.5568983597144483,-0.5060621740210801
1782986920763031000,6.868031005859375,-5.3660255136132236,-5.1781812210559846,-0.6094388888001442
1782986920773106200,6.878106201171875,-8.184235260894894,-7.892756406340003,-0.9919013519637286
1782986920783180000,6.888179931640625,-12.592525749909877,-9.533793428328632,-2.1623948917537925
1782986920793255200,6.898255126953125,-17.32799593693614,-10.393216547256708,-2.9734438558742404
1782986920803329000,6.9083291015625,-21.779012053477764,-10.92901152317524,-2.503992698957026
1782986920813404200,6.918404052734375,-25.026786352968216,-11.626156752479076,-2.0810338286235925
1782986920823478300,6.928478271484375,-26.904885579669475,-11.07492689154148,-1.7708862216949461
1782986920833553200,6.93855322265625,-29.08124060771465,-9.990652814698219,-2.6467931501731274
1782986920843627300,6.948627197265625,-31.56192345049381,-7.518972778064012,-3.425988009393215
1782986920853702100,6.9587021484375,-32.970139558601375,-4.499737477351725,-3.5707042311027646
1782986920863776300,6.9687763671875,-30.80894702837467,-2.599915079142153,-4.292165863278508
1782986920873850000,6.97885009765625,-25.186342124152183,-2.030987356689572,-4.275394468958676
1782986920883925200,6.98892529296875,-16.653718373000622,-1.5794450736895203,-3.3041482208803292
1782986920893999000,6.9989990234375,-7.5974115240067235,-0.96144790764153,-2.3955295477591454
1782986920904074200,7.00907421875,-1.4249007009267807,0.008295242397487163,-1.584460563763976
1782986920914148000,7.019148193359375,1.2343313673198222,0.9948021879717707,-0.722343456511572
1782986920924223200,7.02922314453125,1.628652172189951,1.9453142755791544,0.24110212775319814
1782986920934297000,7.039297119140625,1.2952040614336728,2.6796190227150913,0.7197813509386033
1782986920944372200,7.049372314453125,1.094221470361948,3.0418723721951246,1.2010164691518992
1782986920954446000,7.059446044921875,2.4830419731259346,2.4582594140470024,1.5602619420528412
1782986920964521200,7.069521240234375,5.609560713732242,1.5445368419155479,1.6895904788859188
1782986920974595000,7.079594970703125,9.707249714571237,1.5379674003973602,1.7418585723921656
1782986920984669200,7.089669189453125,13.491702787077426,0.9915200975611805,1.7377464608982205
1782986920994744000,7.099744140625,17.261929765832424,1.1142848919644952,1.7210913864344357
1782986921004818200,7.109818115234375,20.391855100011824,1.0600015131130813,1.8688911072425543
1782986921014893000,7.11989306640625,21.494861934375763,1.265842942392826,1.6798833238638937
1782986921024967200,7.12996728515625,20.22373023792505,2.076878170248866,1.0806130701176822
1782986921035042000,7.1400419921875,17.20879906414747,2.9272356469288465,0.8247367862764745
1782986921045116200,7.1501162109375,13.278148883724212,3.52696942653358,0.5737730435919016
1782986921055191000,7.16019091796875,9.611033904397488,3.8645743647083637,0.05474997344985604
1782986921065265200,7.17026513671875,6.85449355456531,4.1586625249788165,-0.08766111312247812
1782986921075340000,7.180340087890625,4.880014267039298,4.138717761319875,-0.37723654520884153
1782986921085414100,7.1904140625,3.9996354538440704,4.149983251699805,-0.16263408265076576
1782986921095488500,7.200488525390625,4.3874569598227735,3.98424908414185,0.2403208411823958
1782986921105563400,7.2105634765625,5.56827417909801,3.725639064487815,0.34719511575363576
1782986921115637500,7.220637451171875,6.800126004561782,3.4214477356150743,0.45222989993803203
1782986921125712400,7.23071240234375,7.6533274724960325,3.245537626479566,0.5821785414308309
1782986921135786500,7.240786376953125,8.256478659328819,3.1098288870900865,0.6123948159962892
1782986921145861400,7.250861328125,8.487584585985541,3.01804550640583,0.6038064358711243
1782986921155935500,7.260935546875,8.273409920385479,2.957655335111916,0.7086722201641649
1782986921166010400,7.27101025390625,7.6731088622868056,2.937595712901652,0.7830654901083558
1782986921176084500,7.28108447265625,7.060743856906891,2.787342899852991,0.8106750893067568
1782986921186159400,7.291159423828125,6.654934858816862,2.7142484375476834,0.8499805331263691
1782986921196233500,7.3012333984375,6.432412636110186,2.721714827905595,0.7339493578270078
1782986921206307300,7.311307373046875,6.352074194025993,2.7290903251096603,0.5912519285939634
1782986921216382500,7.321382568359375,6.543229218566418,2.7170681711435316,0.5852773476963863
1782986921226456300,7.331456298828125,6.974806864163279,2.7588278762474654,0.5137849137602374
1782986921236531500,7.341531494140625,7.276453476989269,2.795539942573011,0.4014767410393804
1782986921246605300,7.351605224609375,6.817985486379265,3.200352330841124,0.35852453821524977
1782986921256680400,7.361680419921875,5.530345722720027,3.291181771801412,-0.011298698529787361
1782986921266754300,7.37175439453125,3.8165918395668266,2.949476997092366,-0.41333961279056963
1782986921276829400,7.381829345703125,0.9979027843356132,2.759482833024859,-0.43654860240984705
1782986921286903300,7.3919033203125,-2.8549136303007603,1.8457336651474237,-0.571958870309405
1782986921296978400,7.401978515625,-6.429360262802243,-0.5116285029113292,-1.0360387459844351
1782986921307052300,7.41205224609375,-7.490550401178002,-3.651191141746938,-1.1037613059930502
1782986921317126400,7.42212646484375,-7.069964105194806,-7.027482223296165,-0.2141134186658077
1782986921327201300,7.432201171875,-9.027081923553347,-10.458253959834575,0.21315326839676127
1782986921337275400,7.442275390625,-16.27686074410677,-11.725431950223445,0.9570020341485738
1782986921347350500,7.4523505859375,-28.008154279839992,-10.299369219779967,3.2942788610339164
1782986921357424400,7.46242431640625,-37.878676155769824,-9.72307915186584,3.55450596049577
1782986921367499500,7.47249951171875,-40.747254738807676,-8.926306258118153,5.070102539131045
1782986921377573400,7.482573486328125,-38.2175538903594,-9.081859807923436,6.750248167192936
1782986921387648500,7.4926484375,-35.78435994398594,-8.683811506962776,5.662205093204975
1782986921397722400,7.502722412109375,-35.12944291408062,-7.486366978013515,3.4911747673138973
1782986921407797500,7.512797607421875,-32.58346196196079,-5.617801303333044,2.0421819737903775
1782986921417871400,7.522871337890625,-26.654937005376816,-4.369710582990944,-0.015052598570054396
1782986921427945500,7.532945556640625,-17.466273942291735,-2.983349163816869,-2.1735145439222454
1782986921438020400,7.543020263671875,-7.850432345351576,-0.9264493672356009,-3.4429531727194784
1782986921448094500,7.553094482421875,0.3997457525283098,1.156050442287326,-3.805742528772354
1782986921458169300,7.56316943359375,6.947696154397725,2.6519109315782785,-3.1672695609286428
1782986921468243700,7.57324365234375,11.72348549233079,3.6625969173803923,-1.803593144032359
1782986921478318300,7.583318359375,15.21067411261797,4.620780562528967,-0.508032378115505
1782986921488392700,7.593392822265625,17.972044366824626,4.488298676231503,-0.0071113755083177235
1782986921498467300,7.60346728515625,20.165764371168613,4.1249923105672,0.5336082795292139
1782986921508541700,7.613541748046875,22.35064172836542,4.119504526805877,0.6821494663543999
1782986921518616300,7.6236162109375,23.92476852964163,4.27286758082956,0.2101579773046076
1782986921528690700,7.633690673828125,23.71290038741827,4.967047238326073,0.17696022097663952
1782986921538764500,7.6437646484375,21.18714155459404,5.518325030058622,0.14319451030129565
1782986921548839700,7.653839599609375,16.927884858226776,6.170342246869206,-0.042592009475920345
1782986921558913500,7.66391357421875,12.323067003983258,6.530324728807806,-0.4886468557745218
1782986921568988700,7.67398876953125,8.279422897064686,6.514568941271305,-0.6477019108947366
1782986921579062500,7.6840625,5.471184508699178,6.257552328288555,-0.4462268601309508
1782986921589137700,7.6941376953125,3.743189918747544,5.891919857764243,-0.14753496892470866
1782986921599211500,7.70421142578125,2.955504586818814,5.43472086417675,0.37953780788853764
1782986921609286700,7.71428662109375,3.2312264847934244,4.9343917539149516,0.8606132785607129
1782986921619360500,7.724360595703125,4.03964071649611,4.418187321390211,0.9460240554731338
1782986921629435600,7.734435546875,5.0938843967348335,3.696783849142492,0.9478088930632919
1782986921639509500,7.744509521484375,6.2595484705418345,3.1792414460122584,0.8923604890204966
1782986921649583600,7.75458349609375,7.428265502178668,2.721889015428722,0.731599360634759
1782986921659658500,7.764658447265625,8.368029985800385,2.2976079565808174,0.4203826997024938
1782986921669732600,7.774732666015625,8.966442453673482,2.279700836229324,0.1334442285235971
1782986921679807500,7.784807373046875,9.22183818745613,2.2324814044147727,-0.00538673453964293
1782986921689881600,7.794881591796875,8.842393464678526,2.2649165240734814,0.037122656420432026
1782986921699956500,7.80495654296875,8.543981011468171,2.217602107451856,-0.050679070749133824
1782986921710030600,7.815030517578125,8.645060043764113,2.2813050565555693,0.06926065629608928
1782986921720105500,7.82510546875,9.010708296379446,2.3366239159345628,0.26106486546024676
1782986921730179600,7.8351796875,9.303384836286305,2.3801050380036233,0.40160643183365463
1782986921740254500,7.84525439453125,9.347739526319502,2.525632576096058,0.4219838878214359
1782986921750328600,7.85532861328125,8.981772124752402,2.7364778050124645,0.25454269714988764
1782986921760403500,7.865403564453125,8.256153080636262,3.0038845868453383,0.19748517741002142
1782986921770477600,7.8754775390625,7.531545259389281,2.976212443804741,0.19724581569619476
1782986921780551400,7.885551513671875,6.702303928235173,2.857547193674743,0.4947989486634731
1782986921790626600,7.89562646484375,5.509757108199596,2.371974046257138,0.8797845736291259
1782986921800700400,7.905700439453125,3.5882051087409255,1.4194056106418371,1.2857868292689323
1782986921810775600,7.915775634765625,0.6797837601363659,-0.48920273609161374,1.574844594156742
1782986921820849400,7.925849365234375,-3.4576977373868223,-3.557537583276629,1.9401774972125887
1782986921830924500,7.935924560546875,-8.84710237302184,-7.556805372852087,1.9843024701431393
1782986921840998400,7.945998291015625,-14.4974007553339,-10.720085864144563,0.5568469336343929
1782986921851073500,7.956073486328125,-19.801801295161248,-11.95123626334071,-1.297915658479929
1782986921861147400,7.9661474609375,-24.791986247968673,-12.04139291960597,-3.1698978636056183
1782986921871222500,7.976222412109375,-29.64404166398048,-11.647524534678459,-4.841669631075859
1782986921881296400,7.98629638671875,-32.78381736104488,-11.914893030327558,-4.604752680052816
1782986921891370500,7.99637060546875,-32.37392956920862,-12.012960605847836,-3.632930970174074
1782986921901445400,8.0064453125,-30.621278092384337,-11.685094094616174,-2.172721347717941
1782986921911519500,8.01651953125,-29.758173070073127,-10.435133781009911,-1.1528555917687713
1782986921921594400,8.026594482421874,-30.560052931571004,-7.896462859642505,-0.8982477934934199
1782986921931668500,8.03666845703125,-30.28680063858032,-5.641188024139404,-0.13948584677539766
1782986921941743400,8.046743408203126,-25.505159067487714,-4.3364390125080945,0.6610286446534097
1782986921951817500,8.0568173828125,-16.74597813902497,-3.277921600472927,1.3809765112653374
1782986921961892400,8.066892333984375,-7.203609190052747,-1.6795301265120506,1.8084303549304603
1782986921971966500,8.076966552734374,0.21664485510587692,-0.10349544578790663,2.1082295863240956
1782986921982041600,8.08704150390625,4.763495089027285,1.4737617624685166,2.3264541118368505
1782986921992115500,8.097115478515626,7.570873645693063,3.237825444667041,1.9689993948101996
1782986922002190600,8.107190673828125,9.30119580180943,4.4696240786388515,0.7402953658528626
1782986922012264400,8.117264404296876,11.276065549957751,5.218896677803993,-0.21331945527652277
1782986922022338300,8.12733837890625,14.407183308792114,5.137836935707926,-0.5781426369782537
1782986922032413400,8.137413330078125,18.05650777988434,4.92400713802278,-0.7526718862146139
1782986922042487300,8.1474873046875,21.432320430266856,4.744112343165278,-1.246349721893668
1782986922052562400,8.1575625,23.226274223816393,5.051731600660085,-1.8247240487359464
1782986922062636300,8.16763623046875,22.068240498757362,5.594899735695123,-2.131824981445074
1782986922072711400,8.17771142578125,18.297191682225463,6.103365975183248,-2.0057102920919654
1782986922082785300,8.187785400390625,13.318226042568682,6.852765123337507,-1.9252077454872427
1782986922092860000,8.19785986328125,8.068366071224212,7.102026299887895,-1.52310841557011
1782986922102933800,8.207933837890625,3.6700299899905917,6.876838657364249,-1.1330602465178816
1782986922113009000,8.2180087890625,1.4745365462332962,6.524436839812994,-0.8543034378267824
1782986922123082800,8.228082763671875,1.802237053248286,5.902932250165939,-0.39716991069093344
1782986922133157000,8.2381572265625,3.9064182409644124,5.077673851168155,0.30134213172039015
1782986922143231700,8.248231689453124,6.21958880059719,4.455074452021718,0.8183801107261329
1782986922153306000,8.25830615234375,7.392406253290176,4.037038425043225,1.021994292410463
1782986922163380700,8.268380615234374,7.68718239582479,3.726526660977304,1.0975293528009205
1782986922173455000,8.278455078125,7.646995346865057,3.477854974752664,1.0281504038874059
1782986922183530000,8.288530029296876,7.788578823506832,3.4202488812193272,1.11560006621629
1782986922193604000,8.29860400390625,8.119291371819376,3.336624549332261,1.214565978815779
1782986922203679000,8.308678955078125,8.624034206870197,3.328597310221195,1.208103139477223
1782986922213753000,8.318753173828124,9.068112437599897,3.4384579071268435,1.3417626912519336
1782986922223828000,8.328827880859375,9.16946970231533,3.4104946721851825,1.3529922335356472
1782986922233902000,8.338902099609374,9.206566384044288,3.378480116026103,1.0988150817625224
1782986922243976000,8.348975830078125,9.227124603426455,3.29121304372251,0.9324435661491006
1782986922254051000,8.359051025390626,9.246317964196205,3.3400609535217285,0.865217192159593
1782986922264125000,8.369125,9.238784061560034,3.412570893937349,0.6630328240826726
1782986922274200000,8.379199951171875,9.061258333921431,3.4183769498676058,0.3546935817502439
1782986922284274000,8.38927392578125,8.724512350663542,3.345857949362695,0.24309468980990348
1782986922294349000,8.39934912109375,7.982774530917405,3.268678263570368,0.17847199551276863
1782986922304423200,8.409423095703126,6.852284646344184,2.9499487062573433,0.03841061387173831
1782986922314498000,8.419498046875,5.422026217776537,2.448088440905511,-0.0821137081284076
1782986922324572200,8.429572265625,3.655865271037817,1.8356109150618314,-0.14162716965302824
1782986922334647000,8.43964697265625,1.0930471658855676,1.1102028833478688,-0.48520095310434697
1782986922344721200,8.44972119140625,-3.1950118465960022,-0.3203606656461954,-1.0170465338099748
1782986922354795000,8.459794921875,-7.982614956441521,-3.2216920559898017,-1.4764572851628064
1782986922364870100,8.4698701171875,-11.211831270456313,-7.209619828644395,-2.480935940757394
1782986922374944000,8.479944091796876,-12.56935764029026,-11.372678835016488,-4.18214423059225
1782986922385019100,8.49001904296875,-13.81894619797468,-15.155619164872169,-5.061688346529007
1782986922395093000,8.500093017578125,-17.886969543868304,-16.773476386803388,-3.8470214646220207
1782986922405168000,8.510168212890624,-25.402100844073296,-17.224312275099752,-0.41159404776487496
1782986922415242000,8.520241943359375,-34.014207881784436,-16.384456026428936,2.366131603839248
1782986922425317000,8.530317138671874,-40.22915791666507,-13.297767776429652,2.8112545213162896
1782986922435391000,8.540390869140625,-40.03459162237644,-10.840246029007433,3.1572745288759467
1782986922445466000,8.550466064453126,-33.74192121895552,-10.041576361727714,1.688627040681243
1782986922455540000,8.5605400390625,-25.789405048179624,-8.827260777476429,0.5532212174179032
1782986922465615000,8.570614990234375,-21.13549787659645,-7.037221527022123,-1.1285955952592193
1782986922475689000,8.58068896484375,-18.68202102065086,-4.688731232205033,-2.4001418638601897
1782986922485763000,8.59076318359375,-14.327980592739582,-2.6146868240773675,-3.026629210355878
1782986922495838000,8.600837890625,-8.150563877439499,0.22967414028793573,-3.0768340877220033
1782986922505912000,8.610912109375,-2.819482251435518,2.2621149106562135,-2.47855576762259
1782986922515987000,8.620987060546875,1.0550959131538866,3.995077936670184,-1.6954739839665591
1782986922526061000,8.63106103515625,4.5932361375212665,5.374010082626342,-0.9795995042733847
1782986922536136000,8.641135986328125,8.414979368501902,6.193548350411653,-0.3870446033220738
1782986922546210000,8.6512099609375,13.016003675681352,6.687253074097633,-0.276942050886713
1782986922556285000,8.661284912109375,17.890438096761702,6.686763244754076,-0.2970268075382337
1782986922566359000,8.671359130859376,22.099767271399497,6.401316656100749,0.09431803199471905
1782986922576434000,8.681433837890625,24.304953257131576,5.83413110114038,0.515662507667765
1782986922586508000,8.691508056640625,23.65719311324358,6.232876736715435,0.715810255350545
1782986922596582000,8.701581787109374,20.652692148065565,6.69005644108057,0.703910047263652
1782986922606657000,8.711656982421875,15.962253527420758,6.665126582485437,1.4251083523280919
1782986922616731000,8.72173095703125,11.29208612591028,7.016417223924398,1.754811431337148
1782986922626806000,8.731805908203125,7.342788528162241,6.953236837390064,1.9642431401938198
1782986922636880000,8.7418798828125,4.171518791681528,6.8414604699909685,2.5202444533169266
1782986922646955000,8.751955078125,2.4208114346623417,6.424793393278121,2.8195018329188226
1782986922657028900,8.76202880859375,2.863824666509032,5.822012793323397,2.5390660581648348
1782986922667104000,8.77210400390625,4.6769501935184,5.275221207094193,2.2353166278406977
1782986922677177900,8.782177734375,6.305629838237166,4.759895018708706,2.0067020796082913
1782986922687253000,8.7922529296875,7.199212416398525,4.361169549138844,1.3134769463576377
1782986922697326800,8.802326904296875,7.549608739346265,4.249820174980163,0.49026649286560714
1782986922707401000,8.81240087890625,7.590232426157593,4.1431414229810235,-0.28969927766174075
1782986922717475800,8.822475830078124,7.8787530154287815,4.122686956234276,-0.851636775900796
1782986922727550000,8.832550048828125,8.61569541759193,4.009637207898497,-1.2849965556740761
1782986922737624800,8.842624755859376,9.713591192552446,3.8370562431856987,-1.3058642793968318
1782986922747699000,8.852698974609375,10.773238777661323,3.5767601701408624,-1.0873547994628547
1782986922757773800,8.86277392578125,11.133407137560845,3.4581749995097515,-0.8590358001109212
1782986922767848000,8.872847900390624,10.823661973953246,3.4018016626417635,-0.6385513668421655
1782986922777922800,8.8829228515625,10.521495721167325,3.473115086749196,-0.5831317505024374
1782986922787997000,8.892996826171874,10.120458759784698,3.64456675517112,-0.8706666897371411
1782986922798071800,8.90307177734375,9.514410682466625,3.647274845086038,-0.8206634724229573
1782986922808146000,8.91314599609375,9.047083093574642,3.5778576099887487,-0.5160871628206223
1782986922818219800,8.9232197265625,8.913323442426323,3.638270577636361,-0.551488292678073
1782986922828295000,8.933294921875,8.535416596740484,3.7779888449281454,-0.5068842675263062
1782986922838368800,8.94336865234375,7.492814254456758,3.785882228526473,-0.3606555223619565
1782986922848444000,8.95344384765625,5.845173888680338,3.4797365507155655,-0.253908235171251
1782986922858517800,8.963517822265626,4.093836417064071,2.9610373787656425,-0.05658372821565717
1782986922868593000,8.973593017578125,2.287809908404946,2.1898422861278055,-0.10773883724501356
1782986922878666800,8.983666748046875,-0.507102549919486,0.3776555012732744,0.08251598705267534
1782986922888742000,8.993741943359375,-3.954379431056976,-2.637060276187956,0.5365138282449916
1782986922898815700,9.003815673828125,-7.2751114147305485,-6.666838647100329,0.9428229213442653
1782986922908891000,9.013890869140624,-10.108619853430985,-10.858693539845943,0.24328875107727943
1782986922918964700,9.02396484375,-14.323409631562232,-13.760810819870233,-2.340539628073573
1782986922929040000,9.034039794921876,-21.461029807400703,-14.291422255671023,-4.236858109815419
1782986922939114000,9.044114013671875,-30.288956355309484,-13.884289900022745,-4.263071870741248
1782986922949188000,9.05418798828125,-36.9648697047472,-13.71264270902872,-3.461935813347995
1782986922959263000,9.064262939453124,-38.06103997108936,-14.060797975051402,-2.968737285618484
1782986922969337000,9.074337158203125,-36.7318465462923,-14.154487481617927,-3.1099501753821968
1782986922979412000,9.084411865234374,-37.898243610548974,-12.271299407345056,-4.11105964680463
1782986922989486000,9.094486083984375,-39.80743238751888,-9.408160385012627,-4.767566283988953
1782986922999561000,9.10456103515625,-38.31746037174463,-6.812991915875673,-3.9696789992585777
1782986923009635000,9.114635009765625,-31.36068893048763,-5.106725173607468,-2.210268695823848
1782986923019710000,9.1247099609375,-20.23132434631586,-3.750312902495265,-0.7983880738593637
1782986923029784000,9.1347841796875,-8.398636136466264,-1.6843509707972406,0.20215276736225932
1782986923039859000,9.14485888671875,1.3543144220501184,0.4336401310846209,0.3053238035013899
1782986923049933800,9.154933837890624,7.2864663369596,2.5829022772818804,0.41725137940682466
1782986923060008000,9.165008056640625,10.944756204795837,4.030565137375891,1.1418513096082954
1782986923070082800,9.175082763671876,14.098670317327976,5.036825123429298,1.5531455341763793
1782986923080157000,9.185156982421875,17.050309460890293,5.759261445856094,1.7097225818105042
1782986923090232000,9.195232177734376,19.839608170986175,5.954359655064344,1.5783138777025043
1782986923100306200,9.20530615234375,22.39816335799694,5.933899635359644,1.0394773421309889
1782986923110381000,9.215381103515625,23.84829903794527,6.068023443645239,0.9760369164209812
1782986923120455200,9.225455078125,23.552594090127943,5.9443935568451876,0.5708031609356403
1782986923130530000,9.235530029296875,21.393398286676405,6.1864779736340045,0.33455530481319873
1782986923140604200,9.245604248046876,18.12411007451415,6.43440176410079,0.033979426491260525
1782986923150678300,9.25567822265625,14.064129749822616,6.9368158639430995,-0.35411278618760406
1782986923160753200,9.265753173828125,9.510926347482204,7.441973709535598,-0.7679602023698389
1782986923170827300,9.2758271484375,5.432638797205686,7.383644270163774,-0.8607229494802653
1782986923180902100,9.285902099609375,2.8319939424842593,7.013622040247917,-1.0093394665639848
1782986923190976300,9.295976318359376,1.770627278497815,6.382545904657245,-1.1485036801695823
1782986923201051100,9.306051025390625,2.350184823775291,5.831672017550468,-0.9438226729713379
1782986923211125200,9.316125244140625,3.901808701342344,5.099087226074934,-0.7772957476004958
1782986923221200100,9.3262001953125,5.7478416416972875,4.287674397078156,-0.80617909306176
1782986923231274200,9.336274169921875,7.37402946960032,3.731582483062148,-0.8332293778769672
1782986923241349000,9.34634912109375,8.63777631649673,3.084526103529334,-0.4835360155668109
1782986923251423200,9.35642333984375,9.405012150114775,2.4251859964847564,-0.21465280450582502
1782986923261498000,9.366498046875,9.731287592762708,2.0035116130039095,0.10568847145331091
1782986923271572200,9.376572265625,9.5237466660887,1.6602590243309736,0.22570109020480886
1782986923281646300,9.386646240234375,9.35473859142661,1.4246937801778317,0.3608586071860045
1782986923291721200,9.39672119140625,9.433817388838529,1.339773855522275,0.41359512192159886
1782986923301795300,9.40679541015625,9.396125663825869,1.3335086576476691,0.3258497645817697
1782986923311870500,9.416870361328124,9.371857484009862,1.3156316401734947,0.22576641052598131
1782986923321944300,9.4269443359375,9.401536582958698,1.366681736192107,0.30133170165792106
1782986923332019500,9.43701953125,9.383802773347496,1.3131938916325567,0.423108909795992
1782986923342093300,9.44709326171875,8.998571868383884,1.2119269355490803,0.33457108690422027
1782986923352168400,9.45716845703125,8.121627121290564,1.1899199786633252,0.39454146188348527
1782986923362242300,9.4672421875,6.8175938567131755,1.1843456856623291,0.5532528911978006
1782986923372317400,9.4773173828125,5.0429117498666045,1.1690651144221424,0.5724376668022945
1782986923382391300,9.487391357421876,3.0270646791636944,1.1141446067109704,0.42879203346632416
1782986923392465200,9.497465087890625,0.59749184589684,0.8035258751392365,0.27551620106836777
1782986923402540300,9.507540283203125,-1.8588538434833286,-0.21071108114272355,0.5826241663064807
1782986923412614400,9.517614501953124,-3.894740078130364,-2.2557462524071337,0.5839062054736539
1782986923422689300,9.527689208984375,-6.273813727259635,-5.70398905596733,0.43742870971262454
1782986923432763400,9.537763427734374,-9.7481434504956,-9.617972179228067,0.8596224408924579
1782986923442838300,9.54783837890625,-14.532152919763325,-12.561083148419856,1.0139521479912101
1782986923452912400,9.557912353515626,-23.3313735976696,-13.470407485592364,1.3640569406464695
1782986923462987300,9.5679873046875,-36.01579554098844,-11.819395013034343,3.51452904715538
1782986923473061400,9.578061279296875,-46.31683649337292,-9.144473208224772,3.9669750009968876
1782986923483136300,9.58813623046875,-49.019609597182274,-7.2865861639469856,2.203826241686195
1782986923493210400,9.59821044921875,-44.87661664276123,-6.682033293622732,1.13753461545296
1782986923503285200,9.60828515625,-38.897822803664205,-6.345651467502117,0.37962888370547443
1782986923513359400,9.618359375,-33.46542132234573,-6.025149932080507,-0.7116169683791697
1782986923523433200,9.62843310546875,-27.547805882310865,-5.252281645533442,-1.3033533194892108
1782986923533508400,9.63850830078125,-20.452369482207295,-4.327511609686911,-0.4597204018238932
1782986923543582200,9.648582275390625,-12.234734056013822,-3.199114021217823,1.0854682550638914
1782986923553657300,9.6586572265625,-4.6467929556638,-1.7699547860637306,1.821423545885831
1782986923563731200,9.668731201171875,1.1220417897015809,0.33509237083196636,1.9449293679147959
1782986923573806300,9.678806396484376,4.983633631467819,3.0453210513442754,1.7843008529327808
1782986923583880200,9.688880126953125,7.373633163759112,5.3233875643700355,0.938876083414629
1782986923593955300,9.698955322265626,9.565039045941829,6.982147290053963,0.12108986519472673
1782986923604029200,9.709029296875,12.671821989464759,7.833594023275375,-0.5574124950952828
1782986923614104300,9.719104248046875,16.608558211803434,7.908371908622979,-0.9878264306750147
1782986923624178200,9.72917822265625,20.460391460621356,7.329003748437762,-0.6548512711927295
1782986923634252300,9.739252197265625,23.359103316116332,6.533577008602022,-0.2867340711805969
1782986923644327200,9.7493271484375,24.087478380942343,5.861503676712513,-0.3844888909572735
1782986923654401300,9.7594013671875,22.264843267309665,5.95975829923749,-0.6501744384881109
1782986923664476200,9.76947607421875,18.689402363073825,6.791500799557566,-1.4040842689998447
1782986923674550300,9.77955029296875,14.501202485704422,7.279134678897261,-2.2475369347274303
1782986923684625200,9.789625244140625,10.043495931613444,7.497489845052361,-2.6978265873178837
1782986923694699300,9.79969921875,6.288579334715008,7.614870023807883,-3.057517392833531
1782986923704774100,9.809774169921875,3.579892038425803,7.699936663457751,-2.838141943719983
1782986923714848300,9.81984814453125,1.964127404859662,7.506615985316038,-1.992864400652796
1782986923724923100,9.829923095703125,1.6952321380347013,7.068266653627157,-1.199918810108304
1782986923734997200,9.839997314453125,2.6483354111790653,6.408961617895961,-0.5108096242764965
1782986923745072000,9.850072021484374,4.486726896870136,5.705870047408342,-0.05859722346253693
1782986923755146200,9.860146240234375,6.465963608056306,4.995125331819057,0.14900661237984894
1782986923765220000,9.87022021484375,8.10587542540729,4.328257167357206,0.07189354381663725
1782986923775295200,9.880295166015625,9.237011206668615,3.785162682080269,-0.06702043962124735
1782986923785369000,9.890369140625,9.984331794983149,3.434220707948506,-0.13577442503683268
1782986923795444200,9.9004443359375,10.304845020842551,3.240636410434544,0.021711590668372808
1782986923805518000,9.91051806640625,10.461567029905318,3.210331873063743,0.10398240732094273
1782986923815593200,9.92059326171875,10.508754313015936,3.1920018511250614,0.20055789938624946
1782986923825667000,9.9306669921875,10.287296504670381,3.243583277541399,0.3942226782578975
1782986923835742200,9.9407421875,9.649498367348313,3.3247377121835946,0.4863190338814631
1782986923845816000,9.950816162109374,9.007761137011647,3.506804590383172,0.21715024734474717
1782986923855891200,9.96089111328125,8.407318040093779,3.607380349332094,0.09730190664371476
1782986923865965000,9.970965087890624,7.485121946388483,3.590129354801774,-0.059846438072342426
1782986923876040200,9.981040283203125,6.363079572165012,3.782819333824515,-0.3841493568046018
1782986923886114000,9.991114013671876,5.190481899702549,3.9717978911086913,-0.660844739453867
1782986923896188200,10.001188232421875,4.087169944912195,3.9812709451138972,-0.8427459787629544
1782986923906263000,10.011262939453125,3.4871985571593043,3.7613179883733387,-0.9638077686406672
1782986923916337200,10.021337158203124,3.421321186625957,3.3016485130190847,-0.9833381793450564
1782986923926412300,10.031412353515625,3.3339287343770265,2.6881802225723863,-0.7727830924816429
1782986923936486100,10.041486083984376,2.3094062386631964,1.9487711380347608,-0.30430594996204596
1782986923946561300,10.051561279296875,-0.09427285941243171,0.6264049289092422,0.38846908316724
1782986923956635100,10.06163525390625,-3.735726158738136,-1.6860414081022141,1.2011878071308135
1782986923966710300,10.071710205078125,-7.310833885496854,-4.536830067427456,1.6982842190816998
1782986923976784100,10.0817841796875,-9.87664298915863,-8.361433656275272,1.98470199085474
1782986923986859300,10.091859375,-11.660973214316368,-11.689925752556324,2.0221517238050697
1782986923996933000,10.10193310546875,-15.203407336485386,-13.043676110982894,1.7086977688074112
1782986924007007200,10.11200732421875,-21.675240713357923,-13.837085081255434,0.73345105291605
1782986924017082000,10.12208203125,-28.75814964032173,-13.126195404237508,0.6998102107293903
1782986924027156200,10.13215625,-33.05628873279095,-12.327386620748042,1.0182961685448884
1782986924037231000,10.142231201171874,-33.46497942379713,-12.177042914545535,1.3937486068159342
1782986924047305500,10.152305419921875,-32.48395763163566,-11.83549508396387,1.8509280189201234
1782986924057380000,10.162380126953124,-32.44273247179985,-10.71587379940748,1.7428560589969158
1782986924067454500,10.172454345703125,-33.130480927205085,-8.687745339280367,1.6020939817406237
1782986924077529000,10.182529052734376,-31.04869218856096,-6.809032364594936,1.5575779636658726
1782986924087603500,10.192603515625,-24.17638416036367,-5.609936561307311,1.3302270056284964
1782986924097677800,10.202677734375,-14.018535873383282,-4.23256538105756,0.34092009060475975
1782986924107752200,10.212752197265624,-3.6555110507726667,-2.168677625285089,-0.4228753567684442
1782986924117826800,10.222826904296875,4.683610820451379,0.3340402314305305,-0.5994240926010533
1782986924127901200,10.232901123046876,10.246524933820963,2.349652324333787,-0.14037749838549643
1782986924137975000,10.24297509765625,13.779925854706763,3.988220325860381,-0.27165793647132813
1782986924148050200,10.25305029296875,15.939313381338119,5.187556952166557,-0.006875329129584133
1782986924158124000,10.2631240234375,18.12918021738529,5.728101752960682,0.0073064870884642
1782986924168199200,10.27319921875,20.530232474088667,5.867333698040246,0.05766114818882197
1782986924178273000,10.28327294921875,21.978418189013002,6.034629123565554,0.3906992899047211
1782986924188348200,10.29334814453125,21.640997082972525,6.548490500095486,-0.24843553938120602
1782986924198422000,10.303422119140626,18.887771556776762,7.569168595340847,-0.7633828114517033
1782986924208497200,10.3134970703125,14.112454512530565,8.479295481067895,-1.1676765096079558
1782986924218571000,10.323571044921875,8.879009669414161,9.098331634774803,-1.7371850276231764
1782986924228646100,10.333646240234375,4.464031665459275,9.028918491330742,-1.8616639324679969
1782986924238720000,10.343719970703125,1.701238100451231,8.477843528693914,-2.0876875874243677
1782986924248794000,10.353794189453126,1.2942594740599394,7.650155272200704,-2.5691721503540874
1782986924258869000,10.363868896484375,2.3783336444169283,7.009175582233071,-2.6777944376364347
1782986924268943000,10.373943115234376,3.687234222769737,6.27684622682333,-2.2402777573794124
1782986924279018000,10.38401806640625,4.705293075427413,5.551324797862768,-1.876107614492625
1782986924289092000,10.394092041015625,5.629796861553192,5.010267955893278,-1.1396758652653545
1782986924299167000,10.4041669921875,6.52366176378727,4.44764693236947,-0.6026213177397847
1782986924309241000,10.414240966796875,7.13991500877738,4.0594162610679865,-0.18009161433754486
1782986924319316000,10.42431591796875,7.526030295360088,3.8011195451468227,0.039695867909304794
1782986924329390000,10.43439013671875,7.760486116966605,3.6750223914504048,0.14015326117556542
1782986924339465000,10.44446484375,7.864344550848006,3.5248189705014226,0.34484248821288344
1782986924349539000,10.4545390625,8.033920196264981,3.519448967900872,0.709464539585635
1782986924359614200,10.4646142578125,7.872292879503965,3.2977544281899926,1.0558446856945753
1782986924369688000,10.47468798828125,7.703516860032082,3.1759178545475004,1.1136096230514347
1782986924379762000,10.484761962890625,7.602969742655754,3.186444509258866,1.0060117103807626
