time,seconds_elapsed,z,y,x
1782986913955219200,0.06021923828125,-1.1705322265625,-0.2021484375,0.2555694580078125
1782986913965294300,0.07029443359375,-1.2840118408203125,-0.2502288818359375,0.3876800537109375
1782986913975368200,0.0803681640625,-1.264312744140625,-0.3804473876953125,0.4207763671875
1782986913985442000,0.090442138671875,-1.1773834228515625,-0.5571746826171875,0.3814849853515625
1782986913995517200,0.10051708984375,-1.13653564453125,-0.753082275390625,0.3468170166015625
1782986914005591000,0.110591064453125,-1.1040496826171875,-0.95648193359375,0.292694091796875
1782986914015666200,0.120666259765625,-1.06195068359375,-1.134002685546875,0.2434234619140625
1782986914025740300,0.130740234375,-1.0005035400390625,-1.279693603515625,0.2545013427734375
1782986914035815200,0.140815185546875,-0.8944549560546875,-1.394287109375,0.2025604248046875
1782986914045889300,0.15088916015625,-0.8475341796875,-1.41107177734375,0.14794921875
1782986914055964200,0.160964111328125,-0.980438232421875,-1.2801513671875,0.0685577392578125
1782986914066038300,0.171038330078125,-1.140411376953125,-0.997955322265625,-0.1274261474609375
1782986914076113200,0.181113037109375,-1.272003173828125,-0.6754302978515625,-0.3289947509765625
1782986914086187000,0.19118701171875,-1.22821044921875,-0.4604949951171875,-0.4508819580078125
1782986914096261600,0.20126171875,-1.0647430419921875,-0.3881378173828125,-0.502838134765625
1782986914106336000,0.2113359375,-0.924346923828125,-0.44873046875,-0.536529541015625
1782986914116409900,0.221409912109375,-0.8966827392578125,-0.5018310546875,-0.515472412109375
1782986914126485000,0.231485107421875,-1.058502197265625,-0.495025634765625,-0.4266510009765625
1782986914136558800,0.241558837890625,-1.35052490234375,-0.416534423828125,-0.2984161376953125
1782986914146634000,0.251634033203125,-1.56396484375,-0.28338623046875,-0.226898193359375
1782986914156707800,0.261707763671875,-1.5998077392578125,-0.2049560546875,-0.193267822265625
1782986914166783000,0.271782958984375,-1.422637939453125,-0.20269775390625,-0.1378326416015625
1782986914176856800,0.28185693359375,-1.1395416259765625,-0.2292022705078125,-0.049774169921875
1782986914186932000,0.291931884765625,-0.8660125732421875,-0.2624664306640625,0.035888671875
1782986914197005800,0.302005859375,-0.64361572265625,-0.281463623046875,0.08111572265625
1782986914207081000,0.3120810546875,-0.4781036376953125,-0.269622802734375,0.0488128662109375
1782986914217154800,0.32215478515625,-0.3560943603515625,-0.272369384765625,-0.003997802734375
1782986914227229000,0.33222900390625,-0.281982421875,-0.30853271484375,-0.002685546875
1782986914237304000,0.342303955078125,-0.269134521484375,-0.3403778076171875,-0.02996826171875
1782986914247378000,0.3523779296875,-0.3170318603515625,-0.3090057373046875,-0.1122589111328125
1782986914257453000,0.362453125,-0.4019775390625,-0.2762603759765625,-0.1155548095703125
1782986914267527000,0.37252685546875,-0.4932403564453125,-0.2687530517578125,-0.0719451904296875
1782986914277602000,0.38260205078125,-0.5472869873046875,-0.236480712890625,-0.07037353515625
1782986914287676000,0.392676025390625,-0.5528411865234375,-0.2058563232421875,-0.07293701171875
1782986914297751000,0.4027509765625,-0.5317840576171875,-0.1979827880859375,-0.05780029296875
1782986914307825000,0.412824951171875,-0.4980621337890625,-0.206085205078125,-0.047515869140625
1782986914317900000,0.422900146484375,-0.4591064453125,-0.21197509765625,-0.049407958984375
1782986914327974000,0.432973876953125,-0.4528350830078125,-0.213592529296875,-0.0577545166015625
1782986914338049000,0.443049072265625,-0.4777069091796875,-0.212554931640625,-0.07525634765625
1782986914348123000,0.453122802734375,-0.5218658447265625,-0.2148590087890625,-0.1071014404296875
1782986914358197000,0.463197021484375,-0.572174072265625,-0.22650146484375,-0.1572113037109375
1782986914368272000,0.47327197265625,-0.6095428466796875,-0.242095947265625,-0.20672607421875
1782986914378346000,0.483345947265625,-0.6265411376953125,-0.24603271484375,-0.227264404296875
1782986914388420900,0.4934208984375,-0.6387176513671875,-0.2489776611328125,-0.211090087890625
1782986914398495000,0.503494873046875,-0.652099609375,-0.2646636962890625,-0.1856231689453125
1782986914408569900,0.51356982421875,-0.683074951171875,-0.29339599609375,-0.1224822998046875
1782986914418644000,0.52364404296875,-0.7249603271484375,-0.3202667236328125,-0.0491485595703125
1782986914428718800,0.53371875,-0.820556640625,-0.3238983154296875,0.0001068115234375
1782986914438793000,0.54379296875,-0.9365081787109375,-0.3278350830078125,0.022186279296875
1782986914448866800,0.55386669921875,-1.060211181640625,-0.33758544921875,0.0574188232421875
1782986914458942000,0.56394189453125,-1.1800994873046875,-0.3759307861328125,0.0867156982421875
1782986914469015800,0.574015869140625,-1.3154449462890625,-0.4362945556640625,0.0982818603515625
1782986914479091000,0.584091064453125,-1.4423370361328125,-0.5323333740234375,0.1069488525390625
1782986914489164800,0.594164794921875,-1.49761962890625,-0.651092529296875,0.0839996337890625
1782986914499240000,0.604239990234375,-1.47198486328125,-0.752349853515625,0.083740234375
1782986914509313800,0.614313720703125,-1.4008331298828125,-0.841033935546875,0.206573486328125
1782986914519389000,0.624388916015625,-1.3322601318359375,-0.87188720703125,0.410003662109375
1782986914529462800,0.634462890625,-1.3235931396484375,-0.87591552734375,0.5459747314453125
1782986914539538000,0.644537841796875,-1.316925048828125,-0.916412353515625,0.51849365234375
1782986914549611800,0.65461181640625,-1.238800048828125,-1.0434112548828125,0.4057464599609375
1782986914559687000,0.66468701171875,-1.1675262451171875,-1.250518798828125,0.2896728515625
1782986914569760800,0.6747607421875,-1.099334716796875,-1.409027099609375,0.1846771240234375
1782986914579835000,0.6848349609375,-0.981292724609375,-1.5009765625,0.0914154052734375
1782986914589909800,0.69490966796875,-0.86553955078125,-1.536163330078125,-0.0125274658203125
1782986914599983900,0.70498388671875,-0.8410491943359375,-1.358551025390625,-0.0643157958984375
1782986914610058800,0.715058837890625,-1.051177978515625,-1.0193634033203125,0.0121612548828125
1782986914620132900,0.7251328125,-1.332855224609375,-0.7270965576171875,0.1735382080078125
1782986914630207700,0.735207763671875,-1.550201416015625,-0.5724029541015625,0.303009033203125
1782986914640281900,0.74528173828125,-1.608734130859375,-0.5357666015625,0.2218170166015625
1782986914650356700,0.755356689453125,-1.5256805419921875,-0.5402374267578125,0.0444183349609375
1782986914660430800,0.765430908203125,-1.4421844482421875,-0.5502166748046875,-0.06939697265625
1782986914670505700,0.775505615234375,-1.3942413330078125,-0.531219482421875,-0.049346923828125
1782986914680579800,0.785579833984375,-1.2475433349609375,-0.4522552490234375,0.0933685302734375
1782986914690654700,0.79565478515625,-0.999267578125,-0.334075927734375,0.2762298583984375
1782986914700728800,0.805728759765625,-0.717437744140625,-0.2970123291015625,0.388153076171875
1782986914710802700,0.815802734375,-0.5099945068359375,-0.2804412841796875,0.4196929931640625
1782986914720877800,0.8258779296875,-0.4315643310546875,-0.275146484375,0.2849884033203125
1782986914730951700,0.83595166015625,-0.438018798828125,-0.261138916015625,0.0548553466796875
1782986914741026800,0.84602685546875,-0.4158477783203125,-0.3029632568359375,-0.12921142578125
1782986914751100700,0.8561005859375,-0.349945068359375,-0.3481292724609375,-0.185394287109375
1782986914761175800,0.86617578125,-0.25469970703125,-0.3439178466796875,-0.1766510009765625
1782986914771249700,0.876249755859375,-0.1735382080078125,-0.2870941162109375,-0.1117095947265625
1782986914781324800,0.88632470703125,-0.12982177734375,-0.2246246337890625,-0.007720947265625
1782986914791398700,0.896398681640625,-0.1094512939453125,-0.2036590576171875,0.0951995849609375
1782986914801473800,0.906473876953125,-0.0995941162109375,-0.206268310546875,0.1627197265625
1782986914811547600,0.916547607421875,-0.090606689453125,-0.2140960693359375,0.178192138671875
1782986914821622000,0.9266220703125,-0.0880584716796875,-0.2176055908203125,0.14263916015625
1782986914831696600,0.936696533203125,-0.103302001953125,-0.2123870849609375,0.0775146484375
1782986914841771000,0.94677099609375,-0.145111083984375,-0.2042999267578125,-0.0030975341796875
1782986914851845600,0.956845703125,-0.2006072998046875,-0.2025299072265625,-0.08343505859375
1782986914861920000,0.966919921875,-0.2616424560546875,-0.220672607421875,-0.1520538330078125
1782986914871995000,0.976994873046875,-0.327392578125,-0.250335693359375,-0.2136077880859375
1782986914882069000,0.987069091796875,-0.378692626953125,-0.258819580078125,-0.2692413330078125
1782986914892143900,0.997143798828125,-0.37701416015625,-0.248046875,-0.2880401611328125
1782986914902218000,1.007218017578125,-0.37811279296875,-0.24658203125,-0.2489471435546875
1782986914912292900,1.01729296875,-0.412445068359375,-0.2449798583984375,-0.2183074951171875
1782986914922367000,1.027366943359375,-0.4539031982421875,-0.23199462890625,-0.1884307861328125
1782986914932440800,1.03744091796875,-0.50048828125,-0.191864013671875,-0.100982666015625
1782986914942516000,1.047515869140625,-0.6572113037109375,-0.1809844970703125,0.0068817138671875
1782986914952589800,1.05758984375,-0.921875,-0.2650604248046875,0.0501861572265625
1782986914962665000,1.0676650390625,-1.1549530029296875,-0.38897705078125,0.0244293212890625
1782986914972738800,1.07773876953125,-1.281402587890625,-0.4765777587890625,-0.119842529296875
1782986914982814000,1.08781396484375,-1.4497833251953125,-0.5600738525390625,-0.2066650390625
1782986914992888000,1.09788818359375,-1.899871826171875,-0.7007598876953125,-0.073883056640625
1782986915002963000,1.107962890625,-2.2970733642578125,-0.823394775390625,0.0872955322265625
1782986915013037000,1.118037109375,-2.483154296875,-0.795196533203125,0.1930084228515625
1782986915023112000,1.12811181640625,-2.4249725341796875,-0.7248382568359375,0.2285919189453125
1782986915033186000,1.13818603515625,-2.2632904052734375,-0.7361297607421875,0.2818450927734375
1782986915043261000,1.148260986328125,-2.1353912353515625,-0.853668212890625,0.3554840087890625
1782986915053335000,1.1583349609375,-1.900543212890625,-1.0786590576171875,0.4305267333984375
1782986915063409000,1.168408935546875,-1.6126251220703125,-1.48883056640625,0.4806060791015625
1782986915073484000,1.178484130859375,-1.2774505615234375,-1.6653594970703125,0.4136810302734375
1782986915083561200,1.188561279296875,-0.97076416015625,-1.5574493408203125,0.2158660888671875
1782986915093636000,1.198635986328125,-0.9039764404296875,-1.2949371337890625,0.1440582275390625
1782986915103710200,1.208710205078125,-1.10052490234375,-0.9516448974609375,-0.0202178955078125
1782986915113785000,1.21878515625,-1.281036376953125,-0.58935546875,-0.34429931640625
1782986915123859200,1.228859130859375,-1.4113616943359375,-0.4309844970703125,-0.5800628662109375
1782986915133934000,1.23893408203125,-1.651763916015625,-0.5361175537109375,-0.7224884033203125
1782986915144008200,1.24900830078125,-1.7784881591796875,-0.5367431640625,-0.738800048828125
1782986915154083000,1.2590830078125,-1.6156005859375,-0.3809661865234375,-0.7884674072265625
1782986915164157200,1.2691572265625,-1.1908111572265625,-0.180938720703125,-0.56964111328125
1782986915174231000,1.27923095703125,-0.7088165283203125,-0.006256103515625,-0.3164825439453125
1782986915184306200,1.28930615234375,-0.1883697509765625,-0.112548828125,-0.1211090087890625
1782986915194380000,1.299380126953125,0.10369873046875,-0.4114990234375,0.1732940673828125
1782986915204455200,1.309455078125,0.0072479248046875,-0.4581756591796875,0.243896484375
1782986915214529000,1.319529052734375,-0.0638275146484375,-0.3727264404296875,-0.1977996826171875
1782986915224604200,1.329604248046875,-0.0149383544921875,-0.4267425537109375,-0.1389923095703125
1782986915234678000,1.339677978515625,-0.02972412109375,-0.3255157470703125,-0.0938262939453125
1782986915244753200,1.349753173828125,-0.24755859375,-0.2596435546875,-0.085662841796875
1782986915254827000,1.359826904296875,-0.3652801513671875,-0.283111572265625,-0.10589599609375
1782986915264902100,1.369902099609375,-0.32135009765625,-0.26556396484375,-0.180816650390625
1782986915274976000,1.37997607421875,-0.2813568115234375,-0.2640533447265625,-0.1683502197265625
1782986915285051100,1.390051025390625,-0.220794677734375,-0.2583465576171875,-0.1457977294921875
1782986915295125000,1.400125,-0.1207427978515625,-0.219512939453125,-0.0829010009765625
1782986915305199000,1.41019921875,-0.035675048828125,-0.1959991455078125,-0.027191162109375
1782986915315274000,1.42027392578125,-0.014556884765625,-0.186492919921875,-0.039794921875
1782986915325348000,1.43034814453125,-0.0053253173828125,-0.130828857421875,-0.0787811279296875
1782986915335423000,1.440423095703125,-0.0195159912109375,-0.1251373291015625,-0.0925445556640625
1782986915345497000,1.4504970703125,-0.073486328125,-0.12152099609375,-0.134521484375
1782986915355572200,1.460572265625,-0.12811279296875,-0.11181640625,-0.152435302734375
1782986915365646000,1.47064599609375,-0.155670166015625,-0.0941619873046875,-0.13201904296875
1782986915375721200,1.48072119140625,-0.1527557373046875,-0.1048126220703125,-0.1029205322265625
1782986915385795000,1.490795166015625,-0.13433837890625,-0.1242828369140625,-0.0703125
1782986915395870200,1.5008701171875,-0.09326171875,-0.1055450439453125,-0.0367431640625
1782986915405944000,1.510944091796875,-0.0750885009765625,-0.064483642578125,0.0142669677734375
1782986915416018000,1.521017822265625,-0.047760009765625,-0.0612640380859375,0.0569915771484375
1782986915426093000,1.531093017578125,0.0152587890625,-0.0728607177734375,0.0599517822265625
1782986915436167000,1.5411669921875,0.10272216796875,-0.0848236083984375,0.0512847900390625
1782986915446242000,1.551241943359375,0.166229248046875,-0.2583160400390625,-0.0768585205078125
1782986915456316000,1.56131591796875,0.2122039794921875,-0.4478607177734375,-0.3899078369140625
1782986915466391000,1.57139111328125,0.1623077392578125,-0.384857177734375,-0.5335845947265625
1782986915476465000,1.58146484375,-0.136474609375,-0.435302734375,-0.472442626953125
1782986915486540000,1.5915400390625,-0.748931884765625,-0.580841064453125,-0.1653289794921875
1782986915496614100,1.6016142578125,-1.425201416015625,-0.6717681884765625,-0.010528564453125
1782986915506689000,1.61168896484375,-2.013916015625,-0.723602294921875,0.007293701171875
1782986915516763100,1.62176318359375,-2.609100341796875,-0.888641357421875,0.1483154296875
1782986915526837000,1.6318369140625,-2.9229583740234375,-1.09515380859375,0.385772705078125
1782986915536912100,1.641912109375,-3.16143798828125,-1.2101287841796875,0.4972076416015625
1782986915546986000,1.651986083984375,-3.4697265625,-1.2796783447265625,0.4781494140625
1782986915557061000,1.66206103515625,-3.7294464111328125,-1.290435791015625,0.3778228759765625
1782986915567135000,1.672135009765625,-3.675994873046875,-1.2833251953125,0.1826629638671875
1782986915577210000,1.682210205078125,-3.627227783203125,-1.346954345703125,-0.1257781982421875
1782986915587284000,1.692283935546875,-3.6415252685546875,-1.384063720703125,-0.4678192138671875
1782986915597359000,1.702359130859375,-3.554412841796875,-1.313262939453125,-0.7149200439453125
1782986915607433000,1.712432861328125,-3.38592529296875,-1.1080322265625,-0.861785888671875
1782986915617508000,1.722508056640625,-3.0264434814453125,-0.8333740234375,-0.8687286376953125
1782986915627582000,1.73258203125,-2.535675048828125,-0.531707763671875,-0.6647796630859375
1782986915637656300,1.74265625,-1.994415283203125,-0.25555419921875,-0.354339599609375
1782986915647731000,1.75273095703125,-1.419464111328125,-0.06109619140625,-0.092742919921875
1782986915657805300,1.762805419921875,-0.80767822265625,0.0402374267578125,0.1079254150390625
1782986915667880000,1.7728798828125,-0.1746063232421875,0.0706329345703125,0.2180328369140625
1782986915677954300,1.782954345703125,0.3450469970703125,0.0502471923828125,0.2812347412109375
1782986915688029000,1.79302880859375,0.733673095703125,0.028472900390625,0.3704376220703125
1782986915698103300,1.803103271484375,1.0296783447265625,-0.0244293212890625,0.4158935546875
1782986915708178000,1.813177978515625,1.2599029541015625,-0.09539794921875,0.3768768310546875
1782986915718252300,1.823252197265625,1.4132080078125,-0.118377685546875,0.1838531494140625
1782986915728327000,1.833326904296875,1.3839874267578125,-0.1735076904296875,0.170867919921875
1782986915738401300,1.8434013671875,1.1622467041015625,-0.17034912109375,0.1717376708984375
1782986915748475100,1.85347509765625,0.8710784912109375,-0.1204681396484375,0.0638885498046875
1782986915758550300,1.86355029296875,0.534210205078125,-0.1085968017578125,0.08203125
1782986915768624000,1.8736240234375,0.200927734375,-0.0951690673828125,0.0699005126953125
1782986915778699300,1.88369921875,-0.0933380126953125,-0.06768798828125,0.0243377685546875
1782986915788773000,1.893773193359375,-0.3396148681640625,-0.04437255859375,-0.032257080078125
1782986915798848300,1.90384814453125,-0.47161865234375,-0.025115966796875,-0.09259033203125
1782986915808922000,1.913922119140625,-0.4542083740234375,0.0112457275390625,-0.1502532958984375
1782986915818997200,1.923997314453125,-0.610748291015625,-0.0388641357421875,-0.5225067138671875
1782986915829071000,1.934071044921875,-0.6026458740234375,-0.3853912353515625,-0.8929290771484375
1782986915839146200,1.944146240234375,-0.3669281005859375,-0.65032958984375,-1.087158203125
1782986915849220000,1.95422021484375,-0.0531768798828125,-0.5976409912109375,-0.89288330078125
1782986915859294200,1.964294189453125,0.090728759765625,-0.2071380615234375,-0.1953125
1782986915869369000,1.974369140625,0.1256561279296875,0.0185394287109375,0.139495849609375
1782986915879443200,1.984443115234375,0.1310272216796875,0.0807342529296875,0.1365509033203125
1782986915889518000,1.99451806640625,-0.0081939697265625,0.0380096435546875,0.01763916015625
1782986915899592200,2.00459228515625,-0.2514190673828125,0.01666259765625,-0.0781097412109375
1782986915909667000,2.0146669921875,-0.3977203369140625,0.0086822509765625,-0.1523590087890625
1782986915919741200,2.0247412109375,-0.4138336181640625,-0.027587890625,-0.1709747314453125
1782986915929816000,2.034816162109375,-0.353057861328125,-0.12884521484375,-0.188690185546875
1782986915939890200,2.04489013671875,-0.3202056884765625,-0.2997589111328125,-0.2333221435546875
1782986915949965000,2.054965087890625,-0.340179443359375,-0.443389892578125,-0.294708251953125
1782986915960039200,2.0650390625,-0.5486297607421875,-0.5157012939453125,-0.3329620361328125
1782986915970113000,2.075113037109375,-0.9727935791015625,-0.5335235595703125,-0.3188323974609375
1782986915980188200,2.085188232421875,-1.4176177978515625,-0.5227203369140625,-0.1969146728515625
1782986915990262000,2.095261962890625,-1.764617919921875,-0.5082244873046875,-0.0587005615234375
1782986916000337200,2.105337158203125,-1.8718414306640625,-0.6196136474609375,0.1100311279296875
1782986916010411000,2.115410888671875,-1.8109588623046875,-0.8710174560546875,0.2604522705078125
1782986916020486100,2.125486083984375,-1.807373046875,-1.236663818359375,0.26959228515625
1782986916030560000,2.13556005859375,-1.845550537109375,-1.547637939453125,0.31817626953125
1782986916040635100,2.14563525390625,-2.2479095458984375,-1.712493896484375,-0.1502685546875
1782986916050709000,2.155708984375,-2.63348388671875,-1.8795013427734375,-0.50250244140625
1782986916060784000,2.1657841796875,-2.841033935546875,-1.8669586181640625,-0.210479736328125
1782986916070858000,2.17585791015625,-3.22430419921875,-1.4618682861328125,-0.04266357421875
1782986916080933000,2.18593310546875,-3.8102874755859375,-1.131591796875,-0.07269287109375
1782986916091004000,2.19600390625,-4.603240966796875,-0.735809326171875,-0.249786376953125
1782986916101078000,2.206078125,-4.736328125,-0.385650634765625,-0.3149261474609375
1782986916111153000,2.21615283203125,-4.2919464111328125,-0.255889892578125,-0.34442138671875
1782986916121227000,2.22622705078125,-3.574493408203125,-0.269287109375,-0.4264068603515625
1782986916131302000,2.236302001953125,-2.700164794921875,-0.293853759765625,-0.4962921142578125
1782986916141376000,2.2463759765625,-1.8403472900390625,-0.2821044921875,-0.50653076171875
1782986916151451000,2.256450927734375,-1.03924560546875,-0.298919677734375,-0.532684326171875
1782986916161525000,2.26652490234375,-0.3658447265625,-0.2348480224609375,-0.38714599609375
1782986916171600000,2.276599853515625,0.1732025146484375,-0.0847625732421875,-0.0506744384765625
1782986916181674000,2.286674072265625,0.7169036865234375,-0.0618743896484375,0.1529083251953125
1782986916191747800,2.296747802734375,1.207672119140625,-0.149383544921875,0.0261077880859375
1782986916201823000,2.306822998046875,1.526458740234375,-0.2760467529296875,-0.345428466796875
1782986916211896800,2.316896728515625,1.741912841796875,-0.3689422607421875,-0.4555511474609375
1782986916221972000,2.326971923828125,1.821136474609375,-0.2526702880859375,-0.3443145751953125
1782986916232045800,2.3370458984375,1.724273681640625,-0.1334228515625,-0.1184234619140625
1782986916242121000,2.347120849609375,1.4151763916015625,-0.0980224609375,-0.0146331787109375
1782986916252194800,2.35719482421875,0.995330810546875,0.0176544189453125,0.016448974609375
1782986916262270000,2.36727001953125,0.5540771484375,0.109527587890625,0.0295257568359375
1782986916272343800,2.37734375,0.1460418701171875,0.1160888671875,0.0279083251953125
1782986916282419000,2.3874189453125,-0.1089630126953125,0.1300201416015625,-0.0044403076171875
1782986916292492800,2.397492919921875,-0.217987060546875,0.119293212890625,-0.0180816650390625
1782986916302567000,2.40756689453125,-0.1641998291015625,0.0867767333984375,-0.02154541015625
1782986916312642000,2.41764208984375,-0.045684814453125,0.03094482421875,-0.0644989013671875
1782986916322716000,2.4277158203125,-0.1091461181640625,-0.0434722900390625,-0.1457672119140625
1782986916332791000,2.437791015625,-0.1195526123046875,-0.06536865234375,-0.16827392578125
1782986916342865000,2.447864990234375,-0.1226959228515625,-0.03570556640625,-0.0903472900390625
1782986916352940000,2.45793994140625,-0.1793670654296875,0.021881103515625,0.0110015869140625
1782986916363014000,2.468013916015625,-0.2457275390625,0.0581512451171875,0.1190643310546875
1782986916373089000,2.478089111328125,-0.347015380859375,0.0887298583984375,0.205963134765625
1782986916383163000,2.488162841796875,-0.4552459716796875,0.13128662109375,0.24017333984375
1782986916393238000,2.498238037109375,-0.52392578125,0.1363983154296875,0.2154388427734375
1782986916403311900,2.508311767578125,-0.53717041015625,0.1391448974609375,0.145599365234375
1782986916413387000,2.518386962890625,-0.485198974609375,0.1146240234375,0.073944091796875
1782986916423460900,2.5284609375,-0.3744049072265625,0.080780029296875,0.0066070556640625
1782986916433535000,2.538534912109375,-0.2746124267578125,0.04046630859375,-0.0576324462890625
1782986916443609900,2.54860986328125,-0.2159576416015625,-0.0248260498046875,-0.0988922119140625
1782986916453684000,2.55868408203125,-0.1634063720703125,-0.0791778564453125,-0.132476806640625
1782986916463758800,2.5687587890625,-0.1558685302734375,-0.1494598388671875,-0.224151611328125
1782986916473833000,2.5788330078125,-0.32562255859375,-0.29559326171875,-0.3087158203125
1782986916483907800,2.588907958984375,-0.535919189453125,-0.4034423828125,-0.3359832763671875
1782986916493982000,2.59898193359375,-0.91058349609375,-0.504669189453125,-0.330902099609375
1782986916504056800,2.609056884765625,-1.446990966796875,-0.6839141845703125,-0.2494964599609375
1782986916514131000,2.619130859375,-2.05743408203125,-0.8997039794921875,-0.2261505126953125
1782986916524205000,2.629205078125,-2.7570343017578125,-1.286224365234375,-0.0616302490234375
1782986916534280000,2.639280029296875,-3.13287353515625,-1.608062744140625,0.0114288330078125
1782986916544354000,2.64935400390625,-3.615875244140625,-1.533843994140625,0.290771484375
1782986916554429000,2.659428955078125,-4.6821746826171875,-1.394866943359375,0.5605926513671875
1782986916564503000,2.6695029296875,-5.7425537109375,-1.111297607421875,0.540618896484375
1782986916574578000,2.679577880859375,-6.51031494140625,-0.8025054931640625,0.486328125
1782986916584652000,2.689652099609375,-6.5547637939453125,-0.6553497314453125,0.3412322998046875
1782986916594727000,2.699726806640625,-5.77435302734375,-0.463531494140625,0.2176055908203125
1782986916604801000,2.709801025390625,-4.6140899658203125,-0.3192901611328125,0.28594970703125
1782986916614876000,2.7198759765625,-3.36517333984375,-0.2908477783203125,0.478118896484375
1782986916624950000,2.729949951171875,-2.2061614990234375,-0.4947509765625,0.4677581787109375
1782986916635025200,2.740025146484375,-1.2842254638671875,-0.8178558349609375,0.01544189453125
1782986916645099000,2.75009912109375,-0.3759918212890625,-0.59918212890625,-0.4800872802734375
1782986916655173000,2.760173095703125,0.4792633056640625,-0.211456298828125,-0.682891845703125
1782986916665248000,2.770248046875,1.119140625,0.0413970947265625,-0.6574859619140625
1782986916675322000,2.780322021484375,1.4573974609375,0.113983154296875,-0.4586029052734375
1782986916685397000,2.79039697265625,1.5947418212890625,0.0674591064453125,-0.2212982177734375
1782986916695471000,2.80047119140625,1.6070098876953125,-0.03802490234375,-0.1061553955078125
1782986916705546000,2.8105458984375,1.566986083984375,-0.0747528076171875,-0.081878662109375
1782986916715620000,2.8206201171875,1.513214111328125,0.0179595947265625,-0.08349609375
1782986916725695000,2.830695068359375,1.31121826171875,0.1664581298828125,-0.0026702880859375
1782986916735769000,2.84076904296875,0.9311981201171875,0.284027099609375,0.05908203125
1782986916745844000,2.850843994140625,0.4863433837890625,0.3912200927734375,0.0157928466796875
1782986916755918000,2.86091796875,0.1301422119140625,0.4560089111328125,-0.0024871826171875
1782986916765992000,2.870991943359375,-0.0906982421875,0.4708099365234375,0.0080108642578125
1782986916776067000,2.881067138671875,-0.16644287109375,0.407257080078125,0.055267333984375
1782986916786141000,2.891140869140625,-0.1153564453125,0.320098876953125,0.0862884521484375
1782986916796216000,2.901216064453125,-0.0394439697265625,0.2266082763671875,0.11370849609375
1782986916806290000,2.9112900390625,0.0198974609375,0.15374755859375,0.1429290771484375
1782986916816365000,2.921364990234375,0.0367279052734375,0.106658935546875,0.1124420166015625
1782986916826439000,2.93143896484375,0.01904296875,0.0851593017578125,0.0345001220703125
1782986916836514000,2.94151416015625,0.008544921875,0.071929931640625,-0.0466766357421875
1782986916846588000,2.951587890625,0.014739990234375,0.069244384765625,-0.089935302734375
1782986916856662000,2.961662109375,-0.0089263916015625,0.0535125732421875,-0.093597412109375
1782986916866737000,2.97173681640625,-0.054443359375,0.01849365234375,-0.0931854248046875
1782986916876811000,2.98181103515625,-0.088043212890625,0.0005950927734375,-0.084930419921875
1782986916886886000,2.991885986328125,-0.086212158203125,-0.02142333984375,-0.063323974609375
1782986916896960000,3.0019599609375,-0.063720703125,-0.0552978515625,-0.0487060546875
1782986916907035000,3.012034912109375,-0.0384674072265625,-0.0826568603515625,-0.017822265625
1782986916917109000,3.02210888671875,-0.0538177490234375,-0.123321533203125,0.0236968994140625
1782986916927184000,3.032183837890625,-0.1055145263671875,-0.1611785888671875,0.0501708984375
1782986916937258000,3.042258056640625,-0.180938720703125,-0.189422607421875,0.0351715087890625
1782986916947333000,3.0523330078125,-0.286468505859375,-0.204498291015625,0.0047760009765625
1782986916957407000,3.062406982421875,-0.390960693359375,-0.2030181884765625,-0.038604736328125
1782986916967480800,3.072480712890625,-0.4940185546875,-0.216033935546875,-0.05181884765625
1782986916977556000,3.082555908203125,-0.6190948486328125,-0.2594757080078125,-0.027496337890625
1782986916987629800,3.0926298828125,-0.8108978271484375,-0.3262786865234375,0.0008697509765625
1782986916997705000,3.102705078125,-1.0511932373046875,-0.436187744140625,-0.0059661865234375
1782986917007778800,3.11277880859375,-1.38037109375,-0.5793609619140625,-0.0508270263671875
1782986917017854000,3.12285400390625,-1.7655181884765625,-0.7542877197265625,-0.048126220703125
1782986917027927800,3.132927734375,-2.0543670654296875,-0.9835968017578125,-0.0763702392578125
1782986917038003000,3.1430029296875,-2.27288818359375,-1.2301177978515625,-0.0683441162109375
1782986917048076800,3.153076904296875,-2.617523193359375,-1.4168243408203125,0.0022125244140625
1782986917058152000,3.16315185546875,-3.068389892578125,-1.4671478271484375,0.0567169189453125
1782986917068226000,3.17322607421875,-3.562347412109375,-1.35211181640625,0.082763671875
1782986917078300000,3.1832998046875,-4.06951904296875,-1.1191253662109375,0.0276947021484375
1782986917088374300,3.193374267578125,-4.5135955810546875,-0.9698944091796875,-0.0989532470703125
1782986917098448600,3.20344873046875,-4.8224334716796875,-0.8547821044921875,-0.1940765380859375
1782986917108523300,3.213523193359375,-4.9776763916015625,-0.737945556640625,-0.2862396240234375
1782986917118597600,3.22359765625,-4.85107421875,-0.5861663818359375,-0.39312744140625
1782986917128672300,3.23367236328125,-4.4409637451171875,-0.4326171875,-0.5167388916015625
1782986917138746600,3.24374658203125,-3.78485107421875,-0.3170928955078125,-0.6009979248046875
1782986917148821500,3.253821533203125,-2.9776763916015625,-0.260498046875,-0.571533203125
1782986917158895600,3.2638955078125,-2.09124755859375,-0.22442626953125,-0.4783172607421875
1782986917168970500,3.273970458984375,-1.2425079345703125,-0.1821441650390625,-0.34197998046875
1782986917179044600,3.284044677734375,-0.5391387939453125,-0.12213134765625,-0.1606903076171875
1782986917189119500,3.294119384765625,-0.000732421875,-0.0687408447265625,-0.0425262451171875
1782986917199193600,3.304193603515625,0.310821533203125,-0.04803466796875,0.0087432861328125
1782986917209267500,3.314267333984375,0.4947662353515625,-0.0466461181640625,0.0629425048828125
1782986917219342600,3.324342529296875,0.665863037109375,-0.0166778564453125,0.0680999755859375
1782986917229416400,3.33441650390625,0.819122314453125,0.031524658203125,0.0257415771484375
1782986917239491600,3.34449169921875,0.9711151123046875,0.081939697265625,0.0382537841796875
1782986917249565400,3.3545654296875,1.1304931640625,0.1115875244140625,0.0630950927734375
1782986917259640600,3.364640625,1.2331695556640625,0.1199951171875,0.0612030029296875
1782986917269714700,3.374714599609375,1.2199859619140625,0.1428070068359375,-0.01861572265625
1782986917279789600,3.38478955078125,1.168365478515625,0.200347900390625,0.0431976318359375
1782986917289863700,3.39486376953125,1.0763092041015625,0.1807403564453125,0.0512847900390625
1782986917299937500,3.4049375,0.925933837890625,0.173309326171875,-0.003143310546875
1782986917310012700,3.4150126953125,0.749755859375,0.1989898681640625,-0.018798828125
1782986917320086500,3.42508642578125,0.5585174560546875,0.2423248291015625,-0.0457763671875
1782986917330161700,3.43516162109375,0.3153839111328125,0.2543487548828125,-0.065032958984375
1782986917340235500,3.445235595703125,0.0557708740234375,0.233428955078125,-0.0717926025390625
1782986917350310700,3.455310546875,-0.1324005126953125,0.2095794677734375,-0.0618896484375
1782986917360384500,3.465384521484375,-0.2727203369140625,0.167022705078125,-0.06500244140625
1782986917370459600,3.475459716796875,-0.3684234619140625,0.107879638671875,-0.0504150390625
1782986917380533500,3.485533447265625,-0.392486572265625,0.0457763671875,-0.0436553955078125
1782986917390608600,3.495608642578125,-0.34808349609375,0.0093841552734375,-0.0665435791015625
1782986917400682500,3.5056826171875,-0.280914306640625,-0.013702392578125,-0.0850677490234375
1782986917410756600,3.515756591796875,-0.226104736328125,-0.04107666015625,-0.076171875
1782986917420831500,3.52583154296875,-0.203887939453125,-0.0700836181640625,-0.0635986328125
1782986917430905600,3.535905517578125,-0.2006072998046875,-0.0987091064453125,-0.05657958984375
1782986917440980500,3.54598046875,-0.2252655029296875,-0.1365509033203125,-0.0662689208984375
1782986917451054600,3.5560546875,-0.28900146484375,-0.16064453125,-0.0856475830078125
1782986917461129500,3.56612939453125,-0.4316253662109375,-0.185546875,-0.0664825439453125
1782986917471203600,3.57620361328125,-0.582733154296875,-0.211273193359375,-0.0549163818359375
1782986917481278500,3.586278564453125,-0.6947479248046875,-0.2315521240234375,-0.085906982421875
1782986917491352600,3.5963525390625,-0.826629638671875,-0.2717437744140625,-0.1162109375
1782986917501427500,3.606427490234375,-0.9982452392578125,-0.3095550537109375,-0.17779541015625
1782986917511501600,3.61650146484375,-1.2736968994140625,-0.3357391357421875,-0.26611328125
1782986917521575400,3.626575439453125,-1.68255615234375,-0.35333251953125,-0.3394012451171875
1782986917531650600,3.636650634765625,-2.0528717041015625,-0.40673828125,-0.3492584228515625
1782986917541724400,3.646724365234375,-2.219024658203125,-0.556671142578125,-0.2330780029296875
1782986917551799600,3.656799560546875,-2.25048828125,-0.773193359375,-0.1016998291015625
1782986917561873400,3.666873291015625,-2.3004913330078125,-1.08709716796875,-0.01580810546875
1782986917571948500,3.676948486328125,-2.502777099609375,-1.286376953125,-0.088592529296875
1782986917582022400,3.6870224609375,-3.025543212890625,-1.2193450927734375,-0.1920928955078125
1782986917592097500,3.69709765625,-3.595611572265625,-1.0057525634765625,-0.331939697265625
1782986917602171400,3.70717138671875,-3.98309326171875,-0.834686279296875,-0.5140228271484375
1782986917612246500,3.71724658203125,-4.32342529296875,-0.724761962890625,-0.880828857421875
1782986917622320400,3.7273203125,-4.5555267333984375,-0.4099884033203125,-1.1494140625
1782986917632395500,3.7373955078125,-4.55364990234375,-0.1262969970703125,-1.1726531982421875
1782986917642469400,3.747469482421875,-4.1959381103515625,-0.041778564453125,-1.1217498779296875
1782986917652543500,3.75754345703125,-3.5878448486328125,-0.050628662109375,-0.9150390625
1782986917662618400,3.767618408203125,-2.854217529296875,-0.071868896484375,-0.6374359130859375
1782986917672692500,3.7776923828125,-2.22259521484375,-0.190185546875,-0.3518524169921875
1782986917682767400,3.787767333984375,-1.6743011474609375,-0.292449951171875,-0.3199615478515625
1782986917692841500,3.797841552734375,-1.088897705078125,-0.267730712890625,-0.3999176025390625
1782986917702916400,3.807916259765625,-0.4712066650390625,-0.2031707763671875,-0.3912200927734375
1782986917712990500,3.817990478515625,0.1541595458984375,-0.161651611328125,-0.297088623046875
1782986917723065300,3.8280654296875,0.7549896240234375,-0.15032958984375,-0.2353973388671875
1782986917733139500,3.838139404296875,1.0851593017578125,-0.138885498046875,-0.053558349609375
1782986917743213300,3.84821337890625,1.263031005859375,-0.1382598876953125,0.1444244384765625
1782986917753288400,3.858288330078125,1.3218536376953125,-0.1524810791015625,0.1912841796875
1782986917763362300,3.8683623046875,1.212921142578125,-0.2304229736328125,0.092132568359375
1782986917773437400,3.8784375,1.09747314453125,-0.216217041015625,0.1031494140625
1782986917783511300,3.88851123046875,1.0198822021484375,-0.1035003662109375,0.20916748046875
1782986917793586400,3.89858642578125,0.8944854736328125,-0.01806640625,0.230072021484375
1782986917803660300,3.908660400390625,0.6944732666015625,0.0287017822265625,0.1796417236328125
1782986917813735400,3.9187353515625,0.4819488525390625,0.0563201904296875,0.135040283203125
1782986917823809300,3.928809326171875,0.2885894775390625,0.1013946533203125,0.0955352783203125
1782986917833884400,3.938884521484375,0.1429901123046875,0.17303466796875,0.062591552734375
1782986917843958300,3.948958251953125,0.020233154296875,0.178314208984375,0.026763916015625
1782986917854033400,3.959033447265625,-0.04656982421875,0.1450958251953125,-0.0119171142578125
1782986917864107300,3.969107177734375,-0.0380859375,0.114654541015625,-0.01904296875
1782986917874181600,3.979181640625,-0.0237884521484375,0.08544921875,0.0028839111328125
1782986917884256300,3.98925634765625,-0.0429534912109375,0.06781005859375,-0.0172119140625
1782986917894330600,3.99933056640625,-0.0537567138671875,0.0490875244140625,-0.0559234619140625
1782986917904405500,4.009405517578125,-0.0522918701171875,0.0539398193359375,-0.048736572265625
1782986917914479600,4.019479736328125,-0.07000732421875,0.0651702880859375,-0.0377197265625
1782986917924554500,4.029554443359375,-0.103485107421875,0.051025390625,-0.0296173095703125
1782986917934628600,4.039628662109375,-0.1412506103515625,0.0265350341796875,-0.0343780517578125
1782986917944703500,4.049703369140625,-0.1710205078125,-0.0152435302734375,-0.05712890625
1782986917954777600,4.059777587890625,-0.1926116943359375,-0.0518341064453125,-0.060577392578125
1782986917964851500,4.0698515625,-0.233184814453125,-0.077880859375,-0.058837890625
1782986917974926600,4.079926513671875,-0.2936553955078125,-0.1169281005859375,-0.0933380126953125
1782986917985000400,4.09000048828125,-0.3394622802734375,-0.15093994140625,-0.11651611328125
1782986917995075600,4.10007568359375,-0.3916778564453125,-0.149566650390625,-0.0933685302734375
1782986918005149400,4.1101494140625,-0.5012054443359375,-0.1578521728515625,-0.1108551025390625
1782986918015224600,4.120224609375,-0.703521728515625,-0.1449432373046875,-0.182708740234375
1782986918025298700,4.130298583984375,-1.060333251953125,-0.1412811279296875,-0.27923583984375
1782986918035373600,4.14037353515625,-1.623626708984375,-0.1911468505859375,-0.36383056640625
1782986918045447700,4.15044775390625,-2.1987762451171875,-0.3347320556640625,-0.40301513671875
1782986918055522600,4.1605224609375,-2.46856689453125,-0.583709716796875,-0.381317138671875
1782986918065596700,4.1705966796875,-2.498260498046875,-0.8900299072265625,-0.2607421875
1782986918075670500,4.18067041015625,-2.575927734375,-1.229095458984375,-0.184783935546875
1782986918085746400,4.190746337890625,-2.8067169189453125,-1.470428466796875,-0.19219970703125
1782986918095820500,4.200820556640625,-3.2441253662109375,-1.4774627685546875,-0.22808837890625
1782986918105895400,4.2108955078125,-3.7754364013671875,-1.4275665283203125,-0.2133636474609375
1782986918115969500,4.220969482421875,-4.0614166259765625,-1.4049072265625,-0.1704254150390625
1782986918126044400,4.23104443359375,-4.0934295654296875,-1.3879547119140625,-0.1181182861328125
1782986918136118500,4.241118408203125,-3.95355224609375,-1.2279052734375,-0.0417327880859375
1782986918146193400,4.251193359375,-3.97869873046875,-0.9295501708984375,-0.0598907470703125
1782986918156267500,4.261267578125,-4.2694549560546875,-0.5805511474609375,-0.1592559814453125
1782986918166342400,4.27134228515625,-4.2061767578125,-0.2778167724609375,-0.3414154052734375
1782986918176416500,4.28141650390625,-3.6001434326171875,-0.1216278076171875,-0.383819580078125
1782986918186490600,4.29149072265625,-2.8311614990234375,-0.17913818359375,-0.1833343505859375
1782986918196565500,4.3015654296875,-2.0248870849609375,-0.2704620361328125,-0.06329345703125
1782986918206639600,4.3116396484375,-1.2995758056640625,-0.266937255859375,-0.1627349853515625
1782986918216714500,4.321714599609375,-0.5284271240234375,-0.0847320556640625,-0.1311187744140625
1782986918226788600,4.33178857421875,0.257781982421875,0.065460205078125,-0.0080413818359375
1782986918236863500,4.341863525390625,0.96026611328125,0.065399169921875,0.1479034423828125
1782986918246937600,4.3519375,1.5294647216796875,-0.02642822265625,0.2591705322265625
1782986918257012500,4.362012451171875,1.854278564453125,-0.1160736083984375,0.256744384765625
1782986918267086600,4.372086669921875,1.86907958984375,-0.16748046875,0.1782989501953125
1782986918277161500,4.382161376953125,1.6270751953125,-0.1202392578125,0.1043548583984375
1782986918287235600,4.392235595703125,1.2309722900390625,-0.00238037109375,0.043304443359375
1782986918297309700,4.402309814453125,0.783203125,0.1322784423828125,-0.00897216796875
1782986918307384600,4.412384521484375,0.3459014892578125,0.26251220703125,-0.06646728515625
1782986918317458700,4.422458740234375,-0.0017547607421875,0.3743133544921875,-0.1483917236328125
1782986918327533800,4.432533935546875,-0.19781494140625,0.4345245361328125,-0.21453857421875
1782986918337607700,4.442607666015625,-0.2416839599609375,0.421295166015625,-0.2451324462890625
1782986918347682800,4.452682861328125,-0.1755523681640625,0.3677215576171875,-0.250457763671875
1782986918357756700,4.462756591796875,-0.0875091552734375,0.268096923828125,-0.20831298828125
1782986918367831800,4.472831787109375,0.002166748046875,0.1733551025390625,-0.149810791015625
1782986918377905700,4.48290576171875,0.0916290283203125,0.1160125732421875,-0.0734405517578125
1782986918387980800,4.492980712890625,0.1204986572265625,0.0732269287109375,-0.001190185546875
1782986918398054700,4.5030546875,0.0883941650390625,0.00897216796875,0.0320281982421875
1782986918408128500,4.51312841796875,0.047821044921875,-0.04498291015625,0.0550537109375
1782986918418203600,4.52320361328125,0.008697509765625,-0.073822021484375,0.0732269287109375
1782986918428277500,4.533277587890625,-0.0298309326171875,-0.090850830078125,0.0820770263671875
1782986918438352600,4.5433525390625,-0.0858306884765625,-0.0944976806640625,0.0917510986328125
1782986918448426800,4.5534267578125,-0.1429595947265625,-0.1096954345703125,0.096405029296875
1782986918458501600,4.563501708984375,-0.190673828125,-0.110870361328125,0.0977630615234375
1782986918468575700,4.57357568359375,-0.2634735107421875,-0.1057281494140625,0.0801239013671875
1782986918478650600,4.583650634765625,-0.3180389404296875,-0.1289215087890625,0.04083251953125
1782986918488724700,4.593724853515625,-0.33294677734375,-0.1246490478515625,0.0264739990234375
1782986918498799600,4.603799560546875,-0.3285980224609375,-0.1146697998046875,-0.006317138671875
1782986918508873700,4.613873779296875,-0.3287506103515625,-0.1274566650390625,-0.00762939453125
1782986918518947600,4.623947509765625,-0.31195068359375,-0.1255340576171875,-0.033660888671875
1782986918529022700,4.634022705078125,-0.3172760009765625,-0.1002197265625,-0.0445556640625
1782986918539096600,4.6440966796875,-0.39373779296875,-0.079437255859375,-0.079132080078125
1782986918549171700,4.654171630859375,-0.4529876708984375,-0.129364013671875,-0.1215362548828125
1782986918559245600,4.66424560546875,-0.4523162841796875,-0.162353515625,-0.0772705078125
1782986918569320700,4.67432080078125,-0.5015411376953125,-0.20123291015625,-0.0389556884765625
1782986918579394600,4.68439453125,-0.6226654052734375,-0.3003692626953125,-0.02288818359375
1782986918589469700,4.6944697265625,-0.838470458984375,-0.4196319580078125,-0.0325775146484375
1782986918599543600,4.70454345703125,-1.1480255126953125,-0.6270599365234375,-0.086456298828125
1782986918609618700,4.71461865234375,-1.41937255859375,-0.95391845703125,-0.1676483154296875
1782986918619692500,4.724692626953125,-1.693878173828125,-1.3462677001953125,-0.189788818359375
1782986918629766700,4.7347666015625,-2.069580078125,-1.6929473876953125,-0.155120849609375
1782986918639841500,4.744841552734375,-2.6782073974609375,-1.824737548828125,-0.152374267578125
1782986918649915600,4.75491552734375,-3.60858154296875,-1.695037841796875,-0.0107269287109375
1782986918659990500,4.764990478515625,-4.6104888916015625,-1.381134033203125,0.1968994140625
1782986918670064600,4.775064697265625,-5.378936767578125,-1.162353515625,0.3040618896484375
1782986918680139500,4.785139404296875,-5.49127197265625,-1.218994140625,0.3243408203125
1782986918690213600,4.795213623046875,-5.00054931640625,-1.34698486328125,0.4133453369140625
1782986918700287500,4.80528759765625,-4.3220977783203125,-1.3775177001953125,0.4331817626953125
1782986918710361600,4.815361572265625,-3.8032684326171875,-1.2962646484375,0.1658782958984375
1782986918720436500,4.8254365234375,-3.394927978515625,-1.1406707763671875,-0.126251220703125
1782986918730510600,4.835510498046875,-2.8794708251953125,-0.940521240234375,-0.3442840576171875
1782986918740585500,4.84558544921875,-2.1939849853515625,-0.774322509765625,-0.485626220703125
1782986918750659600,4.85565966796875,-1.3752288818359375,-0.62017822265625,-0.4185028076171875
1782986918760733700,4.865733642578125,-0.5696563720703125,-0.457977294921875,-0.2479400634765625
1782986918770808600,4.87580859375,0.0374603271484375,-0.3306732177734375,-0.039794921875
1782986918780882700,4.885882568359375,0.4534149169921875,-0.2291107177734375,0.1117706298828125
1782986918790957600,4.89595751953125,0.7291107177734375,-0.1172332763671875,0.1683502197265625
1782986918801031700,4.90603173828125,0.93719482421875,-0.053497314453125,0.1505279541015625
1782986918811106600,4.9161064453125,1.131805419921875,-0.01019287109375,0.13580322265625
1782986918821180700,4.9261806640625,1.287567138671875,-0.005401611328125,0.084747314453125
1782986918831255600,4.936255615234375,1.3525848388671875,0.0345611572265625,0.0131988525390625
1782986918841329700,4.94632958984375,1.2666778564453125,0.0775604248046875,-0.0713958740234375
1782986918851404500,4.956404541015625,1.029937744140625,0.1461639404296875,-0.1412200927734375
1782986918861478700,4.966478759765625,0.6905975341796875,0.24505615234375,-0.194854736328125
1782986918871552800,4.976552734375,0.2946624755859375,0.31549072265625,-0.2264404296875
1782986918881627600,4.986627685546875,-0.09326171875,0.3851165771484375,-0.262420654296875
1782986918891701800,4.99670166015625,-0.415924072265625,0.403411865234375,-0.275970458984375
1782986918901776600,5.006776611328125,-0.651458740234375,0.4222412109375,-0.2087860107421875
1782986918911850800,5.016850830078125,-0.767059326171875,0.3911285400390625,-0.1381072998046875
1782986918921925600,5.026925537109375,-0.7023468017578125,0.3120574951171875,-0.0758056640625
1782986918931999700,5.036999755859375,-0.4969329833984375,0.2253875732421875,-0.0229644775390625
1782986918942074600,5.04707470703125,-0.2613067626953125,0.1321563720703125,0.0238494873046875
1782986918952148700,5.057148681640625,-0.071502685546875,0.05078125,0.0705108642578125
1782986918962222600,5.06722265625,0.023651123046875,-0.009674072265625,0.080352783203125
1782986918972297700,5.077297607421875,0.056060791015625,-0.032318115234375,0.0657501220703125
1782986918982371600,5.08737158203125,0.041107177734375,-0.043853759765625,0.067474365234375
1782986918992446700,5.09744677734375,0.0012359619140625,-0.05828857421875,0.0777740478515625
1782986919002520600,5.1075205078125,-0.0238189697265625,-0.0816802978515625,0.0804901123046875
1782986919012595700,5.117595703125,-0.0292510986328125,-0.1101226806640625,0.089080810546875
1782986919022669600,5.127669677734375,-0.04046630859375,-0.1295928955078125,0.1000213623046875
1782986919032744700,5.13774462890625,-0.0552520751953125,-0.1382293701171875,0.0908203125
1782986919042819600,5.147819580078125,-0.0823516845703125,-0.140167236328125,0.0753631591796875
1782986919052893700,5.157893798828125,-0.1007080078125,-0.1473236083984375,0.0472412109375
1782986919062968600,5.167968505859375,-0.1201934814453125,-0.1463165283203125,0.0382537841796875
1782986919073042700,5.178042724609375,-0.1696319580078125,-0.148162841796875,0.031219482421875
1782986919083117800,5.188117919921875,-0.244903564453125,-0.1662750244140625,0.0252227783203125
1782986919093191400,5.19819140625,-0.357666015625,-0.1851806640625,0.03448486328125
1782986919103265300,5.208265380859375,-0.52520751953125,-0.220001220703125,0.0222625732421875
1782986919113340400,5.21834033203125,-0.716766357421875,-0.2589569091796875,0.0149993896484375
1782986919123414300,5.228414306640625,-0.9337005615234375,-0.2986907958984375,0.0391082763671875
1782986919133489400,5.238489501953125,-1.1981658935546875,-0.368408203125,0.050537109375
1782986919143563300,5.248563232421875,-1.567840576171875,-0.4951934814453125,0.0462646484375
1782986919153638400,5.258638427734375,-2.0339202880859375,-0.7176361083984375,0.0572357177734375
1782986919163712300,5.268712158203125,-2.4022674560546875,-0.928802490234375,0.0640716552734375
1782986919173787400,5.278787353515625,-2.6067962646484375,-1.173126220703125,0.095428466796875
1782986919183861200,5.288861328125,-2.7302093505859375,-1.4491119384765625,0.2246551513671875
1782986919193936400,5.298936279296875,-2.907989501953125,-1.6614837646484375,0.2447052001953125
1782986919204010200,5.30901025390625,-3.1409149169921875,-1.7463531494140625,0.1558685302734375
1782986919214085400,5.31908544921875,-3.3652801513671875,-1.811553955078125,0.0792694091796875
1782986919224159200,5.3291591796875,-3.3165435791015625,-1.831817626953125,0.03533935546875
1782986919234233300,5.3392333984375,-3.160736083984375,-1.732757568359375,-0.008270263671875
1782986919244308200,5.34930810546875,-3.326934814453125,-1.382110595703125,-0.194244384765625
1782986919254382300,5.35938232421875,-3.6668243408203125,-0.8970184326171875,-0.4170989990234375
1782986919264457200,5.369457275390625,-3.9466705322265625,-0.4559478759765625,-0.5438385009765625
1782986919274531300,5.37953125,-3.8937835693359375,-0.1745147705078125,-0.602935791015625
1782986919284606200,5.389606201171875,-3.277679443359375,-0.121002197265625,-0.5699920654296875
1782986919294680300,5.399680419921875,-2.4326934814453125,-0.1666259765625,-0.3708343505859375
1782986919304755200,5.409755126953125,-1.621551513671875,-0.2201995849609375,-0.18658447265625
1782986919314829300,5.419829345703125,-0.9932708740234375,-0.3175201416015625,-0.03973388671875
1782986919324904200,5.429904296875,-0.5111846923828125,-0.3302459716796875,-0.019775390625
1782986919334978300,5.439978271484375,-0.0979156494140625,-0.2695465087890625,-0.1353607177734375
1782986919345052200,5.45005224609375,0.3232574462890625,-0.20758056640625,-0.2153167724609375
1782986919355127300,5.460127197265625,0.7345428466796875,-0.1987152099609375,-0.1611785888671875
1782986919365201200,5.470201171875,1.0588836669921875,-0.208099365234375,-0.00384521484375
1782986919375276300,5.4802763671875,1.2349700927734375,-0.2407379150390625,0.125640869140625
1782986919385350100,5.49035009765625,1.204925537109375,-0.2969818115234375,0.11981201171875
1782986919395425300,5.50042529296875,1.017242431640625,-0.281829833984375,0.1006622314453125
1782986919405499100,5.5104990234375,0.7288055419921875,-0.2191314697265625,0.0880279541015625
1782986919415574300,5.52057421875,0.410003662109375,-0.1305389404296875,0.041290283203125
1782986919425648000,5.530648193359375,0.1408233642578125,-0.0594329833984375,-0.0433502197265625
1782986919435722200,5.54072216796875,-0.0152587890625,-0.0210723876953125,-0.079132080078125
1782986919445797000,5.550797119140625,-0.08477783203125,0.0106201171875,-0.0761260986328125
1782986919455871200,5.560871337890625,-0.08807373046875,0.05230712890625,-0.0793914794921875
1782986919465946000,5.570946044921875,-0.1003265380859375,0.076385498046875,-0.06622314453125
1782986919476020200,5.581020263671875,-0.1424713134765625,0.10223388671875,-0.0395050048828125
1782986919486095000,5.59109521484375,-0.180328369140625,0.1220245361328125,-0.0142974853515625
1782986919496169200,5.601169189453125,-0.20538330078125,0.1218414306640625,0.0283355712890625
1782986919506244000,5.611244140625,-0.2409515380859375,0.1198577880859375,0.0649261474609375
1782986919516318200,5.621318115234375,-0.27850341796875,0.1056976318359375,0.0742645263671875
1782986919526393000,5.63139306640625,-0.2738800048828125,0.082763671875,0.074066162109375
1782986919536467200,5.64146728515625,-0.2509613037109375,0.070281982421875,0.06951904296875
1782986919546542000,5.6515419921875,-0.180389404296875,0.048919677734375,0.0411529541015625
1782986919556616200,5.6616162109375,-0.103485107421875,0.040496826171875,0.010406494140625
1782986919566690300,5.671690185546875,-0.0535888671875,0.0230712890625,-0.0084686279296875
1782986919576765200,5.68176513671875,-0.0248870849609375,-0.0116424560546875,-0.0260467529296875
1782986919586839300,5.69183935546875,-0.017730712890625,-0.043548583984375,-0.0352935791015625
1782986919596914200,5.7019140625,-0.0388946533203125,-0.0883331298828125,-0.0274810791015625
1782986919606988300,5.71198828125,-0.074737548828125,-0.1278076171875,-0.01220703125
1782986919617063200,5.722063232421875,-0.107574462890625,-0.1568603515625,0.012451171875
1782986919627137300,5.73213720703125,-0.1568603515625,-0.15899658203125,0.0481109619140625
1782986919637212200,5.742212158203125,-0.2274322509765625,-0.15216064453125,0.052032470703125
1782986919647286300,5.752286376953125,-0.29779052734375,-0.1642608642578125,0.0113983154296875
1782986919657360400,5.7623603515625,-0.379669189453125,-0.1634979248046875,-0.025665283203125
1782986919667435300,5.772435302734375,-0.51092529296875,-0.2233428955078125,-0.0310516357421875
1782986919677509400,5.78250927734375,-0.672393798828125,-0.37884521484375,-0.0481414794921875
1782986919687584300,5.792584228515625,-0.9295654296875,-0.581390380859375,-0.0801544189453125
1782986919697658400,5.802658447265625,-1.3820953369140625,-0.88623046875,-0.089874267578125
1782986919707733200,5.812733154296875,-2.051666259765625,-1.24945068359375,-0.104156494140625
1782986919717807400,5.822807373046875,-2.7291259765625,-1.455780029296875,-0.0933380126953125
1782986919727882500,5.832882568359375,-3.2947845458984375,-1.5125732421875,0.0045623779296875
1782986919737956400,5.842956298828125,-3.7514190673828125,-1.5021209716796875,0.0692901611328125
1782986919748031500,5.853031494140625,-4.0062408447265625,-1.590576171875,-0.0081787109375
1782986919758105300,5.863105224609375,-3.9683380126953125,-1.6265411376953125,-0.0738525390625
1782986919768180500,5.873180419921875,-3.8943634033203125,-1.65692138671875,-0.0029754638671875
1782986919778254300,5.88325439453125,-3.911407470703125,-1.5833892822265625,0.0716094970703125
1782986919788328200,5.893328125,-3.938018798828125,-1.267547607421875,0.0119171142578125
1782986919798403300,5.9034033203125,-3.825897216796875,-0.944549560546875,-0.1944732666015625
1782986919808477200,5.913477294921875,-3.51751708984375,-0.7331390380859375,-0.337554931640625
1782986919818552300,5.92355224609375,-2.8663482666015625,-0.62542724609375,-0.404937744140625
1782986919828626200,5.933626220703125,-1.9544677734375,-0.568511962890625,-0.3653106689453125
1782986919838701300,5.943701416015625,-1.00927734375,-0.5436248779296875,-0.2066650390625
1782986919848775400,5.953775390625,-0.242462158203125,-0.5301666259765625,-0.021759033203125
1782986919858850300,5.963850341796875,0.281005859375,-0.4791107177734375,0.070770263671875
1782986919868924400,5.97392431640625,0.492431640625,-0.4119873046875,0.14056396484375
1782986919878999300,5.983999267578125,0.509918212890625,-0.372650146484375,0.1805267333984375
1782986919889073400,5.994073486328125,0.5226287841796875,-0.29034423828125,0.133880615234375
1782986919899147300,6.004147216796875,0.5934906005859375,-0.205322265625,0.0552215576171875
1782986919909222400,6.014222412109375,0.6929779052734375,-0.1449432373046875,0.0098876953125
1782986919919296300,6.024296142578125,0.781341552734375,-0.0971221923828125,0.0182037353515625
1782986919929371400,6.034371337890625,0.8148651123046875,-0.03302001953125,0.0599212646484375
1782986919939445200,6.0444453125,0.743377685546875,0.01129150390625,0.092620849609375
1782986919949520400,6.054520263671875,0.573699951171875,0.066986083984375,0.114105224609375
1782986919959594200,6.06459423828125,0.3449249267578125,0.1325836181640625,0.081298828125
1782986919969669400,6.07466943359375,0.040985107421875,0.18829345703125,0.05914306640625
1782986919979743200,6.0847431640625,-0.259552001953125,0.20330810546875,-0.0067291259765625
1782986919989818400,6.094818359375,-0.48431396484375,0.22119140625,-0.025482177734375
1782986919999892200,6.104892333984375,-0.5688934326171875,0.1964111328125,-0.03704833984375
1782986920009966300,6.11496630859375,-0.5140838623046875,0.1639404296875,-0.0609130859375
1782986920020041200,6.125041259765625,-0.3515167236328125,0.137603759765625,-0.062408447265625
1782986920030115300,6.135115234375,-0.18096923828125,0.12017822265625,-0.0679779052734375
1782986920040190200,6.145190185546875,-0.0848846435546875,0.0902557373046875,-0.082611083984375
1782986920050264300,6.155264404296875,-0.0569610595703125,0.0667266845703125,-0.0803985595703125
1782986920060339200,6.165339111328125,-0.067718505859375,0.042999267578125,-0.0788726806640625
1782986920070413300,6.175413330078125,-0.09942626953125,0.0289764404296875,-0.07965087890625
1782986920080488200,6.18548828125,-0.1114959716796875,0.006500244140625,-0.0783843994140625
1782986920090562000,6.19556201171875,-0.098846435546875,-0.0062408447265625,-0.0557861328125
1782986920100637200,6.20563720703125,-0.0732574462890625,-0.0269317626953125,-0.0597076416015625
1782986920110711000,6.2157109375,-0.01837158203125,-0.0572357177734375,-0.0577850341796875
1782986920120785000,6.225784912109375,0.0487060546875,-0.0846405029296875,-0.05218505859375
1782986920130860000,6.235860107421875,0.1022491455078125,-0.1094512939453125,-0.0399627685546875
1782986920140934000,6.245933837890625,0.090606689453125,-0.1427459716796875,-0.0087432861328125
1782986920151009000,6.256009033203125,0.0140533447265625,-0.18927001953125,0.0316162109375
1782986920161083100,6.266083251953125,-0.0942535400390625,-0.2447509765625,0.0605926513671875
1782986920171158000,6.276157958984375,-0.222564697265625,-0.3143768310546875,0.1072235107421875
1782986920181232000,6.286232177734375,-0.3733367919921875,-0.3956146240234375,0.1404571533203125
1782986920191307000,6.29630712890625,-0.5851898193359375,-0.524017333984375,0.183441162109375
1782986920201381000,6.306381103515625,-0.8807220458984375,-0.70037841796875,0.2083892822265625
1782986920211456000,6.3164560546875,-1.324798583984375,-0.9081878662109375,0.18780517578125
1782986920221530000,6.326530029296875,-1.964874267578125,-1.1794281005859375,0.1604766845703125
1782986920231605000,6.33660498046875,-2.643951416015625,-1.565277099609375,0.116180419921875
1782986920241679000,6.34667919921875,-3.08807373046875,-1.7914581298828125,-0.084808349609375
1782986920251753200,6.356753173828125,-3.371307373046875,-1.843841552734375,-0.4747467041015625
1782986920261828000,6.366828125,-3.70928955078125,-1.9361572265625,-0.8097686767578125
1782986920271902200,6.376902099609375,-3.9184112548828125,-1.991943359375,-0.9221954345703125
1782986920281977000,6.38697705078125,-3.75616455078125,-1.980743408203125,-0.8296051025390625
1782986920292051200,6.39705126953125,-3.5274658203125,-1.8805084228515625,-0.63140869140625
1782986920302126000,6.4071259765625,-3.4619140625,-1.6447296142578125,-0.5742950439453125
1782986920312200200,6.4172001953125,-3.635528564453125,-1.24658203125,-0.4935302734375
1782986920322275000,6.427275146484375,-3.83355712890625,-0.9832916259765625,-0.29217529296875
1782986920332349200,6.43734912109375,-3.4961395263671875,-0.88165283203125,-0.24560546875
1782986920342424000,6.447424072265625,-2.7396240234375,-0.765472412109375,-0.202728271484375
1782986920352498200,6.457498291015625,-1.9490966796875,-0.6103363037109375,-0.21221923828125
1782986920362572300,6.467572265625,-1.247589111328125,-0.4001007080078125,-0.3071441650390625
1782986920372647200,6.477647216796875,-0.7012786865234375,-0.1986846923828125,-0.3017425537109375
1782986920382721300,6.48772119140625,-0.31976318359375,-0.06256103515625,-0.18560791015625
1782986920392796200,6.497796142578125,0.024932861328125,-0.046722412109375,-0.027099609375
1782986920402870300,6.507870361328125,0.4184722900390625,-0.062774658203125,0.0887908935546875
1782986920412945200,6.517945068359375,0.83990478515625,-0.114166259765625,0.2016448974609375
1782986920423019300,6.528019287109375,1.200531005859375,-0.1979217529296875,0.2545013427734375
1782986920433094100,6.53809423828125,1.417877197265625,-0.207183837890625,0.34234619140625
1782986920443168300,6.548168212890625,1.4179534912109375,-0.1477813720703125,0.3162689208984375
1782986920453242000,6.5582421875,1.136260986328125,-0.050140380859375,0.220428466796875
1782986920463317200,6.568317138671875,0.703369140625,0.0223846435546875,0.1454620361328125
1782986920473391000,6.57839111328125,0.3377685546875,0.1049346923828125,0.0602264404296875
1782986920483466200,6.58846630859375,0.100799560546875,0.1398773193359375,-0.020660400390625
1782986920493540000,6.5985400390625,-0.022979736328125,0.16845703125,-0.046905517578125
1782986920503615200,6.608615234375,-0.066162109375,0.150054931640625,-0.082366943359375
1782986920513689000,6.618689208984375,-0.0264892578125,0.1247100830078125,-0.095184326171875
1782986920523764200,6.62876416015625,0.059417724609375,0.0915985107421875,-0.0886077880859375
1782986920533838000,6.638838134765625,0.1131134033203125,0.0535888671875,-0.0829010009765625
1782986920543913200,6.648913330078125,0.12823486328125,0.0184173583984375,-0.0708770751953125
1782986920553987000,6.658987060546875,0.1230621337890625,0.0072784423828125,-0.0514678955078125
1782986920564062200,6.669062255859375,0.0916748046875,0.0011138916015625,-0.0477752685546875
1782986920574136000,6.679135986328125,0.0334625244140625,0.004425048828125,-0.05682373046875
1782986920584210200,6.689210205078125,-0.037261962890625,0.007171630859375,-0.063323974609375
1782986920594285000,6.69928515625,-0.13641357421875,0.0145111083984375,-0.0472869873046875
1782986920604359200,6.709359130859375,-0.252349853515625,0.01605224609375,-0.0374603271484375
1782986920614434000,6.71943408203125,-0.333038330078125,0.00177001953125,-0.046051025390625
1782986920624508200,6.729508056640625,-0.3514556884765625,-0.019195556640625,-0.05316162109375
1782986920634583000,6.7395830078125,-0.31201171875,-0.0431976318359375,-0.050140380859375
1782986920644657200,6.7496572265625,-0.2499542236328125,-0.0704803466796875,-0.0359344482421875
1782986920654732000,6.75973193359375,-0.2075042724609375,-0.102630615234375,-0.02935791015625
1782986920664806100,6.76980615234375,-0.1693267822265625,-0.1173095703125,-0.0126953125
1782986920674881300,6.77988134765625,-0.16119384765625,-0.1400909423828125,0.0219268798828125
1782986920684955100,6.789955078125,-0.2008056640625,-0.16204833984375,0.057220458984375
1782986920695029000,6.800029052734375,-0.3000030517578125,-0.1703643798828125,0.0876922607421875
1782986920705104100,6.810104248046875,-0.459686279296875,-0.19720458984375,0.0796966552734375
1782986920715178000,6.820177978515625,-0.633819580078125,-0.23895263671875,0.036712646484375
1782986920725253000,6.830253173828125,-0.803680419921875,-0.2933502197265625,-0.0147552490234375
1782986920735327000,6.840326904296875,-0.9879913330078125,-0.4221038818359375,-0.0645904541015625
1782986920745402000,6.850402099609375,-1.139190673828125,-0.5793609619140625,-0.1191558837890625
1782986920755476000,6.86047607421875,-1.3087005615234375,-0.786163330078125,-0.1493988037109375
1782986920765551000,6.870551025390625,-1.529571533203125,-1.085052490234375,-0.1664276123046875
1782986920775625000,6.880625,-1.878875732421875,-1.3199615478515625,-0.234954833984375
1782986920785699000,6.890698974609375,-2.361602783203125,-1.4567718505859375,-0.36138916015625
1782986920795774200,6.900774169921875,-2.83349609375,-1.5091552734375,-0.3929595947265625
1782986920805848000,6.91084814453125,-3.26873779296875,-1.581939697265625,-0.3260955810546875
1782986920815923200,6.920923095703125,-3.529693603515625,-1.594879150390625,-0.2938385009765625
1782986920825997000,6.9309970703125,-3.7275390625,-1.5075531005859375,-0.2936248779296875
1782986920836072200,6.941072265625,-3.973876953125,-1.3319091796875,-0.42181396484375
1782986920846146000,6.95114599609375,-4.22210693359375,-1.02301025390625,-0.46466064453125
1782986920856221200,6.96122119140625,-4.249237060546875,-0.727447509765625,-0.516082763671875
1782986920866295000,6.971294921875,-3.888916015625,-0.5906982421875,-0.590667724609375
1782986920876370200,6.9813701171875,-3.1933441162109375,-0.548553466796875,-0.54827880859375
1782986920886444000,6.991444091796875,-2.2562408447265625,-0.5026092529296875,-0.4432373046875
1782986920896519200,7.001519287109375,-1.41619873046875,-0.425262451171875,-0.3524322509765625
1782986920906593000,7.011593017578125,-0.931610107421875,-0.3162689208984375,-0.253082275390625
1782986920916667100,7.021667236328125,-0.775238037109375,-0.208282470703125,-0.1454925537109375
1782986920926742000,7.031741943359375,-0.778228759765625,-0.107391357421875,-0.0399169921875
1782986920936816000,7.041816162109375,-0.8276519775390625,-0.0373687744140625,0.010162353515625
1782986920946891000,7.05189111328125,-0.7975311279296875,-0.033660888671875,0.07208251953125
1782986920956965000,7.061965087890625,-0.585235595703125,-0.1320343017578125,0.104461669921875
1782986920967040000,7.0720400390625,-0.2053070068359375,-0.2093658447265625,0.110870361328125
1782986920977114000,7.082114013671875,0.2172393798828125,-0.2424774169921875,0.1075897216796875
1782986920987189000,7.09218896484375,0.6077880859375,-0.3026885986328125,0.0954742431640625
1782986920997263000,7.10226318359375,0.9896697998046875,-0.300750732421875,0.091705322265625
1782986921007338000,7.112337890625,1.2502593994140625,-0.315673828125,0.0946044921875
1782986921017412000,7.122412109375,1.264404296875,-0.261627197265625,0.0509033203125
1782986921027486200,7.132486328125,1.0548095703125,-0.157012939453125,-0.006439208984375
1782986921037561000,7.14256103515625,0.691497802734375,-0.0576629638671875,-0.0159149169921875
1782986921047635200,7.15263525390625,0.2756195068359375,0.01336669921875,-0.0579833984375
1782986921057710000,7.1627099609375,-0.07049560546875,0.06317138671875,-0.0946807861328125
1782986921067784200,7.1727841796875,-0.3272247314453125,0.1043853759765625,-0.10284423828125
1782986921077859000,7.182859130859375,-0.4981689453125,0.105865478515625,-0.123992919921875
1782986921087933200,7.19293310546875,-0.5383453369140625,0.110992431640625,-0.075836181640625
1782986921098008300,7.20300830078125,-0.4615478515625,0.08819580078125,-0.0468292236328125
1782986921108082400,7.21308251953125,-0.3303985595703125,0.0593109130859375,-0.03790283203125
1782986921118157300,7.2231572265625,-0.216400146484375,0.029754638671875,-0.025177001953125
1782986921128231400,7.2332314453125,-0.14190673828125,0.0154266357421875,-0.0140380859375
1782986921138306300,7.243306396484375,-0.0920257568359375,0.004302978515625,-0.0124664306640625
1782986921148380400,7.25338037109375,-0.087249755859375,-0.0005950927734375,-0.0093536376953125
1782986921158454500,7.26345458984375,-0.1269073486328125,-0.0028839111328125,0.0076446533203125
1782986921168529400,7.273529296875,-0.19390869140625,-0.004180908203125,0.0133056640625
1782986921178603500,7.283603515625,-0.250274658203125,-0.0199737548828125,0.0205078125
1782986921188678400,7.293678466796875,-0.2839508056640625,-0.021209716796875,0.02252197265625
1782986921198752500,7.30375244140625,-0.3008575439453125,-0.0224456787109375,0.00732421875
1782986921208827400,7.313827392578125,-0.29931640625,-0.0271148681640625,0.0002288818359375
1782986921218901500,7.323901611328125,-0.266693115234375,-0.0303802490234375,0.0006866455078125
1782986921228976400,7.333976318359375,-0.22125244140625,-0.0334014892578125,-0.008270263671875
1782986921239050500,7.344050537109375,-0.2082977294921875,-0.0196380615234375,-0.01239013671875
1782986921249125400,7.35412548828125,-0.2948760986328125,0.0173797607421875,-0.01861572265625
1782986921259199500,7.364199462890625,-0.4386444091796875,0.000457763671875,-0.0605926513671875
1782986921269273600,7.374273681640625,-0.6479949951171875,-0.0351104736328125,-0.0789337158203125
1782986921279348500,7.384348388671875,-0.9785614013671875,-0.06634521484375,-0.0732879638671875
1782986921289422600,7.394422607421875,-1.3863372802734375,-0.22601318359375,-0.0977020263671875
1782986921299497500,7.40449755859375,-1.667999267578125,-0.5191650390625,-0.137786865234375
1782986921309571600,7.414571533203125,-1.679046630859375,-0.8574981689453125,-0.092437744140625
1782986921319646700,7.424646728515625,-1.67901611328125,-1.215606689453125,0.0119476318359375
1782986921329720600,7.434720458984375,-2.0640869140625,-1.50860595703125,0.053314208984375
1782986921339795700,7.444795654296875,-3.02130126953125,-1.4827117919921875,0.2321929931640625
1782986921349869600,7.45486962890625,-4.2457122802734375,-1.3344573974609375,0.4272003173828125
1782986921359944700,7.46494482421875,-5.011566162109375,-1.2628173828125,0.4513092041015625
1782986921370018600,7.4750185546875,-5.048675537109375,-1.2073516845703125,0.6606597900390625
1782986921380092400,7.485092529296875,-4.72943115234375,-1.21722412109375,0.7286834716796875
1782986921390167600,7.49516748046875,-4.5789794921875,-1.1334228515625,0.5311279296875
1782986921400241400,7.505241455078125,-4.4792633056640625,-0.976776123046875,0.33148193359375
1782986921410316500,7.515316650390625,-4.1004486083984375,-0.79736328125,0.1644439697265625
1782986921420390400,7.525390380859375,-3.3492279052734375,-0.699859619140625,-0.0853729248046875
1782986921430465500,7.535465576171875,-2.3520660400390625,-0.5420684814453125,-0.2833404541015625
1782986921440539600,7.54553955078125,-1.4102325439453125,-0.3398590087890625,-0.3919525146484375
1782986921450614500,7.555614501953125,-0.62445068359375,-0.169525146484375,-0.38897705078125
1782986921460688600,7.565688720703125,-0.0171051025390625,-0.0514678955078125,-0.2860870361328125
1782986921470763500,7.575763427734375,0.41265869140625,0.032379150390625,-0.1272430419921875
1782986921480837600,7.585837646484375,0.750030517578125,0.077606201171875,-0.0158538818359375
1782986921490911500,7.595911376953125,1.010498046875,0.022857666015625,0.0276031494140625
1782986921500986600,7.605986572265625,1.23846435546875,-0.0130462646484375,0.0894317626953125
1782986921511060500,7.616060546875,1.4576416015625,-0.0256195068359375,0.0604095458984375
1782986921521135600,7.626135498046875,1.5630340576171875,0.0138702392578125,0.0235748291015625
1782986921531209500,7.63620947265625,1.4525604248046875,0.087677001953125,0.017364501953125
1782986921541284600,7.64628466796875,1.1063232421875,0.156982421875,0.004486083984375
1782986921551358500,7.6563583984375,0.6388397216796875,0.2348480224609375,-0.0341796875
1782986921561433600,7.66643359375,0.1726531982421875,0.2715911865234375,-0.07720947265625
1782986921571507500,7.676507568359375,-0.20245361328125,0.27593994140625,-0.0763092041015625
1782986921581582600,7.68658251953125,-0.447662353515625,0.2553558349609375,-0.0500030517578125
1782986921591656400,7.696656494140625,-0.593658447265625,0.2244720458984375,-0.01007080078125
1782986921601730600,7.70673046875,-0.633087158203125,0.1788787841796875,0.048309326171875
1782986921611805400,7.716805419921875,-0.5792083740234375,0.132965087890625,0.0800628662109375
1782986921621879600,7.726879638671875,-0.485626220703125,0.0704193115234375,0.0769805908203125
1782986921631954400,7.736954345703125,-0.3704376220703125,-0.0012054443359375,0.069244384765625
1782986921642028500,7.747028564453125,-0.25018310546875,-0.0497589111328125,0.053466796875
1782986921652103400,7.757103515625,-0.1338958740234375,-0.0976104736328125,0.0221099853515625
1782986921662177500,7.767177490234375,-0.0541229248046875,-0.13104248046875,-0.014190673828125
1782986921672252400,7.77725244140625,0.0002593994140625,-0.1287994384765625,-0.0473175048828125
1782986921682326500,7.787326416015625,0.0001220703125,-0.132659912109375,-0.054901123046875
1782986921692401400,7.7974013671875,-0.04425048828125,-0.132354736328125,-0.0590057373046875
1782986921702475500,7.8074755859375,-0.058380126953125,-0.1385955810546875,-0.066619873046875
1782986921712549400,7.81754931640625,-0.0345306396484375,-0.13165283203125,-0.04962158203125
1782986921722624500,7.82762451171875,0.0061492919921875,-0.130615234375,-0.033935546875
1782986921732698400,7.837698486328125,0.028778076171875,-0.1258392333984375,-0.0243377685546875
1782986921742773500,7.8477734375,0.0199737548828125,-0.109710693359375,-0.0326690673828125
1782986921752847400,7.857847412109375,-0.0341033935546875,-0.0861663818359375,-0.0484466552734375
1782986921762922500,7.867922607421875,-0.1091461181640625,-0.0703887939453125,-0.0529022216796875
1782986921772996400,7.877996337890625,-0.182830810546875,-0.0801849365234375,-0.042724609375
1782986921783071500,7.888071533203125,-0.2772064208984375,-0.105682373046875,-0.006805419921875
1782986921793145300,7.898145263671875,-0.420257568359375,-0.1728057861328125,0.0337677001953125
1782986921803220500,7.908220458984375,-0.651611328125,-0.3038330078125,0.072357177734375
1782986921813294300,7.91829443359375,-0.9915924072265625,-0.5413665771484375,0.1014251708984375
1782986921823368400,7.928368408203125,-1.4639129638671875,-0.90008544921875,0.14434814453125
1782986921833443300,7.938443359375,-2.041412353515625,-1.3019561767578125,0.1016082763671875
1782986921843517400,7.948517333984375,-2.60528564453125,-1.547027587890625,-0.0785675048828125
1782986921853592300,7.95859228515625,-3.133026123046875,-1.6138153076171875,-0.255523681640625
1782986921863666400,7.96866650390625,-3.641265869140625,-1.5951690673828125,-0.459259033203125
1782986921873741300,7.9787412109375,-4.1050262451171875,-1.5594024658203125,-0.5591278076171875
1782986921883815400,7.9888154296875,-4.29052734375,-1.6046142578125,-0.4803466796875
1782986921893890300,7.998890380859375,-4.1619720458984375,-1.5849151611328125,-0.3717803955078125
1782986921903964400,8.00896435546875,-3.9984588623046875,-1.52899169921875,-0.2144775390625
1782986921914039300,8.019039306640625,-3.9845123291015625,-1.33209228515625,-0.1603851318359375
1782986921924113400,8.029113525390626,-4.0789337158203125,-1.06036376953125,-0.110626220703125
1782986921934188300,8.039188232421875,-3.900482177734375,-0.867767333984375,-0.0214385986328125
1782986921944262400,8.049262451171876,-3.230499267578125,-0.768463134765625,0.06866455078125
1782986921954336500,8.05933642578125,-2.25885009765625,-0.652252197265625,0.1397857666015625
1782986921964411400,8.069411376953125,-1.3382568359375,-0.49200439453125,0.180419921875
1782986921974485500,8.079485595703124,-0.6900787353515625,-0.3609161376953125,0.214935302734375
1782986921984560400,8.089560302734375,-0.302032470703125,-0.1820831298828125,0.2246856689453125
1782986921994634500,8.099634521484376,-0.0590667724609375,-0.048675537109375,0.1462249755859375
1782986922004709400,8.10970947265625,0.1153106689453125,0.05450439453125,0.013641357421875
1782986922014783500,8.119783447265625,0.369537353515625,0.072662353515625,-0.0585174560546875
1782986922024858400,8.1298583984375,0.7319183349609375,0.0345001220703125,-0.087738037109375
1782986922034932500,8.139932373046875,1.1103973388671875,-0.0056915283203125,-0.1127777099609375
1782986922045007400,8.15000732421875,1.42364501953125,-0.019622802734375,-0.1802978515625
1782986922055081500,8.16008154296875,1.5006103515625,0.028106689453125,-0.2322845458984375
1782986922065156400,8.17015625,1.2621612548828125,0.0929412841796875,-0.2490081787109375
1782986922075230700,8.180230712890625,0.8063201904296875,0.1723785400390625,-0.231353759765625
1782986922085304600,8.1903046875,0.268341064453125,0.2579498291015625,-0.2186279296875
1782986922095379000,8.20037890625,-0.2603607177734375,0.274871826171875,-0.1667327880859375
1782986922105453000,8.210453125,-0.642852783203125,0.259490966796875,-0.13446044921875
1782986922115528000,8.22052783203125,-0.7680206298828125,0.2188873291015625,-0.1017303466796875
1782986922125602000,8.23060205078125,-0.655853271484375,0.1444244384765625,-0.0452117919921875
1782986922135677000,8.240677001953125,-0.4077301025390625,0.064544677734375,0.0240020751953125
1782986922145751000,8.2507509765625,-0.2109832763671875,0.01007080078125,0.05908203125
1782986922155826200,8.260826171875,-0.1309814453125,-0.025848388671875,0.0729217529296875
1782986922165900000,8.270900146484376,-0.1214599609375,-0.0560760498046875,0.069732666015625
1782986922175975200,8.28097509765625,-0.1226806640625,-0.0738067626953125,0.063018798828125
1782986922186049000,8.291049072265626,-0.0999755859375,-0.0771331787109375,0.0718231201171875
1782986922196123000,8.301122802734374,-0.0585479736328125,-0.0877532958984375,0.0722198486328125
1782986922206198000,8.311197998046875,-0.0046844482421875,-0.0804595947265625,0.0714569091796875
1782986922216272000,8.32127197265625,0.0287017822265625,-0.0737762451171875,0.08087158203125
1782986922226347000,8.331346923828125,0.032867431640625,-0.078826904296875,0.0649261474609375
1782986922236420900,8.3414208984375,0.0383453369140625,-0.084686279296875,0.0325164794921875
1782986922246496000,8.35149609375,0.040191650390625,-0.0908050537109375,0.01763916015625
1782986922256569900,8.36156982421875,0.0427093505859375,-0.0830535888671875,0.0026397705078125
1782986922266645000,8.37164501953125,0.03717041015625,-0.0776824951171875,-0.0296783447265625
1782986922276719000,8.381718994140625,0.0132904052734375,-0.0814056396484375,-0.0600738525390625
1782986922286793000,8.39179296875,-0.0323333740234375,-0.085968017578125,-0.0693511962890625
1782986922296868000,8.4018681640625,-0.12750244140625,-0.0991668701171875,-0.08319091796875
1782986922306942000,8.41194189453125,-0.253692626953125,-0.137237548828125,-0.10162353515625
1782986922317017000,8.42201708984375,-0.4135894775390625,-0.1920623779296875,-0.114105224609375
1782986922327091000,8.432091064453125,-0.61260986328125,-0.250885009765625,-0.1314849853515625
1782986922337166000,8.442166015625,-0.93829345703125,-0.3380889892578125,-0.181182861328125
1782986922347240000,8.452239990234375,-1.42218017578125,-0.5318756103515625,-0.2339630126953125
1782986922357315000,8.462315185546874,-1.8678741455078125,-0.8841400146484375,-0.2901611328125
1782986922367389000,8.472388916015625,-2.1155853271484375,-1.310516357421875,-0.42352294921875
1782986922377464000,8.482464111328126,-2.21588134765625,-1.7372283935546875,-0.586334228515625
1782986922387538000,8.492537841796874,-2.426239013671875,-2.0515594482421875,-0.585601806640625
1782986922397613000,8.502613037109375,-2.9912261962890625,-2.1300506591796875,-0.355682373046875
1782986922407687000,8.51268701171875,-3.8449554443359375,-2.141510009765625,0.0533447265625
1782986922417761000,8.522760986328125,-4.6889495849609375,-1.942657470703125,0.2317352294921875
1782986922427836000,8.5328359375,-5.10552978515625,-1.6193695068359375,0.2864837646484375
1782986922437910000,8.542909912109375,-4.821807861328125,-1.4441986083984375,0.2448577880859375
1782986922447985000,8.55298486328125,-4.0420074462890625,-1.381011962890625,0.0820465087890625
1782986922458059000,8.56305908203125,-3.32220458984375,-1.227325439453125,-0.045623779296875
1782986922468134000,8.5731337890625,-2.978790283203125,-1.0229034423828125,-0.2338409423828125
1782986922478208000,8.5832080078125,-2.69219970703125,-0.786468505859375,-0.322021484375
1782986922488283000,8.593282958984375,-2.149810791015625,-0.568450927734375,-0.373809814453125
1782986922498357000,8.60335693359375,-1.516754150390625,-0.2877349853515625,-0.3330230712890625
1782986922508432000,8.613431884765625,-1.0396728515625,-0.1192779541015625,-0.25286865234375
1782986922518506000,8.623506103515625,-0.6574554443359375,0.037078857421875,-0.167510986328125
1782986922528580900,8.633580810546874,-0.28765869140625,0.13531494140625,-0.0904998779296875
1782986922538655000,8.643655029296875,0.1446533203125,0.1846771240234375,-0.0419921875
1782986922548728800,8.653728759765626,0.64404296875,0.1927337646484375,-0.0446319580078125
1782986922558804000,8.663803955078125,1.1420745849609375,0.16015625,-0.02569580078125
1782986922568877800,8.6738779296875,1.519439697265625,0.1111297607421875,0.0210113525390625
1782986922578953000,8.683952880859374,1.63360595703125,0.0546875,0.068450927734375
1782986922589026800,8.69402685546875,1.4732666015625,0.1535186767578125,0.0707855224609375
1782986922599102000,8.70410205078125,1.0753021240234375,0.1620635986328125,0.1038970947265625
1782986922609175800,8.71417578125,0.57086181640625,0.208984375,0.1784210205078125
1782986922619251000,8.7242509765625,0.1103363037109375,0.241851806640625,0.2003173828125
1782986922629324800,8.73432470703125,-0.2736663818359375,0.2531280517578125,0.2390289306640625
1782986922639400000,8.74439990234375,-0.5602264404296875,0.24176025390625,0.2945709228515625
1782986922649473800,8.754473876953124,-0.6632080078125,0.199066162109375,0.298736572265625
1782986922659548200,8.764548095703125,-0.5478973388671875,0.1395263671875,0.25390625
1782986922669622800,8.774622802734376,-0.3582916259765625,0.095123291015625,0.2253265380859375
1782986922679697200,8.784697265625,-0.220703125,0.04193115234375,0.1744842529296875
1782986922689771800,8.794771728515625,-0.1551666259765625,0.023834228515625,0.083892822265625
1782986922699846100,8.80484619140625,-0.1386871337890625,0.0149688720703125,-0.009765625
1782986922709920000,8.814919921875,-0.1310272216796875,0.0125274658203125,-0.0903167724609375
1782986922719995100,8.8249951171875,-0.0851898193359375,0.009735107421875,-0.148223876953125
1782986922730069000,8.835069091796875,0.0058135986328125,-0.004058837890625,-0.1819915771484375
1782986922740143000,8.84514306640625,0.1226806640625,-0.0245513916015625,-0.17138671875
1782986922750218000,8.855218017578125,0.210418701171875,-0.046417236328125,-0.1490478515625
1782986922760292000,8.8652919921875,0.212005615234375,-0.050506591796875,-0.124114990234375
1782986922770367000,8.875366943359374,0.1739959716796875,-0.0500946044921875,-0.102081298828125
1782986922780441000,8.885441162109375,0.14227294921875,-0.0299072265625,-0.1121978759765625
1782986922790516000,8.895515869140626,0.088653564453125,-0.0139312744140625,-0.1354827880859375
1782986922800590000,8.905590087890625,0.02587890625,-0.0140533447265625,-0.1112060546875
1782986922810665000,8.9156650390625,-0.0087890625,-0.01513671875,-0.0900115966796875
1782986922820739000,8.925739013671874,-0.025665283203125,0.0023193359375,-0.0958404541015625
1782986922830814000,8.93581396484375,-0.089813232421875,0.017242431640625,-0.0808868408203125
1782986922840888000,8.94588818359375,-0.22283935546875,0.014007568359375,-0.0695648193359375
1782986922850962000,8.9559619140625,-0.4052734375,-0.0267486572265625,-0.0504302978515625
1782986922861037000,8.966037109375,-0.5788421630859375,-0.0791473388671875,-0.0386505126953125
1782986922871111000,8.97611083984375,-0.7940673828125,-0.1875,-0.0393524169921875
1782986922881186000,8.98618603515625,-1.114471435546875,-0.42034912109375,-0.00274658203125
1782986922891260000,8.996260009765624,-1.4698028564453125,-0.7698822021484375,0.046112060546875
1782986922901335000,9.0063349609375,-1.7852935791015625,-1.20367431640625,0.06744384765625
1782986922911409000,9.016408935546876,-2.09722900390625,-1.5912322998046875,-0.0859222412109375
1782986922921484000,9.026484130859375,-2.640228271484375,-1.789581298828125,-0.3645477294921875
1782986922931558000,9.036557861328125,-3.465301513671875,-1.7645111083984375,-0.47723388671875
1782986922941633000,9.046633056640625,-4.3472900390625,-1.722198486328125,-0.42596435546875
1782986922951707000,9.056706787109375,-4.826507568359375,-1.715576171875,-0.3443450927734375
1782986922961782000,9.066781982421874,-4.775634765625,-1.7602691650390625,-0.3147125244140625
1782986922971856000,9.07685595703125,-4.7053985595703125,-1.6958160400390625,-0.3704833984375
1782986922981930000,9.086929931640626,-4.91064453125,-1.4417877197265625,-0.4874114990234375
1782986922992004900,9.0970048828125,-5.0132598876953125,-1.146392822265625,-0.5033111572265625
1782986923002079000,9.107078857421875,-4.6613616943359375,-0.9271240234375,-0.3749847412109375
1782986923012153900,9.11715380859375,-3.74554443359375,-0.793182373046875,-0.1974334716796875
1782986923022228000,9.12722802734375,-2.543182373046875,-0.665069580078125,-0.07171630859375
1782986923032303000,9.13730322265625,-1.36883544921875,-0.4573516845703125,0.007293701171875
1782986923042377000,9.147376953125,-0.5143280029296875,-0.2584075927734375,-0.0017547607421875
1782986923052452000,9.1574521484375,-0.015655517578125,-0.0794525146484375,0.04193115234375
1782986923062526000,9.16752587890625,0.3323211669921875,0.029510498046875,0.114105224609375
1782986923072601000,9.17760107421875,0.6567840576171875,0.1045074462890625,0.1446075439453125
1782986923082675000,9.187675048828124,0.9561004638671875,0.1454620361328125,0.1526947021484375
1782986923092750300,9.197750244140625,1.243133544921875,0.1360015869140625,0.1194610595703125
1782986923102824200,9.20782421875,1.4785919189453125,0.13275146484375,0.0749053955078125
1782986923112899300,9.2178994140625,1.56451416015625,0.1419830322265625,0.06341552734375
1782986923122973200,9.22797314453125,1.452789306640625,0.1417999267578125,0.0157318115234375
1782986923133048300,9.23804833984375,1.1768951416015625,0.187896728515625,-0.0079498291015625
1782986923143122200,9.2481220703125,0.8016510009765625,0.2342376708984375,-0.0469970703125
1782986923153196300,9.2581962890625,0.3533477783203125,0.317657470703125,-0.0894622802734375
1782986923163271200,9.268271240234375,-0.1183013916015625,0.368316650390625,-0.1203155517578125
1782986923173345300,9.27834521484375,-0.4889373779296875,0.3637847900390625,-0.1205291748046875
1782986923183420200,9.288420166015625,-0.703216552734375,0.326934814453125,-0.1396942138671875
1782986923193494300,9.298494384765625,-0.747100830078125,0.27117919921875,-0.133331298828125
1782986923203569200,9.308569091796874,-0.6422576904296875,0.214874267578125,-0.1081390380859375
1782986923213643300,9.318643310546875,-0.4669342041015625,0.13555908203125,-0.0958099365234375
1782986923223718100,9.32871826171875,-0.28375244140625,0.0598907470703125,-0.1040802001953125
1782986923233792300,9.338792236328125,-0.1308746337890625,0.0088653564453125,-0.0890960693359375
1782986923243867100,9.3488671875,-0.02191162109375,-0.06219482421875,-0.0513458251953125
1782986923253941200,9.358941162109375,0.0392913818359375,-0.1142730712890625,-0.0197296142578125
1782986923264016100,9.36901611328125,0.0483551025390625,-0.1494903564453125,0.0091705322265625
1782986923274090200,9.37909033203125,0.019073486328125,-0.1775054931640625,0.023406982421875
1782986923284164000,9.3891640625,0.013031005859375,-0.1927490234375,0.0384063720703125
1782986923294239200,9.3992392578125,0.0195159912109375,-0.1951141357421875,0.0399627685546875
1782986923304313000,9.40931298828125,0.011505126953125,-0.1937408447265625,0.0306243896484375
1782986923314388200,9.41938818359375,0.012664794921875,-0.1923828125,0.0257720947265625
1782986923324462000,9.429462158203124,0.0139312744140625,-0.1871490478515625,0.04254150390625
1782986923334537200,9.439537109375,0.0026702880859375,-0.194671630859375,0.045623779296875
1782986923344611000,9.449611083984376,-0.0573883056640625,-0.1999664306640625,0.0405120849609375
1782986923354686200,9.459686279296875,-0.1630706787109375,-0.1982574462890625,0.05609130859375
1782986923364760000,9.469760009765626,-0.3156890869140625,-0.198577880859375,0.06689453125
1782986923374835200,9.479835205078125,-0.5080718994140625,-0.2038726806640625,0.0644683837890625
1782986923384909000,9.489908935546875,-0.7248382568359375,-0.216552734375,0.0397491455078125
1782986923394983200,9.499983154296874,-0.979888916015625,-0.2798919677734375,0.0423431396484375
1782986923405058000,9.51005810546875,-1.2124481201171875,-0.424346923828125,0.07568359375
1782986923415132200,9.520132080078126,-1.413055419921875,-0.6948089599609375,0.0614166259765625
1782986923425207000,9.53020703125,-1.6952972412109375,-1.08953857421875,0.0756683349609375
1782986923435281200,9.54028125,-2.086761474609375,-1.468658447265625,0.1306610107421875
1782986923445356000,9.55035595703125,-2.689361572265625,-1.6937408447265625,0.1372528076171875
1782986923455430100,9.56043017578125,-3.78460693359375,-1.6803436279296875,0.25872802734375
1782986923465505000,9.570505126953124,-5.0710601806640625,-1.4395294189453125,0.473663330078125
1782986923475579100,9.5805791015625,-5.867645263671875,-1.1909942626953125,0.3990631103515625
1782986923485654000,9.590654052734376,-5.8264617919921875,-1.0692138671875,0.2156829833984375
1782986923495728000,9.60072802734375,-5.2726898193359375,-1.0444488525390625,0.1269073486328125
1782986923505803300,9.61080322265625,-4.673095703125,-1.02691650390625,0.0290679931640625
1782986923515877000,9.620877197265624,-4.1123199462890625,-0.9986572265625,-0.0844573974609375
1782986923525951200,9.630951171875,-3.459320068359375,-0.9228973388671875,-0.09344482421875
1782986923536026000,9.641026123046874,-2.673492431640625,-0.844970703125,0.0378875732421875
1782986923546100200,9.651100341796875,-1.82763671875,-0.7369537353515625,0.1778411865234375
1782986923556175000,9.661175048828126,-1.1074066162109375,-0.592010498046875,0.2197418212890625
1782986923566249200,9.671249267578125,-0.585357666015625,-0.35125732421875,0.2286224365234375
1782986923576324400,9.681324462890625,-0.2515716552734375,-0.1029052734375,0.1884307861328125
1782986923586398200,9.691398193359374,-0.0220184326171875,0.095733642578125,0.08953857421875
1782986923596473300,9.701473388671875,0.23663330078125,0.21673583984375,0.0204620361328125
1782986923606547200,9.711547119140626,0.6080474853515625,0.2546234130859375,-0.048004150390625
1782986923616622300,9.721622314453125,1.0268707275390625,0.218170166015625,-0.060791015625
1782986923626696400,9.731696533203126,1.406158447265625,0.12994384765625,-0.00897216796875
1782986923636770300,9.741770263671874,1.63458251953125,0.045013427734375,0.005767822265625
1782986923646845400,9.751845458984375,1.6109619140625,-0.0026092529296875,-0.0112457275390625
1782986923656919300,9.761919189453126,1.3340301513671875,0.0528564453125,-0.0584259033203125
1782986923666994400,9.771994384765625,0.9306182861328125,0.144927978515625,-0.155670166015625
1782986923677068300,9.782068359375,0.477203369140625,0.1972808837890625,-0.227508544921875
1782986923687143400,9.792143310546875,0.0271759033203125,0.225616455078125,-0.2698516845703125
1782986923697217300,9.80221728515625,-0.3219146728515625,0.2542572021484375,-0.2906036376953125
1782986923707292400,9.81229248046875,-0.567108154296875,0.263519287109375,-0.2332611083984375
1782986923717366300,9.8223662109375,-0.6851654052734375,0.2416839599609375,-0.138397216796875
1782986923727441400,9.83244140625,-0.666900634765625,0.1926116943359375,-0.061431884765625
1782986923737515300,9.842515380859375,-0.530853271484375,0.1262054443359375,0.00506591796875
1782986923747590400,9.85259033203125,-0.3308258056640625,0.0536346435546875,0.0360260009765625
1782986923757664300,9.862664306640625,-0.13720703125,-0.014068603515625,0.046417236328125
1782986923767738400,9.87273828125,0.005096435546875,-0.0765228271484375,0.029571533203125
1782986923777813200,9.882813232421874,0.106475830078125,-0.123443603515625,0.0147857666015625
1782986923787887400,9.892887451171875,0.1622772216796875,-0.14801025390625,0.01556396484375
1782986923797962200,9.902962158203126,0.1837921142578125,-0.1569366455078125,0.0328826904296875
1782986923808036400,9.913036376953125,0.1942596435546875,-0.1538238525390625,0.0432586669921875
1782986923818111200,9.923111328125,0.1900634765625,-0.149139404296875,0.054931640625
1782986923828185300,9.933185302734374,0.146392822265625,-0.1389007568359375,0.0810394287109375
1782986923838260200,9.94326025390625,0.0739288330078125,-0.1204376220703125,0.07086181640625
1782986923848334300,9.953334228515626,0.0111541748046875,-0.098663330078125,0.0460205078125
1782986923858409200,9.9634091796875,-0.06341552734375,-0.0864410400390625,0.0364990234375
1782986923868483300,9.9734833984375,-0.171600341796875,-0.0804443359375,0.011688232421875
1782986923878558200,9.98355810546875,-0.288055419921875,-0.0502777099609375,-0.0233001708984375
1782986923888632300,9.99363232421875,-0.413421630859375,-0.03704833984375,-0.0480499267578125
1782986923898706200,10.0037060546875,-0.508209228515625,-0.0428924560546875,-0.066162109375
1782986923908781300,10.01378125,-0.5488433837890625,-0.0760498046875,-0.0751953125
1782986923918855200,10.023855224609376,-0.5408935546875,-0.1334686279296875,-0.0726470947265625
1782986923928930300,10.033930419921875,-0.578765869140625,-0.2021942138671875,-0.0390777587890625
1782986923939004200,10.044004150390625,-0.7273406982421875,-0.2945556640625,0.0169830322265625
1782986923949079300,10.054079345703125,-1.0298004150390625,-0.4728240966796875,0.103729248046875
1782986923959153200,10.064153076171875,-1.4105377197265625,-0.73651123046875,0.180877685546875
1782986923969228300,10.074228271484374,-1.740081787109375,-1.067901611328125,0.231170654296875
1782986923979302100,10.08430224609375,-1.953033447265625,-1.4816131591796875,0.247772216796875
1782986923989377300,10.094377197265626,-2.1632537841796875,-1.7376708984375,0.2478485107421875
1782986923999451100,10.104451171875,-2.64947509765625,-1.845367431640625,0.1807403564453125
1782986924009525200,10.114525146484375,-3.373138427734375,-1.870880126953125,0.1051788330078125
1782986924019600100,10.12460009765625,-4.02947998046875,-1.7611846923828125,0.1356353759765625
1782986924029674200,10.13467431640625,-4.3081207275390625,-1.7113037109375,0.1624908447265625
1782986924039749000,10.1447490234375,-4.26251220703125,-1.6925201416015625,0.2140655517578125
1782986924049823200,10.1548232421875,-4.1820526123046875,-1.6303558349609375,0.2397003173828125
1782986924059898000,10.164898193359376,-4.234283447265625,-1.4662628173828125,0.2187347412109375
1782986924069972200,10.17497216796875,-4.247314453125,-1.2492218017578125,0.2115020751953125
1782986924080047000,10.185047119140625,-3.8496856689453125,-1.0944061279296875,0.20660400390625
1782986924090121200,10.195121337890624,-2.98602294921875,-0.986175537109375,0.15325927734375
1782986924100196000,10.205196044921875,-1.89306640625,-0.857452392578125,0.0417938232421875
1782986924110270000,10.21527001953125,-0.8841552734375,-0.6153564453125,-0.0018463134765625
1782986924120345000,10.225344970703125,-0.1326446533203125,-0.411529541015625,-0.0021514892578125
1782986924130419000,10.2354189453125,0.362213134765625,-0.2283935546875,0.0365447998046875
1782986924140492800,10.245492919921874,0.66400146484375,-0.094146728515625,0.0196685791015625
1782986924150568000,10.25556787109375,0.8802947998046875,-0.0086669921875,0.0565948486328125
1782986924160641800,10.265641845703126,1.12725830078125,0.0141754150390625,0.0424041748046875
1782986924170717000,10.275717041015625,1.3585357666015625,0.01904296875,0.0751190185546875
1782986924180791000,10.285791015625,1.4424591064453125,0.04241943359375,0.0774078369140625
1782986924190866000,10.295865966796875,1.32037353515625,0.1251220703125,-0.0035247802734375
1782986924200940000,10.30593994140625,0.9375457763671875,0.2393951416015625,-0.04248046875
1782986924211015000,10.316014892578124,0.407073974609375,0.339111328125,-0.1021575927734375
1782986924221089000,10.326089111328125,-0.1164398193359375,0.3892364501953125,-0.148223876953125
1782986924231164000,10.336163818359376,-0.522918701171875,0.3720550537109375,-0.1601104736328125
1782986924241238000,10.346238037109375,-0.7187042236328125,0.3081512451171875,-0.2005767822265625
1782986924251312000,10.35631201171875,-0.688446044921875,0.2309417724609375,-0.2466888427734375
1782986924261387000,10.366386962890624,-0.55853271484375,0.1697998046875,-0.2297515869140625
1782986924271461000,10.376461181640625,-0.436279296875,0.093048095703125,-0.1870574951171875
1782986924281536000,10.386535888671874,-0.3405609130859375,0.0279693603515625,-0.1363983154296875
1782986924291610000,10.396610107421875,-0.2467041015625,-0.027740478515625,-0.0620269775390625
1782986924301685000,10.40668505859375,-0.1645050048828125,-0.0761260986328125,-0.0135955810546875
1782986924311759000,10.416759033203125,-0.1139068603515625,-0.1133880615234375,0.0242767333984375
1782986924321834000,10.426833984375,-0.077301025390625,-0.127960205078125,0.0361785888671875
1782986924331908000,10.436908203125,-0.06512451171875,-0.1443328857421875,0.050384521484375
1782986924341983000,10.44698291015625,-0.0496978759765625,-0.1505126953125,0.0777435302734375
1782986924352057000,10.45705712890625,-0.0435333251953125,-0.157867431640625,0.118682861328125
1782986924362132000,10.467132080078125,-0.06707763671875,-0.1778106689453125,0.1474761962890625
1782986924372206000,10.4772060546875,-0.0786590576171875,-0.1826019287109375,0.1435699462890625
1782986924382280200,10.4872802734375,-0.0931549072265625,-0.1775665283203125,0.1302032470703125
