time,seconds_elapsed,z,y,x
1782986483348728000,0.05972802734375,-0.04357624053955078,-0.05273005738854408,0.028479844331741333
1782986483358803200,0.06980322265625,-0.03507303074002266,0.056537579745054245,-0.025833195075392723
1782986483368877000,0.079876953125,-0.03756095841526985,0.16855359077453613,-0.08881855010986328
1782986483378951400,0.089951416015625,-0.05192019045352936,0.23598429560661316,-0.13305632770061493
1782986483389025300,0.100025390625,-0.07771982997655869,0.2812497913837433,-0.13150262832641602
1782986483399100400,0.110100341796875,-0.10528247803449631,0.2917306423187256,-0.0978381484746933
1782986483409174300,0.12017431640625,-0.13576315343379974,0.24010127782821655,-0.051539622247219086
1782986483419248000,0.130248046875,-0.15824049711227417,0.1595960557460785,-0.016981113702058792
1782986483429323300,0.1403232421875,-0.1632232815027237,0.06527914106845856,0.01347719319164753
1782986483439397000,0.150397216796875,-0.15975797176361084,-0.041193243116140366,0.0317496731877327
1782986483449471200,0.16047119140625,-0.1500914990901947,-0.11546720564365387,0.04722317308187485
1782986483459546000,0.170546142578125,-0.13414262235164642,-0.13159237802028656,0.06368417292833328
1782986483469620200,0.1806201171875,-0.12173682451248169,-0.11583365499973297,0.07619810104370117
1782986483479694000,0.190694091796875,-0.11149164289236069,-0.08802466094493866,0.07103795558214188
1782986483489768200,0.200768310546875,-0.1030382364988327,-0.07213065028190613,0.044566668570041656
1782986483499843000,0.210843017578125,-0.10796961188316345,-0.05885479599237442,0.014421549625694752
1782986483509917200,0.220917236328125,-0.1265488862991333,-0.04397384822368622,-0.016458867117762566
1782986483519991000,0.230990966796875,-0.1513298600912094,-0.04141774773597717,-0.046430349349975586
1782986483530066200,0.241066162109375,-0.1745624840259552,-0.05210128426551819,-0.073811374604702
1782986483540140000,0.25114013671875,-0.1929260492324829,-0.06161649152636528,-0.11358807981014252
1782986483550214400,0.26121435546875,-0.20384101569652557,-0.07484574615955353,-0.14517343044281006
1782986483560288300,0.271288330078125,-0.2038700431585312,-0.08695407211780548,-0.167610302567482
1782986483570363400,0.28136328125,-0.2016092836856842,-0.08726619929075241,-0.180236354470253
1782986483580437200,0.291437255859375,-0.19690987467765808,-0.05157983675599098,-0.1786821335554123
1782986483590511000,0.301510986328125,-0.19856874644756317,0.014464959502220154,-0.1581619381904602
1782986483600586200,0.311586181640625,-0.19228023290634155,0.09102391451597214,-0.11559264361858368
1782986483610660000,0.32166015625,-0.18053250014781952,0.15033890306949615,-0.07358554005622864
1782986483620734200,0.331734130859375,-0.16092310845851898,0.15003371238708496,-0.05060698464512825
1782986483630808000,0.34180810546875,-0.13615384697914124,0.11334732919931412,-0.04580051079392433
1782986483640883200,0.35188330078125,-0.105734683573246,0.06406153738498688,-0.06005854159593582
1782986483650957000,0.36195703125,-0.08178647607564926,0.022244319319725037,-0.07327234745025635
1782986483661031200,0.37203125,-0.051413655281066895,0.03178642690181732,-0.05904521048069
1782986483671106000,0.38210595703125,-0.024651283398270607,0.08631864190101624,-0.016939835622906685
1782986483681180200,0.39218017578125,-0.0008860336965881288,0.12605033814907074,0.034320421516895294
1782986483691254000,0.40225390625,0.023899739608168602,0.1530417501926422,0.08014357089996338
1782986483701329200,0.4123291015625,0.04791319742798805,0.15743835270404816,0.10523747652769089
1782986483711403000,0.422403076171875,0.05676288157701492,0.14764006435871124,0.10376527905464172
1782986483721477400,0.432477294921875,0.0757104754447937,0.14269669353961945,0.09090087562799454
1782986483731551200,0.44255126953125,0.0908510759472847,0.13598579168319702,0.076015405356884
1782986483741626400,0.45262646484375,0.10036229342222214,0.12794597446918488,0.06552334874868393
1782986483751700200,0.4627001953125,0.10584547370672226,0.1252652406692505,0.05432449281215668
1782986483761774300,0.4727744140625,0.10335461795330048,0.11500674486160278,0.04523405805230141
1782986483771849200,0.48284912109375,0.09531480073928833,0.13362011313438416,0.0561937652528286
1782986483781923300,0.49292333984375,0.08650000393390656,0.17124898731708527,0.0866432785987854
1782986483791997200,0.5029970703125,0.09456006437540054,0.18612220883369446,0.12503860890865326
1782986483802072300,0.513072265625,0.10862740874290466,0.18542419373989105,0.15573260188102722
1782986483812146200,0.523146240234375,0.11603845655918121,0.1567872166633606,0.1745406538248062
1782986483822220000,0.533219970703125,0.11171374469995499,0.10326273739337921,0.18196474015712738
1782986483832294100,0.543294189453125,0.08795782178640366,0.05361076444387436,0.18113090097904205
1782986483842369000,0.553369140625,0.08066821098327637,0.032700423151254654,0.1970696598291397
1782986483852443100,0.563443115234375,0.09312381595373154,0.030306240543723106,0.22411805391311646
1782986483862517200,0.573517333984375,0.11351324617862701,0.039445675909519196,0.261923223733902
1782986483872592400,0.58359228515625,0.12632066011428833,0.07345450669527054,0.30650320649147034
1782986483882666200,0.593666259765625,0.13766838610172272,0.16368906199932098,0.3664669394493103
1782986483892740600,0.60374072265625,0.14180773496627808,0.280075341463089,0.42488789558410645
1782986483902815200,0.613815185546875,0.13957414031028748,0.4068948030471802,0.4642001688480377
1782986483912889600,0.6238896484375,0.13890409469604492,0.4869214594364166,0.48905012011528015
1782986483922963500,0.63396337890625,0.1311447024345398,0.47789013385772705,0.4874889850616455
1782986483933037600,0.64403759765625,0.12746448814868927,0.3984847962856293,0.4746922254562378
1782986483943112400,0.654112548828125,0.113580621778965,0.30230286717414856,0.4324992299079895
1782986483953186600,0.6641865234375,0.09077145159244537,0.20534516870975494,0.38143789768218994
1782986483963260400,0.674260498046875,0.06869437545537949,0.22693008184432983,0.33573007583618164
1782986483973335600,0.68433544921875,-0.005583583377301693,0.1939108818769455,0.25803208351135254
1782986483983409400,0.694409423828125,-0.059300340712070465,0.2473253756761551,0.204107865691185
1782986483993483300,0.704483154296875,-0.051831237971782684,0.4510076642036438,0.2022218108177185
1782986484003558400,0.714558349609375,-0.043836165219545364,0.4940113127231598,0.1896122694015503
1782986484013632300,0.72463232421875,-0.03315582126379013,0.4623074531555176,0.16721908748149872
1782986484023706400,0.734706298828125,0.015392804518342018,0.5681153535842896,0.19270633161067963
1782986484033780200,0.7447802734375,0.025075258687138557,0.5222964882850647,0.1971396952867508
1782986484043855400,0.75485546875,0.02961515076458454,0.4538612365722656,0.17513985931873322
1782986484053929200,0.76492919921875,0.03600034490227699,0.37524446845054626,0.1743965744972229
1782986484064003600,0.775003662109375,0.04025474563241005,0.36738651990890503,0.1735430210828781
1782986484074078200,0.785078125,-0.005946838762611151,0.2394205778837204,0.1246015802025795
1782986484084152600,0.795152587890625,0.0011736550368368626,0.2156529277563095,0.08229487389326096
1782986484094226400,0.805226318359375,0.050222158432006836,0.240458145737648,0.07427556067705154
1782986484104300500,0.815300537109375,0.08111322671175003,0.26924052834510803,0.09530974179506302
1782986484114375400,0.82537548828125,0.07204543054103851,0.2956220507621765,0.14281333982944489
1782986484124449500,0.835449462890625,0.04987940937280655,0.30409038066864014,0.18351949751377106
1782986484134523400,0.8455234375,0.008447812870144844,0.24748116731643677,0.18713925778865814
1782986484144598500,0.8555986328125,0.007841144688427448,0.19913068413734436,0.1732199788093567
1782986484154672400,0.86567236328125,0.010920291766524315,0.12339277565479279,0.14808054268360138
1782986484164746200,0.875746337890625,-0.020313527435064316,0.03351268544793129,0.13415487110614777
1782986484174821400,0.8858212890625,-0.056603092700242996,0.03050810843706131,0.13217401504516602
1782986484184895500,0.8958955078125,-0.09752389043569565,-0.05762148275971413,0.12864026427268982
1782986484194969300,0.90596923828125,-0.07427103817462921,-0.05507150664925575,0.13902179896831512
1782986484205043200,0.916043212890625,-0.02941674366593361,-0.05682013928890228,0.14951865375041962
1782986484215118300,0.926118408203125,-0.005884254351258278,-0.09395845234394073,0.12789271771907806
1782986484225192200,0.936192138671875,0.004538292996585369,-0.1188046783208847,0.09851458668708801
1782986484235266600,0.9462666015625,0.009305351413786411,-0.14555160701274872,0.06602775305509567
1782986484245341200,0.956341064453125,0.0239426176995039,-0.12146251648664474,0.05897650122642517
1782986484255415600,0.96641552734375,0.016025837510824203,-0.07801517099142075,0.05325203761458397
1782986484265489400,0.976489501953125,0.018162492662668228,0.004207528196275234,0.04791852459311485
1782986484275564500,0.986564453125,0.04385800287127495,0.08690933138132095,0.03717692941427231
1782986484285638400,0.996638427734375,0.04945996031165123,0.1105765774846077,0.015366439707577229
1782986484295712500,1.00671240234375,0.011436413042247295,0.04892253503203392,0.004285558592528105
1782986484305786400,1.016786376953125,-0.0396113246679306,0.0139568280428648,0.013177854008972645
1782986484315861500,1.026861572265625,-0.08200645446777344,-0.018389126285910606,0.01625646837055683
1782986484325935400,1.036935302734375,-0.06708955764770508,0.030590133741497993,0.03817028924822807
1782986484336009500,1.047009521484375,-0.020979583263397217,0.07908123731613159,0.05733812600374222
1782986484346084400,1.05708447265625,0.03537530079483986,0.08476335555315018,0.0522775836288929
1782986484356158500,1.067158447265625,0.08917035907506943,0.04934624582529068,0.04050588235259056
1782986484366232300,1.077232421875,0.1695442944765091,0.11674898862838745,0.03616812452673912
1782986484376307500,1.087307373046875,0.22668027877807617,0.16174842417240143,0.030650055035948753
1782986484386381300,1.09738134765625,0.2457306683063507,0.19186317920684814,0.048890043050050735
1782986484396455200,1.107455078125,0.22713541984558105,0.14298298954963684,0.06922753900289536
1782986484406529500,1.117529541015625,0.1754610389471054,0.04399941489100456,0.06291770935058594
1782986484416604400,1.1276044921875,0.15263454616069794,0.05040724575519562,0.07379858940839767
1782986484426678500,1.137678466796875,0.13541081547737122,0.010373811237514019,0.06024762615561485
1782986484436752400,1.14775244140625,0.12846049666404724,-0.03069213218986988,0.021695442497730255
1782986484446827500,1.15782763671875,0.1341807097196579,-0.03242931142449379,-0.00851758848875761
1782986484456901400,1.1679013671875,0.11541074514389038,0.0007550061563961208,-0.02003256417810917
1782986484466975500,1.1779755859375,0.05521851405501366,0.08555404841899872,0.009070194326341152
1782986484477049300,1.18804931640625,-0.02009248547255993,0.17861901223659515,0.07379326224327087
1782986484487124500,1.19812451171875,-0.08087780326604843,0.10025922954082489,0.09886239469051361
1782986484497198300,1.2081982421875,-0.09404820203781128,-0.11995569616556168,0.06469723582267761
1782986484507272400,1.2182724609375,-0.05754078924655914,-0.306156188249588,-0.0051534827798604965
1782986484517347300,1.228347412109375,-0.010065683163702488,-0.42359042167663574,-0.09011950343847275
1782986484527421400,1.23842138671875,0.019054384902119637,-0.47588345408439636,-0.18747082352638245
1782986484537495300,1.248495361328125,0.03334304317831993,-0.49560123682022095,-0.25509995222091675
1782986484547570400,1.2585703125,0.03500352427363396,-0.39936363697052,-0.26638588309288025
1782986484557644300,1.268644287109375,0.029284918680787086,-0.2348010540008545,-0.24053643643856049
1782986484567718400,1.278718505859375,0.024287762120366096,-0.11538784205913544,-0.19308903813362122
1782986484577792500,1.28879248046875,0.0132111432030797,-0.07125180959701538,-0.1430967003107071
1782986484587867400,1.298867431640625,-0.0033156354911625385,-0.09040047228336334,-0.09945947676897049
1782986484597941500,1.30894140625,-0.012473713606595993,-0.12295068800449371,-0.05879727005958557
1782986484608015400,1.319015380859375,-0.028503280133008957,-0.133688822388649,-0.026614567264914513
1782986484618090500,1.329090576171875,-0.0427064523100853,-0.13080887496471405,-0.016642093658447266
1782986484628164400,1.339164306640625,-0.05559934675693512,-0.13446113467216492,-0.04652728885412216
1782986484638238500,1.349238525390625,-0.06607382744550705,-0.14530979096889496,-0.09516193717718124
1782986484648313300,1.359313232421875,-0.061825282871723175,-0.12597976624965668,-0.1500938981771469
1782986484658387500,1.369387451171875,-0.05037981644272804,-0.07006963342428207,-0.19669654965400696
1782986484668461300,1.37946142578125,-0.05161818861961365,-0.034814171493053436,-0.23184308409690857
1782986484678535400,1.389535400390625,-0.055923186242580414,-0.02821486070752144,-0.2561039626598358
1782986484688610300,1.3996103515625,-0.048650093376636505,-0.040229711681604385,-0.2603633999824524
1782986484698684400,1.409684326171875,-0.04158419370651245,-0.0442391000688076,-0.24047546088695526
1782986484708758300,1.41975830078125,-0.0378861278295517,-0.052987318485975266,-0.21052101254463196
1782986484718833400,1.42983349609375,-0.03504054248332977,-0.07402762025594711,-0.174017071723938
1782986484728907300,1.4399072265625,-0.021382786333560944,-0.12819898128509521,-0.14986300468444824
1782986484738981400,1.4499814453125,-0.003315103007480502,-0.21034125983715057,-0.14489620923995972
1782986484749056300,1.46005615234375,0.02317855693399906,-0.2406027615070343,-0.1460338979959488
1782986484759130400,1.47013037109375,0.05344165489077568,-0.1974283903837204,-0.13727903366088867
1782986484769204500,1.48020458984375,0.0696035772562027,-0.10776854306459427,-0.11320112645626068
1782986484779278600,1.490278564453125,0.07015804946422577,0.004881840664893389,-0.08407865464687347
1782986484789353500,1.500353515625,0.05253458023071289,0.05805930867791176,-0.05765024572610855
1782986484799427600,1.510427490234375,0.026752518489956856,0.07830492407083511,-0.04248780384659767
1782986484809501400,1.52050146484375,-0.0033683660440146923,0.06202848255634308,-0.04477253183722496
1782986484819575300,1.5305751953125,-0.030217023566365242,0.005142031237483025,-0.07502949982881546
1782986484829650400,1.540650390625,-0.05625741183757782,-0.07236581295728683,-0.13506434857845306
1782986484839724300,1.550724365234375,-0.07628811150789261,-0.1496792435646057,-0.2182372659444809
1782986484849798400,1.56079833984375,-0.08645766228437424,-0.22535322606563568,-0.32767266035079956
1782986484859873500,1.57087353515625,-0.08838978409767151,-0.3116103410720825,-0.4401182532310486
1782986484869947400,1.580947509765625,-0.10155059397220612,-0.3804120421409607,-0.5446321368217468
1782986484880021200,1.591021240234375,-0.1200861930847168,-0.42228999733924866,-0.6042275428771973
1782986484890096400,1.601096435546875,-0.14927923679351807,-0.39949068427085876,-0.5980477333068848
1782986484900170200,1.611170166015625,-0.19522301852703094,-0.36140772700309753,-0.5409868359565735
1782986484910244400,1.621244384765625,-0.2536013722419739,-0.3432108759880066,-0.4625268876552582
1782986484920319500,1.631319580078125,-0.30781400203704834,-0.3351266086101532,-0.3690512776374817
1782986484930393300,1.641393310546875,-0.3370291590690613,-0.3116430938243866,-0.26699548959732056
1782986484940467500,1.651467529296875,-0.3483838140964508,-0.2891646921634674,-0.17720088362693787
1782986484950541600,1.66154150390625,-0.3489342927932739,-0.30730003118515015,-0.10557915270328522
1782986484960616400,1.671616455078125,-0.3416510820388794,-0.31631723046302795,-0.06027745455503464
1782986484970690600,1.681690673828125,-0.3277656137943268,-0.2988535463809967,-0.03756095841526985
1782986484980764400,1.691764404296875,-0.30058860778808594,-0.2593066692352295,-0.04524151235818863
1782986484990839600,1.701839599609375,-0.2642604112625122,-0.21585692465305328,-0.0743168443441391
1782986485000913400,1.711913330078125,-0.2240874320268631,-0.18430006504058838,-0.1153566837310791
1782986485010987500,1.721987548828125,-0.18465985357761383,-0.15454696118831635,-0.15415094792842865
1782986485021061400,1.732061279296875,-0.14297287166118622,-0.1227424293756485,-0.1857815831899643
1782986485031136500,1.742136474609375,-0.10875418037176132,-0.10889319330453873,-0.20595449209213257
1782986485041210400,1.75221044921875,-0.08042453229427338,-0.0943233072757721,-0.20523197948932648
1782986485051284500,1.762284423828125,-0.04974278807640076,-0.07488169521093369,-0.17690233886241913
1782986485061359400,1.772359375,-0.027470506727695465,-0.04769694805145264,-0.12415283918380737
1782986485071433500,1.78243359375,-0.016627445816993713,-0.017603494226932526,-0.05053720995783806
1782986485081507300,1.79250732421875,-0.014021010138094425,0.00006338323146337643,0.01315175462514162
1782986485091582500,1.80258251953125,-0.012050803750753403,-0.010336526669561863,0.05312633514404297
1782986485101656300,1.81265625,-0.009813215583562851,-0.040589239448308945,0.06707117706537247
1782986485111730400,1.82273046875,-0.0062371231615543365,-0.059604208916425705,0.06905603408813477
1782986485121804500,1.832804443359375,-0.004089816473424435,-0.05982205271720886,0.06444370746612549
1782986485131879400,1.84287939453125,-0.005850964691489935,-0.038717836141586304,0.05566459521651268
1782986485141953500,1.85295361328125,-0.007208111695945263,0.00026285400963388383,0.05863242223858833
1782986485152027400,1.86302734375,-0.009097358211874962,0.029811158776283264,0.05710456520318985
1782986485162102500,1.8731025390625,-0.018335863947868347,0.035703402012586594,0.0467616468667984
1782986485172176400,1.88317626953125,-0.02630084566771984,0.033181920647621155,0.02472185716032982
1782986485182250500,1.89325048828125,-0.0195449385792017,0.030295321717858315,0.009855293668806553
1782986485192325400,1.903325439453125,-0.009358614683151245,0.013891580514609814,-0.0018407768802717328
1782986485202399500,1.9133994140625,-0.000565389113035053,-0.00192226970102638,-0.018128670752048492
1782986485212473300,1.923473388671875,0.021333783864974976,0.005524727515876293,-0.014977351762354374
1782986485222547500,1.93354736328125,0.0454135537147522,0.01673237420618534,-0.008020375855267048
1782986485232622300,1.943622314453125,0.06085402891039848,0.010967696085572243,-0.004627774935215712
1782986485242696400,1.953696533203125,0.06727997213602066,-0.003867708845064044,-0.0059929112903773785
1782986485252770300,1.963770263671875,0.07723060250282288,0.012458267621695995,0.0002836266648955643
1782986485262845400,1.973845458984375,0.08869124948978424,0.04578160122036934,0.021929534152150154
1782986485272919300,1.983919189453125,0.086905337870121,0.06077386811375618,0.04746445268392563
1782986485282993700,1.99399365234375,0.08073026686906815,0.05853521451354027,0.058460913598537445
1782986485293067500,2.004067626953125,0.08309409022331238,0.05649470165371895,0.06426260620355606
1782986485303142700,2.014142578125,0.08740228414535522,0.049967825412750244,0.06258828192949295
1782986485313216500,2.024216552734375,0.08952002972364426,0.03736601397395134,0.05649816244840622
1782986485323290400,2.034290283203125,0.08685154467821121,0.016385098919272423,0.040653686970472336
1782986485333365500,2.044365478515625,0.0806405171751976,0.0016817862633615732,0.03275128826498985
1782986485343439400,2.054439453125,0.06951915472745895,0.008325041271746159,0.02803722769021988
1782986485353513500,2.064513427734375,0.052024852484464645,0.007345797028392553,0.022118085995316505
1782986485363588400,2.07458837890625,0.03765017166733742,0.010976218618452549,0.031017836183309555
1782986485373662500,2.084662353515625,0.0301352646201849,0.01900298520922661,0.04224039614200592
1782986485383736300,2.094736328125,0.029407955706119537,0.013081180863082409,0.0500786118209362
1782986485393810400,2.104810546875,0.03003779426217079,-0.0071005201898515224,0.041786860674619675
1782986485403885300,2.11488525390625,0.032580047845840454,-0.01954999938607216,0.020312994718551636
1782986485413959400,2.12495947265625,0.030787473544478416,0.01840350776910782,0.002909769769757986
1782986485424033300,2.135033203125,0.036007270216941833,0.06360107660293579,-0.01715634949505329
1782986485434108400,2.1451083984375,0.03299416974186897,0.08256198465824127,-0.042215630412101746
1782986485444182300,2.155182373046875,0.02412744052708149,0.06312384456396103,-0.07190987467765808
1782986485454256600,2.165256591796875,-0.0013206616276875138,0.04156582057476044,-0.08724835515022278
1782986485464330500,2.17533056640625,-0.027835093438625336,0.05290822312235832,-0.08865849673748016
1782986485474405600,2.185405517578125,-0.05733386427164078,0.05961006507277489,-0.08048978447914124
1782986485484479500,2.1954794921875,-0.07975288480520248,0.057069942355155945,-0.07568277418613434
1782986485494553300,2.20555322265625,-0.08509518951177597,0.0644540935754776,-0.07705430686473846
1782986485504628500,2.21562841796875,-0.0735626369714737,0.07433708012104034,-0.08995119482278824
1782986485514702600,2.22570263671875,-0.04832438752055168,0.062312908470630646,-0.10569846630096436
1782986485524776400,2.2357763671875,-0.02046692557632923,0.03281174227595329,-0.12173096090555191
1782986485534851600,2.2458515625,-0.0011081412667408586,0.003939880523830652,-0.13144271075725555
1782986485544925400,2.255925537109375,0.007166299968957901,-0.0012263857061043382,-0.12443939596414566
1782986485554999300,2.265999267578125,0.011663313955068588,0.017764883115887642,-0.09673826396465302
1782986485565073400,2.276073486328125,0.01176504697650671,0.03417128697037697,-0.053814228624105453
1782986485575148300,2.286148193359375,0.011062504723668098,0.014540326781570911,-0.03184475004673004
1782986485585222400,2.296222412109375,0.012545352801680565,-0.02480148710310459,-0.023065371438860893
1782986485595296300,2.306296142578125,0.01907782070338726,-0.04170803353190422,-0.009575928561389446
1782986485605371400,2.316371337890625,0.029081985354423523,-0.007833422161638737,0.01655074767768383
1782986485615445200,2.3264453125,0.04122466966509819,0.015531822107732296,0.041738126426935196
1782986485625519600,2.33651953125,0.05047622323036194,0.006393717136234045,0.05234762653708458
1782986485635593500,2.346593505859375,0.049678605049848557,-0.007982824929058552,0.035893820226192474
1782986485645668600,2.356668701171875,0.0501241534948349,-0.01073626708239317,0.012753346003592014
1782986485655742500,2.366742431640625,0.06120343506336212,0.016999224200844765,-0.00021784658019896597
1782986485665816600,2.376816650390625,0.061233531683683395,0.04800054803490639,-0.0026610305067151785
1782986485675891500,2.386891357421875,0.05215108394622803,0.06606050580739975,-0.004471713677048683
1782986485685965600,2.396965576171875,0.043415915220975876,0.07600715011358261,-0.009762083180248737
1782986485696039400,2.407039306640625,0.039150066673755646,0.07402362674474716,-0.014912104234099388
1782986485706114600,2.417114501953125,0.03843766823410988,0.0626268982887268,-0.020962007343769073
1782986485716188400,2.4271884765625,0.029576534405350685,0.0322631299495697,-0.04313575103878975
1782986485726262300,2.43726220703125,0.021403025835752487,0.012012454681098461,-0.0712914913892746
1782986485736336400,2.44733642578125,0.02599404938519001,0.013674532994627953,-0.08845343440771103
1782986485746411300,2.457411376953125,0.022462164983153343,0.03014671616256237,-0.08423178642988205
1782986485756485400,2.4674853515625,0.011648666113615036,0.058829229325056076,-0.07390138506889343
1782986485766559500,2.4775595703125,0.011114702560007572,0.07748547196388245,-0.04988526925444603
1782986485776634400,2.48763427734375,0.01203668862581253,0.08484005928039551,-0.01648629829287529
1782986485786708500,2.49770849609375,0.018162492662668228,0.07418954372406006,0.008049936965107918
1782986485796782600,2.507782470703125,0.02611522376537323,0.04535629600286484,0.02593625895678997
1782986485806856400,2.5178564453125,0.027575168758630753,0.01919420063495636,0.03370656445622444
1782986485816931600,2.527931640625,0.027029220014810562,0.006340986583381891,0.021685587242245674
1782986485827005400,2.53800537109375,0.028619660064578056,0.0012543488992378116,0.004600876942276955
1782986485837079600,2.54807958984375,0.028897428885102272,-0.007448062766343355,-0.028742965310811996
1782986485847154400,2.558154541015625,0.028692098334431648,-0.03014005906879902,-0.07636774331331253
1782986485857228500,2.568228515625,0.028098214417696,-0.0581384040415287,-0.13073191046714783
1782986485867302400,2.578302490234375,0.02050767093896866,-0.07736669480800629,-0.179580420255661
1782986485877377500,2.58837744140625,0.01949354074895382,-0.10059185326099396,-0.21733339130878448
1782986485887451400,2.598451416015625,0.015460449270904064,-0.09184523671865463,-0.21896269917488098
1782986485897525500,2.608525390625,0.011391138657927513,-0.04430541396141052,-0.19017313420772552
1782986485907599400,2.618599365234375,-0.002413090318441391,0.014303837902843952,-0.1411837488412857
1782986485917674500,2.628674560546875,-0.012656939215958118,0.048052214086055756,-0.08350421488285065
1782986485927748400,2.638748291015625,-0.01810576766729355,0.059294749051332474,-0.027823109179735184
1782986485937822500,2.648822509765625,-0.022890934720635414,0.05710509791970253,0.019937222823500633
1782986485947897300,2.6588974609375,-0.01575419493019581,0.05565633624792099,0.057371679693460464
1782986485957971500,2.668971435546875,-0.005367601290345192,0.0548134483397007,0.07082223892211914
1782986485968045600,2.679045654296875,0.0002061286650132388,0.045875079929828644,0.06985924392938614
1782986485978120400,2.689120361328125,0.00743261631578207,0.030178409069776535,0.05127463862299919
1782986485988194600,2.699194580078125,0.009863017126917839,0.01871270127594471,0.026865702122449875
1782986485998268700,2.7092685546875,0.016171513125300407,0.013291836716234684,-0.0067630973644554615
1782986486008342500,2.719342529296875,0.019473033025860786,0.010265686549246311,-0.03454652428627014
1782986486018417700,2.729417724609375,0.023135146126151085,0.02767503634095192,-0.05359957739710808
1782986486028491500,2.739491455078125,0.027157850563526154,0.06551536172628403,-0.04998407140374184
1782986486038565600,2.749565673828125,0.027469974011182785,0.08598122000694275,-0.03075498342514038
1782986486048640500,2.759640625,0.02340305969119072,0.08884651213884354,-0.010121077299118042
1782986486058714600,2.769714599609375,0.027944017201662064,0.07926339656114578,0.010765296407043934
1782986486068788500,2.77978857421875,0.03756921365857124,0.060862816870212555,0.025622006505727768
1782986486078862300,2.7898623046875,0.054918110370635986,0.03663604333996773,0.03359018266201019
1782986486088937500,2.7999375,0.06778943538665771,0.01570253074169159,0.02907506190240383
1782986486099011300,2.81001123046875,0.08788751065731049,0.010143980383872986,0.025358352810144424
1782986486109085400,2.82008544921875,0.09998199343681335,0.01458719838410616,0.022274944931268692
1782986486119160300,2.830160400390625,0.10585985332727432,-0.0001323590986430645,0.01381115335971117
1782986486129234400,2.840234375,0.10654588043689728,-0.009672600775957108,0.011766111478209496
1782986486139308500,2.85030859375,0.10335461795330048,-0.009215336292982101,0.011124556884169579
1782986486149382700,2.860382568359375,0.09709033370018005,-0.00101120222825557,0.007369499187916517
1782986486159457500,2.87045751953125,0.09020046889781952,-0.00430180411785841,-0.0005195827106945217
1782986486169531600,2.88053173828125,0.08692238479852676,0.013657755218446255,-0.0017808558186516166
1782986486179605500,2.89060546875,0.08666139096021652,0.030371220782399178,-0.002284193178638816
1782986486189680600,2.9006806640625,0.08615485578775406,0.021637119352817535,-0.004610997159034014
1782986486199754500,2.91075439453125,0.08924678713083267,0.009017995558679104,-0.005065065808594227
1782986486209828600,2.92082861328125,0.09846984595060349,-0.007947671227157116,-0.00631861574947834
1782986486219903500,2.930903564453125,0.10346167534589767,-0.02280571311712265,-0.010549047030508518
1782986486229977600,2.9409775390625,0.10245127230882645,-0.0490969717502594,-0.028730981051921844
1782986486240051500,2.951051513671875,0.09963977336883545,-0.08603820949792862,-0.049624811857938766
1782986486250125300,2.961125244140625,0.10106190294027328,-0.11692368984222412,-0.08411487936973572
1782986486260200400,2.971200439453125,0.09923364222049713,-0.15443643927574158,-0.11875967681407928
1782986486270274600,2.981274658203125,0.10349602997303009,-0.18161560595035553,-0.14823047816753387
1782986486280348400,2.991348388671875,0.10326912999153137,-0.19359582662582397,-0.16989396512508392
1782986486290423600,3.001423583984375,0.09365751594305038,-0.17515237629413605,-0.16517484188079834
1782986486300497400,3.011497314453125,0.08009776473045349,-0.13858477771282196,-0.15400980412960052
1782986486310571500,3.021571533203125,0.057246509939432144,-0.09474701434373856,-0.13620683550834656
1782986486320646400,3.031646484375,0.03093634359538555,-0.04159032180905342,-0.11424747854471207
1782986486330720500,3.041720458984375,0.010395116172730923,0.011351990513503551,-0.08480250835418701
1782986486340794600,3.051794677734375,0.004278901033103466,0.054666176438331604,-0.053584665060043335
1782986486350868500,3.061868408203125,0.010724017396569252,0.07083556056022644,-0.03448101133108139
1782986486360943600,3.071943603515625,0.031189877539873123,0.06439097225666046,-0.021555358543992043
1782986486371017500,3.082017578125,0.049734801054000854,0.03690288960933685,-0.015837818384170532
1782986486381091600,3.092091552734375,0.06488898396492004,0.021275460720062256,-0.006954312324523926
1782986486391166500,3.10216650390625,0.06855988502502441,0.019150525331497192,0.0017654094845056534
1782986486401240600,3.112240478515625,0.06915217638015747,0.011779161170125008,0.0038685076870024204
1782986486411314400,3.122314453125,0.06319734454154968,0.0033364081755280495,-0.0016612798208370805
1782986486421388500,3.132388427734375,0.06308629363775253,0.002317482838407159,-0.010992996394634247
1782986486431463400,3.14246337890625,0.059841230511665344,0.011636416427791119,-0.02213752642273903
1782986486441537500,3.15253759765625,0.06817399710416794,0.031156854704022408,-0.03249349445104599
1782986486451611400,3.162611328125,0.07622845470905304,0.062121693044900894,-0.03008280135691166
1782986486461686500,3.1726865234375,0.08030149340629578,0.08096009492874146,-0.014703311957418919
1782986486471760400,3.182760498046875,0.07722501456737518,0.07343266904354095,0.0023036343045532703
1782986486481834500,3.19283447265625,0.06658781319856644,0.06775534152984619,0.027299797162413597
1782986486491908600,3.20290869140625,0.05836450681090355,0.060086507350206375,0.05196892470121384
1782986486501983700,3.212983642578125,0.04962347820401192,0.04313149303197861,0.06603015214204788
1782986486512057600,3.2230576171875,0.04246969521045685,0.041305094957351685,0.07154741883277893
1782986486522131500,3.23313134765625,0.0457291379570961,0.05863188952207565,0.07925833761692047
1782986486532206600,3.24320654296875,0.04892493039369583,0.07799732685089111,0.07514695078134537
1782986486542280400,3.253280517578125,0.04620691016316414,0.07526572793722153,0.06319388002157211
1782986486552354600,3.2633544921875,0.04141508415341377,0.06947814673185349,0.052077848464250565
1782986486562429400,3.273429443359375,0.034205906093120575,0.06619393080472946,0.037463750690221786
1782986486572503600,3.283503662109375,0.02654292806982994,0.059721119701862335,0.030163494870066643
1782986486582577400,3.293577392578125,0.02394714392721653,0.04609452560544014,0.026562368497252464
1782986486592651500,3.303651611328125,0.02311836928129196,0.03635614365339279,0.02955229952931404
1782986486602726400,3.313726318359375,0.023396668955683708,0.028503280133008957,0.0346599742770195
1782986486612800500,3.323800537109375,0.013336844742298126,0.015126754529774189,0.03639182820916176
1782986486622874600,3.33387451171875,0.0040978058241307735,0.005305016878992319,0.03331827372312546
1782986486632949500,3.343949462890625,0.0032021848019212484,-0.012164521031081676,0.0199822299182415
1782986486643023600,3.354023681640625,0.0006623281515203416,-0.007337274961173534,0.0049068741500377655
1782986486653097700,3.36409765625,-0.001228782464750111,0.0039854203350842,-0.010854245163500309
1782986486663171600,3.374171630859375,-0.006446980405598879,0.021929267793893814,-0.017846908420324326
1782986486673246700,3.384246826171875,-0.00643819198012352,0.03501177951693535,-0.009404420852661133
1782986486683320600,3.394320556640625,-0.0015073491958901286,0.024568192660808563,0.002234924817457795
1782986486693394400,3.40439453125,-0.0054182009771466255,0.0019137475173920393,0.019536683335900307
1782986486703469600,3.414469482421875,-0.009706689044833183,-0.018751051276922226,0.03725522756576538
1782986486713543400,3.42454345703125,-0.00914556160569191,-0.03098614513874054,0.050338003784418106
1782986486723617500,3.434617431640625,-0.0091170659288764,-0.04697283357381821,0.048407480120658875
1782986486733692400,3.4446923828125,-0.01257997378706932,-0.05252073332667351,0.031212247908115387
1782986486743766500,3.4547666015625,-0.018024008721113205,-0.04411286488175392,0.0070706927217543125
1782986486753840400,3.46484033203125,-0.03247565031051636,-0.03382773697376251,-0.01671879179775715
1782986486763914500,3.47491455078125,-0.04195756837725639,-0.023552197962999344,-0.03175659850239754
1782986486773989400,3.4849892578125,-0.0450042262673378,-0.013409015722572803,-0.04105236008763313
1782986486784063500,3.4950634765625,-0.04602315276861191,-0.010792993009090424,-0.043647345155477524
1782986486794137600,3.5051376953125,-0.040101081132888794,-0.022591594606637955,-0.041185785084962845
1782986486804212500,3.51521240234375,-0.026731479912996292,-0.028442559763789177,-0.02256070263683796
1782986486814286600,3.52528662109375,-0.023909326642751694,-0.032394956797361374,-0.005506884306669235
1782986486824360700,3.535360595703125,-0.018867164850234985,-0.045164547860622406,0.007646468002349138
1782986486834435600,3.545435546875,-0.015916116535663605,-0.04036286845803261,0.02033909410238266
1782986486844509700,3.555509765625,-0.0014713965356349945,-0.02859223075211048,0.025291241705417633
1782986486854583600,3.56558349609375,0.008145278319716454,-0.016259662806987762,0.028415396809577942
1782986486864657400,3.575657470703125,0.01637178286910057,-0.020811006426811218,0.02858930081129074
1782986486874732300,3.585732177734375,0.02129303850233555,-0.033189110457897186,0.01576564647257328
1782986486884806400,3.595806396484375,0.025248365476727486,-0.04680265858769417,0.008637962862849236
1782986486894880300,3.60588037109375,0.03093714267015457,-0.043780501931905746,-0.00375958438962698
1782986486904955400,3.615955322265625,0.027288611978292465,-0.04626123979687691,-0.019119897857308388
1782986486915029200,3.626029296875,0.019160112366080284,-0.049620017409324646,-0.03273371234536171
1782986486925103400,3.636103271484375,0.017971809953451157,-0.034751590341329575,-0.03719903528690338
1782986486935177200,3.64617724609375,0.019579026848077774,-0.012720588594675064,-0.021701833233237267
1782986486945252400,3.65625244140625,0.017663415521383286,-0.01495231781154871,-0.016497483476996422
1782986486955326200,3.666326171875,0.015741944313049316,-0.019476229324936867,-0.009725064970552921
1782986486965400300,3.676400390625,0.02051512897014618,-0.019523900002241135,-0.003736681304872036
1782986486975475200,3.68647509765625,0.028788505122065544,-0.00879002921283245,0.007467770017683506
1782986486985549300,3.69654931640625,0.03153342381119728,-0.005101018585264683,0.012224442325532436
1782986486995623400,3.70662353515625,0.030302245169878006,-0.007379885762929916,0.007499195169657469
1782986487005698300,3.7166982421875,0.035530563443899155,-0.0032738239970058203,0.0036567864008247852
1782986487015772400,3.7267724609375,0.04333602264523506,0.004123372491449118,0.004169445019215345
1782986487025846300,3.73684619140625,0.04266756772994995,-0.009588179178535938,0.0023177489638328552
1782986487035920400,3.74692041015625,0.038897063583135605,-0.029892917722463608,0.0043832967057824135
1782986487045995300,3.756995361328125,0.035290878266096115,-0.022727683186531067,0.015981363132596016
1782986487056069400,3.7670693359375,0.028545092791318893,0.002287389012053609,0.04548492655158043
1782986487066143200,3.777143310546875,0.012293151579797268,0.01967144012451172,0.06747038662433624
1782986487076218400,3.78721826171875,0.0005150553770363331,0.0344112366437912,0.07719065994024277
1782986487086292200,3.797292236328125,-0.0017294568242505193,0.04243241250514984,0.08155851066112518
1782986487096366300,3.807366455078125,-0.0004825647920370102,0.04868311807513237,0.07754325866699219
1782986487106440200,3.817440185546875,-0.013856426812708378,0.04405054822564125,0.06790927797555923
1782986487116515300,3.827515380859375,-0.020125774666666985,0.04163666069507599,0.06024203449487686
1782986487126589200,3.837589111328125,-0.023551665246486664,0.05825372040271759,0.05480093136429787
1782986487136663300,3.847663330078125,-0.017008278518915176,0.05769418925046921,0.04530276730656624
1782986487146738200,3.85773828125,-0.007003048434853554,0.04517360404133797,0.03110705316066742
1782986487156812500,3.8678125,-0.0023755396250635386,0.03020131215453148,0.021153489127755165
1782986487166886400,3.877886474609375,-0.002432797569781542,0.023967916145920753,0.00872105360031128
1782986487176960300,3.887960205078125,-0.0046698530204594135,0.01745568960905075,0.0016170714516192675
1782986487187035400,3.898035400390625,-0.010449711233377457,0.019787553697824478,-0.00261841993778944
1782986487197109200,3.908109130859375,-0.013027118518948555,0.048102814704179764,0.00436039362102747
1782986487207183400,3.918183349609375,-0.010453440248966217,0.06934631615877151,0.023838220164179802
1782986487217258200,3.92825830078125,-0.004820321686565876,0.0702776238322258,0.037808630615472794
1782986487227332400,3.938332275390625,0.005891711451113224,0.060454823076725006,0.04537919908761978
1782986487237406200,3.94840625,0.020893031731247902,0.059178635478019714,0.05705742537975311
1782986487247481300,3.9584814453125,0.028258536010980606,0.055156197398900986,0.06566476076841354
1782986487257555200,3.96855517578125,0.03159014880657196,0.05143949016928673,0.07227259874343872
1782986487267629300,3.97862939453125,0.03003672882914543,0.05943429842591286,0.07861891388893127
1782986487277703200,3.988703125,0.033010147511959076,0.05170873552560806,0.08606138080358505
1782986487287778300,3.9987783203125,0.0316346250474453,0.056237440556287766,0.09602932631969452
1782986487297852200,4.00885205078125,0.030105438083410263,0.04270192235708237,0.08746752887964249
1782986487307926500,4.018926513671875,0.028835376724600792,0.028416194021701813,0.07011090964078903
1782986487318001200,4.029001220703125,0.027605528011918068,0.024110928177833557,0.042507778853178024
1782986487328075500,4.039075439453125,0.023194534704089165,0.024746358394622803,0.018981413915753365
1782986487338149400,4.0491494140625,0.01737898960709572,0.03959428146481514,0.004509796854108572
1782986487348224500,4.059224609375,0.014694257639348507,0.055985238403081894,0.012436961755156517
1782986487358298400,4.06929833984375,0.012252138927578926,0.049431730061769485,0.021326860412955284
1782986487368372200,4.079372314453125,0.014464160427451134,0.029101958498358727,0.03676414117217064
1782986487378446300,4.0894462890625,0.015203986316919327,0.00367143377661705,0.03946511819958687
1782986487388521500,4.099521484375,0.015733422711491585,-0.015928367152810097,0.04012718051671982
1782986487398595300,4.10959521484375,0.009504822082817554,-0.018201107159256935,0.03262931481003761
1782986487408669200,4.119669189453125,0.003894606838002801,-0.006515423767268658,0.017775002866983414
1782986487418744300,4.129744384765625,0.0013675332302227616,0.0065476479940116405,-0.006335393991321325
1782986487428818200,4.139818115234375,-0.0011078750248998404,0.009636115282773972,-0.03242664784193039
1782986487438892300,4.149892333984375,-0.0005067995516583323,0.012437228113412857,-0.05934667959809303
1782986487448966100,4.159966064453125,0.005392901133745909,0.004203533288091421,-0.07222865521907806
1782986487459041300,4.170041259765625,0.014671620912849903,-0.003925499506294727,-0.07366729527711868
1782986487469115100,4.180115234375,0.02695811353623867,-0.0038541266694664955,-0.06175258010625839
1782986487479189500,4.190189453125,0.03858973830938339,0.026439595967531204,-0.038837943226099014
1782986487489264000,4.20026416015625,0.0511300303041935,0.04446014389395714,-0.015428224578499794
1782986487499338500,4.21033837890625,0.061479873955249786,0.03857509046792984,0.003221093211323023
1782986487509412400,4.220412353515625,0.06401041150093079,0.02094895765185356,0.016409866511821747
1782986487519487500,4.230487548828125,0.06432892382144928,-0.015917712822556496,0.021065603941679
1782986487529561300,4.240561279296875,0.05433247983455658,-0.042816437780857086,0.02202114649116993
1782986487539635500,4.250635498046875,0.04050321877002716,-0.05844040587544441,0.009352489374577999
1782986487549709300,4.260709228515625,0.028381839394569397,-0.04975796863436699,-0.00806085579097271
1782986487559784400,4.270784423828125,0.01366148330271244,0.003329484025016427,-0.03316833823919296
1782986487569858300,4.2808583984375,0.011295797303318977,0.03567863628268242,-0.057726677507162094
1782986487579932200,4.29093212890625,0.008567389100790024,0.02652694843709469,-0.07627080380916595
1782986487590007300,4.30100732421875,-0.0019446401856839657,0.051724713295698166,-0.08360142260789871
1782986487600081200,4.3110810546875,-0.012886770069599152,0.08898206800222397,-0.07699358463287354
1782986487610155300,4.3211552734375,-0.016984310001134872,0.05379611998796463,-0.07036683708429337
1782986487620230400,4.33123046875,-0.022518625482916832,0.010843059979379177,-0.03832182288169861
1782986487630304300,4.34130419921875,-0.03951385244727135,0.058769308030605316,0.003989947959780693
1782986487640378000,4.351378173828125,-0.047081492841243744,0.09599310904741287,0.03332999348640442
1782986487650452500,4.361452392578125,-0.04374188929796219,0.07550514489412308,0.042824696749448776
1782986487660527000,4.371527099609375,-0.0387955978512764,0.04751771688461304,0.04988553375005722
1782986487670601500,4.3816015625,-0.04677069932222366,0.017973674461245537,0.06511109322309494
1782986487680675300,4.39167529296875,-0.07165127992630005,0.013089969754219055,0.09701549261808395
1782986487690750500,4.40175048828125,-0.10224860906600952,0.026874225586652756,0.13206616044044495
1782986487700824300,4.41182421875,-0.12485058605670929,0.028621258214116096,0.16222618520259857
1782986487710898400,4.4218984375,-0.1435992419719696,0.03879719600081444,0.1705847829580307
1782986487720972300,4.43197216796875,-0.141250342130661,0.0804104208946228,0.1532750427722931
1782986487731047400,4.44204736328125,-0.11655350774526596,0.09772389382123947,0.10804817080497742
1782986487741121300,4.452121337890625,-0.08802226930856705,0.07495253533124924,0.04653394594788551
1782986487751195400,4.4621953125,-0.06556250154972076,0.04248381033539772,-0.009126919321715832
1782986487761270300,4.472270263671875,-0.05255189165472984,0.03179414942860603,-0.05739724636077881
1782986487771344400,4.482344482421875,-0.03738652169704437,0.010550378821790218,-0.09305271506309509
1782986487781418200,4.492418212890625,-0.020144682377576828,0.001537709147669375,-0.10596824437379837
1782986487791493400,4.502493408203125,-0.006970025133341551,-0.000017310547264060006,-0.10266592353582382
1782986487801567200,4.512567138671875,-0.004129231441766024,0.003328684950247407,-0.08518573641777039
1782986487811641300,4.522641357421875,-0.0054791877046227455,0.017663149163126945,-0.07014419883489609
1782986487821715500,4.532715576171875,-0.009749832563102245,0.03002634271979332,-0.06076934188604355
1782986487831790300,4.542790283203125,-0.003990747034549713,0.014475611969828606,-0.06410042196512222
1782986487841864400,4.552864501953125,-0.0018524948973208666,0.006710899528115988,-0.06307484209537506
1782986487851938300,4.562938232421875,0.002335326047614217,0.030854851007461548,-0.04089789837598801
1782986487862013400,4.573013427734375,-0.0004010720585938543,0.05265681818127632,-0.005648031830787659
1782986487872087000,4.583087158203125,0.0011251855175942183,0.05349305272102356,0.02297988347709179
1782986487882161000,4.593160888671875,0.005499161314219236,0.05086904019117355,0.04108724743127823
1782986487892236000,4.603236083984375,0.01558055728673935,0.04038870334625244,0.048650093376636505
1782986487902310000,4.613309814453125,0.020267454907298088,0.016567524522542953,0.0455552339553833
1782986487912383700,4.6233837890625,0.013795707374811172,0.016099607571959496,0.04501434788107872
1782986487922457900,4.633457763671875,0.002808836055919528,0.038534607738256454,0.05101205036044121
1782986487932532700,4.64353271484375,-0.002704173792153597,0.056235842406749725,0.05215321481227875
1782986487942606800,4.65360693359375,-0.0041060615330934525,0.04402604699134827,0.042823098599910736
1782986487952680700,4.6636806640625,-0.005231513641774654,0.02153938077390194,0.039086148142814636
1782986487962755800,4.673755859375,-0.01492089219391346,0.026268621906638145,0.0359627939760685
1782986487972829700,4.68382958984375,-0.02835174649953842,0.056472063064575195,0.0338682197034359
1782986487982904000,4.693904052734375,-0.0447528250515461,0.05969395488500595,0.020798755809664726
1782986487992978700,4.703978759765625,-0.053698647767305374,0.028371453285217285,0.012890498153865337
1782986488003053000,4.714052978515625,-0.054660048335790634,0.01013599056750536,0.012036423198878765
1782986488013127000,4.724126953125,-0.05976666137576103,0.00681263254955411,0.027534954249858856
1782986488023201000,4.734200927734375,-0.07086245715618134,0.007318899035453796,0.04725246503949165
1782986488033276000,4.74427587890625,-0.08016034960746765,-0.012085957452654839,0.060096625238657
1782986488043350000,4.75435009765625,-0.08602169901132584,-0.03963529318571091,0.0691194161772728
1782986488053423900,4.764423828125,-0.08880630135536194,-0.02948678657412529,0.06592362374067307
1782986488063499000,4.7744990234375,-0.0901850238442421,0.007893876172602177,0.049494050443172455
1782986488073572900,4.78457275390625,-0.08493353426456451,0.016405338421463966,0.015778163447976112
1782986488083647000,4.79464697265625,-0.0821009948849678,0.02520921640098095,-0.02485075406730175
1782986488093720800,4.804720947265625,-0.07478076219558716,-0.009309345856308937,-0.0691622942686081
1782986488103796000,4.8147958984375,-0.0592779703438282,-0.024694161489605904,-0.10000675916671753
1782986488113869800,4.824869873046875,-0.04402551427483559,-0.035173699259757996,-0.10381454229354858
1782986488123943700,4.834943603515625,-0.039984166622161865,-0.02773309499025345,-0.08543580770492554
1782986488134018800,4.845018798828125,-0.04116421565413475,-0.003022954100742936,-0.0444156676530838
1782986488144092700,4.8550927734375,-0.035899676382541656,0.02093963697552681,0.009828662499785423
1782986488154167000,4.8651669921875,-0.033845316618680954,0.01347559504210949,0.053455501794815063
1782986488164241700,4.87524169921875,-0.03334570676088333,-0.0022096247412264347,0.08309409022331238
1782986488174316000,4.88531591796875,-0.02990703284740448,-0.0022945795208215714,0.09686849266290665
1782986488184390000,4.895389892578125,-0.023552464321255684,-0.01727406121790409,0.09233445674180984
1782986488194464000,4.905464111328125,-0.024519192054867744,-0.025229189544916153,0.07323293387889862
1782986488204539000,4.915538818359375,-0.02640444226562977,-0.03051822818815708,0.050924431532621384
1782986488214613000,4.925613037109375,-0.024385500699281693,0.012338691391050816,0.04959791153669357
1782986488224686800,4.935686767578125,-0.022886939346790314,0.06713616102933884,0.05329757556319237
1782986488234762000,4.945761962890625,-0.02558259107172489,0.05817462131381035,0.05928436294198036
1782986488244835800,4.9558359375,-0.026433205232024193,0.020914336666464806,0.0630924180150032
1782986488254910000,4.965909912109375,-0.020071446895599365,-0.0010940266074612737,0.0755900964140892
1782986488264984800,4.97598486328125,-0.007233412005007267,-0.012966664507985115,0.07904314994812012
1782986488275059000,4.986058837890625,-0.0014106763992458582,-0.012295814231038094,0.08182961493730545
1782986488285132800,4.9961328125,0.002776345470920205,-0.01549507025629282,0.0723373144865036
1782986488295207000,5.00620703125,0.00624111806973815,-0.023138608783483505,0.06216403841972351
1782986488305281800,5.01628173828125,0.011390339583158493,-0.014424213208258152,0.04946235939860344
1782986488315356000,5.02635595703125,0.009982593357563019,-0.005404619034379721,0.03743525594472885
1782986488325430000,5.036429931640625,0.0029228192288428545,-0.011377557180821896,0.03212571144104004
1782986488335505000,5.0465048828125,-0.0019534286111593246,0.0033103092573583126,0.031133685261011124
1782986488345579000,5.0565791015625,-0.0041284323669970036,0.011817511171102524,0.029335251078009605
1782986488355652900,5.06665283203125,0.0014705975772812963,0.001582982949912548,0.02852511778473854
1782986488365727000,5.07672705078125,0.007933290675282478,0.007657120935618877,0.02762044221162796
1782986488375801900,5.0868017578125,0.019034944474697113,0.017044764012098312,0.023626232519745827
1782986488385876000,5.0968759765625,0.032526519149541855,0.002560629276558757,0.026618294417858124
1782986488395949800,5.10694970703125,0.04370167478919029,-0.014510499313473701,0.036788906902074814
1782986488406025000,5.11702490234375,0.05157877132296562,-0.030547788366675377,0.045516617596149445
1782986488416098800,5.127098876953125,0.0519992858171463,-0.04880775138735771,0.05140087381005287
1782986488426173000,5.1371728515625,0.05098408833146095,-0.05020298436284065,0.047377102077007294
1782986488436247800,5.147247802734375,0.052320197224617004,-0.03320375829935074,0.042322687804698944
1782986488446322000,5.157322021484375,0.057130396366119385,-0.023006249219179153,0.03418486937880516
1782986488456395800,5.167395751953125,0.06126362457871437,-0.017074057832360268,0.020238425582647324
1782986488466470000,5.177469970703125,0.06686638295650482,-0.009581254795193672,0.005976666230708361
1782986488476544800,5.187544677734375,0.07403694093227386,-0.0036453348584473133,-0.004933505784720182
1782986488486619000,5.197618896484375,0.08092840760946274,-0.004574245307594538,-0.00583711639046669
1782986488496693000,5.20769287109375,0.08541928976774216,0.003972104750573635,0.0015848471084609628
1782986488506766800,5.217766845703125,0.087467260658741,0.008638229221105576,0.017613081261515617
1782986488516841000,5.227841064453125,0.08657696843147278,0.0065324679017066956,0.041978877037763596
1782986488526914800,5.237914794921875,0.08295107632875443,-0.014195447787642479,0.05589921772480011
1782986488536990000,5.247989990234375,0.08051588386297226,-0.03128281980752945,0.05565261095762253
1782986488547063800,5.258063720703125,0.07746363431215286,-0.03946911171078682,0.05054040625691414
1782986488557138000,5.268137939453125,0.07551925629377365,-0.02978266216814518,0.036553751677274704
1782986488567212800,5.278212890625,0.07632806152105331,-0.01420503482222557,0.024772724136710167
1782986488577287000,5.288286865234375,0.07569209486246109,-0.00649651512503624,0.015484151430428028
1782986488587360800,5.29836083984375,0.0728454440832138,0.0024383901618421078,0.01053040474653244
1782986488597436000,5.308435791015625,0.06423677504062653,0.011330419220030308,0.015112373977899551
1782986488607509800,5.318509765625,0.05385444313287735,0.012002333998680115,0.027059048414230347
1782986488617583900,5.328583984375,0.04788017272949219,0.015615710988640785,0.050523363053798676
1782986488627658000,5.338657958984375,0.04633846879005432,0.0028751487843692303,0.06457739323377609
1782986488637732900,5.34873291015625,0.044797297567129135,-0.01973109319806099,0.07118682563304901
1782986488647807000,5.358806884765625,0.04144597798585892,-0.018325211480259895,0.07541859149932861
1782986488657880800,5.368880859375,0.03929547592997551,-0.031972046941518784,0.06502161175012589
1782986488667956000,5.3789560546875,0.031626369804143906,-0.04441726580262184,0.04722290486097336
1782986488678030000,5.389030029296875,0.019107380881905556,-0.029158683493733406,0.026205770671367645
1782986488688104000,5.39910400390625,0.006741792429238558,-0.00686190091073513,0.006381200160831213
1782986488698177800,5.409177734375,-0.0034823494497686625,-0.006402505561709404,-0.01788259483873844
1782986488708253000,5.4192529296875,-0.008419050835072994,-0.008521050214767456,-0.029889721423387527
1782986488718326800,5.429326904296875,-0.011952533386647701,-0.004798749927431345,-0.03919534012675285
1782986488728401000,5.43940087890625,-0.010302971117198467,-0.00875088106840849,-0.03785816580057144
1782986488738475800,5.449475830078125,-0.006976150441914797,-0.007266967557370663,-0.0264209546148777
1782986488748550000,5.4595498046875,-0.004817392211407423,0.002427471335977316,-0.0037923413328826427
1782986488758623700,5.469623779296875,-0.007225155830383301,0.01251179724931717,0.012283298186957836
1782986488768699000,5.479698974609375,-0.004141747951507568,0.027425233274698257,0.02562679909169674
1782986488778772700,5.489772705078125,0.004326038993895054,0.04358049854636192,0.04254479706287384
1782986488788846800,5.499846923828125,0.007077350746840239,0.03615321218967438,0.042387936264276505
1782986488798921000,5.5099208984375,0.004563592839986086,0.004828044679015875,0.03340243175625801
1782986488808995800,5.519995849609375,0.006715693045407534,-0.01751720905303955,0.009295497089624405
1782986488819070000,5.530070068359375,0.012738698162138462,-0.036913808435201645,-0.020914070308208466
1782986488829144000,5.54014404296875,0.013863084837794304,-0.045703038573265076,-0.04761305823922157
1782986488839219000,5.550218994140625,0.011008176021277905,-0.020617660135030746,-0.058572232723236084
1782986488849293000,5.56029296875,0.013317403383553028,0.03154993802309036,-0.04879710078239441
1782986488859368000,5.570367919921875,0.01914253458380699,0.05384911596775055,-0.028847360983490944
1782986488869442800,5.58044287109375,0.03013446554541588,0.022778017446398735,-0.014847389422357082
1782986488879517000,5.590516845703125,0.04267715662717819,-0.01429345179349184,-0.005539641249924898
1782986488889590800,5.6005908203125,0.05071777105331421,-0.010571950115263462,0.01489292923361063
1782986488899666000,5.610666015625,0.054964981973171234,0.006013417616486549,0.023970313370227814
1782986488909739800,5.62073974609375,0.05661507695913315,0.013590376824140549,0.023123694583773613
1782986488919814000,5.63081396484375,0.06278109550476074,0.017363544553518295,0.01152775902301073
1782986488929888800,5.640888671875,0.061277471482753754,0.011663580313324928,-0.007075486239045858
1782986488939963000,5.650962890625,0.0617496520280838,-0.013308880850672722,-0.029399966821074486
1782986488950036700,5.66103662109375,0.059062786400318146,-0.026088325306773186,-0.05307919532060623
1782986488960111900,5.67111181640625,0.05700309947133064,-0.02586541883647442,-0.06842965632677078
1782986488970185700,5.681185791015625,0.05047222971916199,-0.0006261091912165284,-0.07568464428186417
1782986488980259600,5.691259521484375,0.04128086194396019,0.027587952092289925,-0.07794779539108276
1782986488990333700,5.701333740234375,0.03404931351542473,0.03683018684387207,-0.07424120604991913
1782986489000408800,5.711408935546875,0.03139999881386757,0.01647990755736828,-0.06981050968170166
1782986489010482700,5.721482666015625,0.026978887617588043,-0.013962686993181705,-0.051666922867298126
1782986489020556800,5.731556884765625,0.0208877045661211,-0.030118221417069435,-0.03424904868006706
1782986489030631700,5.741631591796875,0.01245187595486641,-0.03645174950361252,-0.02099423110485077
1782986489040705800,5.751705810546875,0.006399842444807291,-0.030418891459703445,-0.018922025337815285
1782986489050780000,5.76177978515625,0.0025843314360827208,-0.0219710785895586,-0.03350229933857918
1782986489060853800,5.771853759765625,-0.0015630092239007354,-0.01290594507008791,-0.0513119250535965
1782986489070929000,5.781928955078125,-0.003216033335775137,-0.003020557342097163,-0.0662730261683464
1782986489081002800,5.792002685546875,-0.0038032603915780783,0.0036487970501184464,-0.07531099766492844
1782986489091076900,5.802076904296875,0.0022913836874067783,0.004652009811252356,-0.0804184079170227
1782986489101151700,5.81215185546875,0.006788397673517466,-0.005650961305946112,-0.08840123564004898
1782986489111225900,5.822225830078125,0.008923454210162163,-0.012599681504070759,-0.08619507402181625
1782986489121299700,5.8322998046875,0.0002665824140422046,-0.018577411770820618,-0.07461937516927719
1782986489131374800,5.842374755859375,-0.007622233126312494,-0.007778827100992203,-0.05128076300024986
1782986489141448700,5.85244873046875,-0.01630653440952301,0.012429505586624146,-0.020627779886126518
1782986489151522800,5.862522705078125,-0.019687950611114502,0.01167716272175312,0.005771336145699024
1782986489161597700,5.87259765625,-0.015396798960864544,0.01056262943893671,0.012975453399121761
1782986489171671800,5.882671875,-0.007261374965310097,0.0017180051654577255,0.012415390461683273
1782986489181745700,5.89274560546875,0.002433863002806902,-0.0012405004817992449,0.006868558935821056
1782986489191819800,5.90281982421875,0.008452607318758965,0.010861435905098915,0.014575214125216007
1782986489201894700,5.912894775390625,0.011700332164764404,0.03303677961230278,0.02562679909169674
1782986489211968800,5.92296875,0.011746671050786972,0.04646843299269676,0.044187434017658234
1782986489222043000,5.93304296875,0.01956225000321865,0.047030624002218246,0.0572638213634491
1782986489232118000,5.943117919921875,0.02347629703581333,0.03555453196167946,0.06579845398664474
1782986489242192000,5.95319189453125,0.031747277826070786,0.020562266930937767,0.06490496546030045
1782986489252265700,5.963265625,0.040537573397159576,0.011755192652344704,0.06975431740283966
1782986489262339800,5.97333984375,0.04622288793325424,0.00987287051975727,0.06434037536382675
1782986489272414700,5.983414794921875,0.041672877967357635,0.0088789789006114,0.060268402099609375
1782986489282488800,5.99348876953125,0.04092293232679367,0.007483748719096184,0.05110419541597366
1782986489292562700,6.003562744140625,0.034151844680309296,0.005033640656620264,0.050742007791996
1782986489302637800,6.013637939453125,0.02840740606188774,0.007514641620218754,0.04980537295341492
1782986489312711700,6.023711669921875,0.018683938309550285,0.010611099191009998,0.047756072133779526
1782986489322785800,6.033785888671875,0.01468600146472454,0.014480405487120152,0.04701251536607742
1782986489332860700,6.043860595703125,0.006829143967479467,0.007926099933683872,0.04502606391906738
1782986489342934800,6.053934814453125,0.002704440150409937,-0.0012397015234455466,0.0436105951666832
1782986489353008600,6.064008544921875,0.003479952458292246,-0.013080914504826069,0.03425251320004463
1782986489363083800,6.074083740234375,0.004859736189246178,-0.022601449862122536,0.028134964406490326
1782986489373157600,6.08415771484375,0.004522313829511404,-0.007440072949975729,0.024818796664476395
1782986489383232000,6.09423193359375,0.001980859087780118,0.014688398689031601,0.022836606949567795
1782986489393305900,6.104305908203125,0.0018897791160270572,0.018759040161967278,0.022343123331665993
1782986489403381000,6.114381103515625,0.00318940170109272,0.010782606899738312,0.017316406592726707
1782986489413454800,6.124454833984375,0.0015733955660834908,-0.014283332042396069,0.005053880624473095
1782986489423528700,6.13452880859375,-0.005330583080649376,-0.03972504287958145,-0.02130315825343132
1782986489433603800,6.144603759765625,-0.007601194549351931,-0.055631306022405624,-0.0477219820022583
1782986489443677700,6.154677734375,-0.003611512714996934,-0.03181944787502289,-0.061466824263334274
1782986489453751800,6.164751708984375,-0.0003587277897167951,-0.001107076066546142,-0.061173077672719955
1782986489463827000,6.174826904296875,-0.0026823359075933695,0.011373295448720455,-0.054614242166280746
1782986489473900800,6.18490087890625,-0.003490072675049305,0.002971555106341839,-0.03273584321141243
1782986489483974700,6.194974609375,0.0011595403775572777,0.0037742317654192448,-0.004611529875546694
1782986489494048800,6.205048828125,0.004637628793716431,0.011832957156002522,0.025533322244882584
1782986489504123600,6.21512353515625,0.006736998446285725,0.010156231001019478,0.047925978899002075
1782986489514197800,6.22519775390625,0.01312219351530075,0.012299010530114174,0.05769632011651993
1782986489524271600,6.235271728515625,0.023488281294703484,0.018869828432798386,0.05523529276251793
1782986489534346800,6.2453466796875,0.03233636915683746,0.02142885886132717,0.04060814529657364
1782986489544420600,6.255420654296875,0.036494094878435135,0.015778429806232452,0.018632806837558746
1782986489554495000,6.265494873046875,0.038904257118701935,0.009526127018034458,0.0015254586469382048
1782986489564569600,6.275569580078125,0.03730636090040207,0.0013339773286134005,-0.014394119381904602
1782986489574644000,6.28564404296875,0.027822043746709824,-0.007840879261493683,-0.026317358016967773
1782986489584717800,6.2957177734375,0.01569400727748871,-0.00657587731257081,-0.034621093422174454
1782986489594792000,6.3057919921875,0.00866219773888588,0.010671020485460758,-0.030188528820872307
1782986489604866800,6.31586669921875,0.0015907060587778687,0.032706014811992645,-0.015260179527103901
1782986489614941000,6.32594091796875,-0.0010514160385355353,0.04086940363049507,0.007986287586390972
1782986489625014800,6.336014892578125,0.0018724685069173574,0.02022244781255722,0.021809425204992294
1782986489635090000,6.34608984375,0.010583136230707169,-0.005272526293992996,0.03873168304562569
1782986489645163800,6.356163818359375,0.01696939580142498,-0.02010553516447544,0.037268541753292084
1782986489655237600,6.366237548828125,0.017848238348960876,-0.02809049002826214,0.033414680510759354
1782986489665312800,6.376312744140625,0.01128301490098238,-0.011285411193966866,0.017826400697231293
1782986489675386600,6.38638671875,0.002868490759283304,0.016918262466788292,0.006186256650835276
1782986489685460700,6.396460693359375,-0.008509332314133644,0.028430042788386345,-0.011199924163520336
1782986489695534600,6.40653466796875,-0.017291905358433723,0.015670040622353554,-0.029751770198345184
1782986489705609700,6.416609619140625,-0.021442973986268044,0.011607387103140354,-0.039379630237817764
1782986489715683600,6.42668359375,-0.0219135545194149,0.001615207176655531,-0.038666967302560806
1782986489725758000,6.436758056640625,-0.02564331144094467,-0.014615960419178009,-0.043840955942869186
1782986489735832600,6.44683251953125,-0.025114141404628754,-0.023364178836345673,-0.04659280180931091
1782986489745907000,6.456906982421875,-0.02028263546526432,-0.0009462211164645851,-0.033967819064855576
1782986489755980800,6.466980712890625,-0.019154785200953484,0.023667512461543083,-0.02269226312637329
1782986489766056000,6.477055908203125,-0.01961711049079895,0.02364194579422474,-0.01515897922217846
1782986489776129800,6.4871298828125,-0.01739203929901123,0.005092496518045664,-0.008533567190170288
1782986489786204000,6.497203857421875,-0.015385613776743412,-0.0028248149901628494,-0.004793157335370779
1782986489796277800,6.50727783203125,-0.018667161464691162,-0.0020572920329868793,-0.004423776641488075
1782986489806353000,6.517352783203125,-0.019273828715085983,-0.004735899157822132,-0.014798120595514774
1782986489816426800,6.5274267578125,-0.01465617399662733,0.0007515440811403096,-0.023065904155373573
1782986489826500900,6.5375009765625,-0.008791627362370491,0.02743082493543625,-0.025524534285068512
1782986489836575700,6.54757568359375,-0.007217432837933302,0.051291149109601974,-0.018158230930566788
1782986489846649900,6.55764990234375,-0.011080081574618816,0.03778040036559105,-0.0056980992667376995
1782986489856723700,6.5677236328125,-0.016211461275815964,-0.002525209216400981,-0.0023177489638328552
1782986489866798800,6.577798828125,-0.015873238444328308,-0.03171558678150177,-0.0006005428149364889
1782986489876872200,6.5878720703125,-0.01732093282043934,-0.026673423126339912,0.0014285196084529161
1782986489886946600,6.597946533203125,-0.01876889355480671,-0.009363674558699131,-0.012014850974082947
1782986489897020400,6.6080205078125,-0.027122963219881058,0.003665308468043804,-0.025542378425598145
1782986489907095600,6.618095458984375,-0.025021996349096298,0.02726038359105587,-0.02094629406929016
1782986489917169400,6.62816943359375,-0.020916467532515526,0.05278065800666809,-0.013846839778125286
1782986489927243500,6.638243408203125,-0.020482106134295464,0.04644499719142914,0.001814677962101996
1782986489937318400,6.648318359375,-0.019884224981069565,0.01654302328824997,0.01581837795674801
1782986489947392500,6.658392578125,-0.02448350563645363,-0.0020189424976706505,0.025060079991817474
1782986489957466400,6.66846630859375,-0.028175178915262222,-0.014815697446465492,0.019871974363923073
1782986489967541500,6.67854150390625,-0.03477635607123375,-0.017655160278081894,0.005519933998584747
1782986489977615400,6.688615478515625,-0.03579874336719513,-0.0035896748304367065,-0.018809374421834946
1782986489987689500,6.698689453125,-0.03488527983427048,0.021102355793118477,-0.03301867097616196
1782986489997763300,6.708763427734375,-0.025891518220305443,0.034271951764822006,-0.04424389451742172
1782986490007838500,6.71883837890625,-0.028557077050209045,0.03008200228214264,-0.04693262279033661
1782986490017912300,6.728912353515625,-0.02756105363368988,0.010408165864646435,-0.038771629333496094
1782986490027986200,6.738986083984375,-0.02965456433594227,-0.009921872988343239,-0.02948252484202385
1782986490038061300,6.749061279296875,-0.03910985216498375,-0.026068085804581642,-0.024630777537822723
1782986490048135400,6.759135498046875,-0.039439551532268524,-0.026320820674300194,-0.02141927182674408
1782986490058209500,6.76920947265625,-0.030460437759757042,0.003980360459536314,-0.015095862559974194
1782986490068284400,6.779284423828125,-0.02490055561065674,0.026513632386922836,-0.014699317514896393
1782986490078358500,6.789358642578125,-0.02064642310142517,0.024805480614304543,-0.011332282796502113
1782986490088432400,6.799432373046875,-0.010566091164946556,0.02623320184648037,-0.0017776599852368236
1782986490098506500,6.809506591796875,-0.002672215923666954,0.030188262462615967,0.0023105584550648928
1782986490108581400,6.819581298828125,0.008481635712087154,0.009474195539951324,0.008429969660937786
1782986490118655500,6.829655517578125,0.011891813017427921,0.004217115696519613,0.02118970826268196
1782986490128729300,6.839729248046875,0.012401808053255081,0.008866994641721249,0.03299150615930557
1782986490138804500,6.849804443359375,0.003698598127812147,0.0023840616922825575,0.03672046214342117
1782986490148878300,6.85987841796875,0.0009092031978070736,-0.00561074772849679,0.029271868988871574
1782986490158952400,6.869952392578125,-0.001222657272592187,-0.005429386626929045,0.01709536276757717
1782986490169027300,6.88002734375,-0.0032501218374818563,-0.002531600883230567,-0.0009054747642949224
1782986490179101400,6.890101318359375,-0.006342051550745964,-0.005078115500509739,-0.022769760340452194
1782986490189175300,6.90017529296875,-0.005428321193903685,-0.004573446698486805,-0.02256576344370842
1782986490199249400,6.91024951171875,-0.008223574608564377,0.0057098171673715115,-0.011662514880299568
1782986490209324300,6.92032421875,-0.016934508457779884,0.005967877805233002,0.005073588341474533
1782986490219398400,6.9303984375,-0.01841549202799797,0.002672215923666954,0.021750302985310555
1782986490229472500,6.940472412109375,-0.008354336023330688,-0.0005677859298884869,0.03261999413371086
1782986490239547400,6.95054736328125,-0.0020186761394143105,-0.00606428412720561,0.03117682784795761
1782986490249621500,6.96062158203125,0.000358461489668116,-0.014620487578213215,0.024513598531484604
1782986490259695400,6.9706953125,-0.0024407871533185244,-0.01853080652654171,0.013014068827033043
1782986490269770500,6.9807705078125,-0.011582620441913605,-0.010941863991320133,0.0004665858286898583
1782986490279844400,6.99084423828125,-0.01624794490635395,0.002883670851588249,-0.004580370616167784
1782986490289918500,7.00091845703125,-0.018791796639561653,0.012506737373769283,-0.006607036106288433
1782986490299992300,7.010992431640625,-0.017826134338974953,0.011210576631128788,-0.007412376347929239
1782986490310067500,7.0210673828125,-0.020602213218808174,-0.0006591323763132095,-0.004485561978071928
1782986490320141300,7.031141357421875,-0.016943562775850296,-0.008539958856999874,-0.003486344125121832
1782986490330215400,7.04121533203125,-0.011265171691775322,0.0021544971968978643,0.001844771672040224
1782986490340290300,7.051290283203125,-0.01010935939848423,0.014897456392645836,0.005303951445966959
1782986490350364400,7.061364501953125,-0.006996656768023968,0.027767715975642204,0.01133814174681902
1782986490360438300,7.071438232421875,-0.008566856384277344,0.032579779624938965,0.008934106677770615
1782986490370513400,7.081513427734375,-0.0031380027066916227,0.02346830815076828,0.006650179624557495
1782986490380587300,7.091587158203125,0.008935172110795975,0.011524030938744545,0.00447011599317193
1782986490390661400,7.101661376953125,0.020925255492329597,0.007257646415382624,0.0004623247659765184
1782986490400735500,7.111735595703125,0.03273024782538414,0.008128500543534756,-0.0019893813878297806
1782986490410810400,7.121810302734375,0.04223586991429329,0.011110441759228706,-0.008831041865050793
1782986490420884500,7.131884521484375,0.049370214343070984,0.01076875813305378,-0.00827870238572359
1782986490430958600,7.14195849609375,0.045639656484127045,0.010127202607691288,-0.00871972180902958
1782986490441033500,7.152033447265625,0.043887827545404434,0.008186823688447475,-0.000002663161012605997
1782986490451107600,7.162107666015625,0.04163133352994919,0.011088071390986443,0.007859254255890846
1782986490461181400,7.172181396484375,0.04238021373748779,0.00815087091177702,0.012972258031368256
1782986490471256600,7.182256591796875,0.04419036582112312,0.005600627511739731,0.02104989066720009
1782986490481330400,7.192330322265625,0.04267529025673866,0.012264655902981758,0.024566862732172012
1782986490491404300,7.202404296875,0.037095703184604645,0.030047914013266563,0.01998915523290634
1782986490501478400,7.212478515625,0.03935086727142334,0.01629907824099064,0.013005547225475311
1782986490511553300,7.22255322265625,0.03983449935913086,0.002173938322812319,0.006250439211726189
1782986490521627400,7.23262744140625,0.03478780761361122,-0.00490314606577158,0.0007813714328221977
1782986490531701200,7.242701171875,0.034576088190078735,-0.0021664814557880163,-0.002061553066596389
1782986490541776400,7.2527763671875,0.030888672918081284,0.008251005783677101,-0.006280532572418451
1782986490551850200,7.262850341796875,0.024058464914560318,0.012310195714235306,-0.006585464812815189
1782986490561924400,7.27292431640625,0.015788016840815544,0.018184330314397812,-0.0076422072015702724
1782986490571999200,7.282999267578125,0.013778396882116795,0.015497999265789986,-0.005801163613796234
1782986490582073300,7.2930732421875,0.011597000993788242,0.004966262727975845,-0.0022280006669461727
1782986490592147500,7.3031474609375,0.01242444571107626,0.004858671221882105,0.004841094370931387
1782986490602221600,7.3132216796875,0.01558348722755909,0.018687933683395386,0.012053733691573143
1782986490612296400,7.32329638671875,0.020777184516191483,0.03231905773282051,0.017140105366706848
1782986490622370600,7.33337060546875,0.02550908923149109,0.03267006203532219,0.009416405111551285
1782986490632444400,7.3434443359375,0.028808744624257088,0.022223280742764473,0.004452272783964872
1782986490642519600,7.35351953125,0.027879035100340843,0.014489993453025818,-0.0046365633606910706
1782986490652593400,7.363593505859375,0.018912438303232193,0.008291485719382763,-0.012564794160425663
1782986490662667500,7.37366748046875,0.0041609229519963264,-0.007858721539378166,-0.016655676066875458
1782986490672742400,7.383742431640625,0.0019478360190987587,-0.009069661609828472,-0.018918562680482864
1782986490682816500,7.39381640625,0.006508499383926392,-0.01516803354024887,-0.03025670535862446
1782986490692890400,7.403890380859375,0.011391937732696533,-0.022013690322637558,-0.036377981305122375
1782986490702965500,7.413965576171875,0.013903298415243626,-0.012473979964852333,-0.04374055564403534
1782986490713039400,7.424039306640625,0.016148876398801804,0.009490174241364002,-0.03891943767666817
1782986490723113200,7.43411328125,0.015496933832764626,0.022495722398161888,-0.027952006086707115
1782986490733187300,7.444187255859375,0.019356919452548027,0.028802353888750076,-0.01299409568309784
1782986490743262200,7.45426220703125,0.022548452019691467,0.02635783702135086,0.0057164751924574375
1782986490753336300,7.46433642578125,0.024033697322010994,0.01085930597037077,0.016354205086827278
1782986490763410400,7.474410400390625,0.024220917373895645,-0.011396997608244419,0.015906261280179024
1782986490773485300,7.4844853515625,0.025230787694454193,-0.01884186454117298,0.010896855965256691
1782986490783559400,7.494559326171875,0.020174244418740273,-0.009976468048989773,-0.00038242992013692856
1782986490793633500,7.504633544921875,0.019173961132764816,-0.0036189695820212364,-0.015137674286961555
1782986490803708400,7.51470849609375,0.01672651618719101,0.0021528995130211115,-0.02694692835211754
1782986490813782500,7.524782470703125,0.014463361352682114,-0.005222458858042955,-0.041315481066703796
1782986490823856400,7.5348564453125,0.014034326188266277,-0.012927782721817493,-0.04403803125023842
1782986490833930500,7.544930419921875,0.011694739572703838,-0.006738330237567425,-0.03887176513671875
1782986490844005400,7.55500537109375,0.0099596893414855,0.011611648835241795,-0.02189810760319233
1782986490854079500,7.56507958984375,0.007251521106809378,0.020004067569971085,0.002692189533263445
1782986490864153300,7.5751533203125,0.00860573910176754,0.013002350926399231,0.019786221906542778
1782986490874228000,7.58522802734375,0.010278203524649143,0.006401440128684044,0.02533145621418953
1782986490884302000,7.595302001953125,0.007266434840857983,0.006938333623111248,0.019937489181756973
1782986490894376000,7.6053759765625,0.005077050067484379,0.008371380157768726,0.010106430388987064
1782986490904451000,7.615451171875,0.0013933659065514803,0.006107693538069725,-0.01380822341889143
1782986490914525000,7.62552490234375,-0.0008756473544053733,-0.004493285436183214,-0.042757850140333176
1782986490924599300,7.635599365234375,0.0016319850692525506,-0.010929347015917301,-0.06244393810629845
1782986490934673200,7.645673095703125,0.0031670311000198126,-0.002038117265328765,-0.0678488239645958
1782986490944748300,7.655748291015625,0.0036392095498740673,0.003823766717687249,-0.06685253232717514
1782986490954822100,7.665822265625,0.0028213527984917164,-0.0009443568997085094,-0.05625155568122864
1782986490964896000,7.67589599609375,-0.003507383167743683,0.008745288476347923,-0.02961035631597042
1782986490974971100,7.68597119140625,-0.007529555354267359,0.022463496774435043,0.005600095260888338
1782986490985045000,7.696044921875,-0.011303254403173923,0.01028539426624775,0.025848109275102615
1782986490995119000,7.706119140625,-0.007576693315058947,-0.007637679576873779,0.026875821873545647
1782986491005194000,7.716194091796875,-0.00007163903501350433,-0.017663948237895966,0.019475696608424187
1782986491015268000,7.72626806640625,0.006336458958685398,-0.01630786620080471,0.009810286574065685
1782986491025342000,7.736342041015625,0.001984054921194911,-0.0010458233300596476,-0.002737196860834956
1782986491035416000,7.746416015625,-0.008993495255708694,0.007102650590240955,-0.021385183557868004
1782986491045491000,7.756490966796875,-0.012595952488481998,0.017784057185053825,-0.03491643816232681
1782986491055565000,7.76656494140625,-0.012823120690882206,0.023930899798870087,-0.03858840465545654
1782986491065639000,7.776638916015625,-0.009843575768172741,0.011245463974773884,-0.03892049938440323
1782986491075714000,7.786714111328125,-0.008135423995554447,-0.00788668543100357,-0.034031204879283905
1782986491085788000,7.796787841796875,-0.009031844325363636,-0.013739247806370258,-0.01882695034146309
1782986491095862300,7.8068623046875,-0.01261219847947359,-0.003279150230810046,0.0031518512405455112
1782986491105937000,7.81693701171875,-0.015186409465968609,0.004278901033103466,0.02214737981557846
1782986491116011300,7.82701123046875,-0.018011758103966713,-0.0007976167253218591,0.033540382981300354
1782986491126085000,7.837085205078125,-0.01890498213469982,0.0038932752795517445,0.02401106059551239
1782986491136160300,7.84716015625,-0.017779795452952385,0.0038663772866129875,0.007710383739322424
1782986491146234000,7.857234130859375,-0.01750549115240574,0.009534915909171104,-0.007960454560816288
1782986491156308200,7.86730810546875,-0.012374644167721272,0.017648501321673393,-0.0229354090988636
1782986491166382000,7.877382080078125,-0.011541075073182583,0.02576102316379547,-0.028628714382648468
1782986491176457200,7.887457275390625,-0.0129336416721344,0.0526626780629158,-0.02985510043799877
1782986491186531000,7.897531005859375,-0.018555041402578354,0.07796350866556168,-0.04144943878054619
1782986491196605000,7.90760498046875,-0.01642744243144989,0.03454785794019699,-0.04722876474261284
1782986491206680000,7.91768017578125,-0.010203635320067406,0.007906125858426094,-0.03129853308200836
1782986491216754000,7.92775390625,-0.010469951666891575,-0.006131928414106369,0.003754790872335434
1782986491226828000,7.937828125,-0.015565111301839352,-0.003698598127812147,0.041798047721385956
1782986491236903000,7.94790283203125,-0.0195515975356102,0.014682806096971035,0.06692257523536682
1782986491246977000,7.95797705078125,-0.02551761083304882,0.015542208217084408,0.07084833830595016
1782986491257051000,7.96805078125,-0.03549301251769066,0.010439857840538025,0.04926767945289612
1782986491267125200,7.978125244140625,-0.04042784869670868,0.0008482168195769191,0.014186392538249493
1782986491277200000,7.988199951171875,-0.04253041744232178,-0.009394832886755466,-0.021925805136561394
1782986491287274200,7.998274169921875,-0.03916018456220627,-0.016568323597311974,-0.056604690849781036
1782986491297348000,8.00834814453125,-0.03440617769956589,-0.0024474449455738068,-0.07166726142168045
1782986491307423200,8.01842333984375,-0.030001042410731316,0.033913224935531616,-0.06521628797054291
1782986491317497000,8.0284970703125,-0.02900555171072483,0.07454267889261246,-0.042088598012924194
1782986491327571200,8.0385712890625,-0.03616359829902649,0.0870552733540535,-0.02382943220436573
1782986491337646000,8.04864599609375,-0.03888188675045967,0.054256048053503036,-0.010114951990544796
1782986491347720200,8.05872021484375,-0.0396675169467926,0.007224889472126961,-0.005588111001998186
1782986491357794000,8.0687939453125,-0.03717639669775963,-0.039499737322330475,-0.011066232807934284
1782986491367868200,8.0788681640625,-0.027659324929118156,-0.0644058883190155,-0.013003150001168251
1782986491377943000,8.088943115234375,-0.015152321197092533,-0.050575826317071915,-0.00990296434611082
1782986491388017200,8.09901708984375,-0.009382050484418869,-0.014238590374588966,-0.014386129565536976
1782986491398091000,8.109091064453125,-0.006930610164999962,0.013586648739874363,-0.011885687708854675
1782986491408166100,8.119166259765626,-0.006178533658385277,0.02587047964334488,-0.008055529557168484
1782986491418240000,8.129239990234375,-0.0015110776294022799,0.016980580985546112,0.0002615224220789969
1782986491428313900,8.13931396484375,0.00643845833837986,0.005644037388265133,0.015845809131860733
1782986491438389000,8.149388916015624,0.0143520412966609,-0.009937052614986897,0.0246100053191185
1782986491448462800,8.159462890625,0.019356653094291687,-0.015546469017863274,0.02822045236825943
1782986491458537200,8.169537109375,0.0265988539904356,-0.013943511992692947,0.029893716797232628
1782986491468611800,8.17961181640625,0.030008764937520027,-0.0054701329208910465,0.0255194753408432
1782986491478686200,8.189686279296875,0.02196921408176422,0.003894074121490121,0.02178891934454441
1782986491488760000,8.199760009765624,0.01667937822639942,0.005900499876588583,0.006053897552192211
1782986491498834200,8.209834228515625,0.018193384632468224,-0.008715461008250713,-0.01064811646938324
1782986491508909000,8.219908935546876,0.01823626086115837,-0.02742816135287285,-0.03074459731578827
1782986491518983200,8.229983154296875,0.022664565593004227,-0.026257170364260674,-0.041308559477329254
1782986491529057000,8.24005712890625,0.024941302835941315,-0.017361413687467575,-0.04417678341269493
1782986491539132200,8.250132080078124,0.028429243713617325,-0.0023209447972476482,-0.03359737619757652
1782986491549206000,8.2602060546875,0.027064640074968338,-0.0006977482116781175,-0.017479658126831055
1782986491559280000,8.270280029296876,0.016411731019616127,-0.010748517699539661,0.004198739770799875
1782986491569355000,8.28035498046875,0.014249242842197418,-0.020355071872472763,0.012626845389604568
1782986491579429000,8.29042919921875,0.013993846252560616,-0.022053370252251625,0.014898788183927536
1782986491589503000,8.3005029296875,0.012541358359158039,-0.011065434664487839,0.012746421620249748
1782986491599576800,8.310576904296875,0.009739979170262814,-0.001811482128687203,-0.0011315771844238043
1782986491609652000,8.32065185546875,-0.00202293717302382,-0.007112238090485334,-0.023502130061388016
1782986491619726000,8.33072607421875,-0.008067780174314976,0.006076268386095762,-0.04106008633971214
1782986491629800200,8.34080029296875,-0.012449212372303009,0.019583554938435555,-0.0513225756585598
1782986491639875000,8.350875,-0.01327026542276144,0.018214156851172447,-0.05385630577802658
1782986491649949200,8.36094921875,-0.005344431847333908,0.015839949250221252,-0.050578221678733826
1782986491660023000,8.37102294921875,-0.0006151901907287538,0.03404824808239937,-0.03778519481420517
1782986491670098200,8.38109814453125,0.004308728501200676,0.026581009849905968,-0.023615580052137375
1782986491680172000,8.391172119140625,0.0025571673177182674,0.0026940538082271814,-0.011966913938522339
1782986491690246100,8.40124609375,0.007279218174517155,-0.007874701172113419,-0.008103466592729092
1782986491700321000,8.411321044921875,0.0076209018006920815,-0.0022772690281271935,0.0002490055630914867
1782986491710395100,8.42139501953125,0.009778061881661415,0.013556554913520813,0.006298908498138189
1782986491720469000,8.431468994140625,0.007107177749276161,0.0276848915964365,0.008760468102991581
1782986491730543000,8.441543212890625,0.0052176653407514095,0.02852591685950756,0.005658152047544718
1782986491740618000,8.451617919921874,0.009999637492001057,0.029093703255057335,0.0041060615330934525
1782986491750692000,8.461692138671875,0.010117881931364536,0.03068920224905014,0.002817890839651227
1782986491760766000,8.471765869140626,0.010217217728495598,0.031852204352617264,0.005923136603087187
1782986491770841000,8.481841064453125,0.01438266783952713,0.04207208752632141,0.014728878624737263
1782986491780915000,8.4919150390625,0.017591509968042374,0.032154474407434464,0.01811908185482025
1782986491790989000,8.501989013671874,0.014200241304934025,0.012194348499178886,0.021564414724707603
1782986491801064000,8.51206396484375,0.013374927453696728,0.010085923597216606,0.02213859185576439
1782986491811138000,8.522137939453126,0.014936605468392372,0.011006845161318779,0.02178252674639225
1782986491821212200,8.532212158203125,0.017765149474143982,0.004822185728698969,0.014001836068928242
1782986491831287000,8.542287109375,0.024707211181521416,0.006327936891466379,0.01531930174678564
1782986491841361200,8.552361083984374,0.023866716772317886,0.021954301744699478,0.01900431700050831
1782986491851435300,8.562435302734375,0.02154630422592163,0.02088450826704502,0.019448265433311462
1782986491861509000,8.572509033203126,0.011565043590962887,0.014599981717765331,0.016773920506238937
1782986491871584300,8.582584228515625,0.00791704561561346,0.006839263718575239,0.01200073678046465
1782986491881658000,8.592658203125,0.002891660202294588,0.009222260676324368,0.0024738102219998837
1782986491891732200,8.602732177734374,0.00007297061529243365,0.009822004474699497,-0.00857138354331255
1782986491901807000,8.61280712890625,-0.004969458561390638,0.0040735709480941296,-0.014639396220445633
1782986491911881200,8.622881103515626,-0.0024554345291107893,0.006472812965512276,-0.019660785794258118
1782986491921955000,8.632955078125,0.0003347593592479825,0.002901247702538967,-0.018367288634181023
1782986491932030200,8.6430302734375,-0.0005241101025603712,0.0013203952694311738,-0.019963588565587997
1782986491942104000,8.65310400390625,-0.004284227266907692,0.003192863892763853,-0.01798485964536667
1782986491952178200,8.66317822265625,-0.0020008329302072525,0.01727406121790409,-0.015128086321055889
1782986491962252000,8.673251953125,0.0006703176186420023,0.02058463729918003,-0.01937423087656498
1782986491972327200,8.6833271484375,0.007663778495043516,0.011380219832062721,-0.023317307233810425
1782986491982401000,8.693401123046876,0.019539613276720047,0.019688483327627182,-0.01642078533768654
1782986491992475100,8.70347509765625,0.022039521485567093,0.030305175110697746,-0.005989182740449905
1782986492002550000,8.713550048828125,0.019775036722421646,0.031099064275622368,0.0022213426418602467
1782986492012624400,8.723624267578124,0.018077004700899124,0.03316274657845497,0.010883274488151073
1782986492022698200,8.7336982421875,0.0145874647423625,0.021217137575149536,0.015270565636456013
1782986492032773400,8.7437734375,0.009494435973465443,0.0011283813510090113,0.006914365105330944
1782986492042847200,8.75384716796875,0.011986088939011097,-0.010636931285262108,-0.0155544588342309
1782986492052921000,8.763921142578125,0.01721653714776039,-0.006956443190574646,-0.04540662840008736
1782986492062995200,8.7739951171875,0.02056998945772648,-0.0025843314360827208,-0.06962887942790985
1782986492073070000,8.784070068359375,0.022964704781770706,0.012170379981398582,-0.08058086037635803
1782986492083144200,8.794144287109376,0.0241351630538702,0.028059864416718483,-0.06749328970909119
1782986492093218000,8.804218017578124,0.022777484729886055,0.0348365418612957,-0.04225904121994972
1782986492103293200,8.814293212890625,0.024698421359062195,0.027758926153182983,-0.012500079348683357
1782986492113367000,8.824366943359376,0.028114192187786102,0.02111220918595791,0.016535300761461258
1782986492123441200,8.834441162109375,0.034091923385858536,0.012554141692817211,0.024516528472304344
1782986492133516000,8.84451611328125,0.039864592254161835,0.005348426289856434,0.02075800858438015
1782986492143590100,8.854590087890625,0.04277569428086281,0.00042450788896530867,0.0067937239073216915
1782986492153664000,8.8646640625,0.038478415459394455,0.002612294629216194,-0.016655143350362778
1782986492163739100,8.8747392578125,0.03533695265650749,0.0037558560725301504,-0.03629382699728012
1782986492173813000,8.88481298828125,0.030010895803570747,-0.004375307355076075,-0.05091804265975952
1782986492183887400,8.894887451171876,0.027647340670228004,-0.012894493527710438,-0.058465439826250076
1782986492193961200,8.904961181640624,0.023803599178791046,-0.02155083231627941,-0.06509964168071747
1782986492204036400,8.915036376953125,0.02646596170961857,-0.018459435552358627,-0.05573303624987602
1782986492214110200,8.925110107421874,0.031747009605169296,0.005275722127407789,-0.03232012316584587
1782986492224184000,8.93518408203125,0.03392387926578522,0.007424892857670784,-0.008166050538420677
1782986492234259200,8.94525927734375,0.03892289847135544,-0.009486978873610497,0.007985488511621952
1782986492244333300,8.955333251953125,0.040957286953926086,-0.009051818400621414,0.01733558066189289
1782986492254407200,8.9654072265625,0.04266863316297531,-0.006340986583381891,0.01727539300918579
1782986492264482300,8.975482421875,0.03624588996171951,-0.009417736902832985,0.01239168830215931
1782986492274556200,8.98555615234375,0.03401602432131767,-0.003192597534507513,0.002653573639690876
1782986492284630000,8.995630126953126,0.03243836760520935,0.007393201347440481,-0.009268865920603275
1782986492294705200,9.005705078125,0.035222169011831284,-0.0024578312877565622,-0.021436583250761032
1782986492304779000,9.015779052734375,0.03906244784593582,-0.008006793446838856,-0.029583191499114037
1782986492314853000,9.02585302734375,0.04068883880972862,0.0054331147111952305,-0.021582523360848427
1782986492324927000,9.035927001953125,0.03614335507154465,0.01654488779604435,-0.012308331206440926
1782986492335002000,9.046002197265626,0.030433006584644318,0.022976689040660858,0.0037555897142738104
1782986492345076000,9.056075927734375,0.02900475263595581,0.027899274602532387,0.01732705906033516
1782986492355150300,9.066150390625,0.03044978529214859,0.0327901691198349,0.0256947111338377
1782986492365225000,9.076224853515624,0.02052444964647293,0.036543361842632294,0.026943467557430267
1782986492375299300,9.08629931640625,0.011390073224902153,0.045822348445653915,0.02762497030198574
1782986492385373200,9.096373291015626,0.003996339626610279,0.05859540402889252,0.01612437516450882
1782986492395448300,9.1064482421875,-0.005167065188288689,0.07423854619264603,-0.0012663330417126417
1782986492405522200,9.116522216796875,-0.0019465044606477022,0.06035948172211647,-0.02630670554935932
1782986492415596300,9.12659619140625,0.0023811322171241045,0.045280396938323975,-0.04406226798892021
1782986492425670100,9.136670166015625,0.0006506102508865297,0.037408892065286636,-0.04502153769135475
1782986492435745300,9.146745361328126,0.0035657063126564026,0.040516000241041183,-0.027718180790543556
1782986492445819100,9.156819091796875,0.014062289148569107,0.03145592659711838,-0.010333064943552017
1782986492455893000,9.16689306640625,0.037516750395298004,0.003312173532322049,-0.00008628641808172688
1782986492465968000,9.176968017578124,0.05324138328433037,-0.00839881133288145,0.012678510509431362
1782986492476042000,9.1870419921875,0.06048944219946861,-0.00123783724848181,0.030823426321148872
1782986492486116000,9.1971162109375,0.05825957655906677,0.022482139989733696,0.04473311826586723
1782986492496191200,9.207191162109375,0.051663462072610855,0.04480661824345589,0.0480375662446022
1782986492506265000,9.21726513671875,0.042336802929639816,0.06516461819410324,0.03555772826075554
1782986492516339000,9.2273388671875,0.03158508986234665,0.07691475749015808,0.02110874652862549
1782986492526413300,9.237413330078125,0.021471204236149788,0.07440099865198135,0.012141617946326733
1782986492536488000,9.247488037109376,0.01720348745584488,0.05257159844040871,0.013048158027231693
1782986492546562300,9.257562255859375,0.00791358295828104,0.03713858127593994,0.03260321542620659
1782986492556636200,9.26763623046875,0.007863782346248627,0.042927492409944534,0.0530879870057106
1782986492566710300,9.277710205078124,-0.0005046690348535776,0.0575900599360466,0.08061175793409348
1782986492576785200,9.28778515625,-0.018693260848522186,0.0769224762916565,0.0920841172337532
1782986492586859300,9.297859375,-0.030400516465306282,0.07195461541414261,0.08611863851547241
1782986492596933000,9.30793310546875,-0.025103755295276642,0.07268698513507843,0.06794043630361557
1782986492607008300,9.31800830078125,-0.0167347714304924,0.08933919668197632,0.0580635704100132
1782986492617082000,9.32808203125,-0.011327489279210567,0.1285364031791687,0.058830294758081436
1782986492627156200,9.33815625,-0.018507903441786766,0.1408335566520691,0.05854586884379387
1782986492637231000,9.348231201171876,-0.027691815048456192,0.12479545921087265,0.05204642191529274
1782986492647305200,9.35830517578125,-0.033780865371227264,0.11095528304576874,0.051953479647636414
1782986492657379000,9.368379150390625,-0.03435477614402771,0.11509329825639725,0.07553870230913162
1782986492667454200,9.3784541015625,-0.03381868451833725,0.14177285134792328,0.10903353989124298
1782986492677528000,9.388528076171875,-0.028485171496868134,0.15719787776470184,0.1422564834356308
1782986492687602000,9.398601806640626,-0.021085310727357864,0.14697399735450745,0.14758838713169098
1782986492697676300,9.40867626953125,-0.014363759197294712,0.11692608892917633,0.1283225566148758
1782986492707751000,9.4187509765625,-0.013995178043842316,0.0701894760131836,0.08726806193590164
1782986492717825300,9.4288251953125,-0.02034229040145874,0.02792510762810707,0.029342176392674446
1782986492727899100,9.438899169921875,-0.03184767812490463,-0.016813067719340324,-0.047692686319351196
1782986492737974300,9.448974365234376,-0.04177967086434364,-0.054128747433423996,-0.13377723097801208
1782986492748048100,9.459048095703125,-0.04278022050857544,-0.06887626647949219,-0.21012313663959503
1782986492758122200,9.469122314453125,-0.03847069293260574,0.014711568132042885,-0.2489435076713562
1782986492768197000,9.479197021484374,-0.03854925557971001,0.11138085275888443,-0.2431175708770752
1782986492778271200,9.489271240234375,-0.050871171057224274,0.1840827465057373,-0.18913477659225464
1782986492788345000,9.499344970703126,-0.0667385533452034,0.21120305359363556,-0.11808563023805618
1782986492798420200,9.509420166015625,-0.0798969641327858,0.18167632818222046,-0.04676004871726036
1782986492808494000,9.519494140625,-0.08581104129552841,0.13767823576927185,0.008942361921072006
1782986492818568200,9.529568115234374,-0.09483622759580612,0.11399980634450912,0.03663897141814232
1782986492828642000,9.53964208984375,-0.10387100279331207,0.0826948806643486,0.04024675488471985
1782986492838717200,9.54971728515625,-0.11694925278425217,0.06297550350427628,0.013338441960513592
1782986492848791000,9.559791015625,-0.1261265128850937,0.056656621396541595,-0.02382597140967846
1782986492858865200,9.569865234375,-0.12713079154491425,0.06574199348688126,-0.0587322898209095
1782986492868940000,9.57993994140625,-0.12874732911586761,0.0714092031121254,-0.08290420472621918
1782986492879014100,9.59001416015625,-0.12206066399812698,0.05355670303106308,-0.10786174982786179
1782986492889088500,9.600088623046876,-0.11146048456430435,0.044491034001111984,-0.12283138185739517
1782986492899163100,9.6101630859375,-0.09763254970312119,0.054729025810956955,-0.12789325416088104
1782986492909237500,9.620237548828126,-0.09085533767938614,0.060620203614234924,-0.12609454989433289
1782986492919311400,9.630311279296874,-0.09998225420713425,0.04211416468024254,-0.13889023661613464
1782986492929386500,9.640386474609375,-0.1107342392206192,0.00006897587445564568,-0.16206559538841248
1782986492939460400,9.65046044921875,-0.13062246143817902,-0.04824129864573479,-0.2048833668231964
1782986492949534500,9.660534423828125,-0.14759984612464905,-0.09714732319116592,-0.2543955445289612
1782986492959608300,9.6706083984375,-0.15389609336853027,-0.13050846755504608,-0.30317825078964233
1782986492969683500,9.680683349609374,-0.15741679072380066,-0.11911334097385406,-0.3328258991241455
1782986492979757300,9.69075732421875,-0.15473657846450806,-0.067899689078331,-0.33120375871658325
1782986492989831200,9.7008310546875,-0.14718465507030487,-0.021442441269755363,-0.2998511493206024
1782986492999906300,9.71090625,-0.1432218700647354,-0.00954077485948801,-0.2507142424583435
1782986493009980200,9.720980224609375,-0.13126906752586365,-0.013201556168496609,-0.18177352845668793
1782986493020054300,9.73105419921875,-0.11998073011636734,-0.025236114859580994,-0.09899182617664337
1782986493030129400,9.74112939453125,-0.10946337878704071,-0.02647395245730877,-0.00945129245519638
1782986493040203300,9.751203369140624,-0.09194750338792801,-0.03634202852845192,0.06365007907152176
1782986493050277000,9.761277099609375,-0.08891469240188599,-0.06069637089967728,0.10440949350595474
1782986493060351500,9.7713515625,-0.08909764885902405,-0.09108410030603409,0.11020267009735107
1782986493070426000,9.781426025390624,-0.09127771854400635,-0.0947459489107132,0.09433635324239731
1782986493080500500,9.79150048828125,-0.09799793362617493,-0.07230642437934875,0.05438840761780739
1782986493090574300,9.80157421875,-0.10328084975481033,-0.041128795593976974,0.002029062481597066
1782986493100649500,9.8116494140625,-0.1000155434012413,-0.012047342024743557,-0.034559041261672974
1782986493110723300,9.821723388671876,-0.0839521586894989,0.0022391858510673046,-0.05486857518553734
1782986493120797400,9.83179736328125,-0.061838068068027496,-0.007182811852544546,-0.056177251040935516
1782986493130872300,9.841872314453125,-0.038538869470357895,-0.031204791739583015,-0.02683960273861885
1782986493140946400,9.851946533203124,-0.01811934821307659,-0.06192754954099655,0.00026045716367661953
1782986493151020300,9.862020263671875,-0.00782623142004013,-0.0797443613409996,0.02436978742480278
1782986493161095400,9.872095458984376,-0.005833654198795557,-0.06479497253894806,0.04042705148458481
1782986493171169300,9.882169189453125,0.00022184131375979632,-0.030191458761692047,0.0442497543990612
1782986493181243400,9.892243408203125,0.006401173770427704,-0.010546118021011353,0.03422161936759949
1782986493191317200,9.902317138671876,0.0062738750129938126,-0.011382084339857101,0.016742493957281113
1782986493201392400,9.912392333984375,0.00503976596519351,-0.012744290754199028,-0.0035414716694504023
1782986493211466200,9.92246630859375,0.007745005190372467,-0.009614277631044388,-0.0140143521130085
1782986493221540000,9.9325400390625,0.01284469198435545,-0.004763063509017229,-0.02064535766839981
1782986493231615200,9.942615234375,0.01877102442085743,-0.006487726699560881,-0.014754711650311947
1782986493241689000,9.952689208984374,0.021919414401054382,-0.02257694862782955,-0.006958040874451399
1782986493251763500,9.962763427734375,0.014304104261100292,-0.027896612882614136,0.004263987299054861
1782986493261838300,9.97283837890625,0.00803395826369524,-0.035653334110975266,0.009912817738950253
1782986493271912400,9.982912353515625,0.008054996840655804,-0.04219112917780876,0.013716078363358974
1782986493281986300,9.992986328125,0.01209660992026329,-0.03533641993999481,0.02088876999914646
1782986493292061400,10.0030615234375,0.014540326781570911,-0.02624598518013954,0.024448351934552193
1782986493302135300,10.01313525390625,0.007470166776329279,-0.012271580286324024,0.03501337766647339
1782986493312209400,10.02320947265625,-0.008463792502880096,0.016353672370314598,0.047214917838573456
1782986493322283300,10.033283203125,-0.013583187013864517,0.027239609509706497,0.06515903025865555
1782986493332358400,10.0433583984375,-0.012732572853565216,0.02870647981762886,0.09651003032922745
1782986493342432300,10.053432373046874,-0.009815080091357231,0.02781085856258869,0.13126321136951447
1782986493352506400,10.06350634765625,-0.0010165285784751177,0.024637436494231224,0.15524950623512268
1782986493362581200,10.073581298828126,0.0031883365008980036,0.014218084514141083,0.17056535184383392
1782986493372655400,10.0836552734375,-0.0011757856700569391,-0.003549194661900401,0.15071547031402588
1782986493382729200,10.093729248046875,-0.006383863277733326,-0.005392901133745909,0.11580223590135574
1782986493392804400,10.103804443359374,-0.007393201347440481,0.012445750646293163,0.06449510157108307
1782986493402878200,10.113878173828125,-0.005151352379471064,0.021998509764671326,0.0065111625008285046
1782986493412952300,10.123952392578126,0.007454986684024334,0.031035946682095528,-0.03446450084447861
1782986493423027200,10.134027099609375,0.01518960576504469,0.03825497627258301,-0.045830871909856796
1782986493433101300,10.144101318359375,0.012548549100756645,0.04090216010808945,-0.04168699309229851
1782986493443175400,10.154175537109374,0.014737134799361229,0.04936115816235542,-0.029225796461105347
1782986493453249300,10.164249267578125,0.02070634439587593,0.051044806838035583,0.0008788431296125054
1782986493463324400,10.174324462890626,0.028011394664645195,0.036917272955179214,0.027098461985588074
1782986493473398300,10.184398193359375,0.03271586820483208,0.018501246348023415,0.05341928079724312
1782986493483472400,10.194472412109375,0.04045234993100166,0.017589112743735313,0.07018015533685684
1782986493493547300,10.20454736328125,0.043302200734615326,0.015149125829339027,0.0779041200876236
1782986493503621400,10.214621337890625,0.044551488012075424,0.028690233826637268,0.09197413176298141
1782986493513695200,10.2246953125,0.04176262766122818,0.03226393088698387,0.09860087186098099
1782986493523770400,10.234770263671875,0.045280661433935165,0.02658953331410885,0.07288406044244766
1782986493533844200,10.24484423828125,0.04452938586473465,0.014101970940828323,0.03576012700796127
1782986493543918300,10.25491845703125,0.03778732568025589,0.046609845012426376,0.008085623383522034
1782986493553993200,10.2649931640625,-0.00037923414492979646,0.13132339715957642,0.1089608371257782
1782986493564067300,10.2750673828125,-0.04446839913725853,0.10231225937604904,0.18344919383525848
1782986493574141200,10.28514111328125,-0.024594558402895927,-0.03748159483075142,0.22599558532238007
1782986493584216300,10.29521630859375,0.019820842891931534,-0.17535211145877838,0.24269093573093414
1782986493594290200,10.305290283203124,0.01961151883006096,-0.1638118326663971,0.22234198451042175
1782986493604364300,10.3153642578125,-0.011062238365411758,-0.06382345408201218,0.17567329108715057
1782986493614438400,10.3254384765625,-0.03738918527960777,0.009438242763280869,0.09078609198331833
1782986493624513300,10.33551318359375,-0.036257341504096985,0.07353413850069046,0.0013100089272484183
1782986493634587400,10.34558740234375,-0.037097033113241196,0.12032561004161835,-0.060379721224308014
1782986493644661500,10.35566162109375,-0.04658321291208267,0.15971988439559937,-0.04180603474378586
1782986493654736400,10.365736328125,-0.029211414977908134,0.15221643447875977,0.0009733853512443602
