time,seconds_elapsed,z,y,x
1782986842353187000,0.04518701171875,-1.0462493896484375,-0.425262451171875,-0.098724365234375
1782986842363261200,0.05526123046875,-1.0258636474609375,-0.4315643310546875,-0.12579345703125
1782986842373336000,0.065336181640625,-1.0033111572265625,-0.43841552734375,-0.1367340087890625
1782986842383410200,0.07541015625,-0.972198486328125,-0.4315032958984375,-0.1249237060546875
1782986842393485000,0.085485107421875,-0.925506591796875,-0.4175567626953125,-0.0993804931640625
1782986842403559200,0.09555908203125,-0.876708984375,-0.4005889892578125,-0.0615997314453125
1782986842413634000,0.105634033203125,-0.8424835205078125,-0.3857879638671875,-0.0233917236328125
1782986842423708200,0.115708251953125,-0.829986572265625,-0.375091552734375,-0.0018768310546875
1782986842433783000,0.125782958984375,-0.83709716796875,-0.3667144775390625,-0.0015716552734375
1782986842443857200,0.135857177734375,-0.84954833984375,-0.352294921875,-0.01287841796875
1782986842453931000,0.145930908203125,-0.850555419921875,-0.3380584716796875,-0.0102386474609375
1782986842464006100,0.156006103515625,-0.8356475830078125,-0.3319091796875,0.01214599609375
1782986842474080000,0.166080078125,-0.80792236328125,-0.3290863037109375,0.042510986328125
1782986842484155100,0.176155029296875,-0.781768798828125,-0.3288726806640625,0.065277099609375
1782986842494229000,0.18622900390625,-0.7800750732421875,-0.3363494873046875,0.075958251953125
1782986842504304000,0.19630419921875,-0.7985992431640625,-0.3474578857421875,0.072052001953125
1782986842514378000,0.2063779296875,-0.8111419677734375,-0.35028076171875,0.0670928955078125
1782986842524453000,0.216453125,-0.8102264404296875,-0.3625030517578125,0.0826873779296875
1782986842534527000,0.22652685546875,-0.791259765625,-0.376861572265625,0.103759765625
1782986842544602000,0.23660205078125,-0.773956298828125,-0.3830718994140625,0.1162109375
1782986842554676000,0.246676025390625,-0.7842864990234375,-0.3917694091796875,0.125213623046875
1782986842564751000,0.256751220703125,-0.8196258544921875,-0.397735595703125,0.1189117431640625
1782986842574825000,0.266824951171875,-0.86407470703125,-0.3884735107421875,0.1021728515625
1782986842584900000,0.276900146484375,-0.905548095703125,-0.37896728515625,0.085784912109375
1782986842594974000,0.286973876953125,-0.939178466796875,-0.37677001953125,0.0712432861328125
1782986842605049000,0.297049072265625,-0.969696044921875,-0.3760223388671875,0.051361083984375
1782986842615123000,0.307123046875,-0.9933013916015625,-0.3781585693359375,0.0346832275390625
1782986842625197000,0.317197021484375,-1.0032501220703125,-0.3875732421875,0.0224761962890625
1782986842635272000,0.32727197265625,-0.990692138671875,-0.39544677734375,0.022796630859375
1782986842645346000,0.337345947265625,-0.9539031982421875,-0.4075775146484375,0.0429229736328125
1782986842655421200,0.347421142578125,-0.9079132080078125,-0.424407958984375,0.069183349609375
1782986842665495000,0.3574951171875,-0.858154296875,-0.4384765625,0.09014892578125
1782986842675570200,0.367570068359375,-0.8268585205078125,-0.4489593505859375,0.108184814453125
1782986842685644000,0.37764404296875,-0.826263427734375,-0.462310791015625,0.12506103515625
1782986842695719200,0.38771923828125,-0.8332061767578125,-0.4686279296875,0.1341400146484375
1782986842705793000,0.39779296875,-0.8408050537109375,-0.4683837890625,0.1303253173828125
1782986842715868200,0.4078681640625,-0.8520355224609375,-0.4713592529296875,0.1262664794921875
1782986842725942000,0.41794189453125,-0.869903564453125,-0.4708099365234375,0.1317138671875
1782986842736017200,0.42801708984375,-0.89654541015625,-0.4741058349609375,0.138946533203125
1782986842746091000,0.438091064453125,-0.9259033203125,-0.4725189208984375,0.14703369140625
1782986842756166100,0.448166259765625,-0.9537200927734375,-0.469329833984375,0.1512603759765625
1782986842766240000,0.458239990234375,-0.9710693359375,-0.4622955322265625,0.1529541015625
1782986842776315100,0.468315185546875,-0.97528076171875,-0.4561614990234375,0.1523284912109375
1782986842786389000,0.478388916015625,-0.962188720703125,-0.462127685546875,0.143798828125
1782986842796463400,0.48846337890625,-0.93328857421875,-0.4725799560546875,0.1414031982421875
1782986842806538000,0.4985380859375,-0.9132232666015625,-0.4924163818359375,0.138946533203125
1782986842816612400,0.5086123046875,-0.91351318359375,-0.5094757080078125,0.1259765625
1782986842826687000,0.51868701171875,-0.9259185791015625,-0.5145721435546875,0.107147216796875
1782986842836761300,0.52876123046875,-0.9244537353515625,-0.5107574462890625,0.0926666259765625
1782986842846836000,0.5388359375,-0.9123077392578125,-0.507843017578125,0.097991943359375
1782986842856910300,0.548910400390625,-0.900726318359375,-0.5073089599609375,0.1128692626953125
1782986842866985000,0.55898486328125,-0.90545654296875,-0.5062255859375,0.1239471435546875
1782986842877059300,0.569059326171875,-0.919586181640625,-0.4963226318359375,0.1200408935546875
1782986842887134000,0.579134033203125,-0.9392852783203125,-0.489990234375,0.10260009765625
1782986842897208300,0.589208251953125,-0.95220947265625,-0.4814605712890625,0.0833740234375
1782986842907283000,0.599282958984375,-0.947601318359375,-0.4696807861328125,0.0835723876953125
1782986842917357300,0.609357421875,-0.9278411865234375,-0.4631805419921875,0.097869873046875
1782986842927432000,0.619431884765625,-0.8971710205078125,-0.459075927734375,0.1139373779296875
1782986842937506300,0.62950634765625,-0.8648529052734375,-0.4622039794921875,0.1251983642578125
1782986842947580200,0.639580078125,-0.833343505859375,-0.464263916015625,0.1344451904296875
1782986842957655300,0.6496552734375,-0.8184814453125,-0.45916748046875,0.1382293701171875
1782986842967729200,0.659729248046875,-0.8308563232421875,-0.4446563720703125,0.1342620849609375
1782986842977804300,0.66980419921875,-0.8489532470703125,-0.4227447509765625,0.1343994140625
1782986842987878100,0.679878173828125,-0.86749267578125,-0.4168548583984375,0.1335906982421875
1782986842997953300,0.689953369140625,-0.8968963623046875,-0.4237213134765625,0.1177215576171875
1782986843008027100,0.700027099609375,-0.913909912109375,-0.4186248779296875,0.0941162109375
1782986843018102500,0.7101025390625,-0.9116973876953125,-0.402618408203125,0.0861053466796875
1782986843028176600,0.7201767578125,-0.9000244140625,-0.39410400390625,0.099517822265625
1782986843038251500,0.73025146484375,-0.8847808837890625,-0.3976287841796875,0.123016357421875
1782986843048325600,0.74032568359375,-0.8650360107421875,-0.4027252197265625,0.1457977294921875
1782986843058400500,0.750400390625,-0.851104736328125,-0.4037933349609375,0.1595001220703125
1782986843068474600,0.760474609375,-0.841339111328125,-0.3949127197265625,0.171356201171875
1782986843078549500,0.770549560546875,-0.8457183837890625,-0.3928680419921875,0.1757354736328125
1782986843088623600,0.78062353515625,-0.865997314453125,-0.3920745849609375,0.1714935302734375
1782986843098698500,0.790698486328125,-0.898834228515625,-0.3925323486328125,0.1525421142578125
1782986843108772600,0.800772705078125,-0.9390106201171875,-0.3987579345703125,0.1232147216796875
1782986843118846500,0.810846435546875,-0.9691314697265625,-0.40032958984375,0.1043853759765625
1782986843128921600,0.820921630859375,-0.9703521728515625,-0.4020538330078125,0.10028076171875
1782986843138995500,0.830995361328125,-0.9546051025390625,-0.4046478271484375,0.1056976318359375
1782986843149070600,0.841070556640625,-0.940887451171875,-0.418243408203125,0.1076202392578125
1782986843159144400,0.85114453125,-0.9346771240234375,-0.48175048828125,0.067901611328125
1782986843169219600,0.861219482421875,-0.880615234375,-0.4900665283203125,0.07647705078125
1782986843179293400,0.87129345703125,-0.82659912109375,-0.4022216796875,0.098602294921875
1782986843189368600,0.88136865234375,-0.8352508544921875,-0.39031982421875,0.072845458984375
1782986843199442400,0.8914423828125,-0.8800048828125,-0.4189453125,0.1230316162109375
1782986843209517600,0.901517578125,-0.9071502685546875,-0.4227447509765625,0.1612701416015625
1782986843219591400,0.91159130859375,-0.9275054931640625,-0.4006805419921875,0.1495819091796875
1782986843229666600,0.92166650390625,-0.940673828125,-0.3820037841796875,0.126495361328125
1782986843239740400,0.931740478515625,-0.9390716552734375,-0.3802642822265625,0.1243896484375
1782986843249815600,0.941815673828125,-0.922332763671875,-0.3961029052734375,0.1340179443359375
1782986843259889400,0.951889404296875,-0.9005584716796875,-0.4138641357421875,0.1443939208984375
1782986843269964500,0.961964599609375,-0.882415771484375,-0.4242706298828125,0.1494598388671875
1782986843280038400,0.972038330078125,-0.871978759765625,-0.41357421875,0.164093017578125
1782986843290112500,0.982112548828125,-0.8676300048828125,-0.395721435546875,0.180572509765625
1782986843300187400,0.9921875,-0.8685150146484375,-0.3862457275390625,0.201751708984375
1782986843310261500,1.002261474609375,-0.8680419921875,-0.389312744140625,0.21826171875
1782986843320336400,1.01233642578125,-0.867919921875,-0.3941802978515625,0.223419189453125
1782986843330410500,1.022410400390625,-0.87811279296875,-0.4015960693359375,0.21173095703125
1782986843340485400,1.0324853515625,-0.90130615234375,-0.4033050537109375,0.1850433349609375
1782986843350559500,1.0425595703125,-0.919525146484375,-0.40478515625,0.156524658203125
1782986843360634400,1.05263427734375,-0.922698974609375,-0.4105682373046875,0.13885498046875
1782986843370708500,1.06270849609375,-0.914398193359375,-0.420745849609375,0.140228271484375
1782986843380783400,1.072783447265625,-0.8996734619140625,-0.4263763427734375,0.147796630859375
1782986843390857500,1.082857421875,-0.8831787109375,-0.426239013671875,0.1580657958984375
1782986843400932600,1.0929326171875,-0.8667449951171875,-0.4288177490234375,0.173736572265625
1782986843411006500,1.10300634765625,-0.8584136962890625,-0.436859130859375,0.184356689453125
1782986843421081600,1.11308154296875,-0.8676605224609375,-0.4408111572265625,0.1861419677734375
1782986843431155500,1.123155517578125,-0.8742218017578125,-0.4380035400390625,0.1893310546875
1782986843441229300,1.133229248046875,-0.8834228515625,-0.434356689453125,0.1876678466796875
1782986843451304400,1.143304443359375,-0.894195556640625,-0.4344024658203125,0.184417724609375
1782986843461378300,1.15337841796875,-0.892669677734375,-0.441070556640625,0.1807098388671875
1782986843471453400,1.163453369140625,-0.8882598876953125,-0.4435882568359375,0.18084716796875
1782986843481527300,1.17352734375,-0.8784637451171875,-0.4466552734375,0.1871185302734375
1782986843491602400,1.1836025390625,-0.87188720703125,-0.4532470703125,0.2003631591796875
1782986843501676300,1.19367626953125,-0.8637237548828125,-0.4527587890625,0.21063232421875
1782986843511751400,1.20375146484375,-0.818389892578125,-0.457275390625,0.222869873046875
1782986843521825500,1.213825439453125,-0.7818145751953125,-0.4773101806640625,0.240325927734375
1782986843531900400,1.223900390625,-0.7864532470703125,-0.4770965576171875,0.22369384765625
1782986843541974500,1.233974609375,-0.805755615234375,-0.468719482421875,0.194122314453125
1782986843552049400,1.24404931640625,-0.8337249755859375,-0.469512939453125,0.17266845703125
1782986843562123500,1.25412353515625,-0.84967041015625,-0.4782562255859375,0.1537017822265625
1782986843572198400,1.264198486328125,-0.870452880859375,-0.49114990234375,0.1411590576171875
1782986843582272500,1.2742724609375,-0.880584716796875,-0.4883880615234375,0.1438140869140625
1782986843592346400,1.284346435546875,-0.8800506591796875,-0.461822509765625,0.1512908935546875
1782986843602421500,1.29442138671875,-0.8670806884765625,-0.440032958984375,0.172698974609375
1782986843612495400,1.304495361328125,-0.84686279296875,-0.4350433349609375,0.2129669189453125
1782986843622570500,1.314570556640625,-0.828216552734375,-0.4391326904296875,0.2441558837890625
1782986843632644400,1.324644287109375,-0.8368377685546875,-0.4434356689453125,0.250946044921875
1782986843642719500,1.334719482421875,-0.8591461181640625,-0.43988037109375,0.2344207763671875
1782986843652793300,1.34479345703125,-0.8718719482421875,-0.4353485107421875,0.2030181884765625
1782986843662868500,1.354868408203125,-0.877227783203125,-0.432373046875,0.1800689697265625
1782986843672942300,1.3649423828125,-0.8725433349609375,-0.4327850341796875,0.1666717529296875
1782986843683017500,1.375017578125,-0.8651275634765625,-0.4395599365234375,0.1559295654296875
1782986843693091300,1.38509130859375,-0.863037109375,-0.4493408203125,0.1484375
1782986843703166500,1.39516650390625,-0.8572235107421875,-0.4528045654296875,0.140228271484375
1782986843713240300,1.405240234375,-0.8517913818359375,-0.4553375244140625,0.13629150390625
1782986843723315500,1.4153154296875,-0.8509368896484375,-0.4569091796875,0.1357421875
1782986843733389300,1.425389404296875,-0.854949951171875,-0.4554595947265625,0.140960693359375
1782986843743463400,1.43546337890625,-0.864349365234375,-0.4522552490234375,0.1478729248046875
1782986843753538300,1.445538330078125,-0.8696136474609375,-0.4449310302734375,0.1533966064453125
1782986843763612400,1.4556123046875,-0.879364013671875,-0.436798095703125,0.160430908203125
1782986843773687300,1.465687255859375,-0.890838623046875,-0.4319915771484375,0.165985107421875
1782986843783761400,1.475761474609375,-0.9033203125,-0.431549072265625,0.16552734375
1782986843793836300,1.485836181640625,-0.906494140625,-0.434906005859375,0.1663055419921875
1782986843803910400,1.495910400390625,-0.899993896484375,-0.4380950927734375,0.165618896484375
1782986843813985300,1.5059853515625,-0.889984130859375,-0.441253662109375,0.1633758544921875
1782986843824059400,1.516059326171875,-0.8756866455078125,-0.43841552734375,0.1629791259765625
1782986843834134300,1.52613427734375,-0.8679351806640625,-0.4376983642578125,0.1668853759765625
1782986843844208400,1.53620849609375,-0.8680419921875,-0.4387054443359375,0.1654205322265625
1782986843854283300,1.546283203125,-0.8736724853515625,-0.4340972900390625,0.1627960205078125
1782986843864357400,1.556357421875,-0.87823486328125,-0.4315948486328125,0.159027099609375
1782986843874432300,1.566432373046875,-0.88482666015625,-0.4318084716796875,0.156158447265625
1782986843884506400,1.57650634765625,-0.891448974609375,-0.43310546875,0.1544647216796875
1782986843894580500,1.58658056640625,-0.90045166015625,-0.4308624267578125,0.146087646484375
1782986843904655400,1.5966552734375,-0.905242919921875,-0.4293670654296875,0.140350341796875
1782986843914729500,1.6067294921875,-0.90277099609375,-0.4275665283203125,0.1380462646484375
1782986843924804400,1.616804443359375,-0.90106201171875,-0.4275054931640625,0.137481689453125
1782986843934878500,1.62687841796875,-0.90142822265625,-0.430877685546875,0.1383819580078125
1782986843944953300,1.636953369140625,-0.90057373046875,-0.43218994140625,0.1385955810546875
1782986843955027500,1.64702734375,-0.89532470703125,-0.4305877685546875,0.14190673828125
1782986843965102300,1.657102294921875,-0.89447021484375,-0.4317169189453125,0.1417694091796875
1782986843975176400,1.667176513671875,-0.8916473388671875,-0.43182373046875,0.1436920166015625
1782986843985251300,1.677251220703125,-0.896209716796875,-0.4289093017578125,0.147857666015625
1782986843995325400,1.687325439453125,-0.900299072265625,-0.42669677734375,0.1457672119140625
1782986844005400300,1.697400390625,-0.8972320556640625,-0.4268035888671875,0.1431427001953125
1782986844015473400,1.707473388671875,-0.8928985595703125,-0.4290008544921875,0.1426849365234375
1782986844025547500,1.717547607421875,-0.882110595703125,-0.43206787109375,0.1450347900390625
1782986844035622400,1.727622314453125,-0.870880126953125,-0.4360198974609375,0.149688720703125
1782986844045696500,1.737696533203125,-0.8669891357421875,-0.4360198974609375,0.1552581787109375
1782986844055771400,1.747771484375,-0.8628692626953125,-0.4337921142578125,0.1596221923828125
1782986844065845500,1.757845458984375,-0.8642578125,-0.431610107421875,0.15960693359375
1782986844075920400,1.76792041015625,-0.8681640625,-0.4323577880859375,0.153411865234375
1782986844085994500,1.777994384765625,-0.872894287109375,-0.4329986572265625,0.1446533203125
1782986844096069400,1.7880693359375,-0.872772216796875,-0.43505859375,0.1409759521484375
1782986844106143500,1.7981435546875,-0.8683319091796875,-0.4366912841796875,0.13958740234375
1782986844116218400,1.80821826171875,-0.8638916015625,-0.4398040771484375,0.1396636962890625
1782986844126292500,1.81829248046875,-0.862548828125,-0.439056396484375,0.1383514404296875
1782986844136367400,1.828367431640625,-0.858917236328125,-0.4371795654296875,0.1392822265625
1782986844146441500,1.83844140625,-0.854522705078125,-0.436981201171875,0.1379547119140625
1782986844156516400,1.848516357421875,-0.858795166015625,-0.4392242431640625,0.137176513671875
1782986844166590500,1.858590576171875,-0.8697662353515625,-0.437408447265625,0.1356353759765625
1782986844176664300,1.868664306640625,-0.8827667236328125,-0.4317474365234375,0.1342315673828125
1782986844186739500,1.878739501953125,-0.8964080810546875,-0.4283447265625,0.1374664306640625
1782986844196813300,1.888813232421875,-0.90875244140625,-0.42626953125,0.138153076171875
1782986844206888400,1.898888427734375,-0.9130706787109375,-0.4241485595703125,0.14044189453125
1782986844216962300,1.90896240234375,-0.91107177734375,-0.4212646484375,0.1437530517578125
1782986844227037400,1.919037353515625,-0.9093780517578125,-0.419677734375,0.146148681640625
1782986844237111300,1.929111328125,-0.9134063720703125,-0.4167938232421875,0.149749755859375
1782986844247186400,1.9391865234375,-0.914215087890625,-0.416168212890625,0.151885986328125
1782986844257260300,1.94926025390625,-0.916961669921875,-0.4179840087890625,0.149169921875
1782986844267335400,1.95933544921875,-0.9240264892578125,-0.4150390625,0.14501953125
1782986844277409300,1.9694091796875,-0.9272308349609375,-0.41064453125,0.1447601318359375
1782986844287484400,1.979484375,-0.924652099609375,-0.4068450927734375,0.1457061767578125
1782986844297558300,1.989558349609375,-0.914215087890625,-0.4081573486328125,0.14984130859375
1782986844307632400,1.99963232421875,-0.9009246826171875,-0.4118804931640625,0.1540374755859375
1782986844317707300,2.009707275390625,-0.893798828125,-0.4105682373046875,0.158111572265625
1782986844327781400,2.019781494140625,-0.8871002197265625,-0.4059295654296875,0.1573333740234375
1782986844337856300,2.029856201171875,-0.8813018798828125,-0.409576416015625,0.1588592529296875
1782986844347930400,2.039930419921875,-0.8824920654296875,-0.412017822265625,0.15435791015625
1782986844358005200,2.050005126953125,-0.894500732421875,-0.4089813232421875,0.14739990234375
1782986844368079400,2.060079345703125,-0.899200439453125,-0.4071807861328125,0.14312744140625
1782986844378154200,2.070154296875,-0.897247314453125,-0.4103546142578125,0.14471435546875
1782986844388228400,2.080228271484375,-0.890350341796875,-0.4119415283203125,0.1459503173828125
1782986844398303500,2.090303466796875,-0.881805419921875,-0.410430908203125,0.1494598388671875
1782986844408377300,2.10037744140625,-0.8759918212890625,-0.412109375,0.1546478271484375
1782986844418452500,2.110452392578125,-0.872161865234375,-0.4152984619140625,0.1593017578125
1782986844428526300,2.1205263671875,-0.875762939453125,-0.41339111328125,0.156829833984375
1782986844438601500,2.1306015625,-0.876922607421875,-0.4107818603515625,0.1534423828125
1782986844448675300,2.14067529296875,-0.8809967041015625,-0.4127044677734375,0.150146484375
1782986844458749200,2.150749267578125,-0.88592529296875,-0.414276123046875,0.1490325927734375
1782986844468824300,2.16082421875,-0.88916015625,-0.4159393310546875,0.1478729248046875
1782986844478898200,2.170898193359375,-0.88970947265625,-0.4165802001953125,0.1466064453125
1782986844488973300,2.180973388671875,-0.891021728515625,-0.4154815673828125,0.1459808349609375
1782986844499047200,2.191047119140625,-0.8897705078125,-0.4154510498046875,0.14239501953125
1782986844509122300,2.201122314453125,-0.88507080078125,-0.419036865234375,0.136383056640625
1782986844519196400,2.211196533203125,-0.8774566650390625,-0.421966552734375,0.13262939453125
1782986844529271300,2.221271240234375,-0.8727874755859375,-0.4245147705078125,0.130401611328125
1782986844539345400,2.231345458984375,-0.86834716796875,-0.424713134765625,0.1282501220703125
1782986844549420300,2.241420166015625,-0.8673095703125,-0.4273529052734375,0.1235198974609375
1782986844559494400,2.251494384765625,-0.864532470703125,-0.4299774169921875,0.1235198974609375
1782986844569569300,2.2615693359375,-0.8658905029296875,-0.433258056640625,0.1224822998046875
1782986844579643400,2.271643310546875,-0.87335205078125,-0.43707275390625,0.1236572265625
1782986844589718300,2.28171826171875,-0.888458251953125,-0.43304443359375,0.1241912841796875
1782986844599792400,2.29179248046875,-0.90155029296875,-0.421722412109375,0.1238861083984375
1782986844609866500,2.301866455078125,-0.914825439453125,-0.416595458984375,0.1220550537109375
1782986844619941400,2.31194140625,-0.921630859375,-0.419219970703125,0.1251220703125
1782986844630015500,2.322015380859375,-0.92169189453125,-0.423828125,0.1254119873046875
1782986844640090400,2.33209033203125,-0.9193572998046875,-0.4264068603515625,0.1219482421875
1782986844650164500,2.34216455078125,-0.912811279296875,-0.4249114990234375,0.1226043701171875
1782986844660239400,2.3522392578125,-0.9105224609375,-0.4249725341796875,0.1256103515625
1782986844670313500,2.3623134765625,-0.905548095703125,-0.4288330078125,0.12738037109375
1782986844680388400,2.372388427734375,-0.90106201171875,-0.434967041015625,0.1272125244140625
1782986844690462500,2.38246240234375,-0.90472412109375,-0.4361114501953125,0.125152587890625
1782986844700537300,2.392537353515625,-0.9083099365234375,-0.4353485107421875,0.119110107421875
1782986844710611500,2.402611572265625,-0.908843994140625,-0.4326934814453125,0.1149139404296875
1782986844720685600,2.412685546875,-0.9058685302734375,-0.4366607666015625,0.113372802734375
1782986844730760400,2.422760498046875,-0.900787353515625,-0.4390106201171875,0.1126708984375
1782986844740834600,2.43283447265625,-0.8983917236328125,-0.4366912841796875,0.1159820556640625
1782986844750909400,2.442909423828125,-0.8969879150390625,-0.436248779296875,0.12066650390625
1782986844760983600,2.452983642578125,-0.895904541015625,-0.434478759765625,0.123260498046875
1782986844771058400,2.463058349609375,-0.8977813720703125,-0.4321136474609375,0.1204681396484375
1782986844781132500,2.473132568359375,-0.9005889892578125,-0.4264068603515625,0.1211395263671875
1782986844791207400,2.48320751953125,-0.897552490234375,-0.42523193359375,0.120697021484375
1782986844801281500,2.493281494140625,-0.88787841796875,-0.433441162109375,0.12213134765625
1782986844811356400,2.5033564453125,-0.8818817138671875,-0.43896484375,0.119720458984375
1782986844821430500,2.513430419921875,-0.880279541015625,-0.4404144287109375,0.115264892578125
1782986844831505400,2.52350537109375,-0.8775634765625,-0.4389190673828125,0.111419677734375
1782986844841579500,2.53357958984375,-0.87274169921875,-0.4401702880859375,0.111663818359375
1782986844851654400,2.543654296875,-0.8680572509765625,-0.4407958984375,0.1118927001953125
1782986844861728500,2.553728515625,-0.8706207275390625,-0.4394683837890625,0.1098175048828125
1782986844871803400,2.563803466796875,-0.874267578125,-0.4361419677734375,0.11279296875
1782986844881877500,2.57387744140625,-0.8749847412109375,-0.4356689453125,0.1150054931640625
1782986844891951400,2.583951416015625,-0.8745880126953125,-0.43853759765625,0.1165008544921875
1782986844902026500,2.594026611328125,-0.8696136474609375,-0.43963623046875,0.1170654296875
1782986844912100400,2.604100341796875,-0.8703765869140625,-0.4395904541015625,0.1156768798828125
1782986844922175500,2.614175537109375,-0.8755340576171875,-0.4384613037109375,0.11053466796875
1782986844932249300,2.624249267578125,-0.88238525390625,-0.438720703125,0.103271484375
1782986844942324500,2.634324462890625,-0.8851318359375,-0.437225341796875,0.093902587890625
1782986844952398300,2.6443984375,-0.8852691650390625,-0.438079833984375,0.0915679931640625
1782986844962473500,2.654473388671875,-0.882232666015625,-0.43914794921875,0.0939178466796875
1782986844972547300,2.66454736328125,-0.879302978515625,-0.44134521484375,0.0999908447265625
1782986844982622500,2.67462255859375,-0.884521484375,-0.4361572265625,0.10113525390625
1782986844992696300,2.6846962890625,-0.8954925537109375,-0.4368896484375,0.0987548828125
1782986845002770400,2.6947705078125,-0.903656005859375,-0.434112548828125,0.099822998046875
1782986845012845300,2.70484521484375,-0.9050750732421875,-0.4339599609375,0.101165771484375
1782986845022920000,2.714919921875,-0.89813232421875,-0.436126708984375,0.1058349609375
1782986845032994800,2.724994873046875,-0.88580322265625,-0.435760498046875,0.1147918701171875
1782986845043069000,2.73506884765625,-0.87872314453125,-0.4338836669921875,0.121490478515625
1782986845053143800,2.745143798828125,-0.87872314453125,-0.4290008544921875,0.122894287109375
1782986845063218000,2.755218017578125,-0.876251220703125,-0.4274749755859375,0.1243438720703125
1782986845073292800,2.765292724609375,-0.8784332275390625,-0.4289398193359375,0.123199462890625
1782986845083367000,2.775366943359375,-0.88104248046875,-0.43035888671875,0.1211395263671875
1782986845093441800,2.78544189453125,-0.8797454833984375,-0.4297332763671875,0.1217041015625
1782986845103516000,2.795515869140625,-0.8813323974609375,-0.42822265625,0.12109375
1782986845113590800,2.8055908203125,-0.8863372802734375,-0.42803955078125,0.1242828369140625
1782986845123665000,2.815664794921875,-0.8921661376953125,-0.432220458984375,0.122314453125
1782986845133739800,2.82573974609375,-0.89898681640625,-0.43414306640625,0.1182861328125
1782986845143814000,2.83581396484375,-0.9030914306640625,-0.4322662353515625,0.12054443359375
1782986845153887700,2.8458876953125,-0.90191650390625,-0.4343414306640625,0.118804931640625
1782986845163963000,2.855962890625,-0.8960113525390625,-0.4357147216796875,0.1202239990234375
1782986845174036700,2.86603662109375,-0.892242431640625,-0.43853759765625,0.1185150146484375
1782986845184111900,2.87611181640625,-0.8928985595703125,-0.4390106201171875,0.1196746826171875
1782986845194185700,2.886185791015625,-0.896697998046875,-0.4398956298828125,0.117340087890625
1782986845204260900,2.8962607421875,-0.89996337890625,-0.441741943359375,0.1110076904296875
1782986845214334700,2.906334716796875,-0.90228271484375,-0.442352294921875,0.107269287109375
1782986845224409900,2.916409912109375,-0.9038543701171875,-0.4428253173828125,0.105224609375
1782986845234483700,2.926483642578125,-0.8987274169921875,-0.4405059814453125,0.106292724609375
1782986845244558800,2.936558837890625,-0.8887939453125,-0.4394989013671875,0.10400390625
1782986845254632700,2.9466328125,-0.878173828125,-0.4399566650390625,0.1040191650390625
1782986845264707800,2.956707763671875,-0.8719635009765625,-0.4415740966796875,0.1015167236328125
1782986845274781700,2.96678173828125,-0.875885009765625,-0.4401092529296875,0.1008453369140625
1782986845284855800,2.976855712890625,-0.8826446533203125,-0.436614990234375,0.0980072021484375
1782986845294930700,2.9869306640625,-0.8804168701171875,-0.437469482421875,0.0994415283203125
1782986845305004800,2.9970048828125,-0.87530517578125,-0.441162109375,0.099945068359375
1782986845315079700,3.00707958984375,-0.870849609375,-0.4443817138671875,0.103851318359375
1782986845325153800,3.01715380859375,-0.8681488037109375,-0.4448394775390625,0.105499267578125
1782986845335229000,3.02722900390625,-0.8713836669921875,-0.4445648193359375,0.1025543212890625
1782986845345302800,3.037302734375,-0.8736572265625,-0.442138671875,0.102447509765625
1782986845355378000,3.0473779296875,-0.874969482421875,-0.4412994384765625,0.1052093505859375
1782986845365451800,3.05745166015625,-0.8760223388671875,-0.4378814697265625,0.107757568359375
1782986845375527000,3.06752685546875,-0.880859375,-0.4352569580078125,0.1063079833984375
1782986845385600800,3.077600830078125,-0.888671875,-0.4332427978515625,0.105224609375
1782986845395674600,3.087674560546875,-0.896087646484375,-0.430633544921875,0.1061553955078125
1782986845405749800,3.097749755859375,-0.9030303955078125,-0.430084228515625,0.107086181640625
1782986845415823600,3.10782373046875,-0.8967132568359375,-0.4261932373046875,0.1118621826171875
1782986845425898800,3.117898681640625,-0.8876190185546875,-0.42779541015625,0.1219940185546875
1782986845435972600,3.12797265625,-0.87969970703125,-0.4294891357421875,0.130859375
1782986845446047700,3.1380478515625,-0.870697021484375,-0.431304931640625,0.13720703125
1782986845456121900,3.148121826171875,-0.867767333984375,-0.4301300048828125,0.140380859375
1782986845466196700,3.15819677734375,-0.86907958984375,-0.4318084716796875,0.1356658935546875
1782986845476270800,3.168270751953125,-0.8737030029296875,-0.43072509765625,0.12860107421875
1782986845486345700,3.178345703125,-0.8746795654296875,-0.4319000244140625,0.123199462890625
1782986845496419800,3.188419921875,-0.877410888671875,-0.4328155517578125,0.120941162109375
1782986845506494700,3.19849462890625,-0.8824005126953125,-0.4334716796875,0.12017822265625
1782986845516568800,3.20856884765625,-0.8891143798828125,-0.4303436279296875,0.11822509765625
1782986845526643700,3.218643798828125,-0.897308349609375,-0.4277801513671875,0.117645263671875
1782986845536717800,3.2287177734375,-0.901397705078125,-0.4285736083984375,0.1209259033203125
1782986845546791700,3.238791748046875,-0.9014739990234375,-0.4296875,0.122100830078125
1782986845556866800,3.24886669921875,-0.899932861328125,-0.4311981201171875,0.124542236328125
1782986845566940700,3.258940673828125,-0.8938446044921875,-0.4322662353515625,0.1267852783203125
1782986845577015800,3.269015869140625,-0.88592529296875,-0.4327392578125,0.1260833740234375
1782986845587089700,3.279089599609375,-0.8842926025390625,-0.4341583251953125,0.125396728515625
1782986845597164800,3.289164794921875,-0.8837432861328125,-0.4365386962890625,0.123291015625
1782986845607238700,3.29923876953125,-0.878448486328125,-0.4351654052734375,0.1234893798828125
1782986845617313800,3.309313720703125,-0.8748321533203125,-0.4384002685546875,0.127685546875
1782986845627387600,3.3193876953125,-0.8759307861328125,-0.4409332275390625,0.1322784423828125
1782986845637462800,3.329462890625,-0.883392333984375,-0.43963623046875,0.1349945068359375
1782986845647536600,3.33953662109375,-0.898223876953125,-0.4366455078125,0.13916015625
1782986845657611000,3.349611083984375,-0.9090728759765625,-0.435302734375,0.1421356201171875
1782986845667685600,3.359685546875,-0.9141082763671875,-0.4347076416015625,0.1427459716796875
1782986845677760000,3.369760009765625,-0.9129638671875,-0.433258056640625,0.1428070068359375
1782986845687834600,3.379834716796875,-0.90753173828125,-0.4309539794921875,0.1450653076171875
1782986845697909000,3.389908935546875,-0.9002227783203125,-0.42938232421875,0.1439971923828125
1782986845707983600,3.399983642578125,-0.8922882080078125,-0.4299468994140625,0.138702392578125
1782986845718058000,3.41005810546875,-0.8880157470703125,-0.430511474609375,0.1343231201171875
1782986845728132600,3.420132568359375,-0.8856048583984375,-0.4313201904296875,0.1302337646484375
1782986845738207000,3.43020703125,-0.88677978515625,-0.4288787841796875,0.1245880126953125
1782986845748281600,3.440281494140625,-0.8921051025390625,-0.4238433837890625,0.1213226318359375
1782986845758356000,3.45035595703125,-0.890655517578125,-0.41986083984375,0.1239471435546875
1782986845768430600,3.4604306640625,-0.888641357421875,-0.41912841796875,0.129547119140625
1782986845778505000,3.4705048828125,-0.8873443603515625,-0.415618896484375,0.1325836181640625
1782986845788578800,3.480578857421875,-0.8867645263671875,-0.413238525390625,0.127655029296875
1782986845798654000,3.490654052734375,-0.88861083984375,-0.4149627685546875,0.12237548828125
1782986845808727800,3.500727783203125,-0.891693115234375,-0.4146270751953125,0.1200408935546875
1782986845818803000,3.510802978515625,-0.8961181640625,-0.4133453369140625,0.115203857421875
1782986845828876800,3.520876708984375,-0.9066925048828125,-0.41119384765625,0.11175537109375
1782986845838952000,3.530951904296875,-0.906524658203125,-0.4119415283203125,0.114044189453125
1782986845849025800,3.54102587890625,-0.90045166015625,-0.41375732421875,0.1166839599609375
1782986845859101000,3.551100830078125,-0.8927459716796875,-0.4130706787109375,0.119232177734375
1782986845869174800,3.5611748046875,-0.8855743408203125,-0.41748046875,0.119842529296875
1782986845879250000,3.57125,-0.882293701171875,-0.4214019775390625,0.120391845703125
1782986845889323800,3.58132373046875,-0.8827056884765625,-0.4196624755859375,0.123291015625
1782986845899399000,3.59139892578125,-0.889923095703125,-0.41766357421875,0.1208343505859375
1782986845909472800,3.60147265625,-0.894500732421875,-0.4190826416015625,0.1215667724609375
1782986845919547000,3.611546875,-0.8935699462890625,-0.41998291015625,0.1241912841796875
1782986845929621800,3.621621826171875,-0.889801025390625,-0.4185943603515625,0.1305389404296875
1782986845939695900,3.63169580078125,-0.8883514404296875,-0.4188690185546875,0.133209228515625
1782986845949770800,3.641770751953125,-0.8845062255859375,-0.4232177734375,0.13165283203125
1782986845959844900,3.651844970703125,-0.884979248046875,-0.42578125,0.1297760009765625
1782986845969920000,3.661919921875,-0.8841552734375,-0.4249114990234375,0.1273345947265625
1782986845979993900,3.671993896484375,-0.8878173828125,-0.4225006103515625,0.1245574951171875
1782986845990069000,3.682069091796875,-0.8949127197265625,-0.4230194091796875,0.1255645751953125
1782986846000142800,3.692142822265625,-0.896453857421875,-0.42340087890625,0.12664794921875
1782986846010218000,3.702218017578125,-0.8945770263671875,-0.4249420166015625,0.1291351318359375
1782986846020291600,3.71229150390625,-0.8867950439453125,-0.42999267578125,0.137451171875
1782986846030366700,3.72236669921875,-0.88287353515625,-0.43194580078125,0.13812255859375
1782986846040440600,3.732440673828125,-0.882781982421875,-0.434356689453125,0.130828857421875
1782986846050514700,3.7425146484375,-0.88458251953125,-0.43841552734375,0.121673583984375
1782986846060589600,3.752589599609375,-0.883941650390625,-0.4395599365234375,0.1180419921875
1782986846070663700,3.76266357421875,-0.886566162109375,-0.442108154296875,0.11724853515625
1782986846080738600,3.772738525390625,-0.8892822265625,-0.4417877197265625,0.1114044189453125
1782986846090812700,3.782812744140625,-0.89483642578125,-0.435577392578125,0.1107635498046875
1782986846100887600,3.792887451171875,-0.898773193359375,-0.4310455322265625,0.1100616455078125
1782986846110961700,3.802961669921875,-0.904266357421875,-0.4328155517578125,0.107818603515625
1782986846121036500,3.81303662109375,-0.9149169921875,-0.4362945556640625,0.1082611083984375
1782986846131110700,3.823110595703125,-0.9285430908203125,-0.4325408935546875,0.108612060546875
1782986846141185800,3.833185791015625,-0.9259185791015625,-0.42669677734375,0.1111297607421875
1782986846151259600,3.843259765625,-0.91741943359375,-0.428863525390625,0.1157073974609375
1782986846161334800,3.853334716796875,-0.904754638671875,-0.4334564208984375,0.121368408203125
1782986846171408600,3.86340869140625,-0.8941497802734375,-0.43426513671875,0.11785888671875
1782986846181482500,3.873482421875,-0.887542724609375,-0.4356536865234375,0.109588623046875
1782986846191557600,3.8835576171875,-0.8802490234375,-0.4381561279296875,0.099365234375
1782986846201631500,3.893631591796875,-0.8774566650390625,-0.4398040771484375,0.0928192138671875
1782986846211706600,3.90370654296875,-0.8782196044921875,-0.442596435546875,0.09075927734375
1782986846221780500,3.913780517578125,-0.881866455078125,-0.4411163330078125,0.0890960693359375
1782986846231855600,3.923855712890625,-0.88433837890625,-0.437164306640625,0.091033935546875
1782986846241929500,3.933929443359375,-0.8857574462890625,-0.43499755859375,0.0951385498046875
1782986846252004600,3.944004638671875,-0.8836212158203125,-0.4344482421875,0.1008453369140625
1782986846262078500,3.954078369140625,-0.8808746337890625,-0.4319000244140625,0.10198974609375
1782986846272153600,3.964153564453125,-0.8751983642578125,-0.4327850341796875,0.0998687744140625
1782986846282227700,3.974227783203125,-0.8714752197265625,-0.436065673828125,0.095947265625
1782986846292302600,3.984302490234375,-0.872100830078125,-0.4358062744140625,0.090576171875
1782986846302376700,3.994376708984375,-0.8748321533203125,-0.434478759765625,0.088958740234375
1782986846312450600,4.004450439453125,-0.8793487548828125,-0.4335784912109375,0.0873260498046875
1782986846322525700,4.014525634765625,-0.88214111328125,-0.435089111328125,0.086883544921875
1782986846332599600,4.024599609375,-0.880523681640625,-0.4350738525390625,0.094512939453125
1782986846342674700,4.0346748046875,-0.88360595703125,-0.4334564208984375,0.1012725830078125
1782986846352748500,4.04474853515625,-0.8837890625,-0.4321746826171875,0.1048736572265625
1782986846362823700,4.05482373046875,-0.8809814453125,-0.42889404296875,0.10546875
1782986846372897500,4.0648974609375,-0.877716064453125,-0.4293060302734375,0.1090850830078125
1782986846382972700,4.07497265625,-0.8798675537109375,-0.4273223876953125,0.113525390625
1782986846393046500,4.085046630859375,-0.8863983154296875,-0.4266204833984375,0.1153106689453125
1782986846403121700,4.09512158203125,-0.891204833984375,-0.4223480224609375,0.1142120361328125
1782986846413195500,4.105195556640625,-0.891571044921875,-0.4237823486328125,0.11700439453125
1782986846423269600,4.11526953125,-0.8877716064453125,-0.4303131103515625,0.1171417236328125
1782986846433344500,4.125344482421875,-0.8869171142578125,-0.434661865234375,0.120330810546875
1782986846443418600,4.135418701171875,-0.8824920654296875,-0.4358062744140625,0.1192626953125
1782986846453493500,4.145493408203125,-0.876068115234375,-0.4388580322265625,0.11968994140625
1782986846463567600,4.155567626953125,-0.87091064453125,-0.44329833984375,0.1229705810546875
1782986846473642500,4.165642578125,-0.8655853271484375,-0.4447174072265625,0.12451171875
1782986846483716600,4.175716552734375,-0.86627197265625,-0.446258544921875,0.1253204345703125
1782986846493791500,4.18579150390625,-0.871337890625,-0.451263427734375,0.12274169921875
1782986846503865600,4.195865478515625,-0.880462646484375,-0.4534454345703125,0.1224212646484375
1782986846513940500,4.2059404296875,-0.8897247314453125,-0.4506683349609375,0.121551513671875
1782986846524014600,4.2160146484375,-0.89276123046875,-0.44952392578125,0.1225128173828125
1782986846534089500,4.22608935546875,-0.89007568359375,-0.4502716064453125,0.1236114501953125
1782986846544163600,4.23616357421875,-0.8870849609375,-0.4515380859375,0.1233062744140625
1782986846554237700,4.24623779296875,-0.8853912353515625,-0.4508514404296875,0.12078857421875
1782986846564312600,4.2563125,-0.88189697265625,-0.4504852294921875,0.1218414306640625
1782986846574386700,4.26638671875,-0.88214111328125,-0.4528350830078125,0.117767333984375
1782986846584461600,4.276461669921875,-0.8822479248046875,-0.451507568359375,0.114898681640625
1782986846594535700,4.28653564453125,-0.882781982421875,-0.4523162841796875,0.109222412109375
1782986846604610600,4.296610595703125,-0.8825531005859375,-0.449859619140625,0.1096954345703125
1782986846614684700,4.3066845703125,-0.8830108642578125,-0.444854736328125,0.115020751953125
1782986846624759600,4.316759521484375,-0.8791961669921875,-0.44219970703125,0.1196746826171875
1782986846634833700,4.326833740234375,-0.8760833740234375,-0.4429931640625,0.1242523193359375
1782986846644908500,4.336908447265625,-0.8755950927734375,-0.44287109375,0.1214752197265625
1782986846654982700,4.346982666015625,-0.8845977783203125,-0.43988037109375,0.1180572509765625
1782986846665056800,4.357056884765625,-0.892852783203125,-0.43621826171875,0.11212158203125
1782986846675131600,4.367131591796875,-0.8957061767578125,-0.4341278076171875,0.108001708984375
1782986846685205800,4.377205810546875,-0.8974609375,-0.428436279296875,0.111083984375
1782986846695280600,4.38728076171875,-0.8980255126953125,-0.4257049560546875,0.1138458251953125
1782986846705354800,4.397354736328125,-0.895965576171875,-0.4254150390625,0.11480712890625
1782986846715429600,4.4074296875,-0.8954925537109375,-0.4244232177734375,0.1177215576171875
1782986846725503700,4.417503662109375,-0.888153076171875,-0.42938232421875,0.117828369140625
1782986846735578600,4.42757861328125,-0.8800048828125,-0.4317474365234375,0.1219329833984375
1782986846745652700,4.43765283203125,-0.875244140625,-0.434844970703125,0.1247406005859375
1782986846755727600,4.4477275390625,-0.875213623046875,-0.4385833740234375,0.123870849609375
1782986846765801700,4.4578017578125,-0.8748779296875,-0.4386749267578125,0.1201934814453125
1782986846775876900,4.467876953125,-0.8723297119140625,-0.4372406005859375,0.1119232177734375
1782986846785950700,4.47795068359375,-0.8727569580078125,-0.437896728515625,0.111236572265625
1782986846796024600,4.488024658203125,-0.874267578125,-0.4362945556640625,0.1085052490234375
1782986846806099700,4.498099609375,-0.8741455078125,-0.4342193603515625,0.1030731201171875
1782986846816173600,4.508173583984375,-0.868927001953125,-0.4337615966796875,0.0982208251953125
1782986846826248700,4.518248779296875,-0.854156494140625,-0.436279296875,0.0970916748046875
1782986846836322600,4.528322509765625,-0.829925537109375,-0.4394989013671875,0.1012725830078125
1782986846846397700,4.538397705078125,-0.809783935546875,-0.4427947998046875,0.10186767578125
1782986846856471600,4.548471435546875,-0.8157501220703125,-0.433746337890625,0.092620849609375
1782986846866546700,4.558546630859375,-0.853607177734375,-0.4199676513671875,0.0732879638671875
1782986846876620500,4.56862060546875,-0.909027099609375,-0.41168212890625,0.055450439453125
1782986846886695700,4.57869580078125,-0.95684814453125,-0.4098358154296875,0.049072265625
1782986846896769500,4.58876953125,-0.998321533203125,-0.406829833984375,0.050018310546875
1782986846906844700,4.5988447265625,-1.025238037109375,-0.399261474609375,0.0477294921875
1782986846916918800,4.608918701171875,-1.0292816162109375,-0.3939971923828125,0.055023193359375
1782986846926992600,4.61899267578125,-1.014556884765625,-0.390960693359375,0.0650634765625
1782986846937067800,4.62906787109375,-0.98272705078125,-0.389923095703125,0.0759735107421875
1782986846947141600,4.6391416015625,-0.94525146484375,-0.389984130859375,0.080902099609375
1782986846957216800,4.649216796875,-0.9120025634765625,-0.3974151611328125,0.080535888671875
1782986846967290600,4.65929052734375,-0.8813629150390625,-0.405853271484375,0.0841064453125
1782986846977365800,4.66936572265625,-0.861785888671875,-0.4094085693359375,0.0893707275390625
1782986846987439600,4.679439697265625,-0.8457489013671875,-0.410247802734375,0.0973968505859375
1782986846997514800,4.6895146484375,-0.8390655517578125,-0.411407470703125,0.1058197021484375
1782986847007588600,4.699588623046875,-0.839630126953125,-0.4170379638671875,0.09991455078125
1782986847017663700,4.709663818359375,-0.8402099609375,-0.419677734375,0.0972137451171875
1782986847027738000,4.719738037109375,-0.8472137451171875,-0.4229583740234375,0.0992889404296875
1782986847037813000,4.72981298828125,-0.8524627685546875,-0.4244537353515625,0.1087188720703125
1782986847047887000,4.73988720703125,-0.85772705078125,-0.4249267578125,0.1199951171875
1782986847057961000,4.7499609375,-0.8562469482421875,-0.420196533203125,0.1345062255859375
1782986847068036000,4.7600361328125,-0.8552703857421875,-0.4178619384765625,0.148040771484375
1782986847078110000,4.77010986328125,-0.8604888916015625,-0.416015625,0.1590576171875
1782986847088185000,4.78018505859375,-0.86712646484375,-0.4140625,0.1546630859375
1782986847098259000,4.790259033203125,-0.8755340576171875,-0.4110565185546875,0.14569091796875
1782986847108334000,4.800333984375,-0.88873291015625,-0.4142913818359375,0.13128662109375
1782986847118408000,4.810407958984375,-0.899017333984375,-0.4183197021484375,0.1205291748046875
1782986847128483000,4.820483154296875,-0.9175872802734375,-0.4205169677734375,0.110015869140625
1782986847138557000,4.830556884765625,-0.9432830810546875,-0.4232177734375,0.0929718017578125
1782986847148632000,4.840632080078125,-0.9605712890625,-0.42034912109375,0.08526611328125
1782986847158706000,4.850705810546875,-0.9624786376953125,-0.41815185546875,0.0860443115234375
1782986847168780000,4.860780029296875,-0.9489593505859375,-0.41943359375,0.0995330810546875
1782986847178855000,4.87085498046875,-0.9363861083984375,-0.4180145263671875,0.1218414306640625
1782986847188929000,4.880928955078125,-0.9410400390625,-0.4108428955078125,0.1324615478515625
1782986847199004000,4.89100390625,-0.9429931640625,-0.403228759765625,0.141448974609375
1782986847209078000,4.901078125,-0.9441680908203125,-0.400421142578125,0.1475067138671875
1782986847219153000,4.91115283203125,-0.939910888671875,-0.4019012451171875,0.14630126953125
1782986847229227000,4.92122705078125,-0.9284820556640625,-0.404083251953125,0.1439056396484375
1782986847239302000,4.931302001953125,-0.9149932861328125,-0.40350341796875,0.1396636962890625
1782986847249376000,4.9413759765625,-0.90484619140625,-0.4038238525390625,0.1341552734375
1782986847259451000,4.951450927734375,-0.907958984375,-0.407745361328125,0.1231689453125
1782986847269525000,4.96152490234375,-0.914459228515625,-0.40936279296875,0.1126861572265625
1782986847279598800,4.971598876953125,-0.912750244140625,-0.407440185546875,0.106719970703125
1782986847289674000,4.981674072265625,-0.9070587158203125,-0.4073486328125,0.104400634765625
1782986847299747800,4.991747802734375,-0.8960723876953125,-0.4055633544921875,0.1124725341796875
1782986847309823000,5.001822998046875,-0.88592529296875,-0.404052734375,0.128448486328125
1782986847319896800,5.011896728515625,-0.8839569091796875,-0.401885986328125,0.138580322265625
1782986847329972000,5.021971923828125,-0.881988525390625,-0.4004974365234375,0.13873291015625
1782986847340045800,5.0320458984375,-0.8796539306640625,-0.3999176025390625,0.1297454833984375
1782986847350121000,5.042120849609375,-0.8829193115234375,-0.4000244140625,0.1203155517578125
1782986847360194800,5.05219482421875,-0.887664794921875,-0.405426025390625,0.1154327392578125
1782986847370270000,5.06227001953125,-0.8924102783203125,-0.4069366455078125,0.1104736328125
1782986847380343800,5.07234375,-0.8928680419921875,-0.405548095703125,0.11273193359375
1782986847390419000,5.0824189453125,-0.8949737548828125,-0.403350830078125,0.1224365234375
1782986847400492800,5.092492919921875,-0.8904571533203125,-0.401458740234375,0.130096435546875
1782986847410567200,5.102567138671875,-0.8822479248046875,-0.406402587890625,0.1345367431640625
1782986847420641800,5.112641845703125,-0.875885009765625,-0.41204833984375,0.13604736328125
1782986847430716200,5.122716064453125,-0.87274169921875,-0.41632080078125,0.1329803466796875
1782986847440791000,5.132791015625,-0.8742828369140625,-0.4200897216796875,0.127410888671875
1782986847450865200,5.142865234375,-0.877716064453125,-0.4211578369140625,0.1180267333984375
1782986847460940000,5.15293994140625,-0.8796539306640625,-0.421905517578125,0.10968017578125
1782986847471014100,5.16301416015625,-0.8756561279296875,-0.4210662841796875,0.1055908203125
1782986847481089000,5.173089111328125,-0.8697662353515625,-0.421173095703125,0.102630615234375
1782986847491163100,5.1831630859375,-0.859161376953125,-0.42352294921875,0.1027984619140625
1782986847501238000,5.193238037109375,-0.857574462890625,-0.4257965087890625,0.1055450439453125
1782986847511312100,5.20331201171875,-0.86993408203125,-0.424407958984375,0.1053314208984375
1782986847521386000,5.213385986328125,-0.88397216796875,-0.4192047119140625,0.10491943359375
1782986847531461000,5.223461181640625,-0.90130615234375,-0.4163055419921875,0.097869873046875
1782986847541535000,5.233534912109375,-0.91644287109375,-0.41448974609375,0.0933837890625
1782986847551610000,5.243610107421875,-0.9246063232421875,-0.413848876953125,0.0908355712890625
1782986847561684200,5.253684326171875,-0.9283905029296875,-0.4118804931640625,0.094970703125
1782986847571759000,5.263759033203125,-0.9283294677734375,-0.4089813232421875,0.1010284423828125
1782986847581833200,5.273833251953125,-0.925140380859375,-0.4080810546875,0.1059417724609375
1782986847591908000,5.283908203125,-0.9227447509765625,-0.4097747802734375,0.1067657470703125
1782986847601981000,5.29398095703125,-0.920806884765625,-0.406646728515625,0.10491943359375
1782986847612056000,5.30405615234375,-0.9207305908203125,-0.4073486328125,0.1015625
1782986847622130000,5.3141298828125,-0.914825439453125,-0.4072418212890625,0.1048736572265625
1782986847632205000,5.324205078125,-0.9084625244140625,-0.4102630615234375,0.1041259765625
1782986847642279000,5.33427880859375,-0.902374267578125,-0.41162109375,0.104644775390625
1782986847652354000,5.34435400390625,-0.890228271484375,-0.40899658203125,0.107635498046875
1782986847662428000,5.354427978515625,-0.883819580078125,-0.40966796875,0.1104736328125
1782986847672502000,5.364501953125,-0.89111328125,-0.4080047607421875,0.1127166748046875
1782986847682577200,5.3745771484375,-0.9029083251953125,-0.4013519287109375,0.11383056640625
1782986847692651000,5.384651123046875,-0.90631103515625,-0.3981781005859375,0.11419677734375
1782986847702726100,5.39472607421875,-0.905120849609375,-0.400390625,0.114105224609375
1782986847712800000,5.404800048828125,-0.91192626953125,-0.403778076171875,0.1110382080078125
1782986847722875100,5.414875244140625,-0.9181365966796875,-0.40277099609375,0.10858154296875
1782986847732949000,5.424948974609375,-0.91650390625,-0.40185546875,0.1091766357421875
1782986847743024000,5.435024169921875,-0.906585693359375,-0.4037017822265625,0.109649658203125
1782986847753098000,5.445097900390625,-0.8921661376953125,-0.407623291015625,0.11181640625
1782986847763173000,5.455173095703125,-0.8876190185546875,-0.411102294921875,0.10931396484375
1782986847773247000,5.4652470703125,-0.8832550048828125,-0.414825439453125,0.103668212890625
1782986847783320800,5.47532080078125,-0.8753509521484375,-0.4154815673828125,0.0955047607421875
1782986847793396000,5.48539599609375,-0.869873046875,-0.4182586669921875,0.0978240966796875
1782986847803470000,5.495469970703125,-0.8769073486328125,-0.419189453125,0.1049346923828125
1782986847813545000,5.505544921875,-0.8943939208984375,-0.4174652099609375,0.10552978515625
1782986847823619000,5.515619140625,-0.91259765625,-0.4139862060546875,0.099456787109375
1782986847833694000,5.52569384765625,-0.9211273193359375,-0.4107666015625,0.095458984375
1782986847843768000,5.53576806640625,-0.9248809814453125,-0.4107208251953125,0.098876953125
1782986847853843000,5.545843017578125,-0.923095703125,-0.4097137451171875,0.1084747314453125
1782986847863917000,5.5559169921875,-0.917205810546875,-0.4075927734375,0.112335205078125
1782986847873992000,5.565991943359375,-0.9115447998046875,-0.4060516357421875,0.1159820556640625
1782986847884066000,5.576066162109375,-0.906036376953125,-0.40887451171875,0.1150665283203125
1782986847894140000,5.586139892578125,-0.9036407470703125,-0.411590576171875,0.110809326171875
1782986847904215000,5.596215087890625,-0.9049835205078125,-0.4124298095703125,0.1020965576171875
1782986847914289000,5.606288818359375,-0.90911865234375,-0.4149932861328125,0.10028076171875
1782986847924364000,5.616364013671875,-0.9132080078125,-0.413787841796875,0.101806640625
1782986847934438000,5.62643798828125,-0.9104156494140625,-0.4120330810546875,0.105377197265625
1782986847944513000,5.636512939453125,-0.9014129638671875,-0.4113311767578125,0.1097412109375
1782986847954588000,5.646587890625,-0.894073486328125,-0.410491943359375,0.11419677734375
1782986847964663000,5.6566630859375,-0.89312744140625,-0.4104461669921875,0.114532470703125
1782986847974737000,5.66673681640625,-0.8953704833984375,-0.4101409912109375,0.1105499267578125
1782986847984812000,5.67681201171875,-0.8961944580078125,-0.4106597900390625,0.1087493896484375
1782986847994886000,5.686885986328125,-0.89886474609375,-0.4114532470703125,0.1013946533203125
1782986848004960000,5.6969599609375,-0.8981475830078125,-0.409454345703125,0.097442626953125
1782986848015035000,5.707034912109375,-0.900970458984375,-0.410736083984375,0.094268798828125
1782986848025109200,5.717109130859375,-0.9071197509765625,-0.41094970703125,0.09515380859375
1782986848035184000,5.72718408203125,-0.9158935546875,-0.4063568115234375,0.0959320068359375
1782986848045258200,5.73725830078125,-0.9190826416015625,-0.3985595703125,0.099212646484375
1782986848055333000,5.7473330078125,-0.9110870361328125,-0.3971099853515625,0.1043701171875
1782986848065407200,5.7574072265625,-0.89947509765625,-0.4022674560546875,0.1061859130859375
1782986848075482000,5.767482177734375,-0.8916778564453125,-0.4058990478515625,0.1053924560546875
1782986848085556200,5.77755615234375,-0.884307861328125,-0.408294677734375,0.105560302734375
1782986848095631000,5.787631103515625,-0.879669189453125,-0.4093170166015625,0.106292724609375
1782986848105705200,5.797705322265625,-0.879119873046875,-0.4105987548828125,0.1047210693359375
1782986848115779000,5.807779052734375,-0.8831634521484375,-0.4056549072265625,0.1056365966796875
1782986848125854200,5.817854248046875,-0.88262939453125,-0.4064788818359375,0.103515625
1782986848135928000,5.827927978515625,-0.8780364990234375,-0.4062042236328125,0.1046295166015625
1782986848146003200,5.838003173828125,-0.877349853515625,-0.4069366455078125,0.11090087890625
1782986848156077000,5.8480771484375,-0.887969970703125,-0.402862548828125,0.109771728515625
1782986848166152200,5.858152099609375,-0.895660400390625,-0.3983917236328125,0.1105194091796875
1782986848176226000,5.86822607421875,-0.8997344970703125,-0.4045867919921875,0.113555908203125
1782986848186301200,5.87830126953125,-0.8950347900390625,-0.4080657958984375,0.11663818359375
1782986848196375000,5.888375,-0.8915252685546875,-0.4116363525390625,0.117889404296875
1782986848206450200,5.8984501953125,-0.88470458984375,-0.4140777587890625,0.11370849609375
1782986848216524000,5.90852392578125,-0.8798065185546875,-0.417449951171875,0.1123046875
1782986848226598100,5.91859814453125,-0.87744140625,-0.420989990234375,0.10955810546875
1782986848236673000,5.928673095703125,-0.881866455078125,-0.4233856201171875,0.1053466796875
1782986848246747100,5.9387470703125,-0.88836669921875,-0.42620849609375,0.09869384765625
1782986848256822000,5.948822021484375,-0.891876220703125,-0.4288482666015625,0.0943450927734375
1782986848266896100,5.958896240234375,-0.894439697265625,-0.429473876953125,0.0933837890625
1782986848276971000,5.968970947265625,-0.89581298828125,-0.4312896728515625,0.094451904296875
1782986848287045000,5.979045166015625,-0.8948822021484375,-0.432861328125,0.0970916748046875
1782986848297120000,5.9891201171875,-0.8973541259765625,-0.4338836669921875,0.09747314453125
1782986848307194000,5.999194091796875,-0.90057373046875,-0.4332122802734375,0.096527099609375
1782986848317269000,6.00926904296875,-0.91253662109375,-0.433349609375,0.0913238525390625
1782986848327343000,6.019343017578125,-0.9226531982421875,-0.436004638671875,0.0930938720703125
1782986848337418000,6.02941796875,-0.9212493896484375,-0.4345855712890625,0.1020050048828125
1782986848347492000,6.0394921875,-0.9117889404296875,-0.4308624267578125,0.1067657470703125
1782986848357566200,6.049566162109375,-0.9002838134765625,-0.4304046630859375,0.11260986328125
1782986848367641000,6.05964111328125,-0.8926239013671875,-0.4325103759765625,0.117889404296875
1782986848377715200,6.069715087890625,-0.8897857666015625,-0.4360809326171875,0.1240234375
1782986848387790000,6.0797900390625,-0.885650634765625,-0.4344024658203125,0.1266632080078125
1782986848397864200,6.0898642578125,-0.88507080078125,-0.4333038330078125,0.1274261474609375
1782986848407939000,6.09993896484375,-0.88421630859375,-0.4342193603515625,0.134918212890625
1782986848418013200,6.11001318359375,-0.882598876953125,-0.4336700439453125,0.1413116455078125
1782986848428088000,6.120088134765625,-0.8835601806640625,-0.4327392578125,0.1417083740234375
1782986848438162200,6.130162109375,-0.8872833251953125,-0.4323272705078125,0.14093017578125
1782986848448236300,6.140236328125,-0.8914794921875,-0.4296112060546875,0.138671875
1782986848458311200,6.150311279296875,-0.8968658447265625,-0.424652099609375,0.138946533203125
1782986848468385300,6.16038525390625,-0.90142822265625,-0.4248046875,0.1348114013671875
1782986848478460200,6.170460205078125,-0.90606689453125,-0.4219970703125,0.1313934326171875
1782986848488534300,6.1805341796875,-0.9129791259765625,-0.4193878173828125,0.13018798828125
1782986848498609200,6.190609130859375,-0.9158477783203125,-0.417388916015625,0.1316070556640625
1782986848508683300,6.200683349609375,-0.9117889404296875,-0.4155426025390625,0.1325531005859375
1782986848518758400,6.21075830078125,-0.903289794921875,-0.416412353515625,0.1350555419921875
1782986848528832300,6.220832275390625,-0.895599365234375,-0.419769287109375,0.1312103271484375
1782986848538907400,6.230907470703125,-0.9008026123046875,-0.4168853759765625,0.126983642578125
1782986848548981200,6.240981201171875,-0.9027099609375,-0.41375732421875,0.122650146484375
1782986848559056400,6.251056396484375,-0.8981781005859375,-0.416107177734375,0.11871337890625
1782986848569130200,6.261130126953125,-0.8863983154296875,-0.4225006103515625,0.12152099609375
1782986848579204000,6.2712041015625,-0.8806610107421875,-0.4224700927734375,0.1226348876953125
1782986848589279200,6.281279296875,-0.880340576171875,-0.418365478515625,0.1182098388671875
1782986848599353000,6.29135302734375,-0.8754425048828125,-0.41912841796875,0.1098480224609375
1782986848609428200,6.30142822265625,-0.87274169921875,-0.4271392822265625,0.1027679443359375
1782986848619502000,6.311502197265625,-0.875732421875,-0.42852783203125,0.0980682373046875
1782986848629577200,6.3215771484375,-0.882080078125,-0.426025390625,0.0966339111328125
1782986848639651300,6.3316513671875,-0.8807373046875,-0.4260711669921875,0.0977783203125
1782986848649726200,6.341726318359375,-0.878631591796875,-0.430145263671875,0.0993804931640625
1782986848659800300,6.35180029296875,-0.885498046875,-0.43017578125,0.1033935546875
1782986848669875200,6.361875244140625,-0.8975067138671875,-0.42840576171875,0.0973052978515625
1782986848679949300,6.37194921875,-0.89886474609375,-0.4268341064453125,0.092681884765625
1782986848690023200,6.382023193359375,-0.8952789306640625,-0.4297027587890625,0.0924530029296875
1782986848700098300,6.392098388671875,-0.8913421630859375,-0.4333648681640625,0.0939788818359375
1782986848710172200,6.402172119140625,-0.8850555419921875,-0.4371490478515625,0.0994873046875
1782986848720247300,6.412247314453125,-0.8788604736328125,-0.4393463134765625,0.1014862060546875
1782986848730321200,6.422321044921875,-0.8765716552734375,-0.44287109375,0.1035308837890625
1782986848740396300,6.432396240234375,-0.873138427734375,-0.44757080078125,0.1079254150390625
1782986848750470100,6.44247021484375,-0.8702239990234375,-0.4491119384765625,0.11077880859375
1782986848760545300,6.452545166015625,-0.86871337890625,-0.449066162109375,0.11444091796875
1782986848770619100,6.462619140625,-0.870758056640625,-0.4470062255859375,0.113677978515625
1782986848780694300,6.4726943359375,-0.8788299560546875,-0.4428253173828125,0.111724853515625
1782986848790768000,6.48276806640625,-0.889862060546875,-0.44036865234375,0.1115875244140625
1782986848800843300,6.49284326171875,-0.9028167724609375,-0.4404449462890625,0.1061859130859375
1782986848810917000,6.502917236328125,-0.911468505859375,-0.4393157958984375,0.10296630859375
1782986848820991200,6.5129912109375,-0.9110260009765625,-0.4371337890625,0.1041107177734375
1782986848831066000,6.523066162109375,-0.908447265625,-0.436309814453125,0.11212158203125
1782986848841140200,6.53314013671875,-0.9046630859375,-0.4349212646484375,0.1219635009765625
1782986848851215000,6.543215087890625,-0.900299072265625,-0.4322357177734375,0.124237060546875
1782986848861289200,6.553289306640625,-0.8976898193359375,-0.4345245361328125,0.1211700439453125
1782986848871364000,6.563364013671875,-0.89190673828125,-0.43731689453125,0.1172943115234375
1782986848881438200,6.573438232421875,-0.8867645263671875,-0.4367218017578125,0.115142822265625
1782986848891513000,6.58351318359375,-0.88604736328125,-0.4378814697265625,0.1170806884765625
1782986848901587200,6.593587158203125,-0.8857421875,-0.4405059814453125,0.11322021484375
1782986848911662000,6.603662109375,-0.885162353515625,-0.43890380859375,0.1102752685546875
1782986848921736200,6.613736083984375,-0.883575439453125,-0.4353485107421875,0.1113433837890625
1782986848931810000,6.62381005859375,-0.8864898681640625,-0.4311370849609375,0.118072509765625
1782986848941885200,6.63388525390625,-0.894927978515625,-0.4317779541015625,0.113922119140625
1782986848951959000,6.643958984375,-0.9035797119140625,-0.4315948486328125,0.1101531982421875
1782986848962034200,6.6540341796875,-0.9075775146484375,-0.4329376220703125,0.1075592041015625
1782986848972108000,6.66410791015625,-0.9059295654296875,-0.43426513671875,0.1066131591796875
1782986848982183200,6.67418310546875,-0.901458740234375,-0.4378662109375,0.111419677734375
1782986848992257000,6.684257080078125,-0.8885040283203125,-0.4388885498046875,0.111480712890625
1782986849002332200,6.694332275390625,-0.8711700439453125,-0.439666748046875,0.110137939453125
1782986849012406000,6.704406005859375,-0.8602142333984375,-0.4439544677734375,0.1079559326171875
1782986849022481400,6.7144814453125,-0.85296630859375,-0.449249267578125,0.10821533203125
1782986849032555500,6.724555419921875,-0.8541412353515625,-0.451934814453125,0.1051483154296875
1782986849042629400,6.73462939453125,-0.8556060791015625,-0.4508056640625,0.1015472412109375
1782986849052704500,6.74470458984375,-0.8621978759765625,-0.449859619140625,0.10235595703125
1782986849062778400,6.7547783203125,-0.873779296875,-0.4452667236328125,0.1049346923828125
1782986849072853500,6.764853515625,-0.8837432861328125,-0.439544677734375,0.111236572265625
1782986849082927400,6.77492724609375,-0.8885650634765625,-0.4363250732421875,0.110321044921875
1782986849093002500,6.78500244140625,-0.890594482421875,-0.4370880126953125,0.115997314453125
1782986849103076400,6.795076416015625,-0.8895721435546875,-0.4364166259765625,0.1208343505859375
1782986849113151500,6.8051513671875,-0.88751220703125,-0.4326019287109375,0.1204071044921875
1782986849123225300,6.815225341796875,-0.8830413818359375,-0.428680419921875,0.118621826171875
1782986849133300500,6.825300537109375,-0.8792572021484375,-0.4288330078125,0.1206817626953125
1782986849143374300,6.835374267578125,-0.8794708251953125,-0.432373046875,0.12554931640625
1782986849153448700,6.84544873046875,-0.8820953369140625,-0.4275054931640625,0.126861572265625
1782986849163523300,6.8555234375,-0.88214111328125,-0.422943115234375,0.126495361328125
1782986849173597700,6.86559765625,-0.8841400146484375,-0.4229583740234375,0.128570556640625
1782986849183672300,6.87567236328125,-0.88189697265625,-0.423828125,0.1297760009765625
1782986849193746700,6.88574658203125,-0.8862762451171875,-0.420166015625,0.1281585693359375
1782986849203821300,6.8958212890625,-0.8889923095703125,-0.41619873046875,0.12640380859375
1782986849213895700,6.905895751953125,-0.886077880859375,-0.4168243408203125,0.1327667236328125
1782986849223970300,6.91597021484375,-0.88092041015625,-0.419281005859375,0.1400146484375
1782986849234044700,6.926044677734375,-0.87835693359375,-0.421356201171875,0.14105224609375
1782986849244119300,6.936119384765625,-0.8769073486328125,-0.4195404052734375,0.13525390625
1782986849254193700,6.946193603515625,-0.8775177001953125,-0.422210693359375,0.1331329345703125
1782986849264267500,6.956267578125,-0.8802032470703125,-0.424285888671875,0.1303558349609375
1782986849274342700,6.9663427734375,-0.8832550048828125,-0.430419921875,0.1255035400390625
1782986849284416500,6.97641650390625,-0.8942108154296875,-0.431793212890625,0.122894287109375
1782986849294491600,6.98649169921875,-0.9055633544921875,-0.4303741455078125,0.1188507080078125
1782986849304565500,6.9965654296875,-0.9082183837890625,-0.431121826171875,0.1177520751953125
1782986849314640600,7.006640625,-0.8983917236328125,-0.436248779296875,0.117950439453125
1782986849324714500,7.016714599609375,-0.8875579833984375,-0.442108154296875,0.1215972900390625
1782986849334789600,7.02678955078125,-0.8825225830078125,-0.44073486328125,0.1189422607421875
1782986849344863500,7.036863525390625,-0.8802337646484375,-0.439727783203125,0.118560791015625
1782986849354938600,7.046938720703125,-0.877197265625,-0.4442291259765625,0.114501953125
1782986849365012500,7.057012451171875,-0.8778228759765625,-0.4513702392578125,0.1093292236328125
1782986849375086600,7.067086669921875,-0.876556396484375,-0.454803466796875,0.1063690185546875
1782986849385161500,7.077161376953125,-0.87750244140625,-0.4556732177734375,0.1035308837890625
1782986849395235600,7.087235595703125,-0.878509521484375,-0.455810546875,0.101654052734375
1782986849405310700,7.097310791015625,-0.883270263671875,-0.4559173583984375,0.10198974609375
1782986849415384600,7.107384521484375,-0.886260986328125,-0.4525604248046875,0.1013946533203125
1782986849425459700,7.117459716796875,-0.8870697021484375,-0.448394775390625,0.10040283203125
1782986849435533600,7.127533447265625,-0.887725830078125,-0.4462127685546875,0.0966949462890625
1782986849445608700,7.137608642578125,-0.8877105712890625,-0.4456939697265625,0.0968475341796875
1782986849455682600,7.1476826171875,-0.891082763671875,-0.4477691650390625,0.09765625
1782986849465757700,7.1577578125,-0.8965301513671875,-0.44403076171875,0.1007843017578125
1782986849475831600,7.16783154296875,-0.9036865234375,-0.44317626953125,0.1024169921875
1782986849485905400,7.177905517578125,-0.9038543701171875,-0.439666748046875,0.1092071533203125
1782986849495980500,7.18798046875,-0.904876708984375,-0.43804931640625,0.1116943359375
1782986849506054400,7.198054443359375,-0.9004058837890625,-0.4397125244140625,0.1151123046875
1782986849516129500,7.208129638671875,-0.8948974609375,-0.4429168701171875,0.117340087890625
1782986849526203600,7.21820361328125,-0.8862152099609375,-0.4437103271484375,0.1177520751953125
1782986849536278500,7.228278564453125,-0.877777099609375,-0.44305419921875,0.11956787109375
1782986849546352600,7.2383525390625,-0.8737640380859375,-0.44305419921875,0.1178436279296875
1782986849556427500,7.248427490234375,-0.875732421875,-0.4443206787109375,0.11572265625
1782986849566501600,7.258501708984375,-0.8808441162109375,-0.448150634765625,0.115631103515625
1782986849576576500,7.268576416015625,-0.883819580078125,-0.4442596435546875,0.1104736328125
1782986849586650600,7.278650634765625,-0.8925018310546875,-0.44061279296875,0.11083984375
1782986849596724500,7.288724365234375,-0.897735595703125,-0.437469482421875,0.1159820556640625
1782986849606799600,7.298799560546875,-0.888275146484375,-0.43255615234375,0.121826171875
1782986849616873500,7.30887353515625,-0.8829803466796875,-0.429046630859375,0.1286773681640625
1782986849626948600,7.318948486328125,-0.881591796875,-0.431488037109375,0.1362457275390625
1782986849637022500,7.3290224609375,-0.885589599609375,-0.430572509765625,0.1351470947265625
1782986849647097600,7.33909765625,-0.8889923095703125,-0.4269561767578125,0.1307525634765625
1782986849657171500,7.34917138671875,-0.891204833984375,-0.425201416015625,0.1253662109375
1782986849667246600,7.35924658203125,-0.8892974853515625,-0.42718505859375,0.1273193359375
1782986849677320400,7.369320556640625,-0.8827362060546875,-0.42938232421875,0.1314849853515625
1782986849687395600,7.3793955078125,-0.87640380859375,-0.4303741455078125,0.1361236572265625
1782986849697469400,7.389469482421875,-0.87030029296875,-0.4308013916015625,0.13714599609375
1782986849707544600,7.399544677734375,-0.8723297119140625,-0.4312286376953125,0.1352081298828125
1782986849717618400,7.409618408203125,-0.8757171630859375,-0.4320220947265625,0.1317596435546875
1782986849727692500,7.419692626953125,-0.879913330078125,-0.434295654296875,0.128753662109375
1782986849737767400,7.429767333984375,-0.8825836181640625,-0.435455322265625,0.127532958984375
1782986849747841500,7.439841552734375,-0.883544921875,-0.435028076171875,0.124786376953125
1782986849757916400,7.44991650390625,-0.8819122314453125,-0.435943603515625,0.123748779296875
1782986849767990500,7.459990478515625,-0.8805999755859375,-0.4380340576171875,0.1206817626953125
1782986849778065400,7.4700654296875,-0.877197265625,-0.4373931884765625,0.122100830078125
1782986849788139500,7.480139404296875,-0.8756256103515625,-0.4379425048828125,0.120147705078125
1782986849798214400,7.49021435546875,-0.8773345947265625,-0.4384307861328125,0.119171142578125
1782986849808288500,7.50028857421875,-0.880279541015625,-0.4389190673828125,0.1153564453125
1782986849818363400,7.51036328125,-0.8772735595703125,-0.4381256103515625,0.115386962890625
1782986849828437500,7.5204375,-0.8783721923828125,-0.43963623046875,0.11614990234375
1782986849838511400,7.530511474609375,-0.8824310302734375,-0.43792724609375,0.1185760498046875
1782986849848586500,7.54058642578125,-0.8824462890625,-0.4365692138671875,0.1159210205078125
1782986849858660400,7.550660400390625,-0.8795928955078125,-0.4368133544921875,0.116485595703125
1782986849868735500,7.560735595703125,-0.8781280517578125,-0.4376678466796875,0.1191864013671875
1782986849878809300,7.570809326171875,-0.8751983642578125,-0.4365692138671875,0.12188720703125
1782986849888884500,7.580884521484375,-0.877349853515625,-0.4369964599609375,0.1242523193359375
1782986849898958300,7.590958251953125,-0.8841094970703125,-0.434478759765625,0.1215972900390625
1782986849909033500,7.601033447265625,-0.8901824951171875,-0.431732177734375,0.123626708984375
1782986849919107300,7.611107421875,-0.8959197998046875,-0.430328369140625,0.1275482177734375
1782986849929182500,7.621182373046875,-0.8964080810546875,-0.433563232421875,0.128204345703125
1782986849939256300,7.63125634765625,-0.8945465087890625,-0.4338226318359375,0.1304168701171875
1782986849949330700,7.64133056640625,-0.890594482421875,-0.43292236328125,0.1323089599609375
1782986849959405300,7.6514052734375,-0.890045166015625,-0.4332427978515625,0.130859375
1782986849969479700,7.661479736328125,-0.8902435302734375,-0.4349822998046875,0.1239166259765625
1782986849979554300,7.67155419921875,-0.8960723876953125,-0.434783935546875,0.116943359375
1782986849989628700,7.681628662109375,-0.9029388427734375,-0.4371490478515625,0.1104583740234375
1782986849999703300,7.691703369140625,-0.90240478515625,-0.440155029296875,0.110992431640625
1782986850009777700,7.701777587890625,-0.8985748291015625,-0.4426727294921875,0.1121826171875
1782986850019852300,7.711852294921875,-0.8923797607421875,-0.4447784423828125,0.11614990234375
1782986850029925600,7.721925537109375,-0.886474609375,-0.4502410888671875,0.115203857421875
1782986850040000800,7.732000732421875,-0.883575439453125,-0.4510040283203125,0.111968994140625
1782986850050074600,7.74207470703125,-0.8816680908203125,-0.45013427734375,0.1060791015625
1782986850060148700,7.752148681640625,-0.88214111328125,-0.4474334716796875,0.0994415283203125
1782986850070223600,7.7622236328125,-0.879730224609375,-0.4468536376953125,0.0986480712890625
1782986850080297700,7.772297607421875,-0.873779296875,-0.4446868896484375,0.1002655029296875
1782986850090372600,7.78237255859375,-0.8715362548828125,-0.4425048828125,0.103363037109375
1782986850100446700,7.79244677734375,-0.87017822265625,-0.4421539306640625,0.104156494140625
1782986850110521600,7.802521484375,-0.864898681640625,-0.4403076171875,0.1065673828125
1782986850120595700,7.812595703125,-0.8641510009765625,-0.442596435546875,0.107513427734375
1782986850130670600,7.822670654296875,-0.860870361328125,-0.4398345947265625,0.1114654541015625
1782986850140744700,7.83274462890625,-0.8594207763671875,-0.438568115234375,0.114959716796875
1782986850150819600,7.842819580078125,-0.862213134765625,-0.4396209716796875,0.120635986328125
1782986850160893700,7.852893798828125,-0.8585662841796875,-0.441436767578125,0.121490478515625
1782986850170967600,7.862967529296875,-0.8619384765625,-0.439971923828125,0.1213531494140625
1782986850181042700,7.873042724609375,-0.869537353515625,-0.43701171875,0.1236724853515625
1782986850191116500,7.883116455078125,-0.8716888427734375,-0.43731689453125,0.1243133544921875
1782986850201191700,7.893191650390625,-0.8765106201171875,-0.4346466064453125,0.1224822998046875
1782986850211265500,7.903265625,-0.8786773681640625,-0.4302215576171875,0.121002197265625
1782986850221340700,7.913340576171875,-0.8731842041015625,-0.43328857421875,0.1230010986328125
1782986850231414500,7.92341455078125,-0.86181640625,-0.4317474365234375,0.1347198486328125
1782986850241489700,7.93348974609375,-0.8494110107421875,-0.433929443359375,0.140533447265625
1782986850251563500,7.9435634765625,-0.8316802978515625,-0.4363555908203125,0.143157958984375
1782986850261638700,7.953638671875,-0.82537841796875,-0.4307708740234375,0.14190673828125
1782986850271712500,7.96371240234375,-0.8756256103515625,-0.4246826171875,0.1205291748046875
1782986850281786600,7.97378662109375,-0.9623565673828125,-0.411834716796875,0.0841217041015625
1782986850291861500,7.983861572265625,-1.0245208740234375,-0.4041290283203125,0.0671234130859375
1782986850301935600,7.993935546875,-1.06109619140625,-0.407989501953125,0.0614013671875
1782986850312010500,8.004010498046876,-1.066619873046875,-0.407745361328125,0.0744171142578125
1782986850322084600,8.014084716796875,-1.05548095703125,-0.4127960205078125,0.084381103515625
1782986850332159700,8.02415966796875,-1.0284881591796875,-0.414642333984375,0.10052490234375
1782986850342233600,8.034233642578124,-0.9964599609375,-0.4195098876953125,0.11578369140625
1782986850352308700,8.044308837890625,-0.962158203125,-0.4306640625,0.133026123046875
1782986850362382600,8.054382568359374,-0.92767333984375,-0.4384613037109375,0.148162841796875
1782986850372457700,8.064457763671875,-0.903839111328125,-0.447662353515625,0.158477783203125
1782986850382531600,8.074531494140626,-0.887847900390625,-0.44842529296875,0.168121337890625
1782986850392605400,8.08460546875,-0.872833251953125,-0.44580078125,0.1764373779296875
1782986850402680600,8.0946806640625,-0.85540771484375,-0.4511871337890625,0.18243408203125
1782986850412754400,8.10475439453125,-0.841522216796875,-0.461151123046875,0.1833343505859375
1782986850422829600,8.11482958984375,-0.84161376953125,-0.462677001953125,0.1803131103515625
1782986850432903400,8.1249033203125,-0.852783203125,-0.46661376953125,0.1673126220703125
1782986850442978600,8.134978515625,-0.8617095947265625,-0.465850830078125,0.1639404296875
1782986850453052700,8.145052734375,-0.8625640869140625,-0.4559326171875,0.1710662841796875
1782986850463127600,8.15512744140625,-0.863677978515625,-0.44195556640625,0.1746673583984375
1782986850473201700,8.16520166015625,-0.876953125,-0.4357452392578125,0.1747894287109375
1782986850483276500,8.175276611328124,-0.8864593505859375,-0.4299468994140625,0.1717071533203125
1782986850493350700,8.1853505859375,-0.87921142578125,-0.427642822265625,0.1722412109375
1782986850503424800,8.1954248046875,-0.8612213134765625,-0.4292144775390625,0.1733245849609375
1782986850513499600,8.205499755859375,-0.8351593017578125,-0.4349517822265625,0.1751861572265625
1782986850523573800,8.21557373046875,-0.80755615234375,-0.4443359375,0.1802520751953125
1782986850533648600,8.225648681640624,-0.7889862060546875,-0.4470367431640625,0.1827850341796875
1782986850543722800,8.23572265625,-0.7773590087890625,-0.4479217529296875,0.1842041015625
1782986850553797600,8.245797607421874,-0.766510009765625,-0.449432373046875,0.1868438720703125
1782986850563871700,8.255871826171875,-0.7632293701171875,-0.448486328125,0.189697265625
1782986850573946600,8.265946533203126,-0.779754638671875,-0.4506683349609375,0.1866455078125
1782986850584020700,8.276020751953125,-0.801025390625,-0.4530487060546875,0.1748504638671875
1782986850594095600,8.286095703125,-0.8270111083984375,-0.4523162841796875,0.1593475341796875
1782986850604169700,8.296169677734374,-0.84783935546875,-0.453277587890625,0.1463470458984375
1782986850614243800,8.306243896484375,-0.867828369140625,-0.4573974609375,0.13665771484375
1782986850624318700,8.316318603515626,-0.8800811767578125,-0.4546966552734375,0.134246826171875
1782986850634392800,8.326392822265625,-0.880950927734375,-0.4496917724609375,0.1401214599609375
1782986850644467700,8.3364677734375,-0.87841796875,-0.4494171142578125,0.152679443359375
1782986850654541800,8.346541748046874,-0.8802947998046875,-0.454498291015625,0.163421630859375
1782986850664616700,8.35661669921875,-0.882354736328125,-0.45562744140625,0.169952392578125
1782986850674690800,8.36669091796875,-0.8805084228515625,-0.452850341796875,0.1710968017578125
1782986850684765700,8.376765625,-0.8751678466796875,-0.454833984375,0.1710052490234375
1782986850694839800,8.38683984375,-0.8683624267578125,-0.4564056396484375,0.17034912109375
1782986850704914700,8.396914794921875,-0.862335205078125,-0.458038330078125,0.1704864501953125
1782986850714988800,8.40698876953125,-0.8618316650390625,-0.45751953125,0.169281005859375
1782986850725062700,8.417062744140624,-0.8700408935546875,-0.458343505859375,0.1610107421875
1782986850735137800,8.4271376953125,-0.876373291015625,-0.45263671875,0.1562957763671875
1782986850745211600,8.437211669921876,-0.8738555908203125,-0.449951171875,0.15802001953125
1782986850755286800,8.447286865234375,-0.86407470703125,-0.4505767822265625,0.15814208984375
1782986850765360600,8.457360595703125,-0.8515777587890625,-0.4532928466796875,0.1601104736328125
1782986850775435800,8.467435791015625,-0.840789794921875,-0.4578704833984375,0.156829833984375
1782986850785509600,8.477509521484375,-0.8308563232421875,-0.459686279296875,0.1573486328125
1782986850795584800,8.487584716796874,-0.8253631591796875,-0.4600067138671875,0.1575775146484375
1782986850805658600,8.49765869140625,-0.8289642333984375,-0.4586639404296875,0.1548309326171875
1782986850815733800,8.507733642578126,-0.843658447265625,-0.4533233642578125,0.14935302734375
1782986850825807600,8.5178076171875,-0.86236572265625,-0.45281982421875,0.135406494140625
1782986850835881700,8.5278818359375,-0.876007080078125,-0.450958251953125,0.1251373291015625
1782986850845956600,8.53795654296875,-0.8863983154296875,-0.4551544189453125,0.1193084716796875
1782986850856030700,8.54803076171875,-0.8929443359375,-0.4615325927734375,0.1175994873046875
1782986850866105600,8.558105712890624,-0.894775390625,-0.4643096923828125,0.1219482421875
1782986850876179700,8.5681796875,-0.8920135498046875,-0.4676361083984375,0.129364013671875
1782986850886254600,8.578254638671876,-0.8900604248046875,-0.4642333984375,0.1423187255859375
1782986850896328700,8.58832861328125,-0.8908843994140625,-0.465667724609375,0.1494903564453125
1782986850906403600,8.598403564453125,-0.8911895751953125,-0.4663848876953125,0.1551971435546875
1782986850916477700,8.608477783203124,-0.8917388916015625,-0.470947265625,0.1510467529296875
1782986850926552600,8.618552490234375,-0.895111083984375,-0.4775543212890625,0.1412200927734375
1782986850936626700,8.628626708984376,-0.9047698974609375,-0.478668212890625,0.1321563720703125
1782986850946700500,8.638700439453125,-0.910614013671875,-0.4779052734375,0.1220550537109375
1782986850956775700,8.648775634765625,-0.9101104736328125,-0.4805908203125,0.120819091796875
1782986850966849500,8.658849609375,-0.908233642578125,-0.4800872802734375,0.126434326171875
1782986850976924700,8.668924560546875,-0.902923583984375,-0.4789886474609375,0.1312408447265625
1782986850986998500,8.67899853515625,-0.893707275390625,-0.4771728515625,0.1378021240234375
1782986850997073700,8.68907373046875,-0.87982177734375,-0.4721221923828125,0.1391754150390625
1782986851007147500,8.6991474609375,-0.8680572509765625,-0.4735870361328125,0.1392974853515625
1782986851017222700,8.70922265625,-0.863800048828125,-0.4786376953125,0.13671875
1782986851027297000,8.719297119140625,-0.8635101318359375,-0.48211669921875,0.1308441162109375
1782986851037372200,8.7293720703125,-0.862884521484375,-0.48211669921875,0.125640869140625
1782986851047446000,8.739446044921875,-0.8601837158203125,-0.483551025390625,0.1252593994140625
1782986851057519900,8.749519775390626,-0.8589019775390625,-0.4854278564453125,0.124237060546875
1782986851067595000,8.759594970703125,-0.8534698486328125,-0.486724853515625,0.1206512451171875
1782986851077668900,8.7696689453125,-0.851165771484375,-0.484710693359375,0.1187896728515625
1782986851087744000,8.779743896484375,-0.85272216796875,-0.4821319580078125,0.12042236328125
1782986851097817900,8.78981787109375,-0.8569793701171875,-0.4768829345703125,0.1257171630859375
1782986851107893000,8.79989306640625,-0.8650360107421875,-0.47198486328125,0.1311492919921875
1782986851117967000,8.809967041015625,-0.87274169921875,-0.468658447265625,0.1342620849609375
1782986851128042000,8.8200419921875,-0.8758087158203125,-0.4673614501953125,0.134552001953125
1782986851138116000,8.8301162109375,-0.8754119873046875,-0.4659881591796875,0.13238525390625
1782986851148190000,8.84018994140625,-0.8732147216796875,-0.4627227783203125,0.1337890625
1782986851158265000,8.85026513671875,-0.86669921875,-0.461395263671875,0.1335906982421875
1782986851168339000,8.8603388671875,-0.8621978759765625,-0.4591827392578125,0.1337890625
1782986851178414000,8.8704140625,-0.863983154296875,-0.461181640625,0.1325836181640625
1782986851188488000,8.880488037109375,-0.864044189453125,-0.459564208984375,0.127044677734375
1782986851198563000,8.89056298828125,-0.867218017578125,-0.4549713134765625,0.123687744140625
1782986851208637000,8.900636962890625,-0.87298583984375,-0.4544525146484375,0.1204376220703125
1782986851218712000,8.910712158203125,-0.8770599365234375,-0.4546966552734375,0.1215972900390625
1782986851228786000,8.920785888671874,-0.8812255859375,-0.4560546875,0.12371826171875
1782986851238861000,8.930861083984375,-0.8774261474609375,-0.453857421875,0.1243896484375
1782986851248935000,8.940934814453126,-0.8693389892578125,-0.4539794921875,0.12677001953125
1782986851259009000,8.951009033203125,-0.8619537353515625,-0.4554901123046875,0.126922607421875
1782986851269084000,8.961083984375,-0.8571014404296875,-0.458221435546875,0.128448486328125
1782986851279158000,8.971157958984374,-0.8539276123046875,-0.457977294921875,0.1294403076171875
1782986851289233000,8.98123291015625,-0.860809326171875,-0.4565887451171875,0.13311767578125
1782986851299307000,8.99130712890625,-0.8665618896484375,-0.4524688720703125,0.131500244140625
1782986851309382000,9.0013818359375,-0.86566162109375,-0.4520721435546875,0.1318359375
1782986851319456000,9.0114560546875,-0.8658905029296875,-0.4569244384765625,0.13470458984375
1782986851329531000,9.02153076171875,-0.86395263671875,-0.46148681640625,0.1325531005859375
1782986851339605000,9.03160498046875,-0.8587493896484375,-0.4649505615234375,0.132476806640625
1782986851349679900,9.041679931640624,-0.8500518798828125,-0.46826171875,0.1308135986328125
1782986851359754000,9.05175390625,-0.8465728759765625,-0.473114013671875,0.13226318359375
1782986851369828000,9.061828125,-0.84814453125,-0.4745025634765625,0.131103515625
1782986851379903000,9.071903076171875,-0.8552703857421875,-0.4679412841796875,0.1286163330078125
1782986851389977000,9.08197705078125,-0.8589019775390625,-0.463775634765625,0.1242218017578125
1782986851400052000,9.092052001953125,-0.8600921630859375,-0.4625244140625,0.12640380859375
1782986851410126000,9.1021259765625,-0.857513427734375,-0.4642181396484375,0.1279144287109375
1782986851420201000,9.112200927734374,-0.8621978759765625,-0.464447021484375,0.1252899169921875
1782986851430275000,9.122275146484375,-0.8687591552734375,-0.4604949951171875,0.12713623046875
1782986851440350000,9.132349853515626,-0.873291015625,-0.460540771484375,0.1268463134765625
1782986851450424000,9.142424072265625,-0.8797149658203125,-0.461029052734375,0.12939453125
1782986851460499000,9.1524990234375,-0.8855743408203125,-0.4571075439453125,0.12982177734375
1782986851470573000,9.162572998046874,-0.8820037841796875,-0.4561614990234375,0.1305694580078125
1782986851480647200,9.172647216796875,-0.87725830078125,-0.456787109375,0.132781982421875
1782986851490722000,9.18272216796875,-0.87066650390625,-0.4554901123046875,0.1362152099609375
1782986851500796200,9.192796142578125,-0.8687591552734375,-0.4564666748046875,0.13287353515625
1782986851510871000,9.20287109375,-0.871917724609375,-0.45843505859375,0.1269378662109375
1782986851520945200,9.212945068359375,-0.875701904296875,-0.459625244140625,0.1202850341796875
1782986851531020000,9.22302001953125,-0.886688232421875,-0.461669921875,0.1207275390625
1782986851541094100,9.23309423828125,-0.89630126953125,-0.4632110595703125,0.1168365478515625
1782986851551169000,9.2431689453125,-0.8978424072265625,-0.462249755859375,0.1118927001953125
1782986851561243100,9.2532431640625,-0.8928680419921875,-0.4659576416015625,0.109100341796875
1782986851571318000,9.263318115234375,-0.89105224609375,-0.470947265625,0.110687255859375
1782986851581392100,9.27339208984375,-0.891265869140625,-0.471923828125,0.1115875244140625
1782986851591466000,9.283466064453124,-0.88916015625,-0.4697723388671875,0.109954833984375
1782986851601541000,9.293541015625,-0.887939453125,-0.4694671630859375,0.1108245849609375
1782986851611614000,9.303614013671876,-0.88330078125,-0.472686767578125,0.113067626953125
1782986851621689000,9.313689208984375,-0.8805999755859375,-0.4722900390625,0.11297607421875
1782986851631763000,9.323762939453125,-0.880279541015625,-0.473724365234375,0.1147308349609375
1782986851641838000,9.333838134765625,-0.87518310546875,-0.47613525390625,0.1119232177734375
1782986851651912000,9.343911865234375,-0.867645263671875,-0.47894287109375,0.1131134033203125
1782986851661987000,9.353987060546874,-0.8607025146484375,-0.479156494140625,0.112091064453125
1782986851672061000,9.36406103515625,-0.8515625,-0.478424072265625,0.114837646484375
1782986851682136000,9.374135986328126,-0.843170166015625,-0.4808807373046875,0.1145477294921875
1782986851692210000,9.3842099609375,-0.838623046875,-0.4820556640625,0.1141204833984375
1782986851702285000,9.39428515625,-0.8395843505859375,-0.4825897216796875,0.1125030517578125
1782986851712359000,9.40435888671875,-0.842132568359375,-0.4825592041015625,0.1134490966796875
1782986851722433000,9.41443310546875,-0.8457183837890625,-0.476348876953125,0.112762451171875
1782986851732508000,9.4245078125,-0.85040283203125,-0.4752655029296875,0.1125030517578125
1782986851742582000,9.43458203125,-0.853546142578125,-0.4769134521484375,0.1105499267578125
1782986851752657000,9.444656982421876,-0.85943603515625,-0.4783172607421875,0.1057586669921875
1782986851762731000,9.45473095703125,-0.8691253662109375,-0.4785919189453125,0.1020965576171875
1782986851772806000,9.464805908203125,-0.873016357421875,-0.4760894775390625,0.100921630859375
1782986851782880000,9.4748798828125,-0.8792266845703125,-0.472198486328125,0.1042327880859375
1782986851792955000,9.484954833984375,-0.878326416015625,-0.47149658203125,0.11083984375
1782986851803029000,9.495029052734376,-0.8763275146484375,-0.46954345703125,0.114288330078125
1782986851813103900,9.505103759765625,-0.873626708984375,-0.466888427734375,0.11688232421875
1782986851823178000,9.515177978515625,-0.87384033203125,-0.46990966796875,0.1167449951171875
1782986851833251800,9.525251953125,-0.8789825439453125,-0.468048095703125,0.112701416015625
1782986851843327000,9.535326904296875,-0.8778533935546875,-0.467681884765625,0.1100616455078125
1782986851853400800,9.54540087890625,-0.875701904296875,-0.4668426513671875,0.11212158203125
1782986851863476000,9.55547607421875,-0.8747711181640625,-0.4688568115234375,0.11505126953125
1782986851873549800,9.5655498046875,-0.8735809326171875,-0.4694061279296875,0.1146697998046875
1782986851883625000,9.575625,-0.877410888671875,-0.4712371826171875,0.1132965087890625
1782986851893698800,9.58569873046875,-0.879425048828125,-0.4730072021484375,0.1147308349609375
1782986851903774000,9.59577392578125,-0.8770294189453125,-0.47235107421875,0.10992431640625
1782986851913847800,9.605847900390625,-0.8699951171875,-0.4730377197265625,0.108154296875
1782986851923922200,9.615922119140626,-0.861602783203125,-0.4769439697265625,0.11114501953125
1782986851933996800,9.625996826171875,-0.85821533203125,-0.4749298095703125,0.112640380859375
1782986851944071200,9.6360712890625,-0.85833740234375,-0.472808837890625,0.111907958984375
1782986851954145800,9.646145751953124,-0.8589935302734375,-0.4707183837890625,0.110015869140625
1782986851964221000,9.656220947265625,-0.864288330078125,-0.4667205810546875,0.1111907958984375
1782986851974294800,9.666294677734374,-0.866943359375,-0.468719482421875,0.1112213134765625
1782986851984370000,9.676369873046875,-0.8654632568359375,-0.4706573486328125,0.110748291015625
1782986851994444000,9.686444091796876,-0.8626708984375,-0.4740753173828125,0.1092071533203125
1782986852004519000,9.696518798828125,-0.8572845458984375,-0.477996826171875,0.1118316650390625
1782986852014593000,9.706593017578125,-0.8594818115234375,-0.47784423828125,0.113067626953125
1782986852024668700,9.716668701171875,-0.8581085205078125,-0.4746551513671875,0.1102447509765625
1782986852034742500,9.726742431640625,-0.8586883544921875,-0.473480224609375,0.1075439453125
1782986852044817700,9.736817626953124,-0.8626251220703125,-0.4723968505859375,0.105682373046875
1782986852054891500,9.7468916015625,-0.87060546875,-0.4730224609375,0.104339599609375
1782986852064965600,9.756965576171876,-0.87603759765625,-0.4734649658203125,0.1005706787109375
1782986852075040500,9.76704052734375,-0.8772735595703125,-0.4707489013671875,0.0998992919921875
1782986852085114600,9.777114501953125,-0.8764495849609375,-0.4711761474609375,0.103607177734375
1782986852095189500,9.787189453125,-0.869964599609375,-0.4716644287109375,0.107269287109375
1782986852105263600,9.797263671875,-0.8650970458984375,-0.47222900390625,0.1113128662109375
1782986852115338500,9.80733837890625,-0.86456298828125,-0.4716949462890625,0.1129150390625
1782986852125412600,9.81741259765625,-0.8635711669921875,-0.4717864990234375,0.1102447509765625
1782986852135487500,9.827487548828126,-0.85723876953125,-0.4744720458984375,0.109405517578125
1782986852145561600,9.8375615234375,-0.85528564453125,-0.4751434326171875,0.1091766357421875
1782986852155636500,9.847636474609375,-0.855010986328125,-0.475494384765625,0.1083526611328125
1782986852165710600,9.857710693359374,-0.8570556640625,-0.4727783203125,0.1036834716796875
1782986852175784700,9.86778466796875,-0.8635711669921875,-0.4766387939453125,0.0999755859375
1782986852185859600,9.877859619140626,-0.8662872314453125,-0.47747802734375,0.0959625244140625
1782986852195933700,9.88793359375,-0.871734619140625,-0.476226806640625,0.0914764404296875
1782986852206008600,9.898008544921876,-0.876007080078125,-0.476348876953125,0.0936431884765625
1782986852216082700,9.908082763671874,-0.8741302490234375,-0.479400634765625,0.099639892578125
1782986852226157600,9.918157470703125,-0.8784942626953125,-0.4803009033203125,0.105316162109375
1782986852236231700,9.928231689453124,-0.877655029296875,-0.4752655029296875,0.1082916259765625
1782986852246306600,9.938306640625,-0.8734588623046875,-0.4755096435546875,0.1083526611328125
1782986852256380700,9.948380615234376,-0.871734619140625,-0.4778900146484375,0.1060943603515625
1782986852266454800,9.958454833984375,-0.8749542236328125,-0.47515869140625,0.1066741943359375
1782986852276529700,9.96852978515625,-0.873626708984375,-0.47503662109375,0.10467529296875
1782986852286603800,9.978603759765624,-0.8758087158203125,-0.4756622314453125,0.1070556640625
1782986852296678700,9.9886787109375,-0.8796234130859375,-0.474822998046875,0.1062164306640625
1782986852306752800,9.998752685546876,-0.8737030029296875,-0.4737548828125,0.10394287109375
1782986852316827600,10.00882763671875,-0.863922119140625,-0.476959228515625,0.10693359375
1782986852326901800,10.01890185546875,-0.8572845458984375,-0.4778900146484375,0.11236572265625
1782986852336976600,10.0289765625,-0.854888916015625,-0.47613525390625,0.115997314453125
1782986852347050800,10.03905078125,-0.8560028076171875,-0.4740142822265625,0.1096649169921875
1782986852357125600,10.049125732421874,-0.858367919921875,-0.47283935546875,0.1085662841796875
1782986852367199700,10.05919970703125,-0.8607330322265625,-0.472015380859375,0.1115570068359375
1782986852377273600,10.069273681640626,-0.86895751953125,-0.4747772216796875,0.11285400390625
1782986852387348700,10.0793486328125,-0.8779296875,-0.4740447998046875,0.1107177734375
1782986852397422600,10.089422607421875,-0.8823699951171875,-0.470703125,0.1075897216796875
1782986852407497700,10.099497802734374,-0.88116455078125,-0.4709625244140625,0.107879638671875
1782986852417571600,10.109571533203125,-0.8745574951171875,-0.47216796875,0.110107421875
1782986852427646700,10.119646728515624,-0.8699798583984375,-0.4717864990234375,0.1061248779296875
1782986852437720600,10.129720458984375,-0.863128662109375,-0.470733642578125,0.1075439453125
1782986852447795700,10.139795654296876,-0.860107421875,-0.4717559814453125,0.10845947265625
1782986852457869600,10.14986962890625,-0.85577392578125,-0.4703216552734375,0.112030029296875
1782986852467944700,10.15994482421875,-0.8534698486328125,-0.4717864990234375,0.1092071533203125
1782986852478018800,10.170018798828124,-0.856353759765625,-0.4758148193359375,0.1039581298828125
1782986852488092700,10.1800927734375,-0.8640594482421875,-0.4760894775390625,0.0969390869140625
1782986852498167800,10.190167724609376,-0.87451171875,-0.470611572265625,0.0932464599609375
1782986852508241700,10.20024169921875,-0.87603759765625,-0.4738006591796875,0.0906219482421875
1782986852518316800,10.21031689453125,-0.8727264404296875,-0.4752960205078125,0.0965423583984375
1782986852528390700,10.220390625,-0.8686981201171875,-0.471954345703125,0.1033782958984375
1782986852538465800,10.2304658203125,-0.86474609375,-0.4739837646484375,0.1058502197265625
1782986852548539600,10.24053955078125,-0.868072509765625,-0.4759063720703125,0.1035614013671875
1782986852558614800,10.25061474609375,-0.8680267333984375,-0.4744110107421875,0.09967041015625
1782986852568688600,10.260688720703126,-0.869171142578125,-0.4749298095703125,0.102508544921875
1782986852578763800,10.270763671875,-0.8696746826171875,-0.46826171875,0.1100006103515625
1782986852588837600,10.280837646484375,-0.86383056640625,-0.4584503173828125,0.1138458251953125
1782986852598911500,10.290911376953124,-0.857940673828125,-0.452484130859375,0.1125640869140625
1782986852608986600,10.300986572265625,-0.878753662109375,-0.4641265869140625,0.12408447265625
1782986852619060700,10.311060791015626,-0.899383544921875,-0.4739227294921875,0.12603759765625
1782986852629135600,10.321135498046875,-0.9111785888671875,-0.457611083984375,0.11199951171875
1782986852639209700,10.331209716796875,-0.9105224609375,-0.4594879150390625,0.0968170166015625
1782986852649284600,10.34128466796875,-0.9030914306640625,-0.470458984375,0.0883941650390625
1782986852659358700,10.351358642578125,-0.902374267578125,-0.4652252197265625,0.0795745849609375
1782986852669433600,10.36143359375,-0.909637451171875,-0.455810546875,0.0724029541015625
