time,seconds_elapsed,z,y,x
1782986842364520200,0.056520263671875,-0.6626004576683044,-0.5456928610801697,0.2537529766559601
1782986842374595000,0.066594970703125,-0.6873788833618164,-0.24849888682365417,0.1295057237148285
1782986842384669200,0.076669189453125,-0.693088710308075,0.004723794292658567,0.00802004523575306
1782986842394744000,0.086744140625,-0.6928607821464539,0.1434383988380432,-0.10978367179632187
1782986842404818200,0.096818115234375,-0.6693229675292969,0.1838500052690506,-0.20417913794517517
1782986842414893000,0.10689306640625,-0.6339617371559143,0.14901766180992126,-0.261888325214386
1782986842424967200,0.11696728515625,-0.6111530661582947,0.10493889451026917,-0.27833306789398193
1782986842435042000,0.1270419921875,-0.6125988960266113,0.10185309499502182,-0.24664543569087982
1782986842445116200,0.1371162109375,-0.6225770115852356,0.13546191155910492,-0.17233632504940033
1782986842455190300,0.147190185546875,-0.6150591969490051,0.16194875538349152,-0.08272991329431534
1782986842465265200,0.15726513671875,-0.5752187967300415,0.13725724816322327,0.0009061285527423024
1782986842475339300,0.16733935546875,-0.512713611125946,0.06754812598228455,0.04639362916350365
1782986842485414100,0.1774140625,-0.4539003372192383,-0.017560645937919617,0.06858281791210175
1782986842495488300,0.18748828125,-0.4174843728542328,-0.06095883622765541,0.08345698565244675
1782986842505563100,0.197563232421875,-0.39163199067115784,-0.043176911771297455,0.09349950402975082
1782986842515637200,0.20763720703125,-0.35333767533302307,0.0053008305840194225,0.09606356173753738
1782986842525712100,0.217712158203125,-0.29936206340789795,0.003914122469723225,0.056773945689201355
1782986842535786200,0.2277861328125,-0.24124708771705627,-0.10901268571615219,-0.025965679436922073
1782986842545861000,0.237861083984375,-0.18446743488311768,-0.2951580584049225,-0.12713810801506042
1782986842555935200,0.247935302734375,-0.14050300419330597,-0.47239750623703003,-0.2195175141096115
1782986842566010000,0.258010009765625,-0.10446883738040924,-0.6047819256782532,-0.27345797419548035
1782986842576084200,0.268084228515625,-0.06527749449014664,-0.6900920271873474,-0.2897474765777588
1782986842586159000,0.2781591796875,-0.03314538672566414,-0.7344496250152588,-0.2745828926563263
1782986842596233200,0.288233154296875,-0.02013034000992775,-0.7256938815116882,-0.24057745933532715
1782986842606308000,0.29830810546875,-0.025090478360652924,-0.664901614189148,-0.18277408182621002
1782986842616382200,0.30838232421875,-0.04353641718626022,-0.5442025065422058,-0.11722368746995926
1782986842626456300,0.318456298828125,-0.06401772797107697,-0.38467729091644287,-0.059977706521749496
1782986842636531200,0.32853125,-0.07856772094964981,-0.22391951084136963,-0.02874196507036686
1782986842646605300,0.338605224609375,-0.08442960679531097,-0.08552834391593933,-0.036771662533283234
1782986842656680200,0.34868017578125,-0.08424123376607895,0.015146369114518166,-0.0908266082406044
1782986842666754300,0.35875439453125,-0.08524231612682343,0.05197548866271973,-0.16769583523273468
1782986842676829200,0.3688291015625,-0.0922926813364029,0.05953241512179375,-0.2387961596250534
1782986842686903300,0.3789033203125,-0.09961290657520294,0.06820819526910782,-0.2806152403354645
1782986842696978200,0.388978271484375,-0.11225033551454544,0.07983479648828506,-0.3005886375904083
1782986842707052300,0.39905224609375,-0.12537892162799835,0.06793339550495148,-0.3049253225326538
1782986842717127200,0.409127197265625,-0.14357948303222656,0.037567660212516785,-0.2951068878173828
1782986842727201300,0.419201171875,-0.17848260700702667,-0.0007112831808626652,-0.2714287340641022
1782986842737276200,0.429276123046875,-0.20738855004310608,-0.040935665369033813,-0.23053188621997833
1782986842747350300,0.439350341796875,-0.22577528655529022,-0.09280392527580261,-0.18076619505882263
1782986842757425200,0.449425048828125,-0.2170519232749939,-0.1210002526640892,-0.11947314441204071
1782986842767499300,0.459499267578125,-0.18223056197166443,-0.09683792293071747,-0.046809323132038116
1782986842777574100,0.46957421875,-0.13240274786949158,-0.05344576761126518,0.015763722360134125
1782986842787648300,0.479648193359375,-0.08206260949373245,-0.03693097084760666,0.053977154195308685
1782986842797722000,0.48972216796875,-0.04703732207417488,-0.05362973362207413,0.054647259414196014
1782986842807797200,0.49979736328125,-0.04172085225582123,-0.049530066549777985,0.037313010543584824
1782986842817871000,0.50987109375,-0.05849789083003998,0.02620849385857582,0.03277856856584549
1782986842827946200,0.5199462890625,-0.07834722846746445,0.10028298199176788,0.04895114526152611
1782986842838020000,0.53002001953125,-0.10790936648845673,0.12635034322738647,0.058243267238140106
1782986842848095200,0.54009521484375,-0.11752311140298843,0.10906803607940674,0.06044197455048561
1782986842858169000,0.550169189453125,-0.1117129847407341,0.086845263838768,0.07088739424943924
1782986842868244200,0.560244140625,-0.10368061810731888,0.03113539330661297,0.09295061975717545
1782986842878318000,0.570318115234375,-0.10136732459068298,0.0065842787735164165,0.12121051549911499
1782986842888393200,0.580393310546875,-0.12121453136205673,0.034557588398456573,0.15002165734767914
1782986842898467000,0.590467041015625,-0.141279935836792,0.12169983237981796,0.168690025806427
1782986842908542200,0.600542236328125,-0.1427827626466751,0.20658142864704132,0.1727691888809204
1782986842918616000,0.610615966796875,-0.1317916214466095,0.2325506955385208,0.15852688252925873
1782986842928691200,0.620691162109375,-0.12895828485488892,0.20463012158870697,0.12711010873317719
1782986842938765000,0.63076513671875,-0.1337718665599823,0.13641904294490814,0.07829083502292633
1782986842948839200,0.640839111328125,-0.13922548294067383,0.029932020232081413,0.024219077080488205
1782986842958914000,0.6509140625,-0.15797634422779083,-0.11493676900863647,-0.029603438451886177
1782986842968988200,0.66098828125,-0.16532613337039948,-0.21638457477092743,-0.05761616677045822
1782986842979063000,0.67106298828125,-0.14970067143440247,-0.24212892353534698,-0.06660950928926468
1782986842989137200,0.68113720703125,-0.13633081316947937,-0.21215026080608368,-0.07142370194196701
1782986842999212000,0.6912119140625,-0.15951023995876312,-0.12309693545103073,-0.08306636661291122
1782986843009286100,0.7012861328125,-0.2050686776638031,-0.00917036458849907,-0.09691107273101807
1782986843019361500,0.711361572265625,-0.24617093801498413,0.07257569581270218,-0.1289597749710083
1782986843029435400,0.721435302734375,-0.2539609372615814,0.1236008033156395,-0.16401070356369019
1782986843039510500,0.731510498046875,-0.23398616909980774,0.12722571194171906,-0.19310562312602997
1782986843049584400,0.74158447265625,-0.20776468515396118,0.08170643448829651,-0.226723775267601
1782986843059659500,0.751659423828125,-0.174386128783226,0.019075030460953712,-0.254100501537323
1782986843069733400,0.7617333984375,-0.13249459862709045,-0.04657455161213875,-0.26529642939567566
1782986843079808500,0.77180859375,-0.08531041443347931,-0.08691045641899109,-0.2643080949783325
1782986843089882400,0.78188232421875,-0.0476975291967392,-0.09742435067892075,-0.2402285784482956
1782986843099957500,0.79195751953125,-0.02634766697883606,-0.05443841591477394,-0.2022845447063446
1782986843110031400,0.80203125,-0.027513066306710243,0.032181695103645325,-0.15061922371387482
1782986843120105500,0.81210546875,-0.05545131489634514,0.12360168248414993,-0.07970717549324036
1782986843130180400,0.822180419921875,-0.0833527222275734,0.188369482755661,-0.018617186695337296
1782986843140254500,0.83225439453125,-0.10602866113185883,0.22184021770954132,0.042588237673044205
1782986843150329300,0.842329345703125,-0.15291334688663483,0.22110173106193542,0.11644328385591507
1782986843160403500,0.852403564453125,-0.26537489891052246,0.09737800806760788,0.18460777401924133
1782986843170478300,0.862478271484375,-0.3796199858188629,-0.15014682710170746,0.19812704622745514
1782986843180552400,0.872552490234375,-0.4623735547065735,-0.1511179357767105,0.16278305649757385
1782986843190627300,0.88262744140625,-0.4515789747238159,-0.10848525911569595,0.11112998425960541
1782986843200701400,0.892701416015625,-0.3812343180179596,-0.03939676284790039,0.05792798846960068
1782986843210776300,0.9027763671875,-0.31155988574028015,0.12252581864595413,0.02864440158009529
1782986843220850400,0.912850341796875,-0.25382575392723083,0.32049262523651123,0.017481932416558266
1782986843230925300,0.92292529296875,-0.21028731763362885,0.4831443727016449,0.013878142461180687
1782986843240999400,0.93299951171875,-0.17404159903526306,0.5774355530738831,0.042980749160051346
1782986843251074300,0.94307421875,-0.16635331511497498,0.6048752069473267,0.07709398120641708
1782986843261148400,0.9531484375,-0.18754898011684418,0.5565738081932068,0.1053561270236969
1782986843271223600,0.9632236328125,-0.2245272397994995,0.4464148283004761,0.12757088243961334
1782986843281297400,0.97329736328125,-0.250263512134552,0.34148603677749634,0.14771077036857605
1782986843291371300,0.983371337890625,-0.2428165078163147,0.24973028898239136,0.16782669723033905
1782986843301446400,0.9934462890625,-0.1917450726032257,0.1679501235485077,0.18619681894779205
1782986843311520300,1.003520263671875,-0.1267879158258438,0.09809434413909912,0.19777384400367737
1782986843321595400,1.013595458984375,-0.0639643743634224,0.052615389227867126,0.19506554305553436
1782986843331669200,1.023669189453125,-0.024578887969255447,0.059106048196554184,0.1862936168909073
1782986843341744400,1.033744384765625,-0.007801507133990526,0.12553726136684418,0.17604124546051025
1782986843351818200,1.043818359375,-0.025448409840464592,0.20434659719467163,0.1689993143081665
1782986843361893400,1.053893310546875,-0.06008361652493477,0.25737419724464417,0.1682470589876175
1782986843371967200,1.06396728515625,-0.09224474430084229,0.26874297857284546,0.1668156087398529
1782986843382042400,1.07404248046875,-0.1071014553308487,0.26211410760879517,0.16857223212718964
1782986843392116500,1.084116455078125,-0.10822317749261856,0.2306688278913498,0.17308309674263
1782986843402191400,1.09419140625,-0.10408178716897964,0.1855844110250473,0.16370660066604614
1782986843412265500,1.104265380859375,-0.09365764260292053,0.14288409054279327,0.15564894676208496
1782986843422340400,1.11434033203125,-0.07701537758111954,0.1311628669500351,0.15112385153770447
1782986843432414500,1.12441455078125,-0.05454069748520851,0.14368665218353271,0.15902012586593628
1782986843442488300,1.13448828125,-0.024086732417345047,0.1752963811159134,0.17847545444965363
1782986843452563500,1.1445634765625,-0.0014437375357374549,0.22382131218910217,0.19845102727413177
1782986843462637300,1.15463720703125,0.007907412014901638,0.2602834403514862,0.22840866446495056
1782986843472712400,1.16471240234375,0.012204688973724842,0.25844985246658325,0.2570144534111023
1782986843482786300,1.174786376953125,0.01624089479446411,0.2225511223077774,0.2849977910518646
1782986843492861400,1.184861328125,0.03374851867556572,0.16920295357704163,0.30866584181785583
1782986843502935300,1.194935302734375,0.06538429111242294,0.14819854497909546,0.3301585614681244
1782986843513010400,1.205010498046875,0.0660836324095726,0.07735180854797363,0.2967023253440857
1782986843523084300,1.215084228515625,0.04797856882214546,-0.1394851952791214,0.19901008903980255
1782986843533159400,1.225159423828125,0.029297560453414917,-0.18885061144828796,0.09837377071380615
1782986843543233300,1.2352333984375,-0.001227497006766498,-0.15170329809188843,0.0014186627231538296
1782986843553308400,1.245308349609375,-0.04722508415579796,-0.085992731153965,-0.08546936511993408
1782986843563382300,1.25538232421875,-0.1275477111339569,-0.03213059902191162,-0.15933217108249664
1782986843573457400,1.26545751953125,-0.21259735524654388,0.013935429975390434,-0.19965270161628723
1782986843583531300,1.27553125,-0.26176008582115173,0.07518182694911957,-0.20120735466480255
1782986843593605600,1.285605712890625,-0.281874418258667,0.07855392247438431,-0.1805441528558731
1782986843603680300,1.29568017578125,-0.26499471068382263,0.0000975907314568758,-0.16094130277633667
1782986843613754600,1.305754638671875,-0.20658332109451294,-0.13249348104000092,-0.13995958864688873
1782986843623829200,1.315829345703125,-0.11783958971500397,-0.26297318935394287,-0.12527838349342346
1782986843633903600,1.325903564453125,-0.025171708315610886,-0.3245318830013275,-0.10177359730005264
1782986843643978200,1.335978271484375,0.03342049941420555,-0.30936065316200256,-0.07183939963579178
1782986843654052600,1.346052490234375,0.058949295431375504,-0.2872937023639679,-0.04236006364226341
1782986843664127200,1.356127197265625,0.05204504355788231,-0.26029157638549805,-0.02244912087917328
1782986843674201600,1.36620166015625,0.03958357870578766,-0.22642600536346436,-0.018333736807107925
1782986843684276200,1.376276123046875,0.026413360610604286,-0.1965259313583374,-0.029099594801664352
1782986843694350600,1.3863505859375,0.005584511905908585,-0.18785174190998077,-0.05725506320595741
1782986843704425200,1.39642529296875,-0.03287259116768837,-0.18772178888320923,-0.08924788236618042
1782986843714499600,1.40649951171875,-0.07089374214410782,-0.1661006510257721,-0.12306230515241623
1782986843724574200,1.41657421875,-0.09221271425485611,-0.13704559206962585,-0.15404236316680908
1782986843734648600,1.426648681640625,-0.09458905458450317,-0.11439567059278488,-0.17962761223316193
1782986843744722400,1.436722412109375,-0.0917743593454361,-0.11373520642518997,-0.19906097650527954
1782986843754797600,1.446797607421875,-0.07995152473449707,-0.11650249361991882,-0.20398356020450592
1782986843764871400,1.456871337890625,-0.05293560400605202,-0.10554225742816925,-0.1935034841299057
1782986843774946600,1.466946533203125,-0.019709208980202675,-0.07312493026256561,-0.16361883282661438
1782986843785020400,1.4770205078125,0.005948659963905811,-0.049088332802057266,-0.11885830760002136
1782986843795095600,1.487095458984375,0.02059870958328247,-0.052758436650037766,-0.06762441247701645
1782986843805169400,1.49716943359375,0.015378987416625023,-0.059626251459121704,-0.030820108950138092
1782986843815244500,1.50724462890625,0.0074693989008665085,-0.0754595473408699,-0.011746016331017017
1782986843825318400,1.517318359375,0.012414817698299885,-0.12292536348104477,-0.00833188183605671
1782986843835393500,1.5273935546875,0.02229035086929798,-0.18379777669906616,-0.013741028495132923
1782986843845467400,1.53746728515625,0.030294304713606834,-0.23272818326950073,-0.018360428512096405
1782986843855542500,1.54754248046875,0.03411887213587761,-0.2703056335449219,-0.01562802493572235
1782986843865616400,1.557616455078125,0.041513845324516296,-0.29931291937828064,-0.011683470569550991
1782986843875691500,1.56769140625,0.05562141165137291,-0.3038613200187683,-0.0000294774908979889
1782986843885765400,1.577765380859375,0.06304771453142166,-0.2692412734031677,0.012969709932804108
1782986843895839500,1.587839599609375,0.06446025520563126,-0.220112606883049,0.02755451202392578
1782986843905914600,1.59791455078125,0.05596211180090904,-0.16450349986553192,0.034028567373752594
1782986843915988500,1.607988525390625,0.04674997180700302,-0.12347296625375748,0.03625044226646423
1782986843926063600,1.618063720703125,0.03929098695516586,-0.09929874539375305,0.025099966675043106
1782986843936137500,1.628137451171875,0.032738279551267624,-0.08336930721998215,0.013132786378264427
1782986843946212600,1.638212646484375,0.025257300585508347,-0.06355218589305878,0.0018545910716056824
1782986843956286500,1.648286376953125,0.017488326877355576,-0.05135064944624901,-0.01269372459501028
1782986843966361600,1.658361572265625,0.015945199877023697,-0.04914645850658417,-0.02198854461312294
1782986843976435500,1.668435546875,0.015753986313939095,-0.042216382920742035,-0.021533941850066185
1782986843986510600,1.678510498046875,0.018267815932631493,-0.01862197555601597,-0.010537095367908478
1782986843996584400,1.68858447265625,0.017332781106233597,0.0007972619496285915,0.0056946054100990295
1782986844006659600,1.69865966796875,0.012356926687061787,0.01425883173942566,0.014355028979480267
1782986844016732400,1.708732421875,0.009062596596777439,0.03039492294192314,0.019989745691418648
1782986844026806300,1.71880615234375,0.007594762369990349,0.03393029421567917,0.011676181107759476
1782986844036881400,1.72888134765625,0.002203192561864853,0.019760947674512863,-0.0018928913632407784
1782986844046955300,1.738955322265625,0.008364325389266014,0.008270977064967155,-0.021561430767178535
1782986844057030400,1.749030517578125,0.01845344342291355,0.007775097154080868,-0.03476005792617798
1782986844067104300,1.759104248046875,0.030752459540963173,0.009639129042625427,-0.042569421231746674
1782986844077179400,1.769179443359375,0.037514492869377136,0.020386047661304474,-0.056291092187166214
1782986844087253200,1.779253173828125,0.037386663258075714,0.03135773912072182,-0.04508238285779953
1782986844097328400,1.789328369140625,0.03199482709169388,0.025676950812339783,-0.04343974217772484
1782986844107402200,1.79940234375,0.022894777357578278,0.007235541939735413,-0.04462652653455734
1782986844117477400,1.809477294921875,0.014296228997409344,-0.007069628220051527,-0.05381017178297043
1782986844127551200,1.81955126953125,0.013955184258520603,0.0007536152843385935,-0.05920819938182831
1782986844137626400,1.82962646484375,0.014335749670863152,-0.004801472648978233,-0.07719145715236664
1782986844147700200,1.8397001953125,0.009102627635002136,-0.022540787234902382,-0.11057977378368378
1782986844157775400,1.849775390625,0.008005671203136444,-0.02173837646842003,-0.14066070318222046
1782986844167849200,1.85984912109375,0.010477807372808456,-0.00795796886086464,-0.15755805373191833
1782986844177923300,1.86992333984375,0.016120780259370804,-0.0017064651474356651,-0.15868882834911346
1782986844187998200,1.879998291015625,0.015007665380835533,0.011104256846010685,-0.14947816729545593
1782986844198072300,1.890072265625,0.01270562969148159,0.026242731139063835,-0.13244380056858063
1782986844208147200,1.900147216796875,0.01139845885336399,0.035612501204013824,-0.11258810013532639
1782986844218221300,1.91022119140625,0.011755854822695255,0.02505706064403057,-0.10160708427429199
1782986844228296200,1.920296142578125,0.020044242963194847,0.006193383596837521,-0.08668270707130432
1782986844238370300,1.930370361328125,0.02595832571387291,-0.006147438660264015,-0.06917321681976318
1782986844248445200,1.940445068359375,0.026693258434534073,-0.018065374344587326,-0.05596822500228882
1782986844258519300,1.950519287109375,0.019193531945347786,-0.015058400109410286,-0.04464259743690491
1782986844268594400,1.960594482421875,0.01090560108423233,0.01265572477132082,-0.02713583968579769
1782986844278668300,1.970668212890625,0.011379111558198929,0.042308956384658813,-0.0030222481582313776
1782986844288743400,1.980743408203125,0.012305444106459618,0.05167736858129501,0.017526378855109215
1782986844298817300,1.9908173828125,0.010070518590509892,0.033572934567928314,0.029750287532806396
1782986844308891400,2.000891357421875,0.01564096100628376,0.01751537434756756,0.03053535893559456
1782986844318966300,2.01096630859375,0.0235151294618845,0.006598544307053089,0.03349253162741661
1782986844329040400,2.021040283203125,0.030324304476380348,-0.006039043422788382,0.028318453580141068
1782986844339115300,2.031115234375,0.032998647540807724,-0.008081687614321709,0.015247393399477005
1782986844349189400,2.041189453125,0.041950419545173645,-0.0017552303615957499,0.008115299977362156
1782986844359264300,2.05126416015625,0.04817449674010277,0.019125549122691154,0.019808175042271614
1782986844369338400,2.06133837890625,0.040229588747024536,0.03360402584075928,0.03570318967103958
1782986844379413200,2.071413330078125,0.028199288994073868,0.03423306345939636,0.04184523597359657
1782986844389487600,2.081487548828125,0.02479025535285473,0.021969156339764595,0.0489765964448452
1782986844399562200,2.091562255859375,0.0334753543138504,0.0037701779510825872,0.0432468056678772
1782986844409636600,2.10163671875,0.042095478624105453,-0.011006195098161697,0.026291964575648308
1782986844419711200,2.111711181640625,0.05631675943732262,-0.01300409808754921,0.012845664285123348
1782986844429785600,2.12178564453125,0.07392682135105133,-0.007015653420239687,-0.0041891844011843204
1782986844439860200,2.131860107421875,0.08388517796993256,-0.009057499468326569,-0.010122440755367279
1782986844449934600,2.1419345703125,0.08957724273204803,-0.014126353897154331,-0.006374103017151356
1782986844460008400,2.152008544921875,0.0905706062912941,-0.018571171909570694,0.0011035208590328693
1782986844470083600,2.16208349609375,0.09427320212125778,-0.0352604053914547,0.01709393784403801
1782986844480157400,2.172157470703125,0.09765808284282684,-0.04634155333042145,0.029456330463290215
1782986844490232600,2.182232666015625,0.10799140483140945,-0.054680705070495605,0.04155321046710014
1782986844500306400,2.192306396484375,0.11679741740226746,-0.059319932013750076,0.040951069444417953
1782986844510381600,2.202381591796875,0.118888258934021,-0.06808572262525558,0.038986191153526306
1782986844520455400,2.212455322265625,0.118607297539711,-0.07994424551725388,0.027539655566215515
1782986844530530600,2.222530517578125,0.11465544998645782,-0.08231038600206375,0.016987500712275505
1782986844540604400,2.2326044921875,0.1097661480307579,-0.0697980597615242,0.0026109570171684027
1782986844550679600,2.242679443359375,0.10336513817310333,-0.060680925846099854,-0.01744764670729637
1782986844560753400,2.25275341796875,0.09283845871686935,-0.06404370069503784,-0.04223714768886566
1782986844570828500,2.26282861328125,0.07581021636724472,-0.07322628051042557,-0.07345844805240631
1782986844580902400,2.27290234375,0.06114339083433151,-0.074996218085289,-0.0912233293056488
1782986844590977500,2.2829775390625,0.05791323259472847,-0.05869518220424652,-0.09426696598529816
1782986844601051400,2.293051513671875,0.06305553019046783,-0.05021541193127632,-0.07944993674755096
1782986844611125500,2.30312548828125,0.06778335571289062,-0.03954530879855156,-0.0537891685962677
1782986844621200400,2.313200439453125,0.07040044665336609,-0.03503498062491417,-0.02762707509100437
1782986844631274500,2.3232744140625,0.0668424591422081,-0.03780866041779518,-0.008341793902218342
1782986844641349400,2.333349365234375,0.06260430812835693,-0.03551035374403,0.004842717666178942
1782986844651423500,2.343423583984375,0.06217997893691063,-0.0173904150724411,0.008822870440781116
1782986844661498400,2.353498291015625,0.06863654404878616,-0.004233333747833967,0.01043807715177536
1782986844671572500,2.363572509765625,0.07530146092176437,-0.011581499129533768,0.010947568342089653
1782986844681647400,2.3736474609375,0.07266706228256226,-0.02284826897084713,0.01258328277617693
1782986844691721500,2.383721435546875,0.06575419753789902,-0.020836275070905685,0.02200392261147499
1782986844701796400,2.39379638671875,0.05841505527496338,-0.017581360414624214,0.028546776622533798
1782986844711870500,2.403870361328125,0.04803743585944176,-0.007070518564432859,0.027560751885175705
1782986844721944300,2.4139443359375,0.036777857691049576,0.0078019043430686,0.019432252272963524
1782986844732019500,2.42401953125,0.03133479133248329,0.023996561765670776,0.008296219632029533
1782986844742093300,2.43409326171875,0.03281763941049576,0.03222120180726051,0.0006958237499929965
1782986844752168400,2.44416845703125,0.03909009322524071,0.02029411680996418,-0.0015602591447532177
1782986844762242300,2.4542421875,0.04105124622583389,0.010414853692054749,0.006651332136243582
1782986844772317400,2.4643173828125,0.04376411810517311,0.01818007044494152,0.024767456576228142
1782986844782391300,2.474391357421875,0.052820462733507156,0.031388550996780396,0.05123794823884964
1782986844792466400,2.484466552734375,0.05881629139184952,0.025563683360815048,0.07371103763580322
1782986844802540300,2.494540283203125,0.053994905203580856,-0.00302588427439332,0.08507075160741806
1782986844812615400,2.504615478515625,0.04928122088313103,-0.01624259352684021,0.08282199501991272
1782986844822689300,2.514689208984375,0.04528301954269409,-0.015683861449360847,0.07679925858974457
1782986844832764400,2.524764404296875,0.03761284798383713,-0.010238762013614178,0.06374311447143555
1782986844842838300,2.53483837890625,0.03155522421002388,-0.0113636814057827,0.04798678308725357
1782986844852913400,2.544913330078125,0.02485106885433197,-0.008151257410645485,0.03174135461449623
1782986844862987300,2.5549873046875,0.025225242599844933,-0.0021154694259166718,0.021247435361146927
1782986844873062400,2.5650625,0.030620984733104706,-0.005242139101028442,0.023763470351696014
1782986844883136300,2.57513623046875,0.032182395458221436,-0.019283656030893326,0.033563368022441864
1782986844893210400,2.58521044921875,0.02759961597621441,-0.041618961840867996,0.03749961405992508
1782986844903285500,2.595285400390625,0.031972527503967285,-0.06715787947177887,0.03678002953529358
1782986844913359400,2.605359375,0.032529670745134354,-0.08744663745164871,0.030845969915390015
1782986844923434500,2.6154345703125,0.030268646776676178,-0.0813799574971199,0.027433661743998528
1782986844933508400,2.62550830078125,0.02020055614411831,-0.05404260754585266,0.02619556337594986
1782986844943583500,2.63558349609375,0.009086919017136097,-0.0367610901594162,0.01735946163535118
1782986844953657300,2.6456572265625,-0.0029063536785542965,-0.02571740560233593,0.002362220548093319
1782986844963732500,2.655732421875,-0.013086552731692791,-0.018007289618253708,-0.012126441113650799
1782986844973806300,2.665806396484375,-0.017681220546364784,-0.016700534150004387,-0.025573063641786575
1782986844983881500,2.675881591796875,-0.018467118963599205,-0.02472490631043911,-0.03738471865653992
1782986844993955300,2.685955322265625,-0.023622648790478706,-0.005422639194875956,-0.03218255564570427
1782986845004029200,2.696029296875,-0.029692526906728745,0.01511272881180048,-0.016019830480217934
1782986845014104300,2.706104248046875,-0.040485866367816925,0.01861821860074997,-0.0008925760630518198
1782986845024178700,2.7161787109375,-0.04702099785208702,-0.003153123427182436,0.006096091121435165
1782986845034253800,2.72625390625,-0.04430047795176506,-0.025742296129465103,0.003169037401676178
1782986845044327700,2.73632763671875,-0.03718743845820427,-0.038799773901700974,-0.003129338612779975
1782986845054402800,2.74640283203125,-0.033285826444625854,-0.04478812590241432,-0.014114314690232277
1782986845064476700,2.7564765625,-0.026864146813750267,-0.04284907877445221,-0.0302533358335495
1782986845074551800,2.7665517578125,-0.02055397257208824,-0.025295620784163475,-0.04337816312909126
1782986845084625700,2.776625732421875,-0.017876964062452316,-0.016144465655088425,-0.051205992698669434
1782986845094700800,2.78670068359375,-0.015215394087135792,-0.015032775700092316,-0.04914887621998787
1782986845104774700,2.796774658203125,-0.012156486511230469,-0.01950635388493538,-0.0455394946038723
1782986845114849800,2.806849853515625,-0.009088610298931599,-0.024403583258390427,-0.03125104680657387
1782986845124923600,2.816923583984375,-0.010532575659453869,-0.033596284687519073,-0.014870741404592991
1782986845134998800,2.826998779296875,-0.006335255689918995,-0.02021614834666252,0.006905009038746357
1782986845145072600,2.83707275390625,0.005368271842598915,0.0031134095042943954,0.020221613347530365
1782986845155146800,2.847146728515625,0.016361616551876068,0.01803113892674446,0.02140568569302559
1782986845165221600,2.8572216796875,0.02745208516716957,0.02860921621322632,0.009515205398201942
1782986845175295700,2.867295654296875,0.0429736003279686,0.037976738065481186,-0.007381895091384649
1782986845185371000,2.877370849609375,0.05903245881199837,0.03210499882698059,-0.012464270927011967
1782986845195444700,2.88744482421875,0.054437797516584396,0.032803043723106384,-0.006095027085393667
1782986845205520000,2.897519775390625,0.047928500920534134,0.036111488938331604,0.006308911833912134
1782986845215593700,2.90759375,0.042954523116350174,0.04838741570711136,0.025264577940106392
1782986845225668900,2.9176689453125,0.040910013020038605,0.047577813267707825,0.04227525368332863
1782986845235742700,2.92774267578125,0.030622217804193497,0.039556197822093964,0.05917603150010109
1782986845245817900,2.93781787109375,0.02306150272488594,0.02528112195432186,0.06511834263801575
1782986845255891700,2.9478916015625,0.016461310908198357,-0.00197982438839972,0.06011556088924408
1782986845265966800,2.957966796875,0.010292363353073597,-0.02636505849659443,0.046961408108472824
1782986845276040700,2.968040771484375,0.014688178896903992,-0.016864588484168053,0.040970806032419205
1782986845286114800,2.97811474609375,0.01277949195355177,0.015026766806840897,0.04073937609791756
1782986845296189700,2.988189697265625,0.005674614571034908,0.02859652228653431,0.0360126830637455
1782986845306263800,2.998263916015625,-0.005891228094696999,0.015264204703271389,0.023841770365834236
1782986845316338700,3.008338623046875,-0.01379345078021288,0.002945989603176713,0.013284171931445599
1782986845326412800,3.018412841796875,-0.018971702083945274,-0.015538211911916733,0.010276930406689644
1782986845336487700,3.02848779296875,-0.03218540921807289,-0.041614264249801636,0.0020435270853340626
1782986845346561800,3.038561767578125,-0.04461890831589699,-0.05212575942277908,-0.011939932592213154
1782986845356636700,3.04863671875,-0.05022212490439415,-0.052460841834545135,-0.02255534566938877
1782986845366710800,3.058710693359375,-0.050549425184726715,-0.04773852229118347,-0.04406942427158356
1782986845376785700,3.06878564453125,-0.048859916627407074,-0.030211372300982475,-0.05549429729580879
1782986845386859800,3.07885986328125,-0.04596452787518501,0.0006022003944963217,-0.054247137159109116
1782986845396934000,3.088933837890625,-0.05228819698095322,0.04220530390739441,-0.04323550686240196
1782986845407008800,3.0990087890625,-0.0603242851793766,0.06293454766273499,-0.029246453195810318
1782986845417083000,3.109082763671875,-0.060311056673526764,0.06585484743118286,-0.01553075946867466
1782986845427157800,3.11915771484375,-0.05306060239672661,0.059089891612529755,-0.005570536945015192
1782986845437231900,3.12923193359375,-0.03303291276097298,0.03443191945552826,-0.010107530280947685
1782986845447306800,3.139306640625,-0.016293613240122795,0.001386083196848631,-0.007530655711889267
1782986845457380900,3.149380859375,-0.003915178123861551,-0.021051106974482536,-0.010957923717796803
1782986845467455700,3.159455810546875,0.002449244260787964,-0.026813121512532234,-0.019676048308610916
1782986845477529900,3.16952978515625,0.00709666358307004,-0.0291712936013937,-0.037545546889305115
1782986845487604700,3.179604736328125,0.0069094435311853886,-0.02694648876786232,-0.05020568147301674
1782986845497678800,3.189678955078125,0.007289912551641464,-0.020221855491399765,-0.06553814560174942
1782986845507753700,3.199753662109375,0.0015398815739899874,-0.00953645445406437,-0.07047139108181
1782986845517827800,3.209827880859375,-0.00016117049381136894,0.004123669117689133,-0.07507283240556717
1782986845527902700,3.21990283203125,0.0030932121444493532,0.02853766642510891,-0.06809774041175842
1782986845537976800,3.229976806640625,0.008477229624986649,0.04900677874684334,-0.05853693187236786
1782986845548051000,3.240051025390625,0.009596556425094604,0.05268380790948868,-0.03950491547584534
1782986845558125800,3.250125732421875,0.011300899088382721,0.04187161102890968,-0.019119517877697945
1782986845568200000,3.260199951171875,0.008588735945522785,0.020559929311275482,-0.005425009876489639
1782986845578274800,3.27027490234375,0.00001557893119752407,0.008028454147279263,0.004332841373980045
1782986845588349000,3.280348876953125,0.0011466235155239701,0.01507677510380745,-0.0032379929907619953
1782986845598423800,3.290423828125,0.00020883360411971807,0.032733771950006485,-0.016771674156188965
1782986845608498000,3.300497802734375,0.0004740844015032053,0.04288201406598091,-0.03373041749000549
1782986845618572800,3.31057275390625,-0.007359419483691454,0.038318656384944916,-0.06039854884147644
1782986845628647000,3.32064697265625,-0.009348534978926182,0.031014403328299522,-0.07693757116794586
1782986845638721800,3.3307216796875,-0.005178653635084629,0.03487826883792877,-0.08307201415300369
1782986845648796000,3.3407958984375,0.0015788512537255883,0.03342550992965698,-0.06608610600233078
1782986845658869800,3.350869873046875,0.0058858031406998634,0.035004619508981705,-0.04412822425365448
1782986845668945000,3.36094482421875,0.011793493293225765,0.03479902073740959,-0.02765098214149475
1782986845679018800,3.371018798828125,0.024119755253195763,0.03546573221683502,-0.011655118316411972
1782986845689094000,3.381093994140625,0.03570956736803055,0.03900374099612236,0.004673787392675877
1782986845699167700,3.391167724609375,0.04266910254955292,0.037536218762397766,0.011961149051785469
1782986845709243000,3.401242919921875,0.04207282140851021,0.026536565274000168,0.013304181396961212
1782986845719316700,3.411316650390625,0.04016859456896782,0.014052166603505611,0.013319854624569416
1782986845729391900,3.421391845703125,0.02970476634800434,0.009183908812701702,0.009519790299236774
1782986845739465700,3.4314658203125,0.020947398617863655,0.02353237196803093,0.016956020146608353
1782986845749540900,3.441540771484375,0.01791512221097946,0.031624920666217804,0.021227197721600533
1782986845759614700,3.45161474609375,0.014117900282144547,0.027545105665922165,0.026130491867661476
1782986845769689900,3.46168994140625,0.019880713894963264,0.01950741931796074,0.024576270952820778
1782986845779763700,3.471763671875,0.02990049682557583,0.0023652424570173025,0.023380571976304054
1782986845789837800,3.481837890625,0.036075569689273834,-0.011986532248556614,0.018820974975824356
1782986845799912700,3.49191259765625,0.03349682688713074,-0.015498620457947254,0.014576253481209278
1782986845809986800,3.50198681640625,0.031444061547517776,-0.0159140732139349,0.010118388570845127
1782986845820062000,3.51206201171875,0.035256657749414444,-0.006781384814530611,0.015175368636846542
1782986845830135800,3.5221357421875,0.03436795994639397,0.012594976462423801,0.02226070873439312
1782986845840211000,3.5322109375,0.03161682188510895,0.01704571023583412,0.032304346561431885
1782986845850284800,3.542284912109375,0.03367970511317253,0.015938900411128998,0.03201752528548241
1782986845860360000,3.55235986328125,0.037146613001823425,0.006925343070179224,0.029327644035220146
1782986845870433800,3.562433837890625,0.03753463551402092,-0.007175029255449772,0.014690910466015339
1782986845880509000,3.572509033203125,0.03460416942834854,-0.01183491013944149,-0.0009568998939357698
1782986845890582800,3.582582763671875,0.043772101402282715,-0.013780881650745869,-0.010872380807995796
1782986845900658000,3.592657958984375,0.04415711760520935,-0.004721192643046379,-0.016611086204648018
1782986845910731800,3.602731689453125,0.04575740918517113,0.00756210507825017,-0.013666961342096329
1782986845920805600,3.6128056640625,0.04710523411631584,0.006096656899899244,-0.009458809159696102
1782986845930880800,3.622880859375,0.056866250932216644,-0.0005157056730240583,-0.0029220804572105408
1782986845940955000,3.632954833984375,0.07015816867351532,-0.009756667539477348,0.002106443280354142
1782986845951029800,3.64302978515625,0.07569728046655655,-0.01651870086789131,0.0033312311861664057
1782986845961104000,3.653103759765625,0.07119254022836685,-0.017810866236686707,-0.002695502480491996
1782986845971178800,3.6631787109375,0.0721195861697197,-0.018840178847312927,-0.01358862966299057
1782986845981252900,3.6732529296875,0.08082538098096848,-0.011671864427626133,-0.010225176811218262
1782986845991327700,3.68332763671875,0.08387922495603561,0.00519153755158186,0.00004423880818649195
1782986846001401900,3.69340185546875,0.08520228415727615,0.012048821896314621,0.013822012580931187
1782986846011476700,3.703476806640625,0.08755545318126678,0.02089637517929077,0.028752492740750313
1782986846021550600,3.713550537109375,0.09366475045681,0.0036014518700540066,0.03517381474375725
1782986846031625700,3.723625732421875,0.10415706783533096,-0.014962645247578621,0.037074778228998184
1782986846041699600,3.733699462890625,0.10215996950864792,-0.01451585628092289,0.0331617072224617
1782986846051773400,3.7437734375,0.09318671375513077,-0.01811858080327511,0.02269388735294342
1782986846061848600,3.7538486328125,0.0871022641658783,-0.016700860112905502,0.005410094745457172
1782986846071922400,3.76392236328125,0.07881078124046326,-0.015953578054904938,-0.0171468798071146
1782986846081997600,3.77399755859375,0.0725080668926239,-0.0013157222419977188,-0.03898607939481735
1782986846092071400,3.784071533203125,0.07493261247873306,0.016865145415067673,-0.0512203723192215
1782986846102146600,3.794146484375,0.07384079694747925,0.018529653549194336,-0.051198236644268036
1782986846112220400,3.804220458984375,0.059385426342487335,0.017509663477540016,-0.04940992221236229
1782986846122295600,3.814295654296875,0.05536840111017227,0.03303840756416321,-0.02619636245071888
1782986846132369700,3.82436962890625,0.060557037591934204,0.06083595007658005,0.012715349905192852
1782986846142444500,3.834444580078125,0.06651116907596588,0.057679682970047,0.048421796411275864
1782986846152518700,3.8445185546875,0.07195626944303513,0.036243099719285965,0.07691681385040283
1782986846162593500,3.854593505859375,0.08080210536718369,0.009727757424116135,0.0903872475028038
1782986846172667600,3.864667724609375,0.08463945984840393,-0.01220683567225933,0.08942877501249313
1782986846182741800,3.87474169921875,0.08132527023553848,-0.003957934677600861,0.07688050717115402
1782986846192816600,3.884816650390625,0.06819215416908264,0.00901006255298853,0.05358557775616646
1782986846202890800,3.894890869140625,0.05690407007932663,0.01733253337442875,0.023239748552441597
1782986846212965600,3.904965576171875,0.047659702599048615,0.032056085765361786,0.0027488546911627054
1782986846223039700,3.915039794921875,0.04229254648089409,0.04458720237016678,-0.009165448136627674
1782986846233114600,3.925114501953125,0.033419426530599594,0.04639841988682747,-0.005364850629121065
1782986846243188700,3.935188720703125,0.025238366797566414,0.032011017203330994,0.005187188275158405
1782986846253263600,3.945263671875,0.027954790741205215,0.022644149139523506,0.023204004392027855
1782986846263337700,3.955337646484375,0.030010225251317024,0.001982634887099266,0.03615211695432663
1782986846273412600,3.96541259765625,0.02746131457388401,-0.018716251477599144,0.042689111083745956
1782986846283486700,3.97548681640625,0.018456710502505302,-0.021814988926053047,0.03482704982161522
1782986846293561600,3.9855615234375,0.008985444903373718,-0.016939273104071617,0.029810719192028046
1782986846303635700,3.9956357421875,-0.001506344648078084,0.0005648860242217779,0.023709416389465332
1782986846313709800,4.005709716796875,-0.012588823214173317,0.019172659143805504,0.018738891929388046
1782986846323784700,4.01578466796875,-0.024787873029708862,0.022433994337916374,0.016232086345553398
1782986846333858800,4.02585888671875,-0.03228946402668953,0.01468153391033411,0.013080770149827003
1782986846343933700,4.03593359375,-0.033888693898916245,0.0055665988475084305,0.006969080772250891
1782986846354007800,4.0460078125,-0.03626929223537445,0.014165413565933704,0.0008573926752433181
1782986846364082700,4.056082763671875,-0.038423873484134674,0.012095664627850056,-0.011209866032004356
1782986846374156800,4.06615673828125,-0.03448159620165825,-0.0028191031888127327,-0.020961828529834747
1782986846384231700,4.076231689453125,-0.026959145441651344,-0.004046169109642506,-0.02069059945642948
1782986846394305800,4.086305908203125,-0.019906828179955482,0.004449580796062946,-0.0056772963143885136
1782986846404380700,4.096380615234375,-0.012519492767751217,0.010494067333638668,0.013734400272369385
1782986846414454800,4.106454833984375,-0.010539166629314423,0.0075065335258841515,0.03222978860139847
1782986846424528600,4.116528564453125,-0.0071614645421504974,0.0001523920800536871,0.04336463287472725
1782986846434603800,4.126603759765625,-0.0023368820548057556,0.002754833083599806,0.04792529717087746
1782986846444677600,4.136677734375,0.0008874792838469148,-0.005793441087007523,0.05123129487037659
1782986846454752800,4.146752685546875,0.0015593947609886527,-0.008415855467319489,0.042310237884521484
1782986846464826600,4.15682666015625,0.008184361271560192,-0.01373167335987091,0.025526583194732666
1782986846474901800,4.16690185546875,0.0177118219435215,-0.012871205806732178,0.004033009521663189
1782986846484975600,4.1769755859375,0.026589753106236458,-0.016246406361460686,-0.019214710220694542
1782986846495050800,4.18705078125,0.03303806483745575,-0.017918072640895844,-0.033020537346601486
1782986846505124600,4.19712451171875,0.035633936524391174,-0.011281980201601982,-0.030662013217806816
1782986846515199700,4.20719970703125,0.03922015056014061,-0.00910218246281147,-0.013664919883012772
1782986846525273600,4.217273681640625,0.0424795001745224,-0.01587853580713272,0.0056257485412061214
1782986846535348700,4.2273486328125,0.04353970289230347,-0.021484222263097763,0.021542929112911224
1782986846545422600,4.237422607421875,0.047002971172332764,-0.03301674500107765,0.03775734826922417
1782986846555496700,4.24749658203125,0.045803748071193695,-0.04483611881732941,0.04079734534025192
1782986846565571600,4.257571533203125,0.05168089643120766,-0.05109940096735954,0.046024542301893234
1782986846575645700,4.267645751953125,0.04929470270872116,-0.041606299579143524,0.045255422592163086
1782986846585720600,4.277720458984375,0.048041779547929764,-0.0315946489572525,0.033391598612070084
1782986846595794700,4.287794677734375,0.036010947078466415,-0.01628253608942032,0.018888024613261223
1782986846605869600,4.29786962890625,0.034158021211624146,0.003223012899979949,0.009202665649354458
1782986846615943700,4.307943603515625,0.03870350494980812,0.01975165493786335,0.0016275704838335514
1782986846626018600,4.3180185546875,0.04470280557870865,0.014336474239826202,-0.013708951883018017
1782986846636092700,4.3280927734375,0.04833775386214256,-0.0009514017729088664,-0.025825535878539085
1782986846646167800,4.338167724609375,0.049208518117666245,-0.016993246972560883,-0.029027484357357025
1782986846656241700,4.34824169921875,0.043399628251791,-0.023096680641174316,-0.02562982216477394
1782986846666315500,4.3583154296875,0.03326505422592163,-0.014450518414378166,-0.018693678081035614
1782986846676390700,4.368390625,0.03181735798716545,-0.001499300473369658,-0.02064364403486252
1782986846686464500,4.378464599609375,0.03757822513580322,0.012008310295641422,-0.021793538704514503
1782986846696539600,4.38853955078125,0.04485664516687393,0.029314860701560974,-0.028674615547060966
1782986846706613500,4.398613525390625,0.05331288278102875,0.04579731822013855,-0.036826398223638535
1782986846716688600,4.408688720703125,0.06020567566156387,0.07669024914503098,-0.03498588874936104
1782986846726762500,4.418762451171875,0.06553144752979279,0.08909347653388977,-0.03606037423014641
1782986846736837600,4.428837646484375,0.07103540748357773,0.06556285172700882,-0.038260411471128464
1782986846746911500,4.438911376953125,0.08105351030826569,0.035775069147348404,-0.0382801853120327
1782986846756986600,4.448986572265625,0.08788664638996124,0.017781956121325493,-0.04879407957196236
1782986846767060700,4.459060791015625,0.09881538152694702,-0.01126073207706213,-0.06486930698156357
1782986846777135600,4.469135498046875,0.108962282538414,-0.04019411653280258,-0.08752241730690002
1782986846787209700,4.479209716796875,0.119752436876297,-0.05057846009731293,-0.1087077409029007
1782986846797283600,4.48928369140625,0.12660208344459534,-0.05819163843989372,-0.12836134433746338
1782986846807358700,4.499358642578125,0.13444119691848755,-0.07153564691543579,-0.1551268845796585
1782986846817432600,4.5094326171875,0.13842500746250153,-0.07652827352285385,-0.18545283377170563
1782986846827507700,4.5195078125,0.14140358567237854,-0.08785581588745117,-0.23480527102947235
1782986846837581600,4.52958154296875,0.14966285228729248,-0.10903514176607132,-0.31379595398902893
1782986846847656700,4.53965673828125,0.16146235167980194,-0.15202420949935913,-0.40644341707229614
1782986846857730600,4.54973046875,0.165810227394104,-0.1734972894191742,-0.47981321811676025
1782986846867805700,4.5598056640625,0.1542728692293167,-0.15506358444690704,-0.4959721267223358
1782986846877879600,4.569879638671875,0.13373775780200958,-0.08951414376497269,-0.44028621912002563
1782986846887954700,4.57995458984375,0.10266772657632828,-0.022822462022304535,-0.33203405141830444
1782986846898028500,4.590028564453125,0.06844264268875122,0.01571614108979702,-0.18935279548168182
1782986846908103700,4.600103759765625,0.045615267008543015,0.050917863845825195,-0.02993510477244854
1782986846918177500,4.610177490234375,0.028999002650380135,0.08771182596683502,0.11842267215251923
1782986846928251600,4.620251708984375,0.02758060395717621,0.11388031393289566,0.22408226132392883
1782986846938326500,4.630326416015625,0.036461714655160904,0.14492478966712952,0.284746915102005
1782986846948400600,4.640400634765625,0.040816694498062134,0.17621254920959473,0.29690200090408325
1782986846958475500,4.6504755859375,0.03286795690655708,0.19820785522460938,0.27001500129699707
1782986846968549600,4.660549560546875,0.019232405349612236,0.2021702378988266,0.22147075831890106
1782986846978624500,4.67062451171875,0.004798073321580887,0.20772399008274078,0.16001884639263153
1782986846988698600,4.68069873046875,0.002971590030938387,0.21301691234111786,0.09724348783493042
1782986846998773500,4.6907734375,0.007405486423522234,0.2106216549873352,0.03335292637348175
1782986847008847600,4.70084765625,0.0011815838515758514,0.19823536276817322,-0.021172303706407547
1782986847018922500,4.710922607421875,-0.02583565190434456,0.17781157791614532,-0.06496958434581757
1782986847028996900,4.720996826171875,-0.05893518030643463,0.173881396651268,-0.09971094131469727
1782986847039072000,4.731072021484375,-0.07900343835353851,0.17564919590950012,-0.12397979199886322
1782986847049145900,4.741145751953125,-0.07423414289951324,0.16356584429740906,-0.1561489850282669
1782986847059220000,4.751219970703125,-0.04591275379061699,0.12273692339658737,-0.1936958283185959
1782986847069294800,4.761294921875,-0.0029636085964739323,0.10203088074922562,-0.2269727885723114
1782986847079369000,4.771368896484375,0.054331373423337936,0.12098326534032822,-0.26679477095603943
1782986847089443800,4.78144384765625,0.10568040609359741,0.11117371916770935,-0.3029017150402069
1782986847099518000,4.79151806640625,0.14965291321277618,0.11122751235961914,-0.3269292712211609
1782986847109592800,4.8015927734375,0.17132127285003662,0.10285571962594986,-0.326729416847229
1782986847119667000,4.8116669921875,0.16929858922958374,0.06780452281236649,-0.3179710805416107
1782986847129741800,4.821741943359375,0.1549515426158905,0.08152865618467331,-0.2771058678627014
1782986847139816000,4.83181591796875,0.12753190100193024,0.1650986522436142,-0.22095844149589539
1782986847149890800,4.841890869140625,0.0949668437242508,0.22783058881759644,-0.16069604456424713
1782986847159965000,4.85196484375,0.06086267530918121,0.24714596569538116,-0.10394781827926636
1782986847170039000,4.8620390625,0.03696773201227188,0.23596246540546417,-0.06361860036849976
1782986847180114000,4.872114013671875,0.03997763618826866,0.20059116184711456,-0.021018140017986298
1782986847190188000,4.88218798828125,0.06783401966094971,0.15319372713565826,0.022514337673783302
1782986847200263000,4.892262939453125,0.09819352626800537,0.106835275888443,0.07342065870761871
1782986847210337000,4.9023369140625,0.1073223203420639,0.06379469484090805,0.12052647024393082
1782986847220412000,4.912411865234375,0.11384573578834534,0.0346250906586647,0.14979301393032074
1782986847230486000,4.922486083984375,0.11373041570186615,0.018786737695336342,0.15913324058055878
1782986847240561000,4.932560791015625,0.11653099954128265,-0.001790176029317081,0.1434224545955658
1782986847250635000,4.942635009765625,0.11375990509986877,-0.019352423027157784,0.11994586884975433
1782986847260710000,4.9527099609375,0.10881760716438293,0.00002660113386809826,0.11161310225725174
1782986847270784000,4.962783935546875,0.08520859479904175,0.03403398394584656,0.11371901631355286
1782986847280858000,4.972858154296875,0.05332097038626671,0.0494997575879097,0.1154727041721344
1782986847290933200,4.982933349609375,0.026567813009023666,0.03955797106027603,0.10931048542261124
1782986847301007000,4.993007080078125,0.017163658514618874,0.015713626518845558,0.10222381353378296
1782986847311082200,5.003082275390625,0.02553611248731613,-0.011380485258996487,0.09264077991247177
1782986847321156000,5.013156005859375,0.04001971334218979,-0.012071575038135052,0.08060542494058609
1782986847331231200,5.023231201171875,0.04759853705763817,-0.014004497788846493,0.06272496283054352
1782986847341305000,5.03330517578125,0.051301129162311554,-0.022034460678696632,0.05345902219414711
1782986847351380200,5.043380126953125,0.040005605667829514,-0.018714653328061104,0.05137287825345993
1782986847361454000,5.0534541015625,0.023502791300415993,-0.013843465596437454,0.048810917884111404
1782986847371529200,5.063529296875,0.0012066175695508718,-0.0018093220423907042,0.050144217908382416
1782986847381603000,5.07360302734375,0.00035041116643697023,0.006131691392511129,0.057426899671554565
1782986847391678200,5.08367822265625,0.012789063155651093,0.014594449661672115,0.06902073323726654
1782986847401752000,5.093751953125,0.027047626674175262,0.005989508703351021,0.07559847831726074
1782986847411826200,5.103826171875,0.042509861290454865,-0.016937674954533577,0.07526687532663345
1782986847421901000,5.113901123046875,0.05149483308196068,-0.04876617714762688,0.0680590271949768
1782986847431975200,5.12397509765625,0.05650698393583298,-0.07213032990694046,0.05579680576920509
1782986847442050000,5.134050048828125,0.05460016056895256,-0.08220293372869492,0.042744655162096024
1782986847452124200,5.144124267578125,0.05171870067715645,-0.07980934530496597,0.029062341898679733
1782986847462199000,5.154198974609375,0.04051771014928818,-0.07312986999750137,0.017822470515966415
1782986847472273200,5.164273193359375,0.022117245942354202,-0.06960275024175644,-0.00380077981390059
1782986847482348000,5.17434814453125,0.0026314291171729565,-0.09039005637168884,-0.03428279235959053
1782986847492422100,5.184422119140625,-0.009447971358895302,-0.12585033476352692,-0.0667848289012909
1782986847502497000,5.1944970703125,-0.016140228137373924,-0.15957555174827576,-0.0953293889760971
1782986847512571100,5.204571044921875,-0.015357079915702343,-0.17202088236808777,-0.10275200009346008
1782986847522645000,5.21464501953125,-0.01734939031302929,-0.17625769972801208,-0.09882916510105133
1782986847532720000,5.22472021484375,-0.030572975054383278,-0.16822576522827148,-0.0791781097650528
1782986847542794000,5.2347939453125,-0.044449109584093094,-0.14256860315799713,-0.04880981892347336
1782986847552869000,5.244869140625,-0.05529189854860306,-0.11386913061141968,-0.02347605861723423
1782986847562943000,5.25494287109375,-0.05734466388821602,-0.09432312846183777,0.0003413911326788366
1782986847573018000,5.26501806640625,-0.05598227307200432,-0.08779459446668625,0.014903079718351364
1782986847583092000,5.275092041015625,-0.054873332381248474,-0.0802711620926857,0.01668100617825985
1782986847593167000,5.2851669921875,-0.043324004858732224,-0.06819240003824234,0.011406082659959793
1782986847603241000,5.295240966796875,-0.037253327667713165,-0.05659113824367523,0.009772766381502151
1782986847613315000,5.305315185546875,-0.03216695785522461,-0.04460655525326729,0.0133891636505723
1782986847623389000,5.315388916015625,-0.039668548852205276,-0.040490373969078064,0.014322335831820965
1782986847633464000,5.325464111328125,-0.04635033756494522,-0.028214149177074432,0.009473903104662895
1782986847643538000,5.335537841796875,-0.0509866327047348,-0.017450984567403793,0.005507390946149826
1782986847653613000,5.345613037109375,-0.05402147397398949,-0.030891839414834976,-0.006527054123580456
1782986847663687000,5.35568701171875,-0.05408112704753876,-0.06502077728509903,-0.019548313692212105
1782986847673762000,5.365761962890625,-0.05245527997612953,-0.06472836434841156,-0.022434109821915627
1782986847683836000,5.3758359375,-0.03728644922375679,-0.03662669286131859,-0.015007085166871548
1782986847693911000,5.3859111328125,-0.02433965913951397,-0.02726813405752182,-0.005677562672644854
1782986847703985000,5.39598486328125,-0.018498815596103668,-0.04112349450588226,0.005157241597771645
1782986847714060000,5.40606005859375,-0.013801448047161102,-0.040751781314611435,0.03183779865503311
1782986847724134000,5.4161337890625,-0.012927664443850517,-0.029630152508616447,0.058088842779397964
1782986847734208000,5.4262080078125,-0.015279428102076054,-0.023476537317037582,0.0821186751127243
1782986847744283000,5.436282958984375,-0.013230392709374428,-0.020145190879702568,0.08538451045751572
1782986847754357000,5.44635693359375,-0.006996916141360998,-0.02988390065729618,0.07018179446458817
1782986847764432000,5.456431884765625,-0.00030812062323093414,-0.01958945207297802,0.05506382882595062
1782986847774506000,5.466506103515625,-0.005985519848763943,0.022466277703642845,0.030880868434906006
1782986847784580900,5.476580810546875,-0.020411062985658646,0.01677723228931427,-0.0046920389868319035
1782986847794655000,5.486655029296875,-0.029015013948082924,-0.019530024379491806,-0.03301115334033966
1782986847804729900,5.496729736328125,-0.02911648154258728,-0.03581445664167404,-0.04984446242451668
1782986847814804000,5.506803955078125,-0.026828208938241005,-0.032135624438524246,-0.042808711528778076
1782986847824878800,5.51687890625,-0.029533447697758675,-0.020081890746951103,-0.022409433498978615
1782986847834953000,5.526952880859375,-0.04027033969759941,-0.011189625598490238,-0.005971898324787617
1782986847845027000,5.537027099609375,-0.044072266668081284,0.010646164417266846,0.014458808116614819
1782986847855102000,5.54710205078125,-0.032319020479917526,0.02609601989388466,0.026996761560440063
1782986847865176000,5.557176025390625,-0.014967994764447212,0.017420239746570587,0.030326245352625847
1782986847875251000,5.5672509765625,0.0002728259423747659,-0.0009851917857304215,0.02497030422091484
1782986847885325000,5.577324951171875,0.007011954672634602,0.004940341226756573,0.023849645629525185
1782986847895400000,5.58739990234375,0.006125042214989662,0.014914914965629578,0.025447510182857513
1782986847905474000,5.59747412109375,-0.00047613494098186493,-0.0025895091239362955,0.026285871863365173
1782986847915549000,5.607548828125,-0.009576419368386269,-0.001106750569306314,0.03668622300028801
1782986847925623000,5.617623046875,-0.013823095709085464,0.021189499646425247,0.046223271638154984
1782986847935698000,5.627697998046875,-0.015117136761546135,0.02019480988383293,0.05054745078086853
1782986847945772000,5.63777197265625,-0.010298413224518299,-0.004570190794765949,0.044554539024829865
1782986847955847000,5.647846923828125,-0.004943245556205511,-0.02136281318962574,0.03901297599077225
1782986847965922000,5.657922119140625,0.0037932544946670532,-0.028568528592586517,0.03131697326898575
1782986847975996000,5.667995849609375,0.005107794888317585,-0.02476828545331955,0.026502421125769615
1782986847986071000,5.678071044921875,-0.00316611398011446,-0.013898327015340328,0.017476968467235565
1782986847996145000,5.688144775390625,-0.020847385749220848,-0.0022896123118698597,0.0110632861033082
1782986848006219000,5.698218994140625,-0.03373415768146515,-0.0019790877122431993,0.006013666745275259
1782986848016294000,5.7082939453125,-0.04840737581253052,-0.015447225421667099,0.005352936219424009
1782986848026368300,5.7183681640625,-0.06152424216270447,-0.0060465335845947266,0.004804857540875673
1782986848036443100,5.728443115234375,-0.06245490536093712,0.023912109434604645,0.016415636986494064
1782986848046517200,5.738517333984375,-0.058464426547288895,0.04530981183052063,0.027424879372119904
1782986848056592100,5.748592041015625,-0.05642630532383919,0.0496244840323925,0.037383854389190674
1782986848066666200,5.758666259765625,-0.06334013491868973,0.04036068171262741,0.04223719984292984
1782986848076741000,5.7687412109375,-0.0658242478966713,0.02472919598221779,0.04983993247151375
1782986848086815200,5.778815185546875,-0.07441134750843048,0.003496346529573202,0.05082237347960472
1782986848096890000,5.78889013671875,-0.08623205125331879,-0.0152626046910882,0.03885022550821304
1782986848106964200,5.798964111328125,-0.08885660022497177,-0.01541120931506157,0.026280637830495834
1782986848117038300,5.809038330078125,-0.0876896008849144,-0.004530065692961216,0.012206628918647766
1782986848127113200,5.81911328125,-0.09060656279325485,0.002904947381466627,-0.00419791042804718
1782986848137187300,5.829187255859375,-0.09292804449796677,-0.004988573491573334,-0.025360895320773125
1782986848147262200,5.83926220703125,-0.08791517466306686,-0.011607327498495579,-0.03682154417037964
1782986848157336300,5.84933642578125,-0.07234145700931549,0.0013820037711411715,-0.032574307173490524
1782986848167411200,5.8594111328125,-0.0627431571483612,0.0123816579580307,-0.020639615133404732
1782986848177485300,5.8694853515625,-0.057296108454465866,0.006027562078088522,-0.002689965767785907
1782986848187560200,5.879560302734375,-0.047600604593753815,-0.007828332483768463,0.016556166112422943
1782986848197634300,5.88963427734375,-0.03697299212217331,-0.017713986337184906,0.027578456327319145
1782986848207709200,5.899709228515625,-0.03349250927567482,-0.04011489823460579,0.03213885426521301
1782986848217783300,5.909783203125,-0.028209328651428223,-0.06797315925359726,0.022818855941295624
1782986848227857200,5.919857177734375,-0.027422096580266953,-0.06981074064970016,0.013590470887720585
1782986848237932300,5.929932373046875,-0.026038585230708122,-0.05394682660698891,0.006631097756326199
1782986848248006100,5.940006103515625,-0.03203469514846802,-0.03275898098945618,-0.0006643654778599739
1782986848258081300,5.950081298828125,-0.04156135395169258,-0.019261816516518593,-0.000614031741861254
1782986848268155100,5.960155029296875,-0.049167342483997345,-0.0219406895339489,0.002002257853746414
1782986848278230300,5.970230224609375,-0.052112091332674026,-0.033668480813503265,0.014370216056704521
1782986848288304000,5.98030419921875,-0.06025390699505806,-0.05175746977329254,0.027390142902731895
1782986848298379300,5.990379150390625,-0.07008779793977737,-0.0646541565656662,0.038797732442617416
1782986848308453000,6.000453125,-0.07771535962820053,-0.05917895957827568,0.054023291915655136
1782986848318528300,6.0105283203125,-0.09066230803728104,-0.0420210100710392,0.08169779181480408
1782986848328602000,6.02060205078125,-0.10568972676992416,-0.021043557673692703,0.11471166461706161
1782986848338677200,6.03067724609375,-0.11097566783428192,-0.01621163822710514,0.13229374587535858
1782986848348751000,6.040751220703125,-0.11241430789232254,-0.012932220473885536,0.12828461825847626
1782986848358825200,6.0508251953125,-0.1054522693157196,-0.0075408294796943665,0.11641180515289307
1782986848368900400,6.060900390625,-0.09537407755851746,0.0023653313983231783,0.08981721103191376
1782986848378974200,6.07097412109375,-0.09355885535478592,0.02070714347064495,0.06493458151817322
1782986848389049300,6.08104931640625,-0.09196974337100983,0.026442527770996094,0.04513930901885033
1782986848399123200,6.091123291015625,-0.09054957330226898,0.02386331371963024,0.031067492440342903
1782986848409198300,6.1011982421875,-0.08750344812870026,0.011585875414311886,0.021860944107174873
1782986848419272200,6.111272216796875,-0.07533122599124908,-0.007276678457856178,0.00894151907414198
1782986848429347300,6.121347412109375,-0.06421173363924026,-0.029883986338973045,0.002102520549669862
1782986848439421200,6.131421142578125,-0.05549341440200806,-0.03789275884628296,-0.004995730705559254
1782986848449495000,6.1414951171875,-0.04939557611942291,-0.04060545563697815,-0.015067805536091328
1782986848459570200,6.151570068359375,-0.0437534935772419,-0.02951918914914131,-0.012503917329013348
1782986848469644000,6.16164404296875,-0.03725991025567055,-0.02095712721347809,-0.019080858677625656
1782986848479719200,6.17171923828125,-0.031741730868816376,-0.013249995186924934,-0.01908945105969906
1782986848489793300,6.181793212890625,-0.023967966437339783,0.008686728775501251,-0.003878274466842413
1782986848499868200,6.1918681640625,-0.01243702694773674,0.0315931960940361,0.01472267135977745
1782986848509942300,6.2019423828125,-0.0019702715799212456,0.02622719295322895,0.03446761518716812
1782986848520017200,6.21201708984375,0.004832245409488678,0.000797379994764924,0.04097522422671318
1782986848530091300,6.22209130859375,0.010238462127745152,-0.010065654292702675,0.04237471520900726
1782986848540166100,6.232166259765625,0.022091543301939964,0.009801398031413555,0.04955529421567917
1782986848550240300,6.242240234375,0.03183098882436752,0.03459276258945465,0.057189248502254486
1782986848560315100,6.252315185546875,0.028162771835923195,0.023852955549955368,0.05754973739385605
1782986848570389200,6.26238916015625,0.03265126422047615,-0.00007820990867912769,0.057567048817873
1782986848580463000,6.272463134765625,0.04298042505979538,-0.004924866370856762,0.057597167789936066
1782986848590538200,6.282538330078125,0.04859303683042526,-0.010138271376490593,0.054279934614896774
1782986848600612000,6.292612060546875,0.038831401616334915,-0.024362152442336082,0.041730642318725586
1782986848610687200,6.302687255859375,0.028967587277293205,-0.021858781576156616,0.026328783482313156
1782986848620761000,6.312760986328125,0.020684178918600082,0.005772430915385485,0.018609462305903435
1782986848630836200,6.322836181640625,0.019854603335261345,0.02033885568380356,0.021797534078359604
1782986848640910000,6.33291015625,0.01307489350438118,0.002039888873696327,0.024888288229703903
1782986848650985200,6.342985107421875,0.0052886102348566055,-0.022480633109807968,0.0330631248652935
1782986848661059000,6.35305908203125,0.008106068708002567,-0.03194165602326393,0.05223986133933067
1782986848671134200,6.36313427734375,0.0007189926691353321,-0.024386003613471985,0.07572921365499496
1782986848681208000,6.3732080078125,-0.010188874788582325,-0.023325562477111816,0.08660313487052917
1782986848691282200,6.3832822265625,-0.018680894747376442,-0.014772022143006325,0.08366832882165909
1782986848701357000,6.393357177734375,-0.023369750007987022,0.01882905140519142,0.0779864490032196
1782986848711431200,6.40343115234375,-0.02371436171233654,0.03362450748682022,0.0642719715833664
1782986848721506000,6.413506103515625,-0.02450958639383316,0.023615369573235512,0.05207957699894905
1782986848731580200,6.423580078125,-0.0316588431596756,0.01704322174191475,0.04503045603632927
1782986848741655000,6.433655029296875,-0.04250401630997658,0.003433407051488757,0.03195725381374359
1782986848751729200,6.443729248046875,-0.04071197658777237,-0.011352729052305222,0.01804543286561966
1782986848761804000,6.453803955078125,-0.0398755744099617,-0.027228042483329773,-0.008301953785121441
1782986848771878100,6.463878173828125,-0.030535070225596428,-0.04957622289657593,-0.032968152314424515
1782986848781953000,6.473953125,-0.024142669513821602,-0.05352151766419411,-0.046142108738422394
1782986848792027100,6.484027099609375,-0.021980715915560722,-0.0350748673081398,-0.04637966305017471
1782986848802102000,6.49410205078125,-0.026682818308472633,-0.017494812607765198,-0.028462965041399002
1782986848812176100,6.504176025390625,-0.036384981125593185,-0.0082432571798563,-0.012938333675265312
1782986848822250200,6.514250244140625,-0.0422501266002655,-0.006391497328877449,0.005286524072289467
1782986848832325000,6.5243251953125,-0.032392971217632294,-0.006493230350315571,0.016463011503219604
1782986848842399200,6.534399169921875,-0.011773367412388325,-0.007825847715139389,0.024998478591442108
1782986848852474000,6.54447412109375,-0.0015777216758579016,-0.009567288681864738,0.030466746538877487
1782986848862548200,6.55454833984375,0.00009777629747986794,0.008931592106819153,0.030673429369926453
1782986848872623000,6.564623046875,-0.0043241363018751144,0.003515521064400673,0.028027312830090523
1782986848882697200,6.574697265625,-0.005458191502839327,-0.007923319935798645,0.024355579167604446
1782986848892772000,6.584772216796875,-0.006185767240822315,-0.009161955676972866,0.022783249616622925
1782986848902846200,6.59484619140625,-0.011444995179772377,-0.011385783553123474,0.015187036246061325
1782986848912921000,6.604921142578125,-0.023545866832137108,-0.011260613799095154,-0.001831362722441554
1782986848922995200,6.6149951171875,-0.017402037978172302,-0.0006121713668107986,-0.012455721385776997
1782986848933069300,6.6250693359375,-0.005174133460968733,0.006058515049517155,-0.01545204408466816
1782986848943144200,6.635144287109375,-0.0016096753533929586,0.018830176442861557,-0.0036921133287250996
1782986848953218300,6.64521826171875,-0.003672559978440404,0.03383069857954979,0.021752791479229927
1782986848963293200,6.655293212890625,-0.015301082283258438,0.03807476907968521,0.05864989012479782
1782986848973367300,6.6653671875,-0.02000395953655243,0.03663479536771774,0.09255006164312363
1782986848983442200,6.675442138671875,-0.024345895275473595,0.03585389629006386,0.11696241050958633
1782986848993516300,6.685516357421875,-0.023088883608579636,0.02569233998656273,0.12214039266109467
1782986849003591400,6.69559130859375,-0.01854107156395912,0.01695936545729637,0.10237419605255127
1782986849013665300,6.705665283203125,-0.02166229672729969,0.008162678219377995,0.0699068009853363
1782986849023740400,6.715740478515625,-0.026972107589244843,0.0014978509861975908,0.03182598948478699
1782986849033814500,6.725814453125,-0.03284970298409462,0.00551842525601387,-0.003857972100377083
1782986849043888600,6.735888671875,-0.04745456948876381,0.010514752008020878,-0.03207153081893921
1782986849053963500,6.745963623046875,-0.057229701429605484,0.010523540899157524,-0.0499970018863678
1782986849064037600,6.75603759765625,-0.054555267095565796,0.021695086732506752,-0.05032578110694885
1782986849074112500,6.766112548828125,-0.05271901935338974,0.029877914115786552,-0.033432550728321075
1782986849084186600,6.7761865234375,-0.05372827127575874,0.01805785857141018,-0.014380443841218948
1782986849094261500,6.786261474609375,-0.055899545550346375,-0.001297462498769164,0.006297403480857611
1782986849104335600,6.796335693359375,-0.04966872185468674,0.0021481651347130537,0.02069394662976265
1782986849114410500,6.806410400390625,-0.04046696797013283,0.013854355551302433,0.017725056037306786
1782986849124484600,6.816484619140625,-0.032081909477710724,0.011544271372258663,0.005885911174118519
1782986849134559700,6.826559814453125,-0.026151051744818687,0.009456619620323181,-0.011979905888438225
1782986849144633600,6.836633544921875,-0.022983422502875328,0.013948862440884113,-0.02290388196706772
1782986849154707500,6.84670751953125,-0.013220804743468761,0.019331645220518112,-0.03049575537443161
1782986849164782600,6.856782470703125,-0.007956525310873985,0.017223577946424484,-0.03490453585982323
1782986849174856400,6.8668564453125,-0.004403335507959127,0.010066334158182144,-0.03690510243177414
1782986849184931600,6.876931640625,-0.005604953970760107,0.011854380369186401,-0.03602093085646629
1782986849195005400,6.88700537109375,-0.0008344334200955927,0.026145434007048607,-0.032002221792936325
1782986849205080600,6.89708056640625,0.00649919081479311,0.03647080063819885,-0.020642206072807312
1782986849215154400,6.907154541015625,0.015866592526435852,0.026023222133517265,-0.01799023151397705
1782986849225229600,6.9172294921875,0.021695371717214584,0.010895729064941406,-0.020387286320328712
1782986849235303400,6.927303466796875,0.03919367119669914,0.0035251646768301725,-0.024987364187836647
1782986849245378600,6.937378662109375,0.04828811436891556,-0.005000676028430462,-0.03219841420650482
1782986849255452700,6.94745263671875,0.05316595733165741,-0.010499571450054646,-0.03717026859521866
1782986849265526500,6.957526611328125,0.058428164571523666,-0.010240690782666206,-0.03509216010570526
1782986849275601700,6.9676015625,0.053236331790685654,-0.00451276358217001,-0.03730524703860283
1782986849285675500,6.977675537109375,0.051049720495939255,0.014364469796419144,-0.026106195524334908
1782986849295750700,6.987750732421875,0.054775215685367584,0.04264111444354057,-0.004962028004229069
1782986849305824500,6.997824462890625,0.05207565426826477,0.046802688390016556,0.012054093182086945
1782986849315899600,7.007899658203125,0.045544520020484924,0.024768758565187454,0.02135438285768032
1782986849325973500,7.017973388671875,0.045339714735746384,0.006529476493597031,0.02120409905910492
1782986849336048600,7.028048583984375,0.05643950402736664,0.00827065110206604,0.01596939004957676
1782986849346122500,7.03812255859375,0.062102898955345154,0.014937490224838257,0.004373866133391857
1782986849356197600,7.04819775390625,0.05829431116580963,0.020328527316451073,-0.007557361852377653
1782986849366271500,7.058271484375,0.049262307584285736,0.02537187747657299,-0.018103107810020447
1782986849376345600,7.068345703125,0.04237377271056175,0.021970488131046295,-0.02209092490375042
1782986849386420500,7.07842041015625,0.029952416196465492,0.006807925179600716,-0.022623395547270775
1782986849396494600,7.08849462890625,0.017316514626145363,-0.007727607619017363,-0.016015561297535896
1782986849406569500,7.098569580078125,0.005945427343249321,-0.014275763183832169,-0.010684141889214516
1782986849416643600,7.1086435546875,0.0013352292589843273,-0.010463714599609375,-0.009051091969013214
1782986849426718500,7.118718505859375,-0.0013724673772230744,-0.0035332150291651487,-0.010903988033533096
1782986849436792600,7.12879248046875,-0.006114492192864418,0.004833371378481388,-0.01164860837161541
1782986849446867500,7.138867431640625,-0.01673254184424877,0.00019120890647172928,-0.014998049475252628
1782986849456941600,7.148941650390625,-0.023798439651727676,0.005612339824438095,-0.003122215624898672
1782986849467016400,7.159016357421875,-0.026517687365412712,0.017131345346570015,0.01948484405875206
1782986849477090600,7.169090576171875,-0.032008327543735504,0.015755556523799896,0.04987310990691185
1782986849487164400,7.179164306640625,-0.03365131840109825,0.004188797436654568,0.08179816603660583
1782986849497239600,7.189239501953125,-0.03269710764288902,-0.0040201302617788315,0.1083189845085144
1782986849507313400,7.1993134765625,-0.0329127237200737,-0.009223295375704765,0.1264009028673172
1782986849517388500,7.209388427734375,-0.029388030990958214,-0.015359751880168915,0.12617053091526031
1782986849527462400,7.21946240234375,-0.029600730165839195,-0.01178673654794693,0.11302236467599869
1782986849537537500,7.22953759765625,-0.02463899552822113,-0.00919627957046032,0.07910115271806717
1782986849547611400,7.239611328125,-0.011366702616214752,-0.012538045644760132,0.046466488391160965
1782986849557686500,7.2496865234375,-0.009393567219376564,0.0012677819468080997,0.01688409224152565
1782986849567760400,7.259760498046875,-0.02997979335486889,-0.0029164862353354692,-0.002918556099757552
1782986849577835500,7.26983544921875,-0.04827304556965828,0.011250997893512249,-0.012619919143617153
1782986849587909400,7.279909423828125,-0.05249026045203209,0.034386470913887024,-0.008434964343905449
1782986849597983500,7.2899833984375,-0.0537632517516613,0.05937784165143967,-0.013669141568243504
1782986849608058400,7.300058349609375,-0.053307220339775085,0.043381236493587494,-0.014794389717280865
1782986849618132500,7.310132568359375,-0.045067932456731796,0.02295958623290062,-0.01750895194709301
1782986849628207400,7.320207275390625,-0.03262981399893761,0.0013572063762694597,-0.014107974246144295
1782986849638281500,7.330281494140625,-0.02669842541217804,-0.00812497828155756,-0.0054851919412612915
1782986849648356400,7.3403564453125,-0.023258507251739502,-0.004246468655765057,0.007342603523284197
1782986849658430500,7.350430419921875,-0.029097488150000572,0.008114859461784363,0.018946262076497078
1782986849668505300,7.36050537109375,-0.029850991442799568,0.019544139504432678,0.02627134881913662
1782986849678579500,7.370579345703125,-0.026093536987900734,0.015071360394358635,0.022982612252235413
1782986849688654300,7.380654296875,-0.01603485830128193,0.005876768380403519,0.007402286399155855
1782986849698728400,7.390728515625,-0.0036434358917176723,-0.0027561341412365437,-0.004002700559794903
1782986849708803300,7.40080322265625,0.004419812932610512,-0.012068853713572025,-0.006364834029227495
1782986849718877400,7.41087744140625,0.00486269686371088,-0.01761249080300331,-0.003771447343751788
1782986849728951600,7.42095166015625,0.0029328784439712763,-0.019823743030428886,0.002138611627742648
1782986849739026400,7.4310263671875,-0.0016951628495007753,-0.02785317413508892,0.007953890599310398
1782986849749100500,7.4411005859375,0.000517136650159955,-0.028254510834813118,0.012067935429513454
1782986849759175400,7.451175537109375,0.0035725811030715704,-0.019094834104180336,0.00800581555813551
1782986849769249500,7.46124951171875,0.009566537104547024,-0.01972236856818199,-0.0004575212369672954
1782986849779324400,7.471324462890625,0.007328683510422707,-0.020753011107444763,-0.012486487627029419
1782986849789398500,7.4813984375,0.006272840313613415,-0.017749110236763954,-0.015849150717258453
1782986849799473400,7.491473388671875,0.006889361888170242,-0.01832808181643486,-0.012709548696875572
1782986849809547500,7.501547607421875,0.0026545783039182425,-0.02567231096327305,-0.006756080314517021
1782986849819622400,7.511622314453125,-0.00028475269209593534,-0.037639226764440536,-0.005435951519757509
1782986849829696500,7.521696533203125,-0.0025734691880643368,-0.03840789943933487,0.002963567618280649
1782986849839770600,7.5317705078125,0.0005426957504823804,-0.03415589779615402,0.010099774226546288
1782986849849845500,7.541845458984375,-0.0002686034422367811,-0.02763260528445244,0.011893301270902157
1782986849859919600,7.551919677734375,-0.0021322835236787796,-0.031147979199886322,0.00851241871714592
1782986849869994500,7.561994384765625,-0.006907052360475063,-0.03617629036307335,-0.002406549407169223
1782986849880068600,7.572068603515625,-0.008454082533717155,-0.04561799764633179,-0.016874438151717186
1782986849890143700,7.582143798828125,-0.006199013441801071,-0.033889107406139374,-0.03462434187531471
1782986849900217600,7.592217529296875,0.0019731628708541393,-0.01749841868877411,-0.042703308165073395
1782986849910292700,7.602292724609375,0.004370631650090218,-0.00443158857524395,-0.03822650760412216
1782986849920366600,7.61236669921875,0.009094546549022198,-0.006307785399258137,-0.029504654929041862
1782986849930441700,7.622441650390625,0.007962249219417572,-0.018710101023316383,-0.016713721677660942
1782986849940515600,7.632515625,0.012088284827768803,-0.03270953893661499,-0.002985393861308694
1782986849950589400,7.64258935546875,0.02038482017815113,-0.042711399495601654,0.003938476555049419
1782986849960664600,7.65266455078125,0.029096819460392,-0.04499213024973869,0.005564868915826082
1782986849970738400,7.662738525390625,0.030880792066454887,-0.03763490915298462,0.0004744658654090017
1782986849980813600,7.6728134765625,0.028168629854917526,-0.019910771399736404,0.005097446963191032
1782986849990887400,7.682887451171875,0.015050503425300121,0.010234192945063114,0.01203005202114582
1782986850000962600,7.692962646484375,0.005416251718997955,0.0296718068420887,0.02008158527314663
1782986850011036700,7.70303662109375,0.003579493844881654,0.0319632887840271,0.029189137741923332
1782986850021111600,7.713111572265625,0.0075356196612119675,0.02132262848317623,0.03538764268159866
1782986850031184600,7.7231845703125,0.005457279738038778,0.006346517242491245,0.034225091338157654
1782986850041259500,7.733259521484375,0.00016557879280298948,-0.0018190008122473955,0.036211542785167694
1782986850051333600,7.743333740234375,-0.00875537283718586,-0.005749793723225594,0.036934614181518555
1782986850061407500,7.753407470703125,-0.02156970649957657,-0.0010277425171807408,0.034650687128305435
1782986850071482600,7.763482666015625,-0.02862078696489334,0.005826759617775679,0.028198707848787308
1782986850081556500,7.773556396484375,-0.029923338443040848,0.01276828907430172,0.011454615741968155
1782986850091631600,7.783631591796875,-0.02993612550199032,0.01846461184322834,-0.0002549462951719761
1782986850101705500,7.79370556640625,-0.028600282967090607,0.02430492267012596,-0.007082225754857063
1782986850111780600,7.803780517578125,-0.03510460630059242,0.018282245844602585,-0.010587422177195549
1782986850121854500,7.8138544921875,-0.04013824462890625,0.017386358231306076,-0.02069704979658127
1782986850131929600,7.8239296875,-0.035015206784009933,0.0035395785234868526,-0.027021199464797974
1782986850142003500,7.83400341796875,-0.03203379735350609,-0.01932392455637455,-0.04270695149898529
1782986850152078600,7.84407861328125,-0.028019187971949577,-0.02638479694724083,-0.06325832009315491
1782986850162152400,7.85415234375,-0.023730698972940445,-0.04578592628240585,-0.08464137464761734
1782986850172226600,7.8642265625,-0.0215496513992548,-0.06615158915519714,-0.10338971018791199
1782986850182301700,7.8743017578125,-0.0206508357077837,-0.0665888786315918,-0.12719222903251648
1782986850192375600,7.88437548828125,-0.017558645457029343,-0.045483775436878204,-0.14818663895130157
1782986850202450700,7.89445068359375,-0.015326116234064102,-0.03773344308137894,-0.16140924394130707
1782986850212524500,7.904524658203125,-0.032956235110759735,-0.04385862499475479,-0.17707866430282593
1782986850222599700,7.914599609375,-0.021936872974038124,-0.04527569189667702,-0.1949133276939392
1782986850232673500,7.924673583984375,-0.010624750517308712,-0.0605480931699276,-0.22932052612304688
1782986850242748700,7.934748779296875,-0.010832743719220161,-0.07498109340667725,-0.28946614265441895
1782986850252822500,7.944822509765625,-0.0029506830032914877,-0.1128155067563057,-0.35580435395240784
1782986850262897700,7.954897705078125,-0.0032364402431994677,-0.17139625549316406,-0.4187234044075012
1782986850272971500,7.964971435546875,-0.009157615713775158,-0.1687757670879364,-0.4010392725467682
1782986850283045600,7.975045654296875,-0.028852224349975586,-0.026420749723911285,-0.28590255975723267
1782986850293120500,7.98512060546875,-0.08494281768798828,0.14300444722175598,-0.11976055055856705
1782986850303194600,7.995194580078125,-0.14733269810676575,0.27158665657043457,0.061067018657922745
1782986850313269500,8.00526953125,-0.20178040862083435,0.3820314407348633,0.2227478325366974
1782986850323344000,8.01534375,-0.23977813124656677,0.45202624797821045,0.349311888217926
1782986850333418500,8.02541845703125,-0.2583836019039154,0.4748377799987793,0.42820852994918823
1782986850343492900,8.035492919921875,-0.2720820903778076,0.46802833676338196,0.47061511874198914
1782986850353567500,8.0455673828125,-0.2858245372772217,0.4182933568954468,0.47847819328308105
1782986850363641900,8.055641845703125,-0.29770728945732117,0.35077717900276184,0.4569191038608551
1782986850373716500,8.065716552734376,-0.31274721026420593,0.2973308265209198,0.42496711015701294
1782986850383790800,8.075790771484375,-0.31332725286483765,0.2577991187572479,0.39277857542037964
1782986850393864700,8.08586474609375,-0.30419304966926575,0.21009163558483124,0.3440992832183838
1782986850403939800,8.09593994140625,-0.29505655169487,0.14286279678344727,0.2840266227722168
1782986850414013700,8.106013671875,-0.29578593373298645,0.07529237866401672,0.23101069033145905
1782986850424088800,8.1160888671875,-0.3160898685455322,0.014141409657895565,0.18988828361034393
1782986850434162700,8.12616259765625,-0.34056171774864197,-0.008958784863352776,0.18137234449386597
1782986850444237800,8.13623779296875,-0.342730313539505,-0.024657053872942924,0.20193327963352203
1782986850454311700,8.146311767578124,-0.3338455855846405,-0.0571974478662014,0.23133213818073273
1782986850464386800,8.15638671875,-0.31189340353012085,-0.0926358699798584,0.26333776116371155
1782986850474460700,8.166460693359374,-0.2899874150753021,-0.08008379489183426,0.31564441323280334
1782986850484535800,8.176535888671875,-0.25629791617393494,-0.032054755836725235,0.36655527353286743
1782986850494609700,8.186609619140626,-0.21793228387832642,0.006495685316622257,0.4035690426826477
1782986850504683800,8.196683837890625,-0.17909593880176544,0.02844386175274849,0.40470755100250244
1782986850514758700,8.206758544921875,-0.14199776947498322,0.020010104402899742,0.37134554982185364
1782986850524832800,8.216832763671874,-0.10865339636802673,0.004661775194108486,0.30253586173057556
1782986850534907600,8.22690771484375,-0.06991904973983765,-0.006632691249251366,0.21844948828220367
1782986850544981800,8.236981689453126,-0.03261934220790863,-0.011502547189593315,0.12187021970748901
1782986850555056600,8.247056640625,0.010086758062243462,-0.03082425333559513,0.02510991133749485
1782986850565130800,8.257130859375,0.053009189665317535,-0.07065369188785553,-0.055238988250494
1782986850575205600,8.26720556640625,0.07839932292699814,-0.08899449557065964,-0.11149042099714279
1782986850585279700,8.27727978515625,0.07437581568956375,-0.09600526839494705,-0.1440451741218567
1782986850595354600,8.287354736328124,0.05390416830778122,-0.10130716115236282,-0.16127294301986694
1782986850605428700,8.2974287109375,0.030889395624399185,-0.08995436877012253,-0.17083342373371124
1782986850615502600,8.307502685546876,0.017585590481758118,-0.03194378688931465,-0.1634759157896042
1782986850625577700,8.31757763671875,0.0012340480461716652,0.022722918540239334,-0.15490080416202545
1782986850635651600,8.327651611328125,-0.006504119839519262,0.04258066043257713,-0.14162346720695496
1782986850645726700,8.337726806640624,-0.007627175189554691,0.028322096914052963,-0.12922778725624084
1782986850655800600,8.347800537109375,0.006963411346077919,0.024070950224995613,-0.11085592210292816
1782986850665875700,8.357875732421874,0.032932162284851074,0.025590283796191216,-0.08345146477222443
1782986850675949600,8.367949462890625,0.05039370059967041,0.006624317727982998,-0.05479903519153595
1782986850686024700,8.378024658203126,0.0621078796684742,-0.02769770286977291,-0.025426765903830528
1782986850696098600,8.3880986328125,0.07060956209897995,-0.05776059627532959,0.003685264615342021
1782986850706173700,8.398173583984375,0.07226471602916718,-0.0971095934510231,0.019558504223823547
1782986850716247600,8.40824755859375,0.06670936942100525,-0.1315900683403015,0.03049343451857567
1782986850726321700,8.41832177734375,0.06347016990184784,-0.1442001312971115,0.04552937671542168
1782986850736396500,8.428396484375,0.06206730753183365,-0.1335168331861496,0.0580100417137146
1782986850746470700,8.438470703125,0.07191327959299088,-0.1127561628818512,0.07128696888685226
1782986850756545500,8.448545654296876,0.08319762349128723,-0.1117081269621849,0.07580298185348511
1782986850766619600,8.45861962890625,0.08687331527471542,-0.12002065032720566,0.0686396136879921
1782986850776694500,8.468694580078125,0.08626800030469894,-0.15179723501205444,0.057882823050022125
1782986850786768600,8.4787685546875,0.08355610072612762,-0.19011932611465454,0.044154759496450424
1782986850796843500,8.488843505859375,0.0808248445391655,-0.23181754350662231,0.034703683108091354
1782986850806917600,8.498917724609376,0.07475177198648453,-0.2590118944644928,0.02967989630997181
1782986850816992800,8.50899267578125,0.06071246787905693,-0.26659902930259705,0.02273990772664547
1782986850827066600,8.519066650390625,0.04107431694865227,-0.22778131067752838,0.01894570142030716
1782986850837140500,8.529140380859374,0.02365386113524437,-0.17294174432754517,0.012279844842851162
1782986850847215600,8.539215576171875,0.007614440284669399,-0.13250191509723663,0.0008423676481470466
1782986850857289500,8.54928955078125,-0.006436135619878769,-0.09254802018404007,-0.016024671494960785
1782986850867364600,8.559364501953125,-0.018826227635145187,-0.059956517070531845,-0.03213360160589218
1782986850877438500,8.5694384765625,-0.013051056303083897,-0.044822536408901215,-0.044864822179079056
1782986850887513600,8.579513671875,0.0030863683205097914,-0.041514091193675995,-0.0545925498008728
1782986850897587500,8.58958740234375,0.02783174067735672,-0.04812270402908325,-0.05607136711478233
1782986850907662600,8.59966259765625,0.04589356482028961,-0.06837098300457001,-0.05474138259887695
1782986850917736400,8.609736328125,0.04911908507347107,-0.08742761611938477,-0.05488024652004242
1782986850927811600,8.6198115234375,0.035563595592975616,-0.09364742785692215,-0.05128870904445648
1782986850937885400,8.629885498046875,0.020490987226366997,-0.07361022382974625,-0.035289913415908813
1782986850947959600,8.63995947265625,0.004681931342929602,-0.04751523956656456,-0.01396545022726059
1782986850958034700,8.65003466796875,-0.0012377232778817415,-0.04003477096557617,-0.0011317780008539557
1782986850968108500,8.660108642578125,-0.0012880570720881224,-0.025842517614364624,0.01426928211003542
1782986850978183700,8.67018359375,0.0134110813960433,-0.013110091909766197,0.03535711020231247
1782986850988257500,8.680257568359375,0.03202364966273308,-0.005369082093238831,0.05785975605249405
1782986850998332700,8.690332763671876,0.04206161946058273,-0.007649285718798637,0.06921015679836273
1782986851008406500,8.700406494140625,0.05148015543818474,-0.023569131270051003,0.08293928951025009
1782986851018481700,8.710481689453125,0.04996262490749359,-0.026004614308476448,0.0977592021226883
1782986851028556000,8.72055615234375,0.04259765148162842,-0.028982028365135193,0.09984472393989563
1782986851038631000,8.730630859375,0.03107546642422676,-0.02924293279647827,0.10355087369680405
1782986851048705000,8.740705078125,0.021303262561559677,-0.02730628103017807,0.09104973077774048
1782986851058779000,8.75077880859375,0.009112638421356678,-0.02504277415573597,0.0676286593079567
1782986851068854000,8.76085400390625,-0.00859924778342247,-0.015707597136497498,0.027648212388157845
1782986851078928000,8.770927978515624,-0.021561559289693832,-0.0018402193672955036,-0.010770520195364952
1782986851089003000,8.7810029296875,-0.028875932097434998,0.012901442125439644,-0.04211486130952835
1782986851099076900,8.791076904296874,-0.02701471745967865,0.02181776985526085,-0.05599441006779671
1782986851109152000,8.801152099609375,-0.01827848330140114,0.027315067127346992,-0.05054451897740364
1782986851119225900,8.811225830078126,-0.012056558392941952,0.0168052539229393,-0.025459304451942444
1782986851129301000,8.821301025390625,-0.016006292775273323,-0.0017694969428703189,-0.00217235810123384
1782986851139374800,8.831374755859375,-0.012455569580197334,-0.011571463197469711,0.020389990881085396
1782986851149449200,8.84144921875,-0.009095459245145321,-0.019950034096837044,0.027422334998846054
1782986851159523800,8.85152392578125,-0.0024428036995232105,-0.03310149535536766,0.02405533380806446
1782986851169598200,8.86159814453125,0.005125633906573057,-0.03772394359111786,0.009798101149499416
1782986851179672800,8.8716728515625,0.013063447549939156,-0.021063920110464096,-0.004936811048537493
1782986851189747200,8.881747314453126,0.015265347436070442,-0.01001579500734806,-0.01795620657503605
1782986851199821800,8.89182177734375,0.012382223270833492,0.00007092952728271484,-0.03150957450270653
1782986851209896200,8.901896240234375,0.013105005025863647,0.006846544332802296,-0.03180944547057152
1782986851219970800,8.911970703125,0.013625897467136383,0.013427386060357094,-0.0258640144020319
1782986851230045200,8.922045166015625,0.015729794278740883,0.026667557656764984,-0.01611258275806904
1782986851240119800,8.932119873046876,0.014440118335187435,0.03393988311290741,-0.005309708882123232
1782986851250194200,8.942194091796875,0.011329012922942638,0.018553202971816063,0.007058011367917061
1782986851260268000,8.95226806640625,0.008802389726042747,0.005706176161766052,0.009361433796584606
1782986851270343200,8.96234326171875,0.0038654212839901447,-0.009936433285474777,-0.001949809491634369
1782986851280417000,8.9724169921875,0.008769187144935131,-0.016969457268714905,-0.013929654844105244
1782986851290492200,8.9824921875,0.019091598689556122,-0.0025692132767289877,-0.020636292174458504
1782986851300566000,8.99256591796875,0.031242191791534424,0.02330363728106022,-0.01243352610617876
1782986851310641200,9.00264111328125,0.04192519932985306,0.02908456139266491,-0.004867219366133213
1782986851320715000,9.012715087890625,0.047650642693042755,0.021496562287211418,0.00948097463697195
1782986851330790100,9.0227900390625,0.04189368709921837,0.01389270555227995,0.019161831587553024
1782986851340864000,9.032864013671874,0.03947960212826729,-0.002329027047380805,0.024968449026346207
1782986851350939100,9.042939208984375,0.032545264810323715,-0.0259946770966053,0.01776353269815445
1782986851361013000,9.053012939453126,0.027926461771130562,-0.043731532990932465,0.0006708876462653279
1782986851371087000,9.063087158203125,0.025957586243748665,-0.04659256711602211,-0.011724795214831829
1782986851381162000,9.073161865234376,0.02567288465797901,-0.042564891278743744,-0.013366982340812683
1782986851391236000,9.083236083984374,0.025579940527677536,-0.03991558402776718,-0.020413707941770554
1782986851401311000,9.09331103515625,0.024297913536429405,-0.0366133451461792,-0.030709588900208473
1782986851411385000,9.103385009765624,0.028685737401247025,-0.027996422722935677,-0.04487787187099457
1782986851421460000,9.1134599609375,0.031172949820756912,-0.016181988641619682,-0.050025373697280884
1782986851431534000,9.1235341796875,0.03469125181436539,-0.011160863563418388,-0.04229608178138733
1782986851441609000,9.13360888671875,0.03282986581325531,-0.021859969943761826,-0.022979222238063812
1782986851451683000,9.14368310546875,0.02814696729183197,-0.0266997329890728,0.0011460873065516353
1782986851461758000,9.153758056640624,0.03418659046292305,-0.03637389838695526,0.020671870559453964
1782986851471832000,9.16383203125,0.04286343604326248,-0.03822745755314827,0.030137544497847557
1782986851481906000,9.173906005859376,0.053563036024570465,-0.03409304842352867,0.02612694352865219
1782986851491981000,9.18398095703125,0.07012736797332764,-0.03926330804824829,0.015169634483754635
1782986851502055000,9.194054931640625,0.07820898294448853,-0.03885158896446228,-0.0020793862640857697
1782986851512130000,9.204130126953125,0.08528420329093933,-0.04322636127471924,-0.017143556848168373
1782986851522204000,9.214203857421875,0.08414213359355927,-0.04728540778160095,-0.019415609538555145
1782986851532279000,9.224279052734374,0.08621407300233841,-0.030392181128263474,-0.008611963130533695
1782986851542353000,9.234352783203125,0.08274240046739578,-0.010194847360253334,0.00427017780020833
1782986851552428000,9.244427978515626,0.08019375801086426,0.001755821518599987,0.014190985821187496
1782986851562502000,9.254501953125,0.07908082008361816,0.006651422940194607,0.02514367550611496
1782986851572577000,9.264576904296876,0.06854589283466339,0.007476736791431904,0.033666327595710754
1782986851582651000,9.27465087890625,0.06680204719305038,0.01098962128162384,0.032006826251745224
1782986851592725000,9.28472509765625,0.07166045159101486,0.027848761528730392,0.03696935996413231
1782986851602800000,9.294800048828124,0.07575400173664093,0.0516577772796154,0.034019727259874344
1782986851612874000,9.3048740234375,0.07491829991340637,0.049398619681596756,0.03747411444783211
1782986851622947800,9.31494775390625,0.0734333023428917,0.04115195944905281,0.051965538412332535
1782986851633023000,9.32502294921875,0.06759751588106155,0.02978399023413658,0.07014960050582886
1782986851643096800,9.335096923828125,0.05294552072882652,0.014409441500902176,0.09240525215864182
1782986851653172000,9.345171875,0.04847194254398346,0.0020771422423422337,0.10316815227270126
1782986851663245800,9.355245849609375,0.05569595843553543,0.005725559312850237,0.09944572299718857
1782986851673320000,9.36531982421875,0.05980228632688522,0.008092576637864113,0.08408834040164948
1782986851683394800,9.375394775390625,0.05845168977975845,0.0006767031736671925,0.060623474419116974
1782986851693469000,9.385468994140625,0.05921974778175354,-0.007420371752232313,0.036567673087120056
1782986851703543800,9.395543701171874,0.060722384601831436,-0.008105132728815079,0.016136910766363144
1782986851713618000,9.405617919921875,0.05748504400253296,-0.008166385814547539,-0.0027672704309225082
1782986851723693000,9.415693115234374,0.059335872530937195,-0.011143998242914677,-0.01226645428687334
1782986851733767000,9.425766845703125,0.0650334432721138,-0.01285215001553297,-0.01915552094578743
1782986851743842000,9.435842041015626,0.055842332541942596,-0.024494517594575882,-0.027322718873620033
1782986851753916000,9.445916015625,0.04360217601060867,-0.02731214091181755,-0.029811175540089607
1782986851763991000,9.455990966796875,0.030885854735970497,-0.011125268414616585,-0.03046853467822075
1782986851774065000,9.46606494140625,0.02470226027071476,-0.0016369582153856754,-0.031704775989055634
1782986851784139000,9.476138916015625,0.022479211911559105,0.001667453208938241,-0.026956375688314438
1782986851794214000,9.4862138671875,0.023983098566532135,-0.004358747508376837,-0.01661798357963562
1782986851804288000,9.4962880859375,0.028954895213246346,-0.01058798748999834,-0.0080597884953022
1782986851814363000,9.50636279296875,0.0341094434261322,-0.02241162396967411,-0.000755004002712667
1782986851824437000,9.51643701171875,0.03348260745406151,-0.02545248717069626,-0.0005486561567522585
1782986851834512000,9.526511962890625,0.0361979641020298,-0.013233371078968048,0.0038695279508829117
1782986851844586200,9.536586181640626,0.035514507442712784,-0.003257820149883628,-0.004420212935656309
1782986851854660900,9.546660888671875,0.04333541542291641,0.005272550508379936,-0.011838448233902454
1782986851864735200,9.5567353515625,0.042437594383955,0.01361203845590353,-0.014683721587061882
1782986851874809900,9.566809814453125,0.04218725860118866,0.013383804820477962,-0.013873055577278137
1782986851884884200,9.57688427734375,0.04409123212099075,0.01690053753554821,-0.007677442394196987
1782986851894958000,9.5869580078125,0.039652805775403976,0.018681392073631287,0.003962968476116657
1782986851905033200,9.597033203125,0.03577238693833351,0.02356334589421749,0.018511148169636726
1782986851915107000,9.607107177734376,0.024968739598989487,0.01001184992492199,0.021769525483250618
1782986851925182200,9.61718212890625,0.0185380969196558,-0.006041120737791061,0.009820214472711086
1782986851935256000,9.627256103515625,0.024176541715860367,-0.011285684071481228,0.0009907702915370464
1782986851945331200,9.637331298828125,0.024110501632094383,0.0022633280605077744,-0.012493439018726349
1782986851955405000,9.647405029296875,0.022073449566960335,0.01794961467385292,-0.027647623792290688
1782986851965480200,9.657480224609374,0.02681608870625496,0.042317211627960205,-0.029083654284477234
1782986851975554000,9.667553955078125,0.03036794625222683,0.046523671597242355,-0.020659809932112694
1782986851985629200,9.677629150390626,0.028430132195353508,0.03652248904109001,-0.009445173665881157
1782986851995703000,9.687703125,0.019069386646151543,0.016086457297205925,0.0010056027676910162
1782986852005778200,9.697778076171875,0.014522056095302105,-0.010105190798640251,0.0030197405721992254
1782986852015852000,9.70785205078125,0.014796360395848751,-0.01773275062441826,0.006657885387539864
1782986852025927400,9.717927490234375,0.013424213975667953,-0.016334975138306618,-0.00212427438236773
1782986852036001800,9.728001708984374,0.017333202064037323,-0.021141448989510536,-0.008586169220507145
1782986852046076400,9.738076416015625,0.021917138248682022,-0.01914830505847931,-0.012002984061837196
1782986852056150800,9.74815087890625,0.021494494751095772,-0.0023874344769865274,-0.01569359377026558
1782986852066224600,9.758224609375,0.0235081035643816,0.01172776147723198,-0.019191207364201546
1782986852076299800,9.7682998046875,0.023862304165959358,0.030412232503294945,-0.019361915066838264
1782986852086373600,9.77837353515625,0.025147007778286934,0.03722495585680008,-0.020083272829651833
1782986852096448800,9.78844873046875,0.030802229419350624,0.027559809386730194,-0.014310872182250023
1782986852106522600,9.798522705078126,0.040555618703365326,0.015780411660671234,-0.0049149454571306705
1782986852116597800,9.80859765625,0.044643305242061615,0.007806108798831701,0.0029475048650056124
1782986852126671600,9.818671630859376,0.04578268527984619,0.0007036630995571613,0.0036728945560753345
1782986852136746800,9.828746826171875,0.053026746958494186,-0.01786096580326557,0.002537589054554701
1782986852146820600,9.838820556640625,0.055364128202199936,-0.02940339967608452,0.000007017421012278646
1782986852156895700,9.848895751953124,0.05652393400669098,-0.03168253228068352,-0.015004955232143402
1782986852166969600,9.858969482421875,0.05582024157047272,-0.026053793728351593,-0.02930864691734314
1782986852177043700,9.869043701171876,0.04943717643618584,-0.0037905657663941383,-0.03862997516989708
1782986852187118600,9.87911865234375,0.03567907586693764,0.011613529175519943,-0.04575245827436447
1782986852197192700,9.889192626953125,0.021930772811174393,0.02633841335773468,-0.04020829126238823
1782986852207267600,9.899267578125,0.011905048973858356,0.023839397355914116,-0.030720699578523636
1782986852217341700,9.909341796875,0.0009216403122991323,0.0030957700219005346,-0.02533845044672489
1782986852227416800,9.919416748046874,0.0021259316708892584,-0.0017241922905668616,-0.005722590256482363
1782986852237490700,9.92949072265625,0.0003482716856524348,-0.003108503296971321,0.0027316140476614237
1782986852247565800,9.93956591796875,-0.0024516989942640066,-0.013786157593131065,0.010454020462930202
1782986852257639700,9.9496396484375,-0.004885561764240265,-0.013773107901215553,0.016871172934770584
1782986852267713500,9.959713623046875,-0.006381270010024309,-0.010714758187532425,0.026305649429559708
1782986852277788700,9.96978857421875,-0.010458303615450859,-0.019988417625427246,0.028656689450144768
1782986852287862500,9.979862548828125,-0.008149508386850357,-0.005957964342087507,0.03539033606648445
1782986852297937700,9.989937744140626,-0.013240140862762928,0.017331378534436226,0.04261282831430435
1782986852308011500,10.000011474609375,-0.01964726857841015,0.015959642827510834,0.0385422520339489
1782986852318086700,10.010086669921876,-0.01917615532875061,0.0030840574763715267,0.02832103706896305
1782986852328160500,10.020160400390624,-0.015330208465456963,-0.004239609465003014,0.011070449836552143
1782986852338235600,10.030235595703125,-0.012748805806040764,0.001313081244006753,-0.009036149829626083
1782986852348309800,10.040309814453124,-0.011798851191997528,0.017658943310379982,-0.025749973952770233
1782986852358384600,10.050384521484375,-0.011132261715829372,0.020254194736480713,-0.03938695788383484
1782986852368458800,10.060458740234376,-0.009238672442734241,0.00380565132945776,-0.040650684386491776
1782986852378532600,10.07053271484375,-0.008706307038664818,-0.003891150699928403,-0.024686364457011223
1782986852388607700,10.080607666015625,-0.010739877820014954,-0.006235081236809492,-0.001392326783388853
1782986852398681600,10.090681640625,-0.013432066887617111,-0.019810544326901436,0.022531114518642426
1782986852408756700,10.1007568359375,-0.009925300255417824,-0.025329086929559708,0.03698334842920303
1782986852418830600,10.11083056640625,-0.0038221338763833046,-0.020087454468011856,0.02975047007203102
1782986852428905700,10.12090576171875,0.0006773466011509299,-0.006707263644784689,0.020214440301060677
1782986852438979600,10.1309794921875,0.004013754893094301,0.0048479256220161915,0.0026964328717440367
1782986852449054700,10.1410546875,0.020049989223480225,0.012994361110031605,-0.011713315732777119
1782986852459128600,10.151128662109375,0.0331367589533329,0.0028847353532910347,-0.027836892753839493
1782986852469203700,10.16120361328125,0.029530495405197144,-0.0062608541920781136,-0.04692113772034645
1782986852479277600,10.171277587890625,0.02740795724093914,-0.006252065300941467,-0.06190328299999237
1782986852489351700,10.1813515625,0.025449734181165695,0.0054432060569524765,-0.06171020492911339
1782986852499426600,10.191426513671875,0.014554476365447044,0.028375687077641487,-0.048572830855846405
1782986852509500700,10.201500732421875,-0.0008911733748391271,0.026651695370674133,-0.04249826446175575
1782986852519575600,10.211575439453124,-0.0024877386167645454,0.02068035677075386,-0.034569501876831055
1782986852529649700,10.221649658203125,0.00012093840632587671,0.016901012510061264,-0.03356423228979111
1782986852539724500,10.231724609375,0.004818221554160118,0.011771764606237411,-0.04176676645874977
1782986852549798700,10.241798583984375,0.01154253538697958,0.02197658270597458,-0.06271801143884659
1782986852559873500,10.25187353515625,0.007317963056266308,0.035606905817985535,-0.09890131652355194
1782986852569947600,10.26194775390625,0.013276582583785057,0.06036669388413429,-0.12971368432044983
1782986852580022500,10.2720224609375,0.035761650651693344,0.08726328611373901,-0.15524806082248688
1782986852590096600,10.2820966796875,0.045134034007787704,0.07630417495965958,-0.18190759420394897
1782986852600170500,10.29217041015625,0.007087047677487135,0.0842454582452774,-0.14028824865818024
1782986852610245600,10.30224560546875,-0.029719972983002663,-0.00040116487070918083,-0.10337114334106445
1782986852620319500,10.312319580078125,-0.011872533708810806,-0.04133262112736702,-0.04800669476389885
1782986852630394600,10.32239453125,-0.006728926207870245,-0.03951200097799301,-0.015455302782356739
1782986852640468500,10.332468505859374,-0.02555960603058338,-0.011784236878156662,-0.0146491639316082
1782986852650543600,10.342543701171875,-0.06550628691911697,0.03622890263795853,-0.025995519012212753
1782986852660617500,10.352617431640626,-0.12105503678321838,0.11450958997011185,0.01567230001091957
1782986852670692600,10.362692626953125,-0.15055763721466064,0.20901936292648315,0.1023968756198883
