time,seconds_elapsed,z,y,x
1782984676034154000,0.068154052734375,0.07178396422863006,0.008143558967113494,-0.10471482238187454
1782984676044228000,0.07822802734375,0.13690145630538464,0.005817161846160888,-0.10032284363377839
1782984676054302000,0.088302001953125,0.12151391755938529,-0.013764905980229378,-0.018888192394271027
1782984676064376000,0.0983759765625,0.13217793491482735,-0.006980944928526878,-0.016710629159479868
1782984676074451000,0.108450927734375,0.1332902800709009,-0.0047165071278810495,-0.04045724876981694
1782984676084525000,0.118525146484375,0.06786299139261245,-0.018791794231534004,-0.016918944997782816
1782984676094599000,0.128598876953125,-0.032522797942161556,-0.00973930372595787,-0.026340727756766134
1782984676104673000,0.138673095703125,-0.07465279766321181,0.02006897456049919,-0.04354189864585641
1782984676114747100,0.1487470703125,-0.10888064595758914,-0.014438859719038008,-0.039579456721711904
1782984676124822000,0.158822021484375,-0.1387333479076624,-0.027008418434858322,-0.0331379935313249
1782984676134896000,0.168896240234375,-0.02001929019987583,-0.01437865396440029,0.007709556030598468
1782984676144970000,0.178969970703125,0.10127367808520793,-0.01701250959932804,0.02422162812738679
1782984676155044000,0.189044189453125,0.11931085455715655,-0.011812602868676185,0.010546117463661357
1782984676165118000,0.199117919921875,0.08122574631273746,0.028453941068053244,-0.004943959208205342
1782984676175193000,0.209193115234375,0.09039046502113342,0.04107902936339378,-0.03864603006280958
1782984676185267000,0.219266845703125,0.15746493638455866,0.07958733145594596,-0.06352347805069293
1782984676195341000,0.229341064453125,0.17716449311077595,0.06204641406834125,-0.01500550802531652
1782984676205415000,0.239414794921875,0.11036474703550338,0.0846352624952793,-0.004891395620617549
1782984676215489000,0.249489013671875,0.10270984836816788,0.10427870512008666,-0.023763655226817355
1782984676225563100,0.259563232421875,0.09975041404068469,0.07633563618361949,-0.033026450315094553
1782984676235638000,0.269637939453125,0.06937573404312133,0.04031389020979404,-0.04662848018407821
1782984676245712100,0.279712158203125,0.06174889242649078,0.05005728558897972,-0.05122359398857224
1782984676255786000,0.289785888671875,0.03126958301067352,0.05421089813709259,-0.04771517944224179
1782984676265860000,0.299860107421875,0.011241524982452391,0.052986324778199194,-0.06694463900525588
1782984676275934000,0.309933837890625,0.047691140979528424,0.07370119602680206,-0.05697730781023856
1782984676286009000,0.320009033203125,0.10676818384826182,0.05504968704879284,-0.055653452495066445
1782984676296083000,0.3300830078125,0.1613812330454588,0.04250175564289093,-0.04639254340319894
1782984676306157000,0.340156982421875,0.1569189929395914,0.022226444855332372,-0.08839669738803059
1782984676316231000,0.35023095703125,0.12219663912653922,0.012354454660415648,-0.0993984405315481
1782984676326305000,0.360304931640625,0.03670096040964126,0.005972060146927833,-0.1152833982725162
1782984676336380000,0.3703798828125,-0.07250935589373111,0.023862521624565123,-0.11476812396044843
1782984676346454000,0.3804541015625,-0.08654372646510601,0.05192424850463867,-0.08373723594332114
1782984676356528000,0.390528076171875,-0.0517442157626152,0.03531681257486343,-0.07365825650079641
1782984676366602000,0.40060205078125,-0.03507248242497444,0.0226958159327507,-0.08763939448101446
1782984676376676000,0.410676025390625,-0.027995091384649274,0.017013094121217726,-0.07122948585075792
1782984676386751000,0.4207509765625,-0.04383095842003822,0.021861703196167946,-0.09038798080310224
1782984676396825000,0.4308251953125,-0.07759411181211472,0.022076807251572607,-0.07444669889817014
1782984676406899000,0.44089892578125,-0.039321956562995905,0.03367898223996162,-0.04036070675989613
1782984676416973000,0.45097314453125,0.02061842513680458,0.010537176105380058,-0.04307871984720695
1782984676427047000,0.461046875,0.07195581366419791,-0.0019008651852607725,-0.09018046639910898
1782984676437122000,0.4711220703125,0.10871522626280784,-0.011820786175131798,-0.07813874921598471
1782984676447196000,0.48119580078125,0.13698036676049233,0.010367664757370948,-0.0762868240392534
1782984676457270300,0.491270263671875,0.1156231059551239,-0.01980184805691242,-0.12869804777665994
1782984676467344100,0.50134423828125,0.04975801038146019,-0.033707039290666575,-0.18950033440226688
1782984676477418000,0.51141796875,-0.06409574781358242,0.018873627296090125,-0.21366247829422352
1782984676487493000,0.5214931640625,-0.13909575147926806,0.08517769880890846,-0.1640706730588339
1782984676497567000,0.53156689453125,-0.13786357933580876,0.14155834220051763,-0.12343818188654258
1782984676507641000,0.54164111328125,-0.013131284251809119,0.15145195970535277,-0.06668799736306537
1782984676517715000,0.55171484375,0.13453414265215397,0.11871230414211749,-0.005220374129945412
1782984676527789000,0.5617890625,0.1945505121976137,0.07325871295630931,0.03793374447445385
1782984676537864000,0.571864013671875,0.09559621697068214,0.025362989315390584,0.004379485734348418
1782984676547938000,0.58193798828125,-0.11238836181759834,0.019005729243159294,-0.10061911403345875
1782984676558012000,0.592011962890625,-0.22791034548580646,-0.018544541472196578,-0.18287830418031661
1782984676568086300,0.602086181640625,-0.13819792585670948,-0.023188567885756493,-0.20338082958618178
1782984676578160000,0.61216015625,0.016523849299550055,0.044891281127929686,-0.151660323492717
1782984676588235300,0.6222353515625,0.05454115300476551,0.09568740238547324,-0.08666864975271746
1782984676598309000,0.63230908203125,-0.07516542336046696,0.13491291283667087,-0.06563515014215372
1782984676608383000,0.642383056640625,-0.17049743643701076,0.04404606247544288,-0.013270231498195789
1782984676618457000,0.65245703125,-0.053990533384680746,-0.004346504771709442,-0.007268966948025627
1782984676628531000,0.662531005859375,0.060389294511079786,0.0026367782443761823,0.05716763361741323
1782984676638606000,0.672606201171875,0.07605155854523181,-0.023545710760354995,0.09070063608200289
1782984676648680000,0.682679931640625,0.06531798308491707,-0.04378711927831173,0.05819868456504773
1782984676658754000,0.692754150390625,-0.07658522703051567,-0.06907879692316055,0.07771642301753164
1782984676668828000,0.702827880859375,-0.23069793037772177,-0.047589434170722957,0.02677231269062031
1782984676678902300,0.71290234375,-0.3375491163343191,-0.011789221993088721,-0.002251467579574091
1782984676688977000,0.722976806640625,-0.2634434311598539,-0.020246669214963913,0.08693289931262843
1782984676699051300,0.73305126953125,-0.14753449400067328,0.01856266165077686,0.1444423914705403
1782984676709125000,0.743125,-0.0900169555336237,0.0864484493970871,0.1557853675334714
1782984676719199000,0.753198974609375,-0.04110241023898124,0.10185761545300483,0.14270124689163638
1782984676729273000,0.763273193359375,0.010540683236718177,0.1408113232254982,0.13270910091577098
1782984676739348000,0.773347900390625,0.03796118960380554,0.1478390299052,0.10208139600520953
1782984676749422000,0.783422119140625,0.08466448858976364,0.11553016697466373,0.0938100094073452
1782984676759496000,0.793495849609375,0.029127894806861877,0.13900865771770476,0.11016202753763646
1782984676769570000,0.803570068359375,-0.09744798231720923,0.16828969725966453,0.03214873589880299
1782984676779644000,0.813643798828125,-0.28745500586628914,0.18735154060423373,0.03818214572797296
1782984676789719000,0.823718994140625,-0.4610772963255644,0.14392156420052052,0.016269975003181024
1782984676799793000,0.83379296875,-0.3714157301008701,0.10442191298305988,-0.038035515215341
1782984676809867300,0.8438671875,-0.17683190015554426,0.11754150679707527,-0.018212391474959438
1782984676819941000,0.853941162109375,-0.020965046617388725,0.12215104641914366,0.03487269923628773
1782984676830015000,0.864014892578125,0.12412848397195339,0.07869593557417393,0.10199952640803531
1782984676840089000,0.874089111328125,0.21977906147837636,0.07582593309581279,0.14385239882129244
1782984676850164000,0.8841640625,0.10992518657445907,0.045083004307746886,0.060359666557796295
1782984676860238000,0.894238037109375,0.09410217902064323,-0.03215454915165901,-0.11048277479144744
1782984676870312000,0.90431201171875,0.20832477052807807,-0.05394610972106456,-0.16483418651092796
1782984676880386000,0.914385986328125,0.3804179517239332,-0.0793161132991314,-0.12140884974971412
1782984676890461000,0.9244609375,0.6913777518182993,-0.11933014377951622,-0.10326587481573224
1782984676900535000,0.93453515625,0.8938684093654156,-0.2173644015520811,0.014042960303206927
1782984676910609000,0.94460888671875,0.6719207716763019,-0.11686287688314914,0.13975595982051453
1782984676920683300,0.954683349609375,-1.6958511467158794,0.5025590612709522,0.2918198500122875
1782984676930757000,0.964757080078125,-1.5007687195986508,0.8875988275766372,-0.18034250209238378
1782984676940831000,0.9748310546875,-0.2750356692761183,0.5525111329197884,0.2082867583389394
1782984676950906000,0.984906005859375,0.09805179342925548,0.21974223659932612,0.3883686915326863
1782984676960980000,0.99497998046875,0.26470541391968727,0.1371112996637821,0.09835410084407777
1782984676971054000,1.00505419921875,0.18680501263737678,-0.010342530316114425,-0.21188797943498938
1782984676981128000,1.0151279296875,0.19450901114344596,-0.11544658034443854,-0.3334504488438368
1782984676991202000,1.0252021484375,0.423238856318593,-0.09373802188336848,-0.47261532003656026
1782984677001277000,1.03527685546875,0.7804834377259016,-0.13342004393041132,-0.4624117232671007
1782984677011351000,1.04535107421875,0.958995253792405,-0.21591128013432023,-0.23115477076712995
1782984677021425000,1.0554248046875,1.0534089829802513,-0.1927338181644678,-0.12669807873163372
1782984677031498200,1.065498291015625,1.0063128852844239,-0.0824614255875349,-0.014210243161511607
1782984677041572400,1.075572265625,0.7710124295473099,-0.012215922972559929,0.09930096237328834
1782984677051647200,1.085647216796875,0.4496177446782589,-0.018040099081397056,0.1513632037096657
1782984677061721300,1.095721435546875,0.010707271975278853,-0.0820692113995552,0.12242562557682395
1782984677071795200,1.105795166015625,-0.3469914829403162,-0.10878536888957023,0.03160365553693845
1782984677081869300,1.115869384765625,-0.5533201112151146,-0.09306523718833923,-0.006703507093479857
1782984677091943200,1.125943115234375,-0.6078396369099617,-0.1646095474421978,0.004544146235659718
1782984677102018300,1.136018310546875,-0.614206249332428,-0.2846878792405128,0.01689196109273471
1782984677112092200,1.146092041015625,-0.684071228197217,-0.32780864356458184,0.004981615204317495
1782984677122166300,1.156166259765625,-0.6634136400938033,-0.30098259595930577,-0.06901849983697757
1782984677132240400,1.166240478515625,-0.5239478862583636,-0.2605249133646488,-0.09687136060618795
1782984677142314200,1.176314208984375,-0.44845571516156196,-0.18182547065913676,-0.05872531595476903
1782984677152389400,1.186389404296875,-0.3090717943906784,-0.033223639687895774,-0.0837544519396033
1782984677162463200,1.196463134765625,-0.10195698417425154,0.07951543526351451,-0.1296252547573298
1782984677172537300,1.206537353515625,0.14360066168308258,0.10348433987200259,0.015251016352139412
1782984677182611200,1.216611083984375,0.3553390400469303,0.12803309019505976,0.14677586678625085
1782984677192685300,1.226685302734375,0.38187516479492184,0.12925474094450473,0.09801345244655385
1782984677202760200,1.23676025390625,0.21067864017784593,0.11407353842556477,-0.10004177080322987
1782984677212834300,1.246834228515625,-0.011710311537981032,0.17121289122998715,-0.17233035095259547
1782984677222908200,1.256908203125,-0.23825053771436214,0.2665197698652744,-0.07113888039127923
1782984677232982300,1.266982177734375,-0.4270575378239155,0.2753507265746593,-0.04189089373555034
1782984677243056400,1.277056396484375,-0.5388321516573429,0.2562199096471071,-0.04668547563489992
1782984677253131300,1.28713134765625,-0.4628706094831228,0.2262958960264921,-0.035568960705026985
1782984677263205400,1.297205322265625,-0.29148820690512656,0.15394436104297637,-0.07613511777599341
1782984677273279200,1.307279296875,-0.1963023243010044,0.10735270573794842,-0.027719123987480998
1782984677283353300,1.317353271484375,-0.0005506196200847625,0.1773141307145357,-0.017209551700012524
1782984677293427200,1.32742724609375,0.1962584851592779,0.25342647953629494,0.005523833463882329
1782984677303502300,1.33750244140625,0.2957090394705534,0.21912322791814803,0.0559770310267806
1782984677313576200,1.347576171875,0.3003711860626936,0.21432839485704896,0.08795341973309405
1782984677323650300,1.357650390625,0.31571371662318704,0.30106618258953094,0.12030406684558838
1782984677333724200,1.36772412109375,0.34371231513917444,0.28928280581533905,0.14996696357829495
1782984677343798300,1.37779833984375,0.25651333963572975,0.22064883005023,0.13569983456381596
1782984677353873200,1.387873046875,0.18731120859384537,0.22098726822435855,0.07119244177599902
1782984677363947300,1.397947265625,0.15819500422477722,0.19695348168611526,-0.03809176403078018
1782984677374021400,1.408021484375,0.09488017765581608,0.20351941607296464,-0.11352949467673897
1782984677384095200,1.41809521484375,0.06255670167803765,0.24177520470917224,-0.09694445324186235
1782984677394169300,1.42816943359375,0.08946925852298736,0.26298399695456026,-0.053155854392517354
1782984677404244200,1.438244140625,0.15916238795220852,0.283195594856143,0.02288330132886767
1782984677414318300,1.448318359375,0.2326794595837593,0.23678455681502816,0.054437866160226986
1782984677424392200,1.45839208984375,0.21034780078828333,0.16360007813870905,0.08870808315845206
1782984677434466300,1.46846630859375,0.23433014940023422,0.13801497050523756,0.10299750620312988
1782984677444540200,1.4785400390625,0.23161095356941222,0.11542261494696139,0.07463054473220836
1782984677454615300,1.488615234375,0.14741291344761848,0.12468027263581752,0.04846291993646882
1782984677464689200,1.498689208984375,0.06771510735452174,0.1504091726541519,0.02445882071701344
1782984677474763500,1.508763427734375,-0.010828852528333663,0.13170330314040182,0.007578094545990461
1782984677484837400,1.51883740234375,-0.07626490903496742,0.09009937312006949,0.021201634135528
1782984677494911200,1.5289111328125,-0.12771218767762182,0.0495481670230627,0.07820342108318581
1782984677504986400,1.538986328125,-0.12359715357422828,0.019936288091540334,0.10589173894044943
1782984677515060200,1.549060302734375,-0.05103460618853569,0.009202712631225586,0.06455399927536491
1782984677525134300,1.55913427734375,0.051879824841022486,0.0010486322700977325,0.08029829273689537
1782984677535208200,1.569208251953125,0.2123018574655056,-0.0051531449794769285,0.10790314269494265
1782984677545282300,1.5792822265625,0.2896270892083645,0.02885141595304012,0.0867617531299591
1782984677555357200,1.589357177734375,0.25178631111383437,0.015892565658688546,0.11458945205844938
1782984677565431300,1.599431396484375,0.2856523403584957,0.04876958386600017,0.09133130780151114
1782984677575505200,1.609505126953125,0.3203162419825792,0.05905600008070468,0.017401084225228985
1782984677585579500,1.61957958984375,0.2818202148497104,0.030464696368575093,0.026802881358820013
1782984677595653400,1.6296533203125,0.20876900716423988,0.03642740416526794,0.0074973334854468695
1782984677605728500,1.639728515625,0.11834347082972525,0.004683773902058601,-0.026370403659110888
1782984677615802400,1.64980224609375,0.08319266247153281,-0.06304477745592593,-0.01825166860600002
1782984677625876200,1.659876220703125,0.07375731012821198,-0.11801146239638328,0.028799553335062227
1782984677635950300,1.669950439453125,0.047186114066839216,-0.1327338152319193,0.08126382243395783
1782984677646024200,1.680024169921875,-0.031761750441789624,-0.13777940818369389,0.060007336855633184
1782984677656098300,1.690098388671875,-0.02379120995402336,-0.13607728044092654,0.0464614621872548
1782984677666173200,1.700173095703125,0.09277531433105468,-0.08131634720563888,0.03123037437829189
1782984677676247300,1.710247314453125,0.25271044022142886,-0.05761398457884788,0.01594376612296328
1782984677686321200,1.720321044921875,0.4386772484689951,-0.05176116689741611,0.09950928962803446
1782984677696395500,1.7303955078125,0.532047021561861,-0.10042495230138301,0.15237221635542808
1782984677706469400,1.740469482421875,0.40424481751322744,-0.12333587228953838,0.19224340429902076
1782984677716544500,1.75054443359375,0.276192438095808,-0.13348492586016655,0.19237349695209413
1782984677726618400,1.760618408203125,0.1360971541851759,-0.09934007967412471,0.1756358222387731
1782984677736692200,1.770692138671875,0.024358780708909032,-0.038404841718077655,0.19146346943508832
1782984677746766300,1.780766357421875,-0.1071568909049034,-0.032550270470976826,0.2170870459154248
1782984677756840200,1.790840087890625,-0.25162907472550866,-0.06263970378637314,0.13352131234779954
1782984677766915300,1.800915283203125,-0.6155681853353977,-0.14619827696084975,0.05443540934165939
1782984677776989200,1.8109892578125,-1.0118225886166095,-0.24657471394538877,-0.012324360916251316
1782984677787063300,1.821063232421875,-1.0939560974240303,-0.21710545835494993,-0.18646023605400694
1782984677797137200,1.83113720703125,-1.0385597888946532,-0.14714286433458326,-0.28560740523822603
1782984677807211500,1.84121142578125,-0.8977741846323013,-0.09162672881782054,-0.24623510672748086
1782984677817286100,1.8512861328125,-0.7872258977234363,-0.10306173054575919,-0.20501608437150715
1782984677827360500,1.861360595703125,-0.7494938407003879,-0.09362053298354148,-0.20612948897350578
1782984677837434400,1.871434326171875,-0.4871089786827564,-0.002289572241902351,-0.2312935581833124
1782984677847508200,1.88150830078125,-0.10479776055812835,0.0817640909731388,-0.16993158271517603
1782984677857582300,1.891582275390625,0.25907296099066734,0.1566401759982109,-0.07853135612960904
1782984677867657200,1.9016572265625,0.4339367759436369,0.20804361549913883,-0.07908888041451573
1782984677877731300,1.9117314453125,0.33255788391828534,0.26474457688629627,-0.09504758837828411
1782984677887805200,1.92180517578125,0.08002104669809341,0.31985154708027835,-0.10917041355124674
1782984677897879300,1.93187939453125,-0.10630173538029193,0.3955483008384704,-0.062380897586559875
1782984677907953200,1.941953125,-0.18686638743579387,0.4516957199960947,-0.012687531672837211
1782984677918028300,1.9520283203125,-0.13134265313446522,0.5278711971819401,0.0361731097437907
1782984677928102100,1.96210205078125,0.03429682187736034,0.6046358724325895,0.05850160846780054
1782984677938176500,1.972176513671875,0.2873036146968603,0.6041507192641496,0.014703506571170873
1782984677948250400,1.98225048828125,0.4821978257656097,0.5202309115618468,-0.017991487866430542
1782984677958324200,1.99232421875,0.6206587864726781,0.4684557161390781,-0.004557695270399563
1782984677968399400,2.0023994140625,0.6527765107452869,0.47836570025682446,-0.052466424523363815
1782984677978473200,2.01247314453125,0.48399698414206505,0.37951661897003647,0.04053063823301345
1782984677988547300,2.02254736328125,0.4729220478981733,0.21531799041628835,0.08509114390346222
1782984677998621200,2.03262109375,0.3072919252365827,-0.1411900934100151,0.011056898263702169
1782984678008695300,2.0426953125,0.1920458359003067,-0.3533382216185331,-0.04465136229167692
1782984678018769200,2.05276904296875,0.37838556911349297,-0.2784188819736242,-0.24901498323697596
1782984678028844300,2.06284423828125,0.4034942914068699,-0.09720072955787182,-0.32717001686748115
1782984678038919200,2.072919189453125,0.1855412763118744,-0.04676934995949268,-0.36204778043795377
1782984678048993000,2.082992919921875,-0.038726913279294964,-0.06924012496471404,-0.30424517795182765
1782984678059067100,2.093067138671875,-0.027286650854349136,-0.039411972934007646,-0.2555216617172584
1782984678069141200,2.103141357421875,0.029798925936222076,-0.022817981007695196,-0.14864620896908454
1782984678079216000,2.113216064453125,0.018204934254288672,-0.0906657748311758,-0.0021827828326029704
1782984678089290200,2.123290283203125,0.07590133641958237,-0.11213818644881247,0.08541772724301554
1782984678099364000,2.133364013671875,0.06930149976313114,-0.10667115321457385,0.16360595989022403
1782984678109438200,2.143438232421875,0.03396832057535648,-0.09661913027763366,0.09774080951763317
1782984678119512000,2.153511962890625,-0.07868950583338737,-0.05045768308341503,-0.07988373885294422
1782984678129587200,2.163587158203125,-0.3244371213048696,-0.038140637823939325,-0.14478213568576612
1782984678139661000,2.1736611328125,-0.41086218982636924,0.016315174984931943,-0.10582714927163905
1782984678149735200,2.183735107421875,-0.3032359278440475,0.026250878065824507,-0.10182446210207417
1782984678159809000,2.19380908203125,-0.11386018793582915,0.07624971146583556,-0.008806991311907767
1782984678169883100,2.203883056640625,0.06524024167358874,0.11569266405999659,0.1667621040998958
1782984678179958000,2.2139580078125,0.12680559422671794,0.12777356247603894,0.27030544415013863
1782984678190032100,2.2240322265625,0.15268471637070177,0.055039750176668165,0.2140031814906746
1782984678200106200,2.234106201171875,0.1853267567783594,0.008452771046757698,0.11434586169407703
1782984678210180000,2.24418017578125,0.22233926735520362,0.011069675546884535,0.12691751190228387
1782984678220254200,2.254254150390625,0.20088146878480911,0.022044658547639845,0.1290420115092769
1782984678230329000,2.2643291015625,0.18115151692032813,0.04103928187489509,0.12237695499635301
1782984678240403200,2.2744033203125,0.11347732609808445,0.01745557719171047,0.09516637418605386
1782984678250477000,2.28447705078125,0.06744447371959686,-0.0014309095859527587,0.010091079730627825
1782984678260551200,2.29455126953125,0.09431494498848915,0.05564414581060409,-0.04474596807283815
1782984678270625000,2.304625,0.0022165070056915284,0.022739655074477193,-0.056320346305426205
1782984678280700200,2.3147001953125,-0.157777655595541,-0.020155483800172805,-0.08083950520781799
1782984678290774000,2.32477392578125,-0.15825930163264273,-0.0009960253000259398,-0.00917573557604337
1782984678300848000,2.33484814453125,-0.04816168110072613,0.01741115352809429,0.15294159547490999
1782984678310922200,2.344922119140625,0.040808395728468894,0.0050385786890983575,0.1871973364232108
1782984678320996000,2.35499609375,0.1289466979086399,0.04814180735647678,0.19046190944341942
1782984678331071200,2.3650712890625,0.19553250897228716,0.1550274801045656,0.1610850996430963
1782984678341145000,2.37514501953125,0.17126842080950735,0.17995675417780876,0.1042649597225245
1782984678351219200,2.38521923828125,0.09797989723682403,0.13032149339318275,-0.01907405665545957
1782984678361293000,2.39529296875,0.06630816316604614,0.10012801518142223,-0.10801807431150227
1782984678371367200,2.4053671875,0.03927402576804161,0.11721826619207858,-0.131332186539378
1782984678381442000,2.415442138671875,0.04742109186649322,0.10046177718043327,-0.10834679480921476
1782984678391516200,2.42551611328125,0.0038911622196435925,0.08464052319228649,-0.06993672892674803
1782984678401590000,2.435590087890625,-0.07942132723927497,0.08538812668919563,-0.08132261254964396
1782984678411664100,2.4456640625,-0.19331600196659565,0.021828969970345495,-0.05227037222830113
1782984678421738200,2.45573828125,-0.17438509152531623,-0.009517185407876967,-0.088225459873816
1782984678431812000,2.46581201171875,-0.07753858223259448,0.02068038445711136,-0.10101032357444055
1782984678441887200,2.47588720703125,-0.03977788363695144,0.05130523982346057,-0.10244748937124386
1782984678451961000,2.485961181640625,0.009207388806343078,0.06337561684548855,-0.10515511349528096
1782984678462035200,2.49603515625,0.03540449085831642,0.08686345993876457,-0.07838621203787624
1782984678472109000,2.506109130859375,0.013088614153861998,0.08314356263279915,-0.049372920054011046
1782984678482183200,2.51618310546875,-0.062336921447515486,0.0791068544626236,-0.02350392657839693
1782984678492258000,2.526258056640625,-0.05691548092067241,0.09297872794866562,-0.020025391147099433
1782984678502332200,2.536332275390625,0.0027262100934982297,0.12445289362072944,0.007685331479861633
1782984678512406000,2.546406005859375,0.014510171389579772,0.11609423059821128,-0.03307412309843348
1782984678522480000,2.556480224609375,-0.019573884519934654,0.11754793653786182,-0.11159860881255007
1782984678532554200,2.56655419921875,0.03034428485929966,0.13645488158166408,-0.11545821598330512
1782984678542629000,2.576629150390625,0.0463327121078968,0.12868775471150876,-0.07070390934038441
1782984678552703200,2.586703125,0.08172843513786793,0.12230711376368998,-0.02104853506620275
1782984678562777000,2.596777099609375,0.11026187118291854,0.07070493682026863,0.01976699593923986
1782984678572851200,2.606851318359375,0.09139233554005623,0.04555412895083427,0.03148613695435924
1782984678582925000,2.616925048828125,0.08615385036468505,0.044780806490778924,0.018386049275123512
1782984678593000200,2.627000244140625,0.07563771704733371,0.06769932526350021,0.0328753970723832
1782984678603074000,2.637073974609375,-0.014898293924331665,0.019817045626044274,0.06231534436994698
1782984678613148200,2.647148193359375,-0.054881929266452786,0.018815759629011154,0.03828561751889065
1782984678623222000,2.657221923828125,-0.07162380523085594,0.005216857865452766,0.005338018293399364
1782984678633296100,2.667296142578125,-0.1266296531379223,-0.007070376777648925,0.01670130649199709
1782984678643371000,2.67737109375,-0.14342062894105911,-0.02270750637054443,0.023570797252550253
1782984678653445000,2.687445068359375,-0.1466834301292896,-0.027642624685168263,0.010749830192083027
1782984678663519200,2.697519287109375,-0.20418518650531767,-0.03297171075344085,-0.0027507874123286454
1782984678673593000,2.707593017578125,-0.2348573881447315,-0.008579612296819687,-0.06729247062881477
1782984678683667200,2.717667236328125,-0.19937574039697645,0.04047638729512691,-0.09673751422660425
1782984678693742000,2.7277421875,-0.1476250948935747,0.057387774607539174,-0.06463276360000017
1782984678703816200,2.737816162109375,-0.07144143440127372,0.09384849652051926,-0.05021251268330961
1782984678713890000,2.74789013671875,-0.02600245626270771,0.10089081624746322,-0.09606933264145627
1782984678723964200,2.757964111328125,0.022523966497182846,0.08927227464616298,-0.11115905748466029
1782984678734038000,2.7680380859375,0.08846037374138832,0.062037646239995956,-0.08117620808258652
1782984678744112000,2.778112060546875,0.1298959614574909,0.06574585310816765,-0.05209477819937747
1782984678754187000,2.78818701171875,0.1471510476410389,0.08751169471442699,-0.02184241854038555
1782984678764261000,2.79826123046875,0.1347977620244026,0.09191372906565666,-0.015213364922604522
1782984678774335200,2.808335205078125,0.06906126126646996,0.07893442050516605,-0.03196718705312814
1782984678784409000,2.8184091796875,0.014962591332197189,0.08335165242552757,-0.06679927115123718
1782984678794484200,2.828484130859375,0.012429857984185218,0.10608020158410071,-0.10402206347789615
1782984678804558000,2.83855810546875,0.04126315375864505,0.06661445263624191,-0.07586069844851735
1782984678814632200,2.848632080078125,0.05935001459121704,0.04717033197581768,-0.04699838207555003
1782984678824706000,2.8587060546875,0.05278291116058826,0.08679682444334029,-0.04549606948751025
1782984678834780200,2.8687802734375,0.06129647248387336,0.07394201904535293,-0.12501845508161932
1782984678844854000,2.87885400390625,0.10167524462342262,0.07291852121651173,-0.09507325254250318
1782984678854929200,2.88892919921875,0.03863514334261417,0.037785833036899565,-0.04971918534156866
1782984678865003000,2.8990029296875,-0.07162906592786311,0.0221685771882534,-0.062177182574849575
1782984678875077000,2.9090771484375,-0.07861117990016937,0.024447628036141394,-0.042562765115126966
1782984678885151200,2.919151123046875,-0.010645312654972075,0.02210018812716007,0.0734180088709807
1782984678895225000,2.92922509765625,0.10826572892963886,0.025384616625308987,0.21701516798930243
1782984678905300200,2.93930029296875,0.1867477294921875,0.11401567075848579,0.26336258447598665
1782984678915374000,2.9493740234375,0.18153087162673473,0.14630758255422113,0.14292175777452065
1782984678925448200,2.9594482421875,0.12314064197838305,0.1279442428678274,0.05228724573128857
1782984678935522000,2.96952197265625,0.10690671553611755,0.10394494312107562,-0.010472984870435902
1782984678945596200,2.97959619140625,0.032124738535285,0.0774509039491415,-0.0030095684959669596
1782984678955671000,2.989671142578125,0.020745850908756254,0.10637538513839244,-0.008750598649284801
1782984678965745200,2.9997451171875,0.04842062429785728,0.06738309892117977,0.011208771207032259
1782984678975819000,3.009819091796875,0.10454466257989406,0.03661503569185733,0.014135388968657934
1782984678985893400,3.019893310546875,0.11354746872484683,-0.017508184161782264,-0.05584102008957415
1782984678995967200,3.02996728515625,0.08240589600801468,-0.07369184367656707,-0.10506758134230039
1782984679006042400,3.04004248046875,0.002543254742026329,-0.08655541690289974,-0.1339725449803285
1782984679016116200,3.0501162109375,-0.0689151307940483,-0.02075169612765312,-0.11922348680095747
1782984679026190000,3.060190185546875,-0.09129238229691981,0.021390578553080557,-0.08176060210810973
1782984679036264000,3.070263916015625,-0.0971095441430807,0.04471534003913402,-0.06078365042379591
1782984679046338000,3.080338134765625,-0.11152443846464156,0.04519640155434608,-0.05626364311554934
1782984679056413000,3.090412841796875,-0.10355798963010311,0.01714578059017658,-0.0512474726210814
1782984679066487000,3.100487060546875,-0.06568798544108867,0.028465046983957288,-0.05500705805004109
1782984679076561000,3.110560791015625,-0.016329203510284423,0.015871522870659828,-0.007459463431025506
1782984679086635000,3.120635009765625,-0.002710428002476692,-0.0021358429849147797,0.024833812058845068
1782984679096709000,3.130709228515625,0.044429508835077285,0.02550444361269474,-0.022266973228543065
1782984679106784000,3.140783935546875,0.09592413375079631,0.02276245142817497,-0.049181589599838475
1782984679116858000,3.150858154296875,0.02694002937376499,0.03231938432455063,-0.09159013226763345
1782984679126932200,3.16093212890625,-0.01959317374229431,0.06881167041957378,-0.13426957343183457
1782984679137006000,3.171006103515625,0.02178922248184681,0.10058043512403965,-0.1411191561988089
1782984679147080000,3.181079833984375,0.02994505640864372,0.10121639494001865,-0.08443589486512355
1782984679157155000,3.191155029296875,-0.0083393738001585,0.07973287740647793,-0.059592093418515284
1782984679167229000,3.20122900390625,0.020637714359164238,0.10168751958310604,-0.07993989862012676
1782984679177303000,3.211302978515625,0.005649988585710525,0.09588438626229763,-0.08304075071229598
1782984679187377000,3.221376953125,-0.0802519328445196,0.042560207831859584,-0.07726339115356094
1782984679197451000,3.231450927734375,-0.23448563222289084,0.03863514334261417,-0.07335114504669327
1782984679207525000,3.241525146484375,-0.24079963767528534,0.09755494982302189,-0.0383231365176849
1782984679217600000,3.25160009765625,-0.14781623355150222,0.12193535784184932,-0.025387169341999104
1782984679227674000,3.261674072265625,0.044268180793523786,0.11636077257990836,0.009305435503472109
1782984679237748200,3.271748291015625,0.15981529890298843,0.049722939068078995,0.011478765521140303
1782984679247822000,3.281822021484375,0.2663841607868671,0.03766016083061695,0.0027638912057853303
1782984679257896000,3.29189599609375,0.3187479697525501,0.05599018276929855,-0.027145114358654243
1782984679267971000,3.30197119140625,0.3117980044841766,0.06612053163945675,-0.02557053111884743
1782984679278045000,3.312044921875,0.3035346185296774,0.07018821946978569,0.011358512700424761
1782984679288119000,3.322119140625,0.2702081029891968,0.07841711863279342,-0.037457391100400125
1782984679298193000,3.33219287109375,0.20411796648800373,0.06089665951132774,-0.06460693960557691
1782984679308267000,3.34226708984375,0.0463631072461605,0.03175298261344433,-0.08240775917153804
1782984679318342000,3.352341796875,-0.05723287630677223,0.009759177470207214,-0.08749162917393259
1782984679328416000,3.362416015625,-0.04789513911902904,0.055418520361185074,-0.05336696269281674
1782984679338490000,3.372489990234375,-0.006890928557515144,0.06610884120166301,-0.04011405222218018
1782984679348564200,3.382564208984375,0.008578443253040312,0.0592296030819416,-0.019442613689927384
1782984679358638000,3.39263818359375,0.01553892991542816,0.014898293924331665,-0.01928695277075749
1782984679368713200,3.402713134765625,-0.05894377187788486,-0.01730886219739914,-0.029414449813414827
1782984679378787000,3.412787109375,-0.03305821999311447,0.010804302608966827,-0.026607744662498586
1782984679388861000,3.42286083984375,0.04829261400401592,0.02789455361962318,0.025633634366758633
1782984679398935000,3.43293505859375,0.14058978942930697,-0.002301262679696083,0.030025526349886783
1782984679409009000,3.4430087890625,0.2156172656238079,-0.02836743182837963,0.011564692522212863
1782984679419084000,3.453083984375,0.23507249220013618,-0.05359539658725261,-0.00928428197594476
1782984679429158000,3.463157958984375,0.20895430060327053,-0.0502846646040678,-0.013105072098318486
1782984679439232000,3.47323193359375,0.14499649995565414,-0.05999883388876914,-0.02522930733258836
1782984679449306000,3.48330615234375,0.02262216617465019,-0.05140519306659698,-0.07581320147840306
1782984679459380200,3.493380126953125,-0.11496201169788836,-0.040806057640910144,-0.10021997691434807
1782984679469455000,3.503455078125,-0.17673311595618724,-0.06253507436811924,-0.0494904272201471
1782984679479529200,3.513529296875,-0.23034137202501295,-0.08859715186357497,0.028324277673242613
1782984679489603000,3.52360302734375,-0.20372984395325183,-0.06547638851702213,0.10602866319310851
1782984679499677000,3.533677001953125,-0.05248305143117905,-0.02197743853032589,0.16760171499550341
1782984679509751000,3.5437509765625,0.08810030825734139,0.0030465280890464783,0.20299990397719664
1782984679519825000,3.553824951171875,0.1005646530330181,0.03337736894488334,0.14862316602021455
1782984679529900000,3.563900146484375,0.1293079324364662,0.08713350905179977,0.04438904439394828
1782984679539974000,3.573973876953125,0.16062719980776308,0.11172142234146594,-0.03731805569494608
1782984679550048000,3.584048095703125,0.08796586822271346,0.10650397995412349,-0.06982833664882927
1782984679560122000,3.5941220703125,-0.11058803439736366,0.09291150793135165,-0.05609041914022527
1782984679570196000,3.604196044921875,-0.10300561644434929,0.10402210001051425,-0.07653376627133693
1782984679580271000,3.61427099609375,0.004701894080638885,0.05626724614500999,-0.05111846681339666
1782984679590345200,3.62434521484375,0.06877075388729571,-0.02313888352513313,0.005774601346068084
1782984679600419000,3.634419189453125,0.07809446254968642,-0.054983051553368564,-0.016079528181708883
1782984679610493000,3.644492919921875,0.06370119553804397,-0.05696107362806797,-0.09827530911997891
1782984679620567000,3.654567138671875,0.03723872054815292,-0.04401508281528949,-0.09753187947468832
1782984679630642000,3.664641845703125,0.0150187054336071,-0.0007394201904535293,-0.055079041007440536
1782984679640716000,3.674716064453125,0.002711597046256065,0.035928806993365286,0.00299459297665453
1782984679650790000,3.684789794921875,-0.02335632566809654,0.10176526099443435,-0.009362484611576655
1782984679660864000,3.694864013671875,-0.04914133978784084,0.1152221239387989,-0.004521131827897625
1782984679670938000,3.704938232421875,-0.0931096608519554,0.08953472497463226,0.06080642851118464
1782984679681013000,3.715012939453125,-0.08291501457393169,0.08539338738620281,0.06652181048330384
1782984679691087000,3.725087158203125,-0.04447451702058315,0.06724047558009624,0.047808625312778165
1782984679701161200,3.7351611328125,0.02061784061491489,0.049121466043591494,0.002385123304557055
1782984679711235000,3.745235107421875,0.08671557590067386,0.0632820933431387,-0.037470474344259125
1782984679721309000,3.755308837890625,0.12122983992099762,0.05281505986452102,-0.0025193076108582318
1782984679731384000,3.765384033203125,0.09785130242109298,0.08681669818758964,-0.024805503846390638
1782984679741458000,3.7754580078125,0.08439677756428718,0.09713409406244754,-0.07756671234853565
1782984679751532000,3.785531982421875,0.020830022060871124,0.0967827964067459,-0.10278929767939261
1782984679761606000,3.79560595703125,-0.061411038774251935,0.10128946017622947,-0.09630857562427408
1782984679771680000,3.805679931640625,-0.13216273734569547,0.1099585043221712,-0.14241507776086218
1782984679781755000,3.8157548828125,-0.12442659013569354,0.11010989549160002,-0.11631256779031827
1782984679791829000,3.8258291015625,-0.06275660816431045,0.09937398194372653,-0.109649465772463
1782984679801903000,3.835903076171875,0.01427753167748451,0.07910100924372672,-0.08555064204083755
1782984679811977200,3.845977294921875,0.07349310623407364,0.053176294392347334,-0.07151288763571065
1782984679822051000,3.856051025390625,0.08594342248439789,0.07136135490238667,-0.03051497895081993
1782984679832126200,3.866126220703125,0.062244566988945,0.05076514159739017,0.007276800340498448
1782984679842200000,3.876199951171875,-0.028844401690363883,0.015430208843946455,-0.005002310361652052
1782984679852274000,3.88627392578125,-0.12415011128187178,0.01394435420036316,-0.0030024001113080883
1782984679862348000,3.89634814453125,-0.13491466640233993,0.01753974834382534,-0.02567690268632723
1782984679872422000,3.906421875,-0.07331365801393985,0.03287000394463539,0.024639743941603228
1782984679882496000,3.91649609375,0.01476911458671093,0.019635843840241432,0.005475862711376976
1782984679892571000,3.92657080078125,0.06839958248734473,0.01660509784221649,-0.00900099093049066
1782984679902645000,3.93664501953125,0.010624854388833045,0.02305705046057701,-0.0884302525977604
1782984679912719000,3.946718994140625,-0.010492752441763877,0.0476093079149723,-0.15242305149352178
1782984679922793000,3.95679296875,0.030285248148441312,0.046021161940693854,-0.12672283871355466
1782984679932867000,3.9668671875,0.0277805718511343,0.05567454094886779,-0.09698586296448483
1782984679942942200,3.976942138671875,0.025660510957241058,0.13121464284062384,-0.11939983888170681
1782984679953016000,3.98701611328125,0.02665244460403919,0.16426584857106208,-0.12984218544363973
1782984679963090000,3.99708984375,0.04316343442201614,0.1588970150142908,-0.08455022369348443
1782984679973164000,4.0071640625,0.09166647630631923,0.12976912020742892,-0.04627002213522791
1782984679983238000,4.01723779296875,0.11675707842111586,0.0918903481900692,-0.008409648857661522
1782984679993313000,4.02731298828125,0.07476853299736977,0.09386486313343048,0.006508742573205381
1782984680003387000,4.037386962890625,-0.00029927520751953123,0.07368658297955989,0.02493049791594967
1782984680013461000,4.0474609375,-0.10689970127344131,0.028721067571640013,-0.013406014106539077
1782984680023535000,4.05753515625,-0.2110293533116579,0.024726444977521893,-0.02809383448481094
1782984680033609000,4.06760888671875,-0.28779870473742486,0.05651391438245773,-0.05407486893357709
1782984680043684000,4.07768408203125,-0.36073885326385496,0.09101941057443619,-0.06498289677849971
1782984680053758000,4.087758056640625,-0.3174105836689472,0.09889876564741135,-0.010221479486022145
1782984680063831800,4.097831787109375,-0.1309901864349842,0.10563421138226985,0.0585651569569949
1782984680073906000,4.107906005859375,0.08722586351037025,0.09974398429989814,0.05810652646929956
1782984680083979800,4.117979736328125,0.2389759293794632,0.07222995443046093,0.03396242055753246
1782984680094055000,4.128054931640625,0.27723639419078827,0.05083645326793194,0.019705420211423186
1782984680104128800,4.138128662109375,0.26531623929440973,0.013003273957967758,0.10141864864700473
1782984680114203000,4.148202880859375,0.24277765974998472,-0.028855507606267927,0.17921446617683395
1782984680124277000,4.158277099609375,0.28152093964219094,0.009070610684156417,0.24336888537509366
1782984680134351000,4.16835107421875,0.3347095089942217,0.043323593419790266,0.30954752214364706
1782984680144426000,4.178426025390625,0.4467413124591112,0.07065232985019683,0.3317806159354746
1782984680154500000,4.1885,0.49207741474509237,0.0720826549142599,0.26222561633531005
1782984680164574000,4.198573974609375,0.4092576772391796,0.07329787592291831,0.15009497387213633
1782984680174647800,4.208647705078125,0.19812135642170906,0.087384853464365,-0.007155890503479167
1782984680184722000,4.218721923828125,0.013334697869420051,0.09863339270949363,-0.07715062409462407
1782984680194796800,4.228796875,-0.09816811328530312,0.09617840077280998,-0.08826064078505151
1782984680204871000,4.238870849609375,-0.13009528342187404,0.0767448015064001,-0.057908821073267606
1782984680214944800,4.24894482421875,-0.148366853171587,0.023227730852365493,-0.01905559626687318
1782984680225019000,4.259018798828125,-0.10784253508150576,-0.03272679608166218,-0.005061904765758663
1782984680235093000,4.269093017578125,-0.09893734409213066,-0.06818564747571945,-0.022547018579207358
1782984680245167900,4.27916796875,-0.05674889218211174,-0.10912380706369876,-0.05150624228827655
1782984680255242000,4.289241943359375,0.009909399595856665,-0.10810790801942348,-0.09451668723882176
1782984680265316000,4.299316162109375,0.07317337276041508,-0.08932312805056572,-0.0645474645033013
1782984680275390000,4.309389892578125,0.08739420581459999,-0.04857026190161705,-0.019901965696830302
1782984680285463800,4.3194638671875,0.08926116873025894,-0.013869535398483275,-0.00212913011633791
1782984680295538000,4.329537841796875,0.04033376395404339,-0.016721417698264122,0.00575455407188274
1782984680305612800,4.33961279296875,-0.12841653655469418,-0.004280453798174858,0.0186828996301163
1782984680315687000,4.34968701171875,-0.23048282632231712,0.042001404905319215,0.03394713165685534
1782984680325760800,4.3597607421875,-0.15515198326706886,0.04719254380762577,0.050685171696357424
1782984680335835000,4.3698349609375,-0.05125029476583004,0.02517243517935276,0.03664895622776821
1782984680345909000,4.379908935546875,0.09752455468475818,0.03316343393325805,0.0419334725019522
1782984680355984000,4.38998388671875,0.20731939287781714,0.04023907140791416,0.004343636961188167
1782984680366058000,4.40005810546875,0.22632979829609393,0.017085574835538863,-0.04066319683780893
1782984680376132000,4.410132080078125,0.17532675628960132,0.027897476229071617,-0.05650437936913222
1782984680386206000,4.4202060546875,0.15028525401353834,0.04657295060455799,-0.05143463835678994
1782984680396279800,4.43027978515625,0.09392682245373725,0.02289922955036163,-0.018638375501800326
1782984680406355000,4.44035498046875,-0.034304420661926266,0.0016068506747484207,-0.017298870526347307
1782984680416428800,4.4504287109375,-0.08341887244284152,-0.035384617114067075,-0.038960758567787704
1782984680426503000,4.4605029296875,-0.026637831556797026,-0.022658406531810758,0.004463719676900655
1782984680436576800,4.47057666015625,0.0005085340440273285,-0.0037859482795000073,0.040120851855725045
1782984680446651000,4.48065087890625,-0.049773792472481725,-0.02809679819345474,0.07697510313093661
1782984680456725800,4.490725830078125,-0.06560089167952537,-0.03149930011332035,0.040448768635839225
1782984680466799900,4.5007998046875,-0.010964461606740951,-0.018557400953769683,0.001220189444720745
1782984680476874000,4.5108740234375,0.03312544001042843,0.023375614890456198,-0.004567435779701918
1782984680486948000,4.520947998046875,0.058415364089608186,0.041940614628791804,-0.020015929199010133
1782984680497022000,4.53102197265625,0.06264671804904938,0.058843818634748454,-0.024876411374844608
1782984680507097000,4.54109716796875,0.03726093237996101,0.05521861387491226,-0.026099212901759893
1782984680517171000,4.5511708984375,-0.0629027386367321,0.023523498928546903,-0.08430603054091333
1782984680527244800,4.561244873046875,-0.08000701817274093,0.04655190781652927,-0.08889702985929325
1782984680537319000,4.57131884765625,-0.036522681233286856,0.06286532923579216,-0.0955270241919905
1782984680547392800,4.581392822265625,0.03288461699187755,0.07361877844035625,-0.07075942522017285
1782984680557468000,4.591468017578125,0.08346037349700927,0.08422726621627807,-0.07357952414220198
1782984680567541800,4.601541748046875,0.12265958046317099,0.06237199276089668,-0.11619252160722389
1782984680577616000,4.611615966796875,0.07152502103149891,0.05183715474307537,-0.15390952719161285
1782984680587690000,4.62168994140625,0.0351829570621252,0.051041620451211925,-0.14541090770913287
1782984680597764000,4.63176416015625,0.06132394501268863,0.08114099063873291,-0.11680902780406176
1782984680607839000,4.6418388671875,0.07248597501814365,0.09435995317399501,-0.10238816039944067
1782984680617913000,4.6519130859375,0.08440612991452216,0.10325053111612796,-0.07656803843369707
1782984680627987000,4.661987060546875,0.07663491139113902,0.10517711526453494,-0.06574751534229144
1782984680638060800,4.672060791015625,0.031737785044312475,0.1045382328391075,-0.06988256932040676
1782984680648135000,4.682135009765625,-0.021308160966634748,0.08436988955736159,-0.055579976266901934
1782984680658208800,4.692208740234375,0.010222118806838989,0.07092647061645985,-0.06859601837489754
1782984680668284000,4.702283935546875,0.05661328310370445,0.04265957655310631,-0.04615859765000641
1782984680678357800,4.712357666015625,0.09133037621974945,0.030591537618637085,-0.010550875837169587
1782984680688431900,4.722431884765625,0.09604103812873363,0.02968845129907131,-0.05169836732689291
1782984680698506000,4.732506103515625,0.055766310885548585,0.010913023680448532,-0.07945879143914207
1782984680708580000,4.742580078125,0.041184243303537364,0.03833586813509464,-0.0846433727364987
1782984680718655000,4.752655029296875,-0.02323357607126236,0.03180675862729549,-0.1456359121040441
1782984680728729000,4.76272900390625,-0.04139233309626579,0.0038011458486318585,-0.153428538741637
1782984680738803000,4.772802978515625,-0.06609948885142802,0.0013496610432863236,-0.024809227890148756
1782984680748876800,4.782876708984375,-0.08041150732040404,0.016883914783596993,0.10862619627248495
1782984680758951000,4.792950927734375,-0.013149404430389403,0.024466332736611366,0.18665689113726838
1782984680769025800,4.80302587890625,0.10369359870851039,0.052335751914978024,0.18537012099605052
1782984680779100000,4.813099853515625,0.11836217553019523,0.06466916378736495,0.06575730608394369
1782984680789173800,4.823173828125,0.06768938839137553,0.050588031464815136,-0.021159144417382775
1782984680799248000,4.833247802734375,0.027836101430654524,0.05910568444132804,-0.12207102171918377
1782984680809322000,4.843322021484375,-0.0014788403809070586,0.057121232625842094,-0.21110313093392177
1782984680819396900,4.85339697265625,-0.005174187767505645,0.04468377585709095,-0.21555532456981016
1782984680829471000,4.863470947265625,-0.025564649367332458,0.03450198906064033,-0.17457491500899194
1782984680839545000,4.873545166015625,-0.06914250980913639,0.03055237465202808,-0.07449833775386214
1782984680849619000,4.883618896484375,-0.045641222712397574,0.010715455281734466,-0.02013290664218366
1782984680859692800,4.89369287109375,0.020219196686148643,-0.011637830823659896,-0.033200496274325995
1782984680869768000,4.903767822265625,0.11468436380028724,-0.050583355289697644,-0.022117888180632143
1782984680879841800,4.913841796875,0.16072013878822325,-0.07115034250020981,-0.02884966238737106
1782984680889916000,4.923916015625,0.09420973104834555,-0.03890753054320812,-0.027493991728406397
1782984680899989800,4.93398974609375,-0.06657645871341228,-0.04508826500475406,-0.04226219299966469
1782984680910063900,4.94406396484375,-0.21576865679323673,-0.007180266892910003,-0.06881921440521255
1782984680920138800,4.954138671875,-0.26799159598350525,0.04062427133321762,-0.007515745924971997
1782984680930212900,4.964212890625,-0.21831249605715272,0.06174596981704235,0.02846095533072948
1782984680940287000,4.974286865234375,-0.28521511798501015,0.05394084902405739,0.033344946246314795
1782984680950361000,4.984361083984375,-0.327646146479249,0.016628478717803954,0.038601003610994666
1782984680960435000,4.99443505859375,-0.2573661570727825,0.024154782569408416,-0.06315059418426826
1782984680970510000,5.004510009765625,-0.15202537567913532,0.02808276966810226,-0.11175470355655998
1782984680980584000,5.014583984375,-0.07810732203125953,0.026865210571885106,0.0017923998421058057
1782984680990657800,5.02465771484375,-0.022395371681451795,0.08649871827960014,0.06384179131882264
1782984681000732000,5.03473193359375,-0.023377952978014944,0.11288754351139067,0.09839945608945563
1782984681010805800,5.0448056640625,-0.010441899037361145,0.11575871503353118,0.0071627495025284585
1782984681020881000,5.054880859375,-0.007467851662635803,0.1025426751077175,-0.02011089573977515
1782984681030954800,5.064954833984375,-0.12104279291629791,0.04614858771264553,0.01667631818121299
1782984681041028400,5.0750283203125,-0.43374563728570936,-0.04115326364338398,0.0063123249519616365
1782984681051102500,5.0851025390625,-0.5842483334422112,-0.00018938509225845335,0.0016544892087578772
1782984681061176300,5.09517626953125,-0.5399573562949895,0.11920213348567485,0.023123923418018964
1782984681071251500,5.10525146484375,0.00535655859708786,0.14450900869965552,0.0784911063176114
1782984681081325300,5.1153251953125,0.2871335188269615,0.07071136656105519,0.06366359434085898
1782984681091399200,5.125399169921875,0.16882804192006587,0.050692076361179346,0.08222916946792974
1782984681101473300,5.135473388671875,0.17806114968955516,0.18505086244642732,0.007286535712401382
1782984681111547100,5.145547119140625,0.1307464408069849,0.2812333548724651,-0.06500398523230105
1782984681121621200,5.155621337890625,0.2404565233260393,0.2514186468452215,-0.07911108311316929
1782984681131696000,5.165696044921875,0.18821838656663895,0.14041209477484226,-0.12936315148873254
1782984681141770200,5.175770263671875,0.02069675107002258,0.020227379992604256,-0.2206521910510957
1782984681151844400,5.18584423828125,-0.11292729099988937,0.03419102341532707,-0.17371974121807143
1782984681161918200,5.195918212890625,-0.2921574844688177,0.1062766009390354,-0.07253718461557292
1782984681171992300,5.205992431640625,-0.36453824554681774,0.13819383420348166,-0.0408434533421183
1782984681182067500,5.2160673828125,-0.5962614273190499,0.05793956327140331,-0.12295462702014483
1782984681192141300,5.226141357421875,-0.7239706923872232,0.030498598638176916,-0.15783046349501237
1782984681202215200,5.236215087890625,-0.4885328740060329,0.05122340675890445,-0.06927258419590071
1782984681212289300,5.246289306640625,-0.28287469233870505,-0.018892916518449782,0.026713981515949125
1782984681222363100,5.256363037109375,-0.06937807213068008,0.00170621939599514,0.04729550642517861
1782984681232438300,5.266438232421875,0.15350596962571142,0.19880933868587017,0.14166339174387976
1782984681242512100,5.27651220703125,0.39094752904474733,0.2979951045811176,0.24083772292966021
1782984681252586200,5.286586181640625,0.5875204869806766,0.2598690798044205,0.2465753167335875
1782984681262660400,5.296660400390625,0.5596265178829432,0.23398352791965008,0.17200575864072887
1782984681272734200,5.306734130859375,0.5452876114070415,0.18611060063242912,0.19377170984484254
1782984681282809300,5.316809326171875,0.4468067789107561,0.13630699754357337,0.166711232429184
1782984681292883500,5.326883544921875,0.2950637273043394,0.0870446617245674,0.0924597638421692
1782984681302957300,5.336957275390625,0.015123334851860999,0.05963701483905315,0.018826290156180037
1782984681313031200,5.34703125,-0.30429274342060086,0.005606149443984031,-0.10602136580264195
1782984681323105300,5.357105224609375,-0.496997920012474,-0.04431026636958122,-0.19996992516415193
1782984681333180200,5.36718017578125,-0.4932037884265184,-0.048725160202383995,-0.25907904367158185
1782984681343254300,5.377254150390625,-0.3031973493993282,-0.008024316501617432,-0.19538667076081037
1782984681353328000,5.387328125,-0.12900047392249106,-0.01893441757261753,-0.06134620707684662
1782984681363402200,5.39740234375,-0.08776713078022003,-0.08652794437408447,0.04509642547832336
1782984681373476400,5.407476318359375,0.052825581258535384,-0.021269582521915433,0.05595812996348831
1782984681383551200,5.41755126953125,0.05698796163499355,0.02746376098692417,0.025324342372012323
1782984681393625300,5.427625244140625,0.13795827188193796,0.03082008567750454,0.06131420906996354
1782984681403699500,5.437699462890625,0.16838965050280094,0.05951192715466022,0.05683529182393104
1782984681413773300,5.447773193359375,0.08633329858481884,0.10759060614705085,-0.06096595275471918
1782984681423847200,5.45784716796875,0.04703589194118976,0.14102116658389569,-0.12981917902738788
1782984681433922300,5.46792236328125,0.006654781714081764,0.1990069070845842,-0.12998518324405886
1782984681443996200,5.47799609375,-0.02570435009896755,0.23384382718801497,-0.10899991582254878
1782984681454070300,5.4880703125,-0.14962299071252344,0.15725100137293338,-0.10139397999662905
1782984681464144100,5.49814404296875,-0.28166239393949505,0.10281973848342894,-0.10733609252986498
1782984681474218500,5.508218505859375,-0.12157353879213333,0.09926350730657577,-0.10670521988095714
1782984681484292400,5.518292236328125,0.049719431936740874,0.09567863455712795,-0.08730278293779119
1782984681494367500,5.528367431640625,0.1757648554459214,0.06388824254274368,-0.010312566719402092
1782984681504441300,5.53844140625,0.10838877078741788,0.07192249591648578,0.02257491351641947
1782984681514515200,5.54851513671875,-0.02406798106878996,0.07816694326400757,0.040774635022762226
1782984681524589300,5.55858935546875,-0.05607230809479952,0.04106675440371036,-0.005811431933339918
1782984681534663200,5.5686630859375,-0.1387584823489189,0.07653320458233356,-0.021748045654664747
1782984681544738300,5.57873828125,-0.16718524314910171,0.1034580363869667,0.0010685476843646027
1782984681554812200,5.588812255859375,-0.06198708509653807,0.07026070018410682,-0.053183441085764206
1782984681564886300,5.59888623046875,0.08824147029370069,0.13084464048445224,-0.07587680933310184
1782984681574960000,5.608960205078125,0.3040338002234697,0.16942016259431839,0.010681365782464853
1782984681585034500,5.619034423828125,0.42284488856494423,0.1068868417918682,0.11398620720198377
1782984681595109000,5.629109130859375,0.32932840047776696,0.06705693570673465,0.13616814619530923
1782984681605183500,5.63918359375,0.024519524228572846,0.06272036780714989,0.15671110407626254
1782984681615257300,5.64925732421875,-0.19443886851668357,0.04003624231219292,0.15304981422289274
1782984681625331200,5.659331298828125,-0.1368377434194088,0.05956628769040107,0.08730282860356382
1782984681635405300,5.6694052734375,0.05663198780417442,0.10548515830039977,0.06276590114904101
1782984681645480400,5.67948046875,0.07822773354053497,0.13896540309786795,0.049474786693020724
1782984681655554300,5.68955419921875,-0.06451806487888097,0.13195464755296707,0.05500687538695056
1782984681665628200,5.699628173828125,-0.19417671044915913,0.1339531278938055,0.008583850080519914
1782984681675702300,5.709702392578125,-0.22429975377321243,0.1312163964062929,-0.011811780884768813
1782984681685776100,5.719776123046875,-0.06788608000725507,0.15768413209319113,-0.01826548706879839
1782984681695851300,5.729851318359375,-0.007648468926548958,0.17200667195618152,-0.012297833668929524
1782984681705925000,5.739925048828125,0.012226444366574286,0.1696972259700298,-0.003012023031245917
1782984681715999500,5.74999951171875,0.02812514750510454,0.20304186168909072,-0.02143605709604453
1782984681726073300,5.7600732421875,-0.011844167050719261,0.1746826131671667,0.000588366947742179
1782984681736147200,5.770147216796875,-0.05644990923553705,0.18253274214565754,0.022337193487118927
1782984681746222300,5.780222412109375,-0.04876081603765487,0.1729834080338478,0.021936649862211197
1782984681756296400,5.79029638671875,0.05083703778982162,0.14605448457598685,0.01178210269913543
1782984681766370300,5.800370361328125,0.08697627266347407,0.13581249202489853,-0.0006426544182468205
1782984681776444200,5.810444091796875,-0.0014276947155594825,0.09133096074163913,-0.0007480692877899855
1782984681786518300,5.820518310546875,-0.10825754562318324,0.08232757007479667,-0.03714474038807675
1782984681796593200,5.83059326171875,-0.026493162389099597,0.07802022826969623,-0.05787272684657946
1782984681806667300,5.840667236328125,0.06601444091647864,0.07005962465405463,-0.09168943705679848
1782984681816741000,5.8507412109375,0.1430398129299283,0.07432955705821513,-0.019257073655724523
1782984681826815500,5.8608154296875,0.07301613637208938,0.07274433369338512,-0.00150082388385199
1782984681836889300,5.870889404296875,0.03815992704629898,0.03853577462136745,-0.064107904042257
1782984681846964500,5.880964599609375,0.16769085458368063,0.045803135275840755,-0.06768817368182353
1782984681857038300,5.891038330078125,0.23681641325801608,0.057227031087875364,-0.051539066845644264
1782984681867112400,5.901112548828125,0.2027630447477102,0.04825988077819347,-0.01359568689316511
1782984681877186300,5.911186279296875,0.07627543042898177,0.06127835230529308,-0.043494739602459594
1782984681887260200,5.92126025390625,-0.026350831308960914,0.03453413776457309,-0.07214315292984247
1782984681897335300,5.931335205078125,-0.08687047420144081,-0.017232874351739882,-0.08093393289246596
1782984681907409200,5.9414091796875,-0.07673895628750324,-0.06437631832063198,-0.07054517054813914
1782984681917483300,5.951483154296875,-0.0026920155629515646,-0.04216974720954895,-0.09871645874991081
1782984681927557000,5.96155712890625,0.026426819154620168,-0.025758710634708405,-0.13371365658212453
1782984681937631500,5.971631591796875,-0.0636211160391569,-0.013182137656211852,-0.13241852047136052
1782984681947706000,5.9817060546875,-0.18913813176006078,0.009069441640377044,-0.083551604577573
1782984681957780500,5.991780517578125,-0.18817542420774697,0.011398761370778084,0.003229611304681748
1782984681967854300,6.001854248046875,-0.016544892087578773,0.020462357792258263,0.12501991638634352
1782984681977928200,6.01192822265625,0.09043050477057694,0.01662964776158333,0.24365665280791
1782984681988002300,6.022002197265625,0.03725333359539509,0.05438625470399856,0.25344759538955985
1782984681998076200,6.032076171875,0.03572130172252655,0.1138759700268507,0.1926324401492253
1782984682008151300,6.0421513671875,0.08833353249132633,0.17375497692823408,0.11257089704396203
1782984682018225200,6.05222509765625,0.026448738725483416,0.1506967574238777,0.02728894327613525
1782984682028299300,6.06229931640625,-0.0189160051330924,0.10555997710227966,-0.08467138412143103
1782984682038374000,6.072373779296875,0.09031243134886026,0.0856423937112093,-0.09957524927002377
1782984682048448000,6.082447998046875,0.14912731615006922,0.046642508709430694,-0.05509462216906249
1782984682058523000,6.09252294921875,0.041456045982241625,-0.002034136176109314,-0.0009270151844248175
1782984682068597000,6.102596923828125,-0.005840542721748352,-0.0210357737660408,-0.046877175981830804
1782984682078671000,6.112671142578125,0.03515723809897899,0.04120528609156608,-0.005229434219235554
1782984682088745200,6.1227451171875,0.02855097170174122,0.02675999663174152,0.03292448321138509
1782984682098819000,6.132819091796875,-0.030032734692096708,-0.04849485857784748,0.011914264011709018
1782984682108894200,6.142894287109375,-0.08238543774187565,-0.04420154529809951,0.034646722160419446
1782984682118968000,6.152968017578125,-0.016204115825891492,0.0030979660153388974,0.06904612762941978
1782984682129042200,6.163042236328125,0.01056757124364376,0.02424129180908203,0.069905183011014
1782984682139116000,6.173115966796875,-0.09811930570751429,0.03591653203368187,0.04251314468658529
1782984682149190000,6.18318994140625,-0.17109481780827043,0.05937397998869419,0.026148888129228724
1782984682159265000,6.19326513671875,-0.034925767430663106,0.07185293781161307,-0.00866234041051939
1782984682169339000,6.2033388671875,0.1193570317864418,0.06837269448041916,0.009687473074020818
1782984682179413000,6.2134130859375,0.08220248239040374,0.05473229166269302,0.05316231153276749
1782984682189487000,6.223487060546875,-0.006143032799661159,0.10260872608125209,0.03908237565346062
1782984682199561200,6.233561279296875,-0.07322568746954203,0.10665361755788326,0.003358717577066272
1782984682209636000,6.243635986328125,-0.08810147730112075,0.06723989105820656,-0.05035958387064747
1782984682219710200,6.253710205078125,-0.06994564288556575,0.045804888841509815,-0.030636061746953054
1782984682229784000,6.2637841796875,-0.007077391040325165,0.07121756251752376,-0.01628654254549183
1782984682239858000,6.27385791015625,0.056956981974840164,0.06574000788927079,-0.03797025882625021
1782984682249932000,6.28393212890625,0.11249649836719035,0.08918634992837905,-0.030379264841135588
1782984682260007200,6.294007080078125,0.12601736645847558,0.09660393270850182,0.019691154224053025
1782984682270081000,6.3040810546875,0.0643190351754427,0.06150280871093273,-0.00006603270722553133
1782984682280155000,6.31415478515625,-0.008096212694048881,0.0589987169355154,-0.015681936849001793
1782984682290229000,6.32422900390625,-0.015156068077683448,0.07215864275991916,-0.02816441093641333
1782984682300303000,6.33430322265625,0.037894846369326114,0.07650865466296672,-0.03549748463770375
1782984682310378000,6.3443779296875,0.11875468197911977,0.07673486463427544,-0.005601436736248433
1782984682320452000,6.3544521484375,0.15097937375754117,0.08592004160881042,0.03733741341596469
1782984682330526200,6.364526123046875,0.18358254345953465,0.10641454810500145,0.016607974785892293
1782984682340600000,6.37460009765625,0.16878887895345687,0.09424538688361644,0.0005465188337024301
1782984682350674000,6.384673828125,0.11901070256680249,0.06597089403569698,-0.003923420521430671
1782984682360749000,6.3947490234375,0.010572539679706096,0.08208966966569423,-0.032550480533530934
1782984682370823200,6.4048232421875,-0.1245113458096981,0.023646833047270773,-0.09663592614880763
1782984682380897000,6.41489697265625,-0.13189794892966747,0.04441957196295261,-0.08778593594538979
1782984682390971000,6.424970947265625,-0.02616407656520605,0.006011223113536834,-0.08127125682174227
1782984682401045000,6.435044921875,-0.0020797288835048672,0.009613631519675253,-0.0796905543684028
1782984682411119900,6.445119873046875,-0.058896425604820245,0.004663315635919571,-0.0677070153796114
1782984682421194000,6.455194091796875,-0.17565291950404643,-0.012575988456606865,-0.07376627888595685
1782984682431268000,6.46526806640625,-0.23695319138020277,-0.048774844563007354,-0.06704972051465884
1782984682441342200,6.47534228515625,-0.20320552781820295,-0.053559740751981735,-0.0468090061164461
1782984682451416000,6.485416015625,-0.10523206032216548,-0.009803016611933708,-0.009330101870559155
1782984682461490000,6.495489990234375,-0.06129530344009399,0.010908347505331038,0.0038707404861226674
1782984682471565000,6.50556494140625,-0.0026771102547645566,0.017487725895643232,0.003592389335623011
1782984682481639200,6.51563916015625,-0.03424246134161949,0.034981297010183335,-0.012176020220434293
1782984682491713000,6.525713134765625,-0.028311025466024875,0.0186263745367527,-0.06675218973965384
1782984682501787000,6.535786865234375,0.029772330190241336,0.06785422356426715,-0.04993901123786345
1782984682511861000,6.545861083984375,0.10380407334566116,0.08604688285887241,-0.021518451849604023
1782984682521936000,6.555935791015625,0.14673925196975468,0.06244798060655594,-0.00044431883455254136
1782984682532010000,6.566010009765625,0.1747048249989748,0.0823965436577797,-0.02120029841167852
1782984682542084000,6.576083984375,0.05270575427114963,0.07806640549898147,-0.016244858828233556
1782984682552158200,6.586158203125,-0.053523500394821164,0.07120236494839191,-0.08601470675547607
1782984682562232000,6.596232177734375,-0.06683657095432281,0.06250000305473805,-0.10441477085622027
1782984682572307200,6.60630712890625,-0.06056172846853733,0.038249358895421026,-0.04720238934820518
1782984682582381000,6.616381103515625,-0.06542933450490236,0.016859364864230154,0.07360738026350737
1782984682592455200,6.626455078125,-0.0714554629266262,0.006648936495184898,0.16711612343564627
1782984682602529000,6.636529052734375,-0.0442021298199892,-0.0018318916022777557,0.178531397549808
1782984682612603000,6.646602783203125,0.02876782932281494,0.035493922707438466,0.14183751533492467
1782984682622678000,6.656677978515625,0.00635083033144474,0.08362579319179057,0.03651506418241188
1782984682632751900,6.666751953125,-0.024134908825159073,0.11604688432514666,-0.05129512028824538
1782984682642826000,6.676825927734375,0.004696633383631706,0.1385714353442192,-0.15873586963582784
1782984682652900000,6.686900146484375,0.05297317303568125,0.12068389647603034,-0.14614116734559646
1782984682662974200,6.69697412109375,0.040430502326786515,0.10057809703648089,-0.07825816521141678
1782984682673049000,6.707049072265625,0.023404840984940528,0.08285831595063209,-0.06895670491345227
1782984682683123200,6.717123291015625,-0.0018541034340858458,0.03634089492559433,-0.02891755825811997
1782984682693197000,6.727197021484375,-0.017162147203087806,0.04876666125655174,-0.02960465460629202
1782984682703271000,6.73727099609375,-0.06793664115071296,0.0383984119772911,-0.08862081586695275
1782984682713345000,6.747344970703125,-0.04805763620436191,0.02315408109426498,-0.07428348942678421
1782984682723420200,6.757420166015625,0.0011605682119727133,0.016358429604768753,-0.03422318125241436
1782984682733494000,6.767493896484375,0.03464811953306198,0.05468786799907684,-0.039337172398436815
1782984682743568000,6.77756787109375,0.0504676199555397,0.05762216788530349,-0.04911329187029041
1782984682753642000,6.78764208984375,0.09420914652645587,0.08727437882721424,-0.023783647702075538
1782984682763716000,6.797716064453125,0.11855331418812275,0.0954150151848793,0.02758476615124382
1782984682773791000,6.807791015625,0.09208557850122451,0.11247837818861008,0.06406967265740968
1782984682783865000,6.817864990234375,0.0940811362326145,0.09958324078023433,0.08055096145686692
1782984682793939200,6.827939208984375,0.07431494401097297,0.05707505539655685,0.10779973711939528
1782984682804013000,6.838012939453125,-0.008601824128627776,0.022932547298073768,0.11027220078068785
1782984682814087000,6.8480869140625,-0.1295192370995879,0.013355740657448769,0.08500594070488586
1782984682824162000,6.858162109375,-0.18488894988298415,-0.007558452555537223,0.060494828111631795
1782984682834236200,6.868236083984375,-0.14192834455668926,0.04598492158353328,-0.002413436083588749
1782984682844310000,6.87831005859375,-0.10282675274610519,0.07056055991351604,-0.05451998235257342
1782984682854383900,6.8883837890625,-0.028583704927563666,0.07038812595605849,-0.11023327527609653
1782984682864458000,6.8984580078125,-0.049770285341143604,0.04287643417418003,-0.1260260338221211
1782984682874532900,6.908532958984375,-0.056018824341893196,0.0170621939599514,-0.08620296846972778
1782984682884607000,6.91860693359375,0.006131050100922584,0.044856794336438174,-0.01867873491165228
1782984682894681000,6.92868115234375,0.014356734393537044,0.048424715951085086,-0.010761367649538441
1782984682904755200,6.938755126953125,0.01374912388920784,0.0493786556750536,-0.0417724915202707
1782984682914829000,6.9488291015625,-0.03901508257091045,0.0949795463770628,-0.033543345762090754
1782984682924904200,6.958904296875,-0.08206307391971349,0.10655307979285716,-0.007761016789777204
1782984682934978000,6.96897802734375,-0.13183306699991226,0.06410217755436896,-0.024527534005092454
1782984682945052200,6.97905224609375,-0.06377659886181354,0.027819150295853613,-0.019045440199039875
1782984682955126000,6.9891259765625,0.0030567572221159934,0.0315057298541069,-0.031245033091306683
1782984682965200000,6.999199951171875,-0.08945902938991784,0.02764671633839607,-0.025585792620060964
1782984682975275000,7.00927490234375,-0.1142068094164133,0.03675473642349243,-0.03651315535311587
1782984682985348900,7.019348876953125,-0.07973287740647793,0.06952712521255015,-0.017332663198094813
1782984682995423000,7.029423095703125,-0.023656769919395446,0.07831073564887046,-0.059242389498278494
1782984683005497000,7.0394970703125,0.04157411940395832,0.09573825578987598,-0.018501003724569455
1782984683015571200,7.0495712890625,0.039487376257777214,0.08375731061697006,0.026757201886456458
1782984683025646000,7.05964599609375,-0.05089724354445934,0.04351940825283527,0.04327479497515596
1782984683035720200,7.06972021484375,-0.10054507154971361,0.03477671434879303,0.0551793961093761
1782984683045793000,7.07979296875,-0.041515959475934505,0.07407353647053241,0.04848357913200743
1782984683055867100,7.0898671875,-0.025716040536761284,0.08208148635923862,-0.004715137154702097
1782984683065941000,7.09994091796875,-0.007523381242156029,0.060063715818524356,0.022075839137192813
1782984683076015400,7.110015380859375,0.042438335017859936,0.1082376718789339,0.0342027138531208
1782984683086090000,7.120090087890625,0.05779927801787853,0.06888882730901241,0.019667188826575876
1782984683096164400,7.130164306640625,-0.032279636836051936,0.04965396548509597,0.0027811642842832953
1782984683106238200,7.14023828125,-0.07651216179430484,0.03010463088452816,0.018641864366829394
1782984683116312300,7.150312255859375,-0.10535656348466872,0.056463060978054994,-0.011188534419890492
1782984683126386200,7.16038623046875,-0.05958820726126432,0.05605155756771564,-0.03315563421929255
1782984683136461300,7.17046142578125,0.03695815004110336,0.0366384165674448,-0.039332678886409844
1782984683146535200,7.18053515625,0.1237310090869665,0.06171557467877865,-0.01085485461927019
1782984683156609000,7.190609130859375,0.14915771128833294,0.11645838773548603,-0.027546187706524505
1782984683166683100,7.20068310546875,0.14928747514784335,0.1305804365903139,-0.06454425876606255
1782984683176757000,7.210757080078125,0.10612579429149627,0.11795651733875274,-0.06881849288600496
1782984683186832100,7.22083203125,0.05678337897360324,0.07957038032114505,-0.05741420595673844
1782984683196906000,7.230906005859375,0.05091390241831541,0.046558337557315824,-0.051396954961214214
1782984683206980400,7.24098046875,0.010312427438795567,0.04158756340742111,-0.05788708416549489
1782984683217054200,7.25105419921875,-0.11694354090392589,0.042944238713383674,-0.05210022612605244
1782984683227128300,7.26112841796875,-0.14839900187551974,0.04811550387144088,-0.06165904045226052
1782984683237203200,7.271203125,-0.102390699416399,-0.017605214795470236,-0.07024663512613624
1782984683247277300,7.28127734375,-0.018376783689856527,0.01797054097652435,0.02467025781087577
1782984683257351200,7.29135107421875,-0.08166384546905756,0.031980361628532405,0.1338667282519862
1782984683267425000,7.301425048828125,-0.044719139431416983,-0.001980944684147835,0.13105347919585184
1782984683277499100,7.3114990234375,-0.006014145722985267,0.04482230754494667,0.06812427267730235
1782984683287574000,7.321573974609375,-0.025764555853605268,0.08318681725263595,-0.023885080516245216
1782984683297648000,7.331648193359375,-0.04884089553654194,0.1057324110597372,-0.10723117998382076
1782984683307722000,7.341721923828125,-0.019197452422976494,0.07791910598278046,-0.15770409716898576
1782984683317796400,7.35179638671875,-0.021303484791517256,0.052826165780425066,-0.14460771983377635
1782984683327870200,7.3618701171875,-0.03759089498668909,0.041937107497453684,-0.09282240487579256
1782984683337945300,7.3719453125,-0.029594927796721456,0.0391828403532505,-0.08428235740438103
1782984683348019200,7.382019287109375,0.02590133397579193,0.008635141876339911,-0.08342888238020241
1782984683358093300,7.39209326171875,0.00800473501831293,0.004537643429636955,-0.06600748145272956
1782984683368167200,7.402167236328125,0.005449497577548027,0.011951134556531906,-0.04644033720083535
1782984683378241000,7.412240966796875,-0.029127310284972188,0.023795301607251167,-0.004161521859932691
1782984683388316200,7.422316162109375,-0.03936345761716366,0.01585223364830017,0.019637305144965648
1782984683398390000,7.43239013671875,-0.06052899524271488,0.03486322358846664,0.03024703502990305
1782984683408464100,7.442464111328125,-0.10156126285493373,0.07031973689496517,0.04452120570652186
1782984683418538000,7.4525380859375,-0.056986792591214176,0.06521160010099411,0.028825806587748228
1782984683428612400,7.4626123046875,-0.014024141438305377,0.08357961596250534,0.038646249258518214
1782984683438686200,7.472686279296875,0.03183949185311794,0.08440262278318404,0.06355533906025812
1782984683448761300,7.48276123046875,0.09404664944112301,0.08168108886480331,0.0660668286908418
1782984683458835200,7.492835205078125,0.11681845321953296,0.056310500764846796,0.07466163855679332
1782984683468909300,7.502909423828125,0.16304975077956915,0.04688040911853313,0.10881525257118045
1782984683478983200,7.512983154296875,0.12889905937463045,0.05316635752022266,0.0851307178620249
1782984683489057000,7.52305712890625,0.1174924069583416,0.08333353224694728,0.0579371338522993
1782984683499132200,7.533132080078125,0.1663891243353486,0.06482113947868347,0.05461571607831865
1782984683509206000,7.5432060546875,0.10098901592493056,0.03191781778633594,0.03858449086761102
1782984683519280000,7.553280029296875,-0.04169949934929609,0.003187397864460945,-0.01880927508929744
1782984683529354000,7.56335400390625,-0.10938654965311288,-0.028571429967880247,-0.02622099438421428
1782984683539428400,7.573428466796875,-0.18249767083227633,-0.040190556091070175,-0.018194832985382527
1782984683549503000,7.5835029296875,-0.15894436128735542,-0.034054829815030094,-0.048666123491525645
1782984683559577300,7.593577392578125,-0.0927376126691699,-0.0452262121707201,-0.06511577504370361
1782984683569651200,7.603651123046875,-0.025416765329241753,-0.06513853486478328,-0.03520239241495728
1782984683579725300,7.613725341796875,-0.0005611410140991211,-0.02507131289243698,-0.02728566447366029
1782984683589799200,7.623799072265625,-0.011177812096476555,-0.0014595511585474012,-0.008884659657999873
1782984683599874300,7.633874267578125,-0.01205634849667549,-0.02513444125652313,-0.004018998983548954
1782984683609948200,7.6439482421875,-0.03106792295873165,-0.0034288054049015043,-0.021849190774466842
1782984683620022000,7.65402197265625,-0.05428747050464153,0.02720481778979301,-0.04341028532255441
1782984683630096100,7.66409619140625,-0.020467033967375755,0.01362754333615303,-0.11360981163764372
1782984683640170000,7.674169921875,-0.004614215797185898,-0.002116553762555122,-0.14017246819953433
1782984683650245000,7.6842451171875,-0.0907832637310028,0.014713000485301017,-0.15907883785460145
1782984683660319000,7.694319091796875,-0.057057812000811094,0.027194880917668342,-0.17091993616539983
1782984683670393300,7.704393310546875,0.027773265327513216,0.05105974062979221,-0.17309527091048657
1782984683680467200,7.71446728515625,0.054499944211542604,0.04153612548112869,-0.14849461687025614
1782984683690541300,7.724541259765625,0.08971475771665573,0.05537935739457607,-0.1265939607700333
1782984683700616200,7.7346162109375,0.15978256567716598,0.09028057490587234,-0.12342326744520105
1782984683710690300,7.744690185546875,0.08736848685145378,0.08920447010695934,-0.10426323355631902
1782984683720764200,7.75476416015625,-0.007949497699737549,0.09688391869366168,-0.13358244968419894
1782984683730838000,7.764838134765625,-0.016080781707167625,0.12401859385669231,-0.16390936328358946
1782984683740912000,7.774912109375,0.03353518985509872,0.12166355516314506,-0.13973807710395195
1782984683750987000,7.784987060546875,0.00012099603116512298,0.10981529645919799,-0.09042912566424346
1782984683761061000,7.79506103515625,-0.07099076802432537,0.08534662563502789,-0.07155397313134744
1782984683771135000,7.805135009765625,-0.054493222209811204,0.10373100810945034,-0.07303446661322377
1782984683781209300,7.815209228515625,0.04105915561914444,0.09932195949554443,-0.07448125875489786
1782984683791283200,7.825283203125,0.11531681648492813,0.10396540138721465,-0.03632545076129026
1782984683801358300,7.8353583984375,0.08406827626228332,0.10427110633552074,-0.04720623440626077
1782984683811432200,7.84543212890625,0.04285451460331678,0.1055184760481119,-0.036752060409216206
1782984683821506300,7.85550634765625,0.021952304089069365,0.07879588881731033,-0.039206842283345755
1782984683831580200,7.865580078125,0.05277648141980171,0.0825485193490982,-0.022474236470786852
1782984683841654000,7.875654052734375,0.004573883786797523,0.06003741233348846,-0.0014113920347299427
1782984683851729200,7.885729248046875,-0.04161503593623638,0.029964345631003378,-0.04575845588389784
1782984683861803000,7.895802978515625,-0.10315379274338483,0.03200315798223018,-0.11415792877338826
1782984683871877000,7.905877197265625,-0.13214753977656363,0.031580548655986786,-0.10842866440638899
1782984683881951000,7.915950927734375,-0.13021686397492885,0.034766777476668356,-0.06520084124496206
1782984683892025300,7.926025390625,-0.06819441530406474,0.008824526968598366,0.04578317020004615
1782984683902100000,7.936099853515625,0.030419395922124386,0.01630874524414539,0.1474168315709103
1782984683912174300,7.94617431640625,0.07548866396546364,0.047187867632508276,0.21790464590862393
1782984683922248200,7.956248291015625,0.03908873232901096,0.08314648524224758,0.21784244912629946
1782984683932322300,7.966322265625,-0.04845978726446628,0.10699264025390147,0.121612765690824
1782984683942396200,7.976396240234375,-0.08731178822815418,0.12121698043942451,-0.026991832626238464
1782984683952470000,7.986469970703125,0.028632220244407654,0.15194588070213794,-0.12333511423771269
1782984683962545200,7.996545166015625,0.08515724054276942,0.1594283454120159,-0.15306072834255172
1782984683972619000,8.006618896484374,-0.027370822006464002,0.09652443773150443,-0.12958878607130608
1782984683982693000,8.016693115234375,-0.028567630575597285,0.07288052729368209,-0.11267070415662601
1782984683992767000,8.02676708984375,0.027192835091054437,0.046564767298102376,-0.04839134340444579
1782984684002841300,8.03684130859375,0.006445522877573967,0.018086860832571983,-0.009768767282459885
1782984684012916000,8.046916015625,-0.019861761550605296,0.01552022521495819,0.03667244670120999
1782984684022990300,8.056990234375,-0.013739187017083166,0.04083119208216667,0.047291245808592064
1782984684033064200,8.067064208984375,0.08358195405006408,0.04516483737230301,0.0498688138121739
1782984684043138000,8.077137939453126,0.06911971345543862,0.04639291786253452,0.013436313346680252
1782984684053212000,8.0872119140625,-0.037006665357947346,0.003050619742274284,-0.0041308709933422505
1782984684063287000,8.097287109375,-0.09665770872235298,0.011330372309684754,-0.010359262255206704
1782984684073361000,8.10736083984375,-0.05437719461470842,0.019169395372271535,0.01840505080311559
1782984684083435000,8.11743505859375,0.0008364508241415023,0.016909049224853513,0.0284747555272188
1782984684093508900,8.1275087890625,0.03422726377248764,0.021007716715335845,0.08631660317834466
1782984684103583000,8.1375830078125,0.0717889326646924,0.04123977288305759,0.09304127179086208
1782984684113657900,8.147657958984375,0.08135492565035819,0.032441549399495125,0.06837507823375054
1782984684123732000,8.15773193359375,0.07975392019450664,0.06762041480839252,0.07368636378385127
1782984684133806000,8.16780615234375,0.04851911623626947,0.07912029846608638,0.04957701865821145
1782984684143880200,8.177880126953125,0.04569090707302093,0.06227028595209121,0.0380555807558354
1782984684153954000,8.1879541015625,-0.0036140988439321516,0.013279168289899826,0.04470111058438196
1782984684164029200,8.198029296875,0.02768763287067413,0.0018634557843208311,0.027859244844224303
1782984684174103000,8.20810302734375,0.07031476845890283,0.014237784188985823,0.0077927453686017535
1782984684184177000,8.218177001953125,0.1211953531295061,0.011996727263927458,0.005306664173910394
1782984684194251000,8.2282509765625,0.1003249990582466,0.03316109584569931,0.041102839497243984
1782984684204324900,8.238324951171874,0.02383037292063236,0.021409867775440215,0.04977906230264343
1782984684214400000,8.24839990234375,0.04490121800005436,0.040108138504624365,0.06832499201432801
1782984684224473900,8.258473876953126,0.07166822889447212,0.04888473467826843,0.0916710063509643
1782984684234548000,8.2685478515625,0.009780804780125617,0.02947802341878414,0.07381189899281598
1782984684244622000,8.2786220703125,-0.031388533215224744,0.029907062485814092,0.08038296621250919
1782984684254696200,8.2886962890625,-0.03440262033939361,0.06396773751974105,0.10641248401207849
1782984684264770000,8.29877001953125,0.013231822016835213,0.04483575154840946,0.022548763011721894
1782984684274845200,8.30884521484375,0.04423486304581165,0.006169044023752212,0.025562685739109293
1782984684284919000,8.3189189453125,0.005502104547619819,0.013739771538972854,0.03313648199425079
1782984684294993000,8.328992919921875,-0.056333297118544574,0.06454232253730297,0.04035264218444936
1782984684305067000,8.33906689453125,-0.11612988643348217,0.004800678279995918,0.050086712612863626
1782984684315140900,8.349140869140625,-0.05982815349698067,-0.013530512702465056,-0.014357328048581256
1782984684325216000,8.359216064453125,0.028722821137309073,0.05041442846357822,-0.005192490609176457
1782984684335291100,8.369291015625,-0.05478372958898544,0.05467150138616562,-0.004099653871171176
1782984684345365000,8.379364990234375,-0.16141338174939154,0.01922200234234333,-0.03858681068886071
1782984684355438800,8.38943896484375,-0.16835282562375067,0.015860416954755784,-0.06164189752121456
1782984684365513000,8.399512939453125,-0.11764409038871526,0.05116612361371517,-0.04402415203773416
1782984684375587000,8.409587158203125,-0.05127309111952781,0.04786474398076534,-0.052497271752776575
1782984684385662000,8.419661865234374,-0.0028857845693826675,0.052476621690392494,-0.0445892842403613
1782984684395736000,8.429736083984375,0.06863748289644718,0.08242576975226402,-0.03789493770087138
1782984684405810200,8.43981005859375,0.12179273450076579,0.10558803415298461,-0.029230341401183975
1782984684415884000,8.449884033203125,0.06958119348734616,0.11353986994028091,-0.04144284857395105
1782984684425958000,8.4599580078125,0.027893092314898966,0.09085165279209613,-0.04563712192601524
1782984684436033000,8.470032958984374,0.06604512831568718,0.09421849887669086,-0.07309901974941603
1782984684446107100,8.480107177734375,0.1426800397068262,0.1060638349711895,-0.10467967800325713
1782984684456181000,8.490180908203126,0.2096037044227123,0.13195172494351864,-0.1063872582392767
1782984684466254800,8.5002548828125,0.21374095035791396,0.13620236812531947,-0.14240714104957877
1782984684476329200,8.5103291015625,0.10313479578197002,0.0955108767747879,-0.16447076002601532
1782984684486403800,8.52040380859375,-0.03839344354122877,0.07041267587542534,-0.22960290168263017
1782984684496478200,8.530478271484375,-0.09692863461822271,0.038785949990153314,-0.2261731464296579
1782984684506552000,8.540552001953126,-0.013066694582998752,0.07417758136689663,-0.13188217597180046
1782984684516626200,8.550626220703125,0.06539250962585211,0.0621574732273817,-0.028952373843174426
1782984684526700000,8.560699951171875,0.10909984166622161,0.04238894291818142,0.0974615907174535
1782984684536775200,8.570775146484374,0.10826543666869401,0.03138239573538303,0.1745934735789895
1782984684546849000,8.58084912109375,0.08271803069710731,0.038384383451938626,0.15163746320693752
1782984684556923000,8.5909228515625,0.004067687830328941,0.024095161336660384,0.043864248768286776
1782984684566997000,8.6009970703125,0.037220600369572636,-0.015061375531554221,-0.04121619107807055
1782984684577070800,8.61107080078125,0.08561550570428371,0.006223989081382751,-0.06778357861400582
1782984684587146000,8.62114599609375,0.06023907238543033,-0.044290392625331874,-0.08636992253446951
1782984684597219800,8.6312197265625,0.02767711147665977,-0.12747311822474003,-0.0787197365748696
1782984684607294200,8.641294189453125,-0.03269289381206036,-0.11109890652894973,-0.10987318239258602
1782984684617368000,8.6513681640625,-0.06572948649525642,-0.07307400403916835,-0.1128471749683842
1782984684627442200,8.661442138671875,-0.0765665223300457,-0.03372399042546749,-0.1124319817636162
1782984684637517000,8.67151708984375,0.06959405296891927,-0.019108020573854446,-0.12408616093387827
1782984684647591200,8.681591064453125,0.1996434514224529,-0.012934884896874428,-0.05303175308881327
1782984684657665000,8.6916650390625,0.12758417738378047,-0.010607903254032134,0.016691808011289683
1782984684667739000,8.70173876953125,0.010773907470703125,-0.01055880341529846,-0.09613127369545399
1782984684677813000,8.71181298828125,-0.09112813164591789,-0.02644552385509014,0.05961619124673306
1782984684687888100,8.72188818359375,-0.03154138568937778,-0.005587444743514061,-0.0016496303705498575
1782984684697962000,8.7319619140625,0.03724748837649822,0.01731704550385475,0.02658253030613996
1782984684708035800,8.742035888671875,0.05567220286130905,0.02278641682565212,0.01963128639613278
1782984684718110200,8.752110107421874,0.0592775338768959,0.048662616360187524,0.002177051778137684
1782984684728184000,8.76218408203125,0.010005261185765266,0.08661094648241996,0.0352440578659065
1782984684738259200,8.77225927734375,-0.0576262595385313,0.10787351474165915,0.06803992799525149
1782984684748333000,8.7823330078125,-0.07746434795260429,0.09883855989277363,0.07622957286010495
1782984684758407200,8.7924072265625,-0.09162555977404117,0.0769938078314066,0.045542648575594646
1782984684768481000,8.80248095703125,-0.0942734439343214,0.0848445213317871,0.046701801148615774
1782984684778555000,8.812554931640625,-0.05872399164736271,0.1077455044478178,0.02234492926900275
1782984684788629000,8.82262890625,0.0012529226705431937,0.12190846983492373,0.00825445372937247
1782984684798704000,8.8327041015625,0.04020575366020202,0.12998597782850266,-0.014500946903508156
1782984684808778000,8.842778076171875,0.0388581384435296,0.11933131282329558,-0.0006723371704574674
1782984684818851800,8.852851806640626,0.029404081399738786,0.15293898339271544,-0.0013066256191581486
1782984684828926200,8.86292626953125,0.012686463093757629,0.1458475638270378,0.02549156586481258
1782984684839000000,8.873,0.03350654828250408,0.09120002783834934,0.0520139178157784
1782984684849075200,8.8830751953125,0.04995674782395362,0.0693552757769823,0.06163933110479265
1782984684859149000,8.893149169921875,0.014293898290395736,0.03848082956373691,0.08315559099731035
1782984684869223200,8.90322314453125,-0.049669163054227826,-0.004808277064561843,0.05094682744038291
1782984684879297000,8.913297119140625,-0.06904752500206232,0.02432370939552784,0.045386919157765805
1782984684889371000,8.923370849609375,-0.009418985730409621,0.033359833288192746,0.015405859853979199
1782984684899446000,8.933446044921874,0.07078092466592788,0.066519175568223,0.03884581781807355
1782984684909520100,8.94352001953125,0.08446282853782176,-0.007915595430135727,-0.00588144098771736
1782984684919594000,8.953593994140626,0.09745645788460969,-0.04404138630032539,-0.018414704547449947
1782984684929667800,8.963667724609374,0.05297404981851577,-0.019455226576328276,0.002629261658200994
1782984684939742200,8.9737421875,-0.0073942019045352934,0.004180500555038452,-0.09692761170491576
1782984684949816800,8.98381689453125,-0.012712766578793526,0.038222470888495445,-0.18374882167084142
1782984684959891200,8.99389111328125,-0.04546820423305034,0.046805005794763564,-0.18670248384466392
1782984684969965000,9.003965087890625,-0.003865443256497383,0.06557225010693073,-0.11953947568126022
1782984684980039200,9.0140390625,0.05736614729762077,0.04364800306856632,-0.12235327272666617
1782984684990113000,9.024113037109375,0.042426352319121355,0.0317804551422596,-0.0966231945313979
1782984685000188200,9.034188232421876,0.004640519282221794,0.03581014904975891,-0.09845663876994512
1782984685010262000,9.044261962890625,0.010734159982204436,0.014043138399720191,-0.1129448083902709
1782984685020335900,9.0543359375,0.026153262910246847,-0.003586626315116882,-0.06342298138486221
1782984685030410000,9.064409912109374,0.0385901351571083,-0.015993103423714638,-0.05306631751211825
1782984685040484600,9.074484619140625,0.04455108938813209,-0.0013818097472190856,-0.09380884036356582
1782984685050559700,9.084559814453126,0.025248423025012016,-0.009745733466744422,-0.052442696587904354
1782984685060633900,9.0946337890625,0.01568798299729824,0.015501520514488219,-0.066753459248133
1782984685070707700,9.104707763671875,0.014615385329723358,0.03912497268617153,-0.08306093498379923
1782984685080781800,9.11478173828125,-0.024555180063843725,0.02802197939157486,-0.08388871844429523
1782984685090856000,9.12485595703125,-0.07068740116357802,0.043050037175416944,-0.11569398836740293
1782984685100930800,9.134930908203126,-0.05164660060703754,0.07290449269115924,-0.1427877926639281
1782984685111005000,9.1450048828125,-0.05173837054371833,0.07383914319276809,-0.14471546365772373
1782984685121078800,9.155078857421875,-0.06737550013661384,0.10274024350643157,-0.058979934603231955
1782984685131153000,9.16515283203125,-0.08783551984131335,0.08788461968004703,0.045140725844353434
1782984685141226800,9.175226806640625,-0.0726882195919752,0.05441197366714477,0.12312577320281415
1782984685151302000,9.185302001953126,-0.0013619360029697416,0.06471183388531207,0.23214200997250153
1782984685161375700,9.195375732421875,0.0761000738620758,0.0670809011042118,0.2408392390333116
1782984685171449900,9.205449951171875,0.15076806909441948,0.07721475710570812,0.16283086559819057
1782984685181523700,9.215523681640626,0.2314239065647125,0.11649462809264659,0.05720882871090434
1782984685191597800,9.225597900390625,0.27020751846730706,0.12346212901771068,-0.04669301505396142
1782984685201672000,9.235671875,0.16712649869918822,0.08451192837655544,-0.05541051515124272
1782984685211746800,9.245746826171874,-0.05565349816083908,0.03764554778337478,-0.035478126916685136
1782984685221821000,9.255821044921875,-0.1300479371488094,-0.01140636015534401,-0.0580931418313412
1782984685231894800,9.265894775390626,-0.17488193513154981,-0.022583587729930875,-0.06755740974189248
1782984685241969000,9.275968994140625,-0.21756781516969204,0.06376724651157856,-0.1420010992656462
1782984685252042800,9.286042724609375,-0.12395721905827521,0.0672422291457653,-0.10136714678863062
1782984685262118000,9.296117919921874,-0.028215456137061116,0.08259878823161125,-0.054856045906525104
1782984685272191700,9.306191650390625,-0.007056348252296447,0.02939969748556614,-0.022444234058167783
1782984685282265600,9.316265625,-0.0259504338145256,0.04105740205347538,-0.03981286361878737
1782984685292339700,9.326339599609375,-0.005839958199858665,0.11861994968354701,0.008403761397924972
1782984685302413800,9.336413818359375,-0.04512392084002494,0.07401449975967407,0.014900883173639886
1782984685312488700,9.34648876953125,-0.025970307558774948,0.006340893459320068,0.01639855383589165
1782984685322562800,9.356562744140625,0.07423018833696841,0.023104981255531308,0.0018300444217748007
1782984685332637000,9.366636962890626,0.17393500967025755,0.09492577036321162,-0.0228403526697075
1782984685342710800,9.376710693359374,0.10826514440774918,0.09204641553461551,-0.026920559771603438
1782984685352785000,9.386784912109375,0.008066986599564552,0.09465630577206612,0.03400561124528758
1782984685362859800,9.39685986328125,-0.00441021765768528,0.033598318219184874,0.057531877519655966
1782984685372934000,9.406933837890625,-0.021520926934480666,-0.041001287952065466,0.10760914645073935
1782984685383007700,9.4170078125,-0.11026537831425666,-0.07195172201097011,0.1085087621715851
1782984685393081600,9.42708154296875,-0.08243336853682995,-0.0635170711427927,-0.010357184462551959
1782984685403155700,9.43715576171875,0.008552139768004417,-0.01407411805987358,-0.09540664921533316
1782984685413230800,9.44723095703125,0.06371405501961708,0.0322597630918026,-0.07254728588447906
1782984685423304700,9.4573046875,0.005745265653729438,0.019628245055675505,-0.0645097400085302
1782984685433378800,9.46737890625,-0.05755845499932766,-0.03702127840518951,-0.07142359278390649
1782984685443453000,9.477452880859374,-0.13470833017528056,-0.04595686453282833,-0.03019282062463462
1782984685453526800,9.48752685546875,-0.18855682474076746,0.01748129615485668,-0.008283634158084169
1782984685463602000,9.497601806640626,-0.13911562522351742,-0.010209259325265884,-0.05417373533132486
1782984685473675800,9.50767578125,-0.09893383696079254,0.035842297753691674,-0.08259464177945629
1782984685483750000,9.51775,-0.037785248515009875,0.06677987233102321,-0.04241833340944722
1782984685493823700,9.52782373046875,-0.07541793681681155,0.004425999748706817,-0.05882260231678374
1782984685503897600,9.537897705078125,-0.20438684655725955,-0.01654021591246128,-0.01432686897823587
1782984685513972700,9.54797265625,-0.21365794824957846,-0.027218261793255805,-0.01870668236450292
1782984685524046800,9.558046875,-0.16771394319832325,-0.07343991474211216,-0.040332375714555384
1782984685534120700,9.56812060546875,-0.016061492484807968,-0.05123100554347038,-0.01207372888973914
1782984685544194800,9.57819482421875,0.024243629896640775,0.01766951220333576,0.009962609354127197
1782984685554269000,9.58826904296875,-0.04517535876631736,0.06199906779527664,-0.0015134093707893043
1782984685564342800,9.5983427734375,0.005815992802381515,0.05329495233595371,0.0015208346254192292
1782984685574418000,9.60841796875,0.09171499162316321,0.09098609282672404,0.0335829745195806
1782984685584491800,9.61849169921875,0.1143418339729309,0.11302490615546702,-0.03334049840006046
1782984685594566000,9.62856591796875,0.1324105746269226,0.12081424485743045,-0.06757733371849171
1782984685604639700,9.6386396484375,0.015700842478871345,0.15462883617579937,-0.014137219024496153
1782984685614713600,9.648713623046875,-0.04269347882270813,0.19051731115877626,0.0031468831909820436
1782984685624788700,9.658788818359374,0.02481587682664394,0.1478343537300825,-0.05259455811479129
1782984685634862800,9.66886279296875,0.05928747074902057,0.16569032841622827,-0.05394282178543508
1782984685644936700,9.678936767578126,0.10743512332439421,0.22886194712221622,-0.03580214840639383
1782984685655010800,9.6890107421875,0.17575287274718285,0.25562837349474427,-0.05988771079764701
1782984685665085000,9.6990849609375,0.2397995207220316,0.29236791234910486,-0.047721271256310864
1782984685675159800,9.709159912109374,0.26441841367185115,0.22736498656272885,-0.08046483580968342
1782984685685234000,9.71923388671875,0.17378595658838747,0.23544366360008714,-0.008861041320394725
1782984685695307800,9.729307861328126,0.06281739844083786,0.23505554106533527,-0.062008762638806364
1782984685705382000,9.7393818359375,-0.007809796968102455,0.14142624025344847,-0.16595140877151862
1782984685715455700,9.749455810546875,-0.04635609298348427,0.09595335984528064,-0.1680512488612905
1782984685725531000,9.75953076171875,-0.11267010136842727,0.10096505052745341,-0.14794581474792212
1782984685735604700,9.769604736328125,-0.19477438408136366,0.07313888596892357,-0.15209635855611414
1782984685745678600,9.7796787109375,-0.26567747382223605,0.06867313873171806,-0.12258275236729532
1782984685755752700,9.789752685546874,-0.25360417419075965,0.08370879530012607,-0.10377210730481892
1782984685765826800,9.799826904296875,-0.12673954325318335,0.021636077746748923,-0.07032491996015887
1782984685775901700,9.809901611328126,-0.05257248328030109,-0.030180618730187413,0.08299011650360189
1782984685785975800,9.819975830078125,0.021390578553080557,-0.02329845800101757,0.20818287783935666
1782984685796050000,9.8300498046875,0.13841419895589352,0.030099370187520978,0.23192699724864213
1782984685806123800,9.840123779296874,0.15611059916615486,0.04927168816924095,0.1680356494333595
1782984685816198000,9.850197998046875,0.05476034871339798,0.10682897412478923,0.08326721641193144
1782984685826272800,9.860272705078126,0.03623509646356106,0.11262684674859046,-0.03804581284706946
1782984685836347000,9.870346923828125,0.06629530368447303,0.08751403280198573,-0.1440067217333242
1782984685846420700,9.880420654296875,0.010944587862491606,0.07813128742873668,-0.08418571949633769
1782984685856494600,9.89049462890625,-0.07739069819450378,0.08144903367459773,-0.0772110399118159
1782984685866568700,9.900568603515625,-0.016470657807588576,-0.005303951627016067,-0.09063870416115968
1782984685876643800,9.910643798828126,-0.014705986222624779,-0.02332885313928127,-0.05405124146281741
1782984685886717700,9.9207177734375,-0.035060207465291024,-0.017017185774445533,-0.037358332906407304
1782984685896791800,9.930791748046875,0.02690729614794254,-0.04541442821919918,-0.021610402166086715
1782984685906866000,9.940865966796874,0.016893851655721662,-0.03806932615339756,0.025078998441970906
1782984685916939800,9.950939697265625,0.0300637143522501,-0.011968085691332817,0.07486254055690951
1782984685927014000,9.961013916015625,0.04169219282567501,0.01467500656247139,0.08307422372363507
1782984685937088800,9.9710888671875,0.11491817255616188,0.025689737051725385,0.08739028769130817
1782984685947163000,9.981162841796875,0.17750410032868386,-0.008665537014603614,0.051143500789953396
1782984685957236700,9.99123681640625,0.07164367897510528,-0.010998948398232459,0.05716138197313994
1782984685967310600,10.001310546875,-0.06179506965577602,-0.033358664244413375,0.0649852531323675
1782984685977385700,10.0113857421875,-0.10001403341293334,-0.008200257590413092,0.06948649180806242
1782984685987459800,10.0214599609375,-0.08390461013317108,-0.03855214123427868,0.07142428233707324
1782984685997533700,10.03153369140625,-0.08395955519080162,-0.03262158214151859,0.06278486614441499
1782984686007607800,10.04160791015625,-0.012880524361133575,-0.003351648515462875,-0.019447588975855613
1782984686017682000,10.051681884765625,0.0690805504888296,0.008541033852100371,-0.011578940243273973
1782984686027755800,10.061755859375,0.11856266653835773,0.0357756622582674,-0.007970478838973212
1782984686037831000,10.071830810546874,0.11736439666450023,0.05712824688851833,-0.00800865999147063
1782984686047905000,10.081905029296875,0.07947627229690551,0.06915127763748169,0.008077960084727965
1782984686057979000,10.091978759765626,0.014078209713101386,0.0699959117680788,0.004324582917557563
1782984686068053000,10.102052978515625,-0.04244681058526039,0.06291209098696708,-0.02543162953823339
1782984686078126800,10.112126953125,0.0024678514182567596,0.04627659800648689,-0.02552816698157694
1782984686088202000,10.122201904296874,0.04640577734410763,0.045880292165279384,-0.04111416460885666
1782984686098275800,10.13227587890625,0.04152852669656276,0.07960603615641594,-0.0036768961311667223
1782984686108349700,10.142349609375,0.06471008031964302,0.10209726942777633,-0.010136442967515903
1782984686118424000,10.152424072265624,0.07963584677278995,0.0777162768870592,-0.037086000504740514
1782984686128498000,10.162497802734375,0.05275426958799362,0.05292319641411304,-0.013903519866475835
1782984686138573000,10.172572998046874,0.02723053675293922,0.07391454651653766,-0.014031701406964565
1782984686148647000,10.18264697265625,0.04686345798373222,0.11239128442704677,-0.016896774265170098
1782984686158721000,10.192720947265625,0.040944589328765865,0.06296177534759044,-0.029586532144423108
1782984686168795000,10.202794921875,0.035593291428685184,0.04061141185164451,-0.034426731867343185
1782984686178869000,10.212868896484375,0.04671498942375183,0.03311082696318626,-0.06909794001504778
1782984686188944000,10.22294384765625,0.064279287686944,-0.0022217677026987073,-0.034494346893590405
1782984686199018000,10.23301806640625,-0.010636544826626777,-0.03137538147270679,-0.006995085335022304
1782984686209091800,10.243091796875,-0.11409925738871098,-0.023378537499904633,0.02002450979768764
1782984686219165700,10.253165771484374,-0.10378770673274994,-0.030192893689870832,-0.057563309270958415
1782984686229240000,10.263239990234375,0.024172318226099013,-0.016989713245630263,-0.09183869106806813
1782984686239314700,10.273314697265626,0.1454161866724491,0.007325812843441963,-0.06466600371589884
1782984686249389000,10.28338916015625,0.15213292770683765,0.08582768715023995,-0.041699047258147035
1782984686259463000,10.293462890625,0.07408464238643646,0.13271744861900805,-0.073078127658437
1782984686269537000,10.303537109375,0.002243395012617111,0.011770517292618752,0.03057018430335447
1782984686279611000,10.31361083984375,-0.10179740969836712,0.010967384216189384,0.08723567251833156
1782984686289686000,10.32368603515625,-0.11220657550990581,0.055492754641175264,-0.0017337056245421989
1782984686299759900,10.333759765625,-0.038169279396533966,0.0606716185837984,-0.034725550417136396
1782984686309834000,10.343833984375,-0.02464519643485546,0.10429214912354945,-0.025447489261068403
1782984686319907800,10.353907958984376,-0.030033319213986394,0.023292612782120702,-0.015934916096227242
1782984686329981700,10.363981689453125,0.004108019840717315,-0.018138298758864402,-0.060218034163978876
1782984686340056800,10.374056884765626,-0.08985913462340832,-0.04017009782493114,-0.02028055321825668
1782984686350130700,10.384130615234374,-0.2562339381724596,-0.07756547023952007,0.05566958164595998
1782984686360205000,10.394205078125,-0.271477684533596,0.03396364440023899,0.08040951629271731
1782984686370279000,10.40427880859375,-0.16660276708602903,0.07174947743713855,0.0656678925011307
