time,seconds_elapsed,z,y,x
1782984676034154000,0.068154052734375,0.0022092375438660383,0.016685310751199722,0.024091005325317383
1782984676044228000,0.07822802734375,-0.0032006821129471064,-0.0033701176289469004,0.028672607615590096
1782984676054302000,0.088302001953125,-0.0036568816285580397,-0.016550367698073387,0.028862224891781807
1782984676064376000,0.0983759765625,0.00038720143493264914,-0.008350351825356483,0.021787911653518677
1782984676074451000,0.108450927734375,0.00227644806727767,-0.005886661820113659,0.01380934752523899
1782984676084525000,0.118525146484375,0.0029179046396166086,0.011513452045619488,0.012388276867568493
1782984676094599000,0.128598876953125,0.004182374104857445,0.03380490839481354,0.01679234579205513
1782984676104673000,0.138673095703125,0.004475248511880636,0.0388362780213356,0.02688508667051792
1782984676114747100,0.1487470703125,0.005852635484188795,0.038558777421712875,0.03311581909656525
1782984676124822000,0.158822021484375,0.013687972910702229,0.03336196020245552,0.02619619108736515
1782984676134896000,0.168896240234375,0.025716139003634453,0.030866047367453575,0.016063928604125977
1782984676144970000,0.178969970703125,0.031009294092655182,0.0344674214720726,0.01933540590107441
1782984676155044000,0.189044189453125,0.03309454768896103,0.015445258468389511,0.03147675842046738
1782984676165118000,0.199117919921875,0.033911388367414474,0.0018134398851543665,0.04460102692246437
1782984676175193000,0.209193115234375,0.029462575912475586,-0.0029890385922044516,0.05261687561869621
1782984676185267000,0.219266845703125,0.026687562465667725,-0.008064490742981434,0.04471873864531517
1782984676195341000,0.229341064453125,0.029517969116568565,-0.002713667694479227,0.034866105765104294
1782984676205415000,0.239414794921875,0.0279973316937685,0.006457499228417873,0.028254173696041107
1782984676215489000,0.249489013671875,0.030371805652976036,0.006987468339502811,0.021802665665745735
1782984676225563100,0.259563232421875,0.030245400965213776,0.0041956184431910515,0.02612539380788803
1782984676235638000,0.269637939453125,0.03159375861287117,-0.012867520563304424,0.031134800985455513
1782984676245712100,0.279712158203125,0.0332852303981781,-0.023700546473264694,0.0452202670276165
1782984676255786000,0.289785888671875,0.03124844655394554,-0.03704404830932617,0.05648037791252136
1782984676265860000,0.299860107421875,0.02653907798230648,-0.04681243747472763,0.060038354247808456
1782984676275934000,0.309933837890625,0.02515796385705471,-0.047508589923381805,0.05248483270406723
1782984676286009000,0.320009033203125,0.026564016938209534,-0.03699756786227226,0.02532736025750637
1782984676296083000,0.3300830078125,0.028335019946098328,-0.02572333998978138,0.0027370969764888287
1782984676306157000,0.340156982421875,0.02538927085697651,-0.0186617411673069,-0.013341105543076992
1782984676316231000,0.35023095703125,0.015248753130435944,-0.010792100802063942,-0.010418551973998547
1782984676326305000,0.360304931640625,0.005677764303982258,-0.01299238484352827,0.0034956156741827726
1782984676336380000,0.3703798828125,0.001206316752359271,-0.015564732253551483,0.013707507401704788
1782984676346454000,0.3804541015625,-0.0036318954080343246,-0.019700990989804268,0.031206395477056503
1782984676356528000,0.390528076171875,-0.009159551933407784,-0.014140311628580093,0.042161840945482254
1782984676366602000,0.40060205078125,-0.018326638266444206,-0.015505077317357063,0.05114196613430977
1782984676376676000,0.410676025390625,-0.025371233001351357,-0.01975627988576889,0.05538065358996391
1782984676386751000,0.4207509765625,-0.03070283867418766,-0.013365359976887703,0.06506612151861191
1782984676396825000,0.4308251953125,-0.03432393819093704,-0.02272157557308674,0.07490996271371841
1782984676406899000,0.44089892578125,-0.03730391338467598,-0.03750676289200783,0.0781538262963295
1782984676416973000,0.45097314453125,-0.03973431512713432,-0.038878824561834335,0.08085214346647263
1782984676427047000,0.461046875,-0.03417779505252838,-0.030007917433977127,0.07307837903499603
1782984676437122000,0.4711220703125,-0.031669627875089645,-0.022553464397788048,0.06833742558956146
1782984676447196000,0.48119580078125,-0.032332248985767365,-0.01502235047519207,0.06983102113008499
1782984676457270300,0.491270263671875,-0.038904931396245956,-0.0007273002993315458,0.0820903554558754
1782984676467344100,0.50134423828125,-0.04875979200005531,0.026063384488224983,0.10985592752695084
1782984676477418000,0.51141796875,-0.055562835186719894,0.04362107440829277,0.1503753960132599
1782984676487493000,0.5214931640625,-0.06722278892993927,0.0344281941652298,0.1873834729194641
1782984676497567000,0.53156689453125,-0.07205935567617416,0.015055028721690178,0.20919449627399445
1782984676507641000,0.54164111328125,-0.07472965866327286,-0.016968607902526855,0.21664288640022278
1782984676517715000,0.55171484375,-0.0688568502664566,-0.05308080464601517,0.2088824361562729
1782984676527789000,0.5617890625,-0.054903414100408554,-0.06976323574781418,0.20687903463840485
1782984676537864000,0.571864013671875,-0.047084636986255646,-0.06319241970777512,0.22743384540081024
1782984676547938000,0.58193798828125,-0.054431915283203125,-0.07283518463373184,0.25000327825546265
1782984676558012000,0.592011962890625,-0.0700681284070015,-0.06445128470659256,0.25909343361854553
1782984676568086300,0.602086181640625,-0.07708749175071716,-0.04202337935566902,0.2595485746860504
1782984676578160000,0.61216015625,-0.088102325797081,-0.02882981300354004,0.2651691734790802
1782984676588235300,0.6222353515625,-0.09236694872379303,-0.035280704498291016,0.2932937741279602
1782984676598309000,0.63230908203125,-0.10570485889911652,-0.06506016850471497,0.3211485743522644
1782984676608383000,0.642383056640625,-0.12068990617990494,-0.10401206463575363,0.32858267426490784
1782984676618457000,0.65245703125,-0.1250779926776886,-0.11832042783498764,0.307277649641037
1782984676628531000,0.662531005859375,-0.12247234582901001,-0.11748119443655014,0.27576613426208496
1782984676638606000,0.672606201171875,-0.11951064318418503,-0.10575583577156067,0.23208387196063995
1782984676648680000,0.682679931640625,-0.10830063372850418,-0.07872223854064941,0.2042893022298813
1782984676658754000,0.692754150390625,-0.1071631982922554,-0.03811781853437424,0.20014037191867828
1782984676668828000,0.702827880859375,-0.10839244723320007,-0.022485163062810898,0.21849405765533447
1782984676678902300,0.71290234375,-0.1160823255777359,-0.0435827262699604,0.23360909521579742
1782984676688977000,0.722976806640625,-0.12067167460918427,-0.06216132640838623,0.23141981661319733
1782984676699051300,0.73305126953125,-0.11944528669118881,-0.07006798684597015,0.230061337351799
1782984676709125000,0.743125,-0.1178072988986969,-0.0741116851568222,0.22550901770591736
1782984676719199000,0.753198974609375,-0.11230894178152084,-0.07065916806459427,0.22274786233901978
1782984676729273000,0.763273193359375,-0.11141961067914963,-0.06749037653207779,0.2113608419895172
1782984676739348000,0.773347900390625,-0.10382294654846191,-0.06256459653377533,0.1882973313331604
1782984676749422000,0.783422119140625,-0.09563098847866058,-0.0410066694021225,0.17520229518413544
1782984676759496000,0.793495849609375,-0.09218645095825195,-0.011797918006777763,0.1760084331035614
1782984676769570000,0.803570068359375,-0.08375953882932663,0.016112029552459717,0.20250657200813293
1782984676779644000,0.813643798828125,-0.07822362333536148,0.025473574176430702,0.2521907687187195
1782984676789719000,0.823718994140625,-0.0819932296872139,0.02097570151090622,0.3043454587459564
1782984676799793000,0.83379296875,-0.08578424155712128,-0.004139238502830267,0.3358727693557739
1782984676809867300,0.8438671875,-0.08702974766492844,-0.02196343243122101,0.347512423992157
1782984676819941000,0.853941162109375,-0.08144030719995499,-0.040174927562475204,0.32649582624435425
1782984676830015000,0.864014892578125,-0.06356287002563477,-0.03465466573834419,0.28254127502441406
1782984676840089000,0.874089111328125,-0.043289825320243835,0.006887984462082386,0.2594252824783325
1782984676850164000,0.8841640625,-0.0413830503821373,0.031317878514528275,0.24746818840503693
1782984676860238000,0.894238037109375,-0.04850966855883598,0.014896029606461525,0.22893497347831726
1782984676870312000,0.90431201171875,-0.05834007263183594,-0.013832839205861092,0.19391818344593048
1782984676880386000,0.914385986328125,-0.05925833433866501,-0.03182941675186157,0.12440648674964905
1782984676890461000,0.9244609375,-0.05350767448544502,-0.03209765627980232,0.04896914213895798
1782984676900535000,0.93453515625,-0.02147091180086136,0.031251490116119385,0.018997659906744957
1782984676910609000,0.94460888671875,0.04044308140873909,0.30767273902893066,0.312424898147583
1782984676920683300,0.954683349609375,0.04517578333616257,0.0555611290037632,0.4966999292373657
1782984676930757000,0.964757080078125,0.07013178616762161,-0.06823927164077759,0.6366564631462097
1782984676940831000,0.9748310546875,0.08795791864395142,-0.13184353709220886,0.7454434037208557
1782984676950906000,0.984906005859375,0.07429106533527374,-0.2619750201702118,0.8109528422355652
1782984676960980000,0.99497998046875,0.049443233758211136,-0.32433003187179565,0.8457036018371582
1782984676971054000,1.00505419921875,0.022581208497285843,-0.30227354168891907,0.8500866889953613
1782984676981128000,1.0151279296875,-0.030610108748078346,-0.28894734382629395,0.7936583161354065
1782984676991202000,1.0252021484375,-0.07763932645320892,-0.2778005301952362,0.692196249961853
1782984677001277000,1.03527685546875,-0.10367918014526367,-0.2471209168434143,0.5593077540397644
1782984677011351000,1.04535107421875,-0.12224098294973373,-0.21393387019634247,0.40593454241752625
1782984677021425000,1.0554248046875,-0.1307830661535263,-0.19941990077495575,0.254279762506485
1782984677031498200,1.065498291015625,-0.13485699892044067,-0.194258913397789,0.13799479603767395
1782984677041572400,1.075572265625,-0.13003773987293243,-0.1960267275571823,0.07107062637805939
1782984677051647200,1.085647216796875,-0.13226395845413208,-0.20511913299560547,0.06145691126585007
1782984677061721300,1.095721435546875,-0.14286281168460846,-0.21026863157749176,0.10559748113155365
1782984677071795200,1.105795166015625,-0.14800624549388885,-0.20192883908748627,0.16687843203544617
1782984677081869300,1.115869384765625,-0.1485375463962555,-0.19740626215934753,0.2250402718782425
1782984677091943200,1.125943115234375,-0.14363889396190643,-0.2023887187242508,0.263641893863678
1782984677102018300,1.136018310546875,-0.13793253898620605,-0.1926673799753189,0.29187270998954773
1782984677112092200,1.146092041015625,-0.1322730928659439,-0.16440007090568542,0.3034643828868866
1782984677122166300,1.156166259765625,-0.1228574812412262,-0.11872472614049911,0.29417315125465393
1782984677132240400,1.166240478515625,-0.11030293256044388,-0.0746517926454544,0.2788087725639343
1782984677142314200,1.176314208984375,-0.10271478444337845,-0.03905811160802841,0.26035386323928833
1782984677152389400,1.186389404296875,-0.10417751222848892,-0.01047465205192566,0.23919127881526947
1782984677162463200,1.196463134765625,-0.10330133140087128,-0.01513891201466322,0.19963109493255615
1782984677172537300,1.206537353515625,-0.09175146371126175,-0.04541934281587601,0.15051986277103424
1782984677182611200,1.216611083984375,-0.08446931093931198,-0.05486743897199631,0.10812526196241379
1782984677192685300,1.226685302734375,-0.0931866466999054,-0.028026748448610306,0.08313137292861938
1782984677202760200,1.23676025390625,-0.0946149006485939,0.01497611403465271,0.0815446600317955
1782984677212834300,1.246834228515625,-0.08079839497804642,0.0651082918047905,0.10599744319915771
1782984677222908200,1.256908203125,-0.06371314823627472,0.10772392898797989,0.15226666629314423
1782984677232982300,1.266982177734375,-0.04395898059010506,0.1300884187221527,0.21077589690685272
1782984677243056400,1.277056396484375,-0.031126007437705994,0.12133993208408356,0.26526203751564026
1782984677253131300,1.28713134765625,-0.027638697996735573,0.09918414056301117,0.3043171465396881
1782984677263205400,1.297205322265625,-0.01793334074318409,0.060297202318906784,0.3331717252731323
1782984677273279200,1.307279296875,-0.019480997696518898,0.030184095725417137,0.3314812481403351
1782984677283353300,1.317353271484375,-0.01666869968175888,0.019583648070693016,0.32096415758132935
1782984677293427200,1.32742724609375,-0.006860274821519852,0.013153687119483948,0.29039812088012695
1782984677303502300,1.33750244140625,0.009348521940410137,0.015950538218021393,0.2563461661338806
1782984677313576200,1.347576171875,0.03099709004163742,0.030480479821562767,0.22118976712226868
1782984677323650300,1.357650390625,0.04687299206852913,0.024708876386284828,0.1814652532339096
1782984677333724200,1.36772412109375,0.054430317133665085,0.02109806425869465,0.15212784707546234
1782984677343798300,1.37779833984375,0.058402422815561295,0.026183903217315674,0.12538571655750275
1782984677353873200,1.387873046875,0.061173275113105774,0.05660590901970863,0.11299511045217514
1782984677363947300,1.397947265625,0.05754418671131134,0.09870808571577072,0.11175354570150375
1782984677374021400,1.408021484375,0.04526238515973091,0.1257171481847763,0.10877399891614914
1782984677384095200,1.41809521484375,0.03850541263818741,0.1273459494113922,0.10905895382165909
1782984677394169300,1.42816943359375,0.03359141945838928,0.12023970484733582,0.1009337529540062
1782984677404244200,1.438244140625,0.03249046951532364,0.08749134838581085,0.08180959522724152
1782984677414318300,1.448318359375,0.03140004724264145,0.053559791296720505,0.0654115378856659
1782984677424392200,1.45839208984375,0.035349514335393906,0.02897242270410061,0.039431605488061905
1782984677434466300,1.46846630859375,0.03432245925068855,0.013829084113240242,0.017643248662352562
1782984677444540200,1.4785400390625,0.034822069108486176,0.020033184438943863,-0.0003695735358633101
1782984677454615300,1.488615234375,0.03938780725002289,0.04091648757457733,-0.013310876674950123
1782984677464689200,1.498689208984375,0.045877132564783096,0.05979963019490242,-0.010364089161157608
1782984677474763500,1.508763427734375,0.052262209355831146,0.06125316768884659,0.0019347290508449078
1782984677484837400,1.51883740234375,0.058687884360551834,0.038614436984062195,0.023818455636501312
1782984677494911200,1.5289111328125,0.06348405033349991,0.013246344402432442,0.04587418958544731
1782984677504986400,1.538986328125,0.06767426431179047,-0.011889901012182236,0.06554829329252243
1782984677515060200,1.549060302734375,0.07279688119888306,-0.03144358843564987,0.07106013596057892
1782984677525134300,1.55913427734375,0.07592369616031647,-0.055711910128593445,0.05625642091035843
1782984677535208200,1.569208251953125,0.0781284049153328,-0.04980257898569107,0.03844422847032547
1782984677545282300,1.5792822265625,0.07846236974000931,-0.04587894305586815,0.020735271275043488
1782984677555357200,1.589357177734375,0.07034607231616974,-0.06815585494041443,-0.004351913463324308
1782984677565431300,1.599431396484375,0.05169089511036873,-0.0717276930809021,-0.0218182560056448
1782984677575505200,1.609505126953125,0.03803793340921402,-0.05906675383448601,-0.03037898801267147
1782984677585579500,1.61957958984375,0.026615634560585022,-0.04720929637551308,-0.03685446456074715
1782984677595653400,1.6296533203125,0.01059839129447937,-0.04000530391931534,-0.03207584470510483
1782984677605728500,1.639728515625,0.0002914257347583771,-0.05018443614244461,-0.027409188449382782
1782984677615802400,1.64980224609375,-0.005084602162241936,-0.07559717446565628,-0.031928688287734985
1782984677625876200,1.659876220703125,-0.005921101197600365,-0.07853198051452637,-0.04385698586702347
1782984677635950300,1.669950439453125,-0.00426144152879715,-0.07268773764371872,-0.062302615493535995
1782984677646024200,1.680024169921875,-0.0019697914831340313,-0.05203146114945412,-0.09458145499229431
1782984677656098300,1.690098388671875,-0.0011132212821394205,-0.0015705013647675514,-0.13753370940685272
1782984677666173200,1.700173095703125,0.001868986408226192,0.05802092328667641,-0.19151359796524048
1782984677676247300,1.710247314453125,0.011303789913654327,0.09606637060642242,-0.2585775554180145
1782984677686321200,1.720321044921875,0.012873190455138683,0.09974499046802521,-0.3139212131500244
1782984677696395500,1.7303955078125,0.009207907132804394,0.07424100488424301,-0.3483368158340454
1782984677706469400,1.740469482421875,0.0040269941091537476,0.022343723103404045,-0.36431923508644104
1782984677716544500,1.75054443359375,-0.0028127548284828663,-0.02688923291862011,-0.35592636466026306
1782984677726618400,1.760618408203125,-0.0030324654653668404,-0.07680166512727737,-0.3443743586540222
1782984677736692200,1.770692138671875,0.002657666802406311,-0.12425247579813004,-0.32830798625946045
1782984677746766300,1.780766357421875,0.004316017031669617,-0.13920292258262634,-0.29727232456207275
1782984677756840200,1.790840087890625,0.0005046242149546742,-0.11278974264860153,-0.23142388463020325
1782984677766915300,1.800915283203125,-0.0012269631261005998,-0.0846577063202858,-0.12743330001831055
1782984677776989200,1.8109892578125,-0.01804436556994915,-0.06370356678962708,-0.01535800937563181
1782984677787063300,1.821063232421875,-0.02580375224351883,-0.03602692857384682,0.09483987092971802
1782984677797137200,1.83113720703125,-0.025124697014689445,-0.02419324964284897,0.18822620809078217
1782984677807211500,1.84121142578125,-0.022662337869405746,-0.019767608493566513,0.273175984621048
1782984677817286100,1.8512861328125,-0.017400292679667473,-0.012256638146936893,0.3481754958629608
1782984677827360500,1.861360595703125,-0.017040764912962914,-0.010574585758149624,0.39049074053764343
1782984677837434400,1.871434326171875,-0.014904355630278587,-0.007845845073461533,0.3842504620552063
1782984677847508200,1.88150830078125,-0.011664087884128094,-0.013746611773967743,0.3411189615726471
1782984677857582300,1.891582275390625,-0.013064664788544178,-0.019094059243798256,0.28439879417419434
1782984677867657200,1.9016572265625,-0.025715477764606476,-0.004404863342642784,0.2349414974451065
1782984677877731300,1.9117314453125,-0.04258980229496956,0.006475238129496574,0.20400209724903107
1782984677887805200,1.92180517578125,-0.05229329690337181,0.0067412881180644035,0.1829061359167099
1782984677897879300,1.93187939453125,-0.05333626642823219,0.01728435978293419,0.17025615274906158
1782984677907953200,1.941953125,-0.054367974400520325,0.022606421262025833,0.14985473453998566
1782984677918028300,1.9520283203125,-0.05925765261054039,0.019933398813009262,0.12458673864603043
1782984677928102100,1.96210205078125,-0.0762731283903122,0.019174931570887566,0.0738694965839386
1782984677938176500,1.972176513671875,-0.10228148102760315,0.023423615843057632,0.0025248504243791103
1782984677948250400,1.98225048828125,-0.10978733748197556,0.04929409548640251,-0.07747277617454529
1782984677958324200,1.99232421875,-0.0963178426027298,0.09399345517158508,-0.12998920679092407
1782984677968399400,2.0023994140625,-0.06615781038999557,0.10684587061405182,-0.14276492595672607
1782984677978473200,2.01247314453125,-0.046902742236852646,0.029711665585637093,-0.13971126079559326
1782984677988547300,2.02254736328125,-0.02682197280228138,-0.007902289740741253,-0.1009548231959343
1782984677998621200,2.03262109375,-0.014281680807471275,-0.024427736178040504,-0.06127185747027397
1782984678008695300,2.0426953125,-0.018832489848136902,-0.057360921055078506,-0.05149645730853081
1782984678018769200,2.05276904296875,-0.024137727916240692,-0.08412263542413712,-0.056197118014097214
1782984678028844300,2.06284423828125,-0.035401567816734314,-0.029872708022594452,-0.03786924481391907
1782984678038919200,2.072919189453125,-0.03130754083395004,0.0367368720471859,-0.006578498054295778
1782984678048993000,2.082992919921875,-0.022853603586554527,0.04284136742353439,0.008826024830341339
1782984678059067100,2.093067138671875,-0.006998809520155191,-0.0059676216915249825,0.021366599947214127
1782984678069141200,2.103141357421875,-0.00038618053076788783,-0.05792029947042465,0.040546152740716934
1782984678079216000,2.113216064453125,-0.002455672714859247,-0.10873760282993317,0.03963887691497803
1782984678089290200,2.123290283203125,0.002995018847286701,-0.13944198191165924,0.026951313018798828
1782984678099364000,2.133364013671875,0.003812073729932308,-0.1340722292661667,-0.006590524222701788
1782984678109438200,2.143438232421875,-0.00699316943064332,-0.09280068427324295,-0.03584161773324013
1782984678119512000,2.153511962890625,-0.025539832189679146,-0.03232673183083534,-0.045271966606378555
1782984678129587200,2.163587158203125,-0.05524659529328346,0.019465358927845955,-0.04989894479513168
1782984678139661000,2.1736611328125,-0.0775279775261879,0.07208055257797241,-0.05835800617933273
1782984678149735200,2.183735107421875,-0.074371337890625,0.10529816150665283,-0.07482486218214035
1782984678159809000,2.19380908203125,-0.04811697080731392,0.09975448250770569,-0.08380141109228134
1782984678169883100,2.203883056640625,-0.030756093561649323,0.07049912214279175,-0.07570619881153107
1782984678179958000,2.2139580078125,-0.03965410217642784,0.028969835489988327,-0.06426675617694855
1782984678190032100,2.2240322265625,-0.051460426300764084,-0.011328318156301975,-0.05407164990901947
1782984678200106200,2.234106201171875,-0.04649508371949196,-0.04744289070367813,-0.053985677659511566
1782984678210180000,2.24418017578125,-0.03602646663784981,-0.06257257610559464,-0.06370887905359268
1782984678220254200,2.254254150390625,-0.026927921921014786,-0.060336340218782425,-0.08048274368047714
1782984678230329000,2.2643291015625,-0.020666297525167465,-0.055520012974739075,-0.09273355454206467
1782984678240403200,2.2744033203125,-0.024596059694886208,-0.017842676490545273,-0.10219176858663559
1782984678250477000,2.28447705078125,-0.031147968024015427,0.03523039445281029,-0.10456997156143188
1782984678260551200,2.29455126953125,-0.031802523881196976,0.08111622929573059,-0.09128805249929428
1782984678270625000,2.304625,-0.04179896414279938,0.104696124792099,-0.05197952687740326
1782984678280700200,2.3147001953125,-0.051959071308374405,0.08593254536390305,-0.012277604080736637
1782984678290774000,2.32477392578125,-0.03795430436730385,0.028466051444411278,0.015133513137698174
1782984678300848000,2.33484814453125,-0.024924473837018013,-0.03095139190554619,0.023667944595217705
1782984678310922200,2.344922119140625,-0.01033833995461464,-0.06846840679645538,0.015568739734590054
1782984678320996000,2.35499609375,0.00932835228741169,-0.07868073135614395,-0.004103556275367737
1782984678331071200,2.3650712890625,0.02335895039141178,-0.07447852939367294,-0.033396463841199875
1782984678341145000,2.37514501953125,0.025728680193424225,-0.043465401977300644,-0.05222095176577568
1782984678351219200,2.38521923828125,0.01981513202190399,-0.010869910940527916,-0.07141701132059097
1782984678361293000,2.39529296875,0.01834496669471264,0.0019096469040960073,-0.08059360831975937
1782984678371367200,2.4053671875,0.018383847549557686,0.010623243637382984,-0.0820426344871521
1782984678381442000,2.415442138671875,0.016741914674639702,0.014511249028146267,-0.07566051185131073
1782984678391516200,2.42551611328125,0.021947596222162247,0.01095220074057579,-0.06323154270648956
1782984678401590000,2.435590087890625,0.029444321990013123,-0.002224730560556054,-0.03767408803105354
1782984678411664100,2.4456640625,0.01974295824766159,-0.008127360604703426,-0.015292619355022907
1782984678421738200,2.45573828125,0.024584515020251274,-0.007709147408604622,-0.004913732409477234
1782984678431812000,2.46581201171875,0.026384811848402023,-0.001220621750690043,-0.004013850353658199
1782984678441887200,2.47588720703125,0.02186772972345352,0.010586828924715519,-0.00794642511755228
1782984678451961000,2.485961181640625,0.020788349211215973,0.017148591578006744,-0.008438843302428722
1782984678462035200,2.49603515625,0.02611902356147766,0.01081263180822134,-0.010602101683616638
1782984678472109000,2.506109130859375,0.029258091002702713,0.004015445709228516,-0.00044160959077998996
1782984678482183200,2.51618310546875,0.03052355721592903,-0.003838918637484312,0.0068884906359016895
1782984678492258000,2.526258056640625,0.032411471009254456,-0.017213845625519753,0.007118321023881435
1782984678502332200,2.536332275390625,0.03332851827144623,-0.0200706385076046,0.01214695256203413
1782984678512406000,2.546406005859375,0.023754455149173737,-0.006599570624530315,0.010495792143046856
1782984678522480000,2.556480224609375,0.019953325390815735,0.008886445313692093,0.010178077034652233
1782984678532554200,2.56655419921875,0.017722928896546364,0.015100665390491486,0.009390846826136112
1782984678542629000,2.576629150390625,0.01823502779006958,0.005612049251794815,0.014602221548557281
1782984678552703200,2.586703125,0.019050488248467445,-0.012752044014632702,0.01891600899398327
1782984678562777000,2.596777099609375,0.015000112354755402,-0.028085952624678612,0.020576922222971916
1782984678572851200,2.606851318359375,0.014538586139678955,-0.04022038355469704,0.014657780528068542
1782984678582925000,2.616925048828125,0.017068803310394287,-0.03396895155310631,0.007034416310489178
1782984678593000200,2.627000244140625,0.022047318518161774,-0.01672472059726715,-0.007104572374373674
1782984678603074000,2.637073974609375,0.021808627992868423,0.0014567773323506117,-0.019823549315333366
1782984678613148200,2.647148193359375,0.022533008828759193,0.027166934683918953,-0.0376528799533844
1782984678623222000,2.657221923828125,0.02436981350183487,0.049787625670433044,-0.04974012449383736
1782984678633296100,2.667296142578125,0.02533334493637085,0.06478548049926758,-0.05717114359140396
1782984678643371000,2.67737109375,0.02227664180099964,0.06051018461585045,-0.05609618499875069
1782984678653445000,2.687445068359375,0.02154906652867794,0.052188340574502945,-0.04257851094007492
1782984678663519200,2.697519287109375,0.02136876992881298,0.03745759651064873,-0.01369359903037548
1782984678673593000,2.707593017578125,0.012493519112467766,0.026326116174459457,0.01710852049291134
1782984678683667200,2.717667236328125,0.008016891777515411,0.011561837047338486,0.04160928726196289
1782984678693742000,2.7277421875,0.012229213491082191,0.009282704442739487,0.062033068388700485
1782984678703816200,2.737816162109375,0.006379627622663975,0.018801210448145866,0.07035991549491882
1782984678713890000,2.74789013671875,0.0018863423028960824,0.006538686342537403,0.07773207873106003
1782984678723964200,2.757964111328125,0.0011661782627925277,-0.005107978358864784,0.07209594547748566
1782984678734038000,2.7680380859375,0.0027491613291203976,-0.007013469934463501,0.05809144675731659
1782984678744112000,2.778112060546875,0.008301005698740482,-0.004423648584634066,0.040997471660375595
1782984678754187000,2.78818701171875,0.011003314517438412,-0.008024242706596851,0.02357720211148262
1782984678764261000,2.79826123046875,0.012604066170752048,0.0017952458001673222,0.008709077723324299
1782984678774335200,2.808335205078125,0.018995387479662895,0.027540290728211403,0.004361999686807394
1782984678784409000,2.8184091796875,0.014487308450043201,0.037127651274204254,0.011825558729469776
1782984678794484200,2.828484130859375,0.005977975204586983,0.01977103017270565,0.011140594258904457
1782984678804558000,2.83855810546875,0.006724775768816471,0.016271982342004776,0.013207538053393364
1782984678814632200,2.848632080078125,0.0051061068661510944,0.020186828449368477,0.013052542693912983
1782984678824706000,2.8587060546875,-0.0027416006196290255,0.024905093014240265,0.014651655219495296
1782984678834780200,2.8687802734375,-0.010780884884297848,0.03600594401359558,0.007886960171163082
1782984678844854000,2.87885400390625,-0.010234476998448372,0.05739152058959007,0.013823304325342178
1782984678854929200,2.88892919921875,-0.009385993704199791,0.07287513464689255,0.02948695234954357
1782984678865003000,2.8990029296875,-0.013351612724363804,0.07238559424877167,0.05297086015343666
1782984678875077000,2.9090771484375,-0.008676166646182537,0.04789809137582779,0.06170256435871124
1782984678885151200,2.919151123046875,0.007087255362421274,0.009153950028121471,0.05059543251991272
1782984678895225000,2.92922509765625,0.027834611013531685,-0.01552582997828722,0.031800173223018646
1782984678905300200,2.93930029296875,0.041727397590875626,-0.0029197107069194317,0.011284605599939823
1782984678915374000,2.9493740234375,0.04320785030722618,0.011784400790929794,-0.002918032929301262
1782984678925448200,2.9594482421875,0.03979600965976715,0.010708821937441826,-0.013685055077075958
1782984678935522000,2.96952197265625,0.03563322126865387,0.01983068138360977,-0.01857035793364048
1782984678945596200,2.97959619140625,0.03579077869653702,0.03260704129934311,-0.021143367514014244
1782984678955671000,2.989671142578125,0.04063453525304794,0.03573918342590332,-0.03289429843425751
1782984678965745200,2.9997451171875,0.04843026399612427,0.04334435239434242,-0.048587456345558167
1782984678975819000,3.009819091796875,0.049484074115753174,0.04792099446058273,-0.06092854589223862
1782984678985893400,3.019893310546875,0.03671044483780861,0.04661860316991806,-0.05760433152318001
1782984678995967200,3.02996728515625,0.02654382400214672,0.03935270383954048,-0.053199995309114456
1782984679006042400,3.04004248046875,0.020197294652462006,0.03908992558717728,-0.03761591017246246
1782984679016116200,3.0501162109375,0.015923455357551575,0.04976467415690422,-0.018123436719179153
1782984679026190000,3.060190185546875,0.012085233815014362,0.047937069088220596,0.0003169821866322309
1782984679036264000,3.070263916015625,0.011291079223155975,0.046048354357481,0.01211185660213232
1782984679046338000,3.080338134765625,0.008549932390451431,0.05540524050593376,0.030431559309363365
1782984679056413000,3.090412841796875,0.00753180542960763,0.04696381837129593,0.039577919989824295
1782984679066487000,3.100487060546875,0.011339983902871609,0.02638898603618145,0.040666528046131134
1782984679076561000,3.110560791015625,0.021456267684698105,0.016871115192770958,0.04438163712620735
1782984679086635000,3.120635009765625,0.027290746569633484,0.013273223303258419,0.03881499543786049
1782984679096709000,3.130709228515625,0.02588273212313652,0.007994038984179497,0.02443845383822918
1782984679106784000,3.140783935546875,0.020778058096766472,0.018341895192861557,0.02109895832836628
1782984679116858000,3.150858154296875,0.01901344768702984,0.03796086832880974,0.012545152567327023
1782984679126932200,3.16093212890625,0.008701108396053314,0.049480803310871124,0.013114593923091888
1782984679137006000,3.171006103515625,0.004128193948417902,0.054061971604824066,0.019960515201091766
1782984679147080000,3.181079833984375,0.0022726464085280895,0.05466122552752495,0.03488949313759804
1782984679157155000,3.191155029296875,0.0013807539362460375,0.04611514136195183,0.05211375281214714
1782984679167229000,3.20122900390625,-0.003392915241420269,0.03177092969417572,0.0731193795800209
1782984679177303000,3.211302978515625,-0.011390919797122478,0.02665579691529274,0.10441791266202927
1782984679187377000,3.221376953125,-0.014117052778601646,0.027255292981863022,0.13622665405273438
1782984679197451000,3.231450927734375,-0.008878614753484726,0.025658462196588516,0.15999962389469147
1782984679207525000,3.241525146484375,-0.0039749834686517715,0.02675691246986389,0.17494960129261017
1782984679217600000,3.25160009765625,-0.00039569492219015956,0.012324975803494453,0.16047611832618713
1782984679227674000,3.261674072265625,0.005406704731285572,-0.00478817243129015,0.13426941633224487
1782984679237748200,3.271748291015625,0.014330425299704075,-0.009350433945655823,0.09855774790048599
1782984679247822000,3.281822021484375,0.014469539746642113,-0.00601970124989748,0.052740465849637985
1782984679257896000,3.29189599609375,0.02071811445057392,0.010853288695216179,0.0072920238599181175
1782984679267971000,3.30197119140625,0.03330016881227493,0.018267448991537094,-0.03333589434623718
1782984679278045000,3.312044921875,0.03899427503347397,0.022261125966906548,-0.06003515049815178
1782984679288119000,3.322119140625,0.03826352581381798,0.025180255994200706,-0.06758877635002136
1782984679298193000,3.33219287109375,0.03236542269587517,0.017584919929504395,-0.06173354759812355
1782984679308267000,3.34226708984375,0.02571234107017517,0.0073744007386267185,-0.0465933121740818
1782984679318342000,3.352341796875,0.025622591376304626,0.0026403656229376793,-0.03327484428882599
1782984679328416000,3.362416015625,0.02768385037779808,0.02034158445894718,-0.02664892189204693
1782984679338490000,3.372489990234375,0.02949160523712635,0.028946788981556892,-0.02635757066309452
1782984679348564200,3.382564208984375,0.030726078897714615,0.03389459103345871,-0.021315401419997215
1782984679358638000,3.39263818359375,0.03142382577061653,0.034294866025447845,-0.01006381120532751
1782984679368713200,3.402713134765625,0.026688506826758385,0.02783174440264702,0.007008058484643698
1782984679378787000,3.412787109375,0.027224866673350334,0.01409249659627676,0.010992147959768772
1782984679388861000,3.42286083984375,0.033265769481658936,0.004743547178804874,0.005786265712231398
1782984679398935000,3.43293505859375,0.034758470952510834,-0.004182569682598114,-0.0040842080488801
1782984679409009000,3.4430087890625,0.03579680621623993,-0.018108783289790154,-0.019048532471060753
1782984679419084000,3.453083984375,0.036318518221378326,-0.025176813825964928,-0.03160347416996956
1782984679429158000,3.463157958984375,0.03510022163391113,-0.021988829597830772,-0.04248141124844551
1782984679439232000,3.47323193359375,0.02545957826077938,0.0051698219031095505,-0.04513445124030113
1782984679449306000,3.48330615234375,0.017733171582221985,0.03537207096815109,-0.03307361528277397
1782984679459380200,3.493380126953125,0.010824664495885372,0.05455055832862854,-0.013207766227424145
1782984679469455000,3.503455078125,0.0098806694149971,0.041674114763736725,0.014552110806107521
1782984679479529200,3.513529296875,0.009286518208682537,0.023070070892572403,0.03688564524054527
1782984679489603000,3.52360302734375,0.018026696518063545,-0.001681426540017128,0.038962848484516144
1782984679499677000,3.533677001953125,0.028679074719548225,-0.028016626834869385,0.023375364020466805
1782984679509751000,3.5437509765625,0.03287641331553459,-0.03538176789879799,0.006841144058853388
1782984679519825000,3.553824951171875,0.029336538165807724,-0.03015131875872612,-0.01488412544131279
1782984679529900000,3.563900146484375,0.021636949852108955,-0.011342698708176613,-0.03318527713418007
1782984679539974000,3.573973876953125,0.014054931700229645,0.01972014456987381,-0.04022800549864769
1782984679550048000,3.584048095703125,0.011922851204872131,0.04675878956913948,-0.023311929777264595
1782984679560122000,3.5941220703125,0.0050465697422623634,0.04602216184139252,-0.0027560547459870577
1782984679570196000,3.604196044921875,0.0057666408829391,0.02857382409274578,0.018779920414090157
1782984679580271000,3.61427099609375,0.008393583819270134,0.0027403628919273615,0.029162520542740822
1782984679590345200,3.62434521484375,0.01065962202847004,-0.012514086440205574,0.02936377003788948
1782984679600419000,3.634419189453125,0.00819779559969902,-0.00535923708230257,0.030066311359405518
1782984679610493000,3.644492919921875,0.002135059330612421,0.009506714530289173,0.02251245640218258
1782984679620567000,3.654567138671875,-0.000994154834188521,0.013469764962792397,0.019475920125842094
1782984679630642000,3.664641845703125,0.00034677167423069477,0.01744457148015499,0.01919911801815033
1782984679640716000,3.674716064453125,0.0023204402532428503,0.03526058793067932,0.014156156219542027
1782984679650790000,3.684789794921875,0.0011280197650194168,0.040148328989744186,0.021824289113283157
1782984679660864000,3.694864013671875,0.00212617265060544,0.02621414139866829,0.02581370435655117
1782984679670938000,3.704938232421875,0.005850847810506821,0.0036847975570708513,0.0303341094404459
1782984679681013000,3.715012939453125,0.005242581479251385,-0.013001237995922565,0.028064563870429993
1782984679691087000,3.725087158203125,0.007812724448740482,-0.014346810057759285,0.011559782549738884
1782984679701161200,3.7351611328125,0.013477002270519733,-0.004574873019009829,-0.008186757564544678
1782984679711235000,3.745235107421875,0.01811262220144272,0.0015144250355660915,-0.03254717215895653
1782984679721309000,3.755308837890625,0.019124623388051987,0.01292074378579855,-0.049020420759916306
1782984679731384000,3.765384033203125,0.014861967414617538,0.013972426764667034,-0.0617937408387661
1782984679741458000,3.7754580078125,0.00975109450519085,0.02094564586877823,-0.059668272733688354
1782984679751532000,3.785531982421875,0.008183823898434639,0.030432892963290215,-0.04236065596342087
1782984679761606000,3.79560595703125,0.002955772913992405,0.02679075300693512,-0.017115488648414612
1782984679771680000,3.805679931640625,-0.0027416483499109745,0.0207001231610775,0.006092845927923918
1782984679781755000,3.8157548828125,-0.008213113062083721,0.013705598190426826,0.03367547318339348
1782984679791829000,3.8258291015625,-0.016644198447465897,0.007520060986280441,0.04242229461669922
1782984679801903000,3.835903076171875,-0.02297826111316681,-0.006757144816219807,0.038663774728775024
1782984679811977200,3.845977294921875,-0.026858218014240265,-0.014797786250710487,0.025198686867952347
1782984679822051000,3.856051025390625,-0.03102899342775345,-0.004379500634968281,0.005884111393243074
1782984679832126200,3.866126220703125,-0.02833600901067257,0.012240514159202576,-0.002836798783391714
1782984679842200000,3.876199951171875,-0.025057123973965645,0.021063033491373062,-0.010459031909704208
1782984679852274000,3.88627392578125,-0.022643793374300003,0.01590125821530819,-0.006203999277204275
1782984679862348000,3.89634814453125,-0.014994129538536072,0.006134380120784044,-0.005064965225756168
1782984679872422000,3.906421875,-0.007992799393832684,-0.007138262502849102,-0.008617672137916088
1782984679882496000,3.91649609375,-0.006016201339662075,-0.007835744880139828,-0.013017214834690094
1782984679892571000,3.92657080078125,-0.0053678639233112335,0.003280776087194681,-0.003601434640586376
1782984679902645000,3.93664501953125,-0.009642237797379494,0.0021729012951254845,0.00017759075853973627
1782984679912719000,3.946718994140625,-0.01658562943339348,-0.006627270951867104,0.005202032625675201
1782984679922793000,3.95679296875,-0.025651030242443085,-0.004139079712331295,0.010233277454972267
1782984679932867000,3.9668671875,-0.037878233939409256,0.008869213052093983,0.01378539390861988
1782984679942942200,3.976942138671875,-0.044255439192056656,0.019460072740912437,0.019395608454942703
1782984679953016000,3.98701611328125,-0.04727902635931969,0.02569464221596718,0.025865094736218452
1782984679963090000,3.99708984375,-0.04888065159320831,0.016091549769043922,0.024902096018195152
1782984679973164000,4.0071640625,-0.052483852952718735,0.008486679755151272,0.02173738367855549
1782984679983238000,4.01723779296875,-0.05233977735042572,0.00044606439769268036,0.01951018162071705
1782984679993313000,4.02731298828125,-0.04724888131022453,0.007645944599062204,0.015177896246314049
1782984680003387000,4.037386962890625,-0.050927504897117615,0.032296959310770035,0.02444942481815815
1782984680013461000,4.0474609375,-0.057433366775512695,0.05992136150598526,0.04327647387981415
1782984680023535000,4.05753515625,-0.06608517467975616,0.09218315780162811,0.07685121893882751
1782984680033609000,4.06760888671875,-0.0797046348452568,0.11437197774648666,0.12099583446979523
1782984680043684000,4.07768408203125,-0.08549754321575165,0.1152404397726059,0.15535619854927063
1782984680053758000,4.087758056640625,-0.08173127472400665,0.09235595911741257,0.17556963860988617
1782984680063831800,4.097831787109375,-0.07907876372337341,0.05833514407277107,0.17375655472278595
1782984680073906000,4.107906005859375,-0.08534951508045197,0.04317492991685867,0.15569129586219788
1782984680083979800,4.117979736328125,-0.08339102566242218,0.047210950404405594,0.1272740364074707
1782984680094055000,4.128054931640625,-0.07053326070308685,0.06754904240369797,0.09561999887228012
1782984680104128800,4.138128662109375,-0.05450183153152466,0.06617777794599533,0.0619664341211319
1782984680114203000,4.148202880859375,-0.03291594237089157,0.04813705384731293,0.027518292888998985
1782984680124277000,4.158277099609375,-0.007787152659147978,0.01644090935587883,-0.01956293359398842
1782984680134351000,4.16835107421875,0.017362309619784355,-0.022775916382670403,-0.06999894976615906
1782984680144426000,4.178426025390625,0.03432052209973335,-0.04903441667556763,-0.11898007243871689
1782984680154500000,4.1885,0.04260341450572014,-0.04640524461865425,-0.14708146452903748
1782984680164574000,4.198573974609375,0.033604059368371964,-0.02383469231426716,-0.1569247841835022
1782984680174647800,4.208647705078125,0.021988486871123314,-0.0053716255351901054,-0.14635631442070007
1782984680184722000,4.218721923828125,0.01780998706817627,0.008268286474049091,-0.12559883296489716
1782984680194796800,4.228796875,0.007034695707261562,0.0073553090915083885,-0.09728819131851196
1782984680204871000,4.238870849609375,0.01149948500096798,0.0028905197978019714,-0.06898704171180725
1782984680214944800,4.24894482421875,0.015118284150958061,-0.0010859050089493394,-0.04747201129794121
1782984680225019000,4.259018798828125,0.018732726573944092,0.004468117840588093,-0.029714319854974747
1782984680235093000,4.269093017578125,0.017191210761666298,0.014225559309124947,-0.01832421123981476
1782984680245167900,4.27916796875,0.011256622150540352,0.02091968059539795,-0.019305318593978882
1782984680255242000,4.289241943359375,0.008324004709720612,0.026599720120429993,-0.0221970584243536
1782984680265316000,4.299316162109375,0.013671631924808025,0.02982986904680729,-0.026563044637441635
1782984680275390000,4.309389892578125,0.015012970194220543,0.029106082394719124,-0.028921425342559814
1782984680285463800,4.3194638671875,0.016426309943199158,0.03739836439490318,-0.026403140276670456
1782984680295538000,4.329537841796875,0.019472675397992134,0.06398706138134003,-0.006448238622397184
1782984680305612800,4.33961279296875,0.024433080106973648,0.06323844939470291,0.016702620312571526
1782984680315687000,4.34968701171875,0.02774788998067379,0.0515119768679142,0.03412565216422081
1782984680325760800,4.3597607421875,0.027906080707907677,0.03437773138284683,0.046621471643447876
1782984680335835000,4.3698349609375,0.025720063596963882,0.015322072431445122,0.03766963630914688
1782984680345909000,4.379908935546875,0.02059773914515972,0.005748541560024023,0.013409305363893509
1782984680355984000,4.38998388671875,0.015853561460971832,0.017459752038121223,-0.010861045680940151
1782984680366058000,4.40005810546875,0.01111393142491579,0.04279014468193054,-0.03515467047691345
1782984680376132000,4.410132080078125,0.01130952499806881,0.062491416931152344,-0.052375271916389465
1782984680386206000,4.4202060546875,0.01017022505402565,0.0681903138756752,-0.05115048214793205
1782984680396279800,4.43027978515625,0.0072335610166192055,0.07210034132003784,-0.03247174993157387
1782984680406355000,4.44035498046875,0.004874798469245434,0.05869132652878761,-0.01184343546628952
1782984680416428800,4.4504287109375,0.008578358218073845,0.04414122924208641,0.0049256831407547
1782984680426503000,4.4605029296875,0.013457803055644035,0.0292658768594265,0.017999673262238503
1782984680436576800,4.47057666015625,0.025144748389720917,0.022648019716143608,0.02987205982208252
1782984680446651000,4.48065087890625,0.02913602814078331,0.019566742703318596,0.03265240043401718
1782984680456725800,4.490725830078125,0.026686158031225204,0.02558121085166931,0.028867492452263832
1782984680466799900,4.5007998046875,0.028301632031798363,0.02298063412308693,0.013806251809000969
1782984680476874000,4.5108740234375,0.02533046528697014,0.03008883260190487,-0.0010244520381093025
1782984680486948000,4.520947998046875,0.024402886629104614,0.04442968592047691,-0.01880052126944065
1782984680497022000,4.53102197265625,0.022533543407917023,0.050942014902830124,-0.03091229684650898
1782984680507097000,4.54109716796875,0.016533974558115005,0.06272144615650177,-0.027015293017029762
1782984680517171000,4.5511708984375,0.008804435841739178,0.0628347098827362,-0.016952617093920708
1782984680527244800,4.561244873046875,0.004173731431365013,0.04789065569639206,-0.003958522342145443
1782984680537319000,4.57131884765625,0.0038843187503516674,0.03373023495078087,0.0005923956632614136
1782984680547392800,4.581392822265625,0.003906156402081251,0.024404112249612808,-0.0038763887714594603
1782984680557468000,4.591468017578125,0.0007977623026818037,0.02251816727221012,-0.00989172887057066
1782984680567541800,4.601541748046875,-0.0010624557035043836,0.027967527508735657,-0.014970643445849419
1782984680577616000,4.611615966796875,-0.002090410329401493,0.03631817176938057,-0.018161477521061897
1782984680587690000,4.62168994140625,0.0043938541784882545,0.043986476957798004,-0.021149544045329094
1782984680597764000,4.63176416015625,0.005994826555252075,0.045969754457473755,-0.01903184875845909
1782984680607839000,4.6418388671875,0.010966150090098381,0.030861109495162964,-0.015160943381488323
1782984680617913000,4.6519130859375,0.008820414543151855,0.012896982952952385,-0.008068046532571316
1782984680627987000,4.661987060546875,0.002585422247648239,0.01670823246240616,0.004315652884542942
1782984680638060800,4.672060791015625,-0.0004710372886620462,0.008616829290986061,0.013435713946819305
1782984680648135000,4.682135009765625,-0.0014217857969924808,0.0019607904832810163,0.011981627903878689
1782984680658208800,4.692208740234375,0.002906044712290168,0.004055489785969257,0.0039816503413021564
1782984680668284000,4.702283935546875,0.005772138014435768,0.00014623557217419147,-0.00840737484395504
1782984680678357800,4.712357666015625,0.006670447997748852,0.0002091259229928255,-0.016276584938168526
1782984680688431900,4.722431884765625,0.0037231273017823696,-0.0001772986724972725,-0.022998670116066933
1782984680698506000,4.732506103515625,-0.002375414129346609,0.012578627094626427,-0.024328645318746567
1782984680708580000,4.742580078125,-0.020239366218447685,0.05707019567489624,-0.01610826514661312
1782984680718655000,4.752655029296875,-0.03693491965532303,0.0878346636891365,-0.011999554932117462
1782984680728729000,4.76272900390625,-0.027326764538884163,0.09126880764961243,-0.003660398768261075
1782984680738803000,4.772802978515625,-0.015405610203742981,0.06406259536743164,0.00917278416454792
1782984680748876800,4.782876708984375,-0.002629361115396023,0.006543642375618219,0.0093525480479002
1782984680758951000,4.792950927734375,0.010579651221632957,-0.03654630109667778,0.0010213806526735425
1782984680769025800,4.80302587890625,0.02118515782058239,-0.058297138661146164,-0.012428115122020245
1782984680779100000,4.813099853515625,0.02300438843667507,-0.05257396772503853,-0.023175403475761414
1782984680789173800,4.823173828125,0.016048744320869446,-0.022684244439005852,-0.024464372545480728
1782984680799248000,4.833247802734375,0.00047615321818739176,0.016506237909197807,-0.024233520030975342
1782984680809322000,4.843322021484375,-0.014231686480343342,0.04268644377589226,-0.017334068194031715
1782984680819396900,4.85339697265625,-0.024032877758145332,0.05199567973613739,-0.0018195952288806438
1782984680829471000,4.863470947265625,-0.026200691238045692,0.05204708129167557,0.02278881147503853
1782984680839545000,4.873545166015625,-0.022601712495088577,0.035833392292261124,0.0426720529794693
1782984680849619000,4.883618896484375,-0.016803478822112083,0.014493750408291817,0.056436069309711456
1782984680859692800,4.89369287109375,-0.011651643551886082,-0.005518651567399502,0.06254929304122925
1782984680869768000,4.903767822265625,-0.006342632230371237,-0.01744828186929226,0.05733082443475723
1782984680879841800,4.913841796875,0.001996472245082259,-0.013331643305718899,0.05686097964644432
1782984680889916000,4.923916015625,0.005132876802235842,0.006574154831469059,0.06963296979665756
1782984680899989800,4.93398974609375,0.004022320732474327,0.025665730237960815,0.10247168689966202
1782984680910063900,4.94406396484375,0.011307930573821068,0.032039474695920944,0.1317129284143448
1782984680920138800,4.954138671875,0.015012096613645554,0.0366821214556694,0.17358911037445068
1782984680930212900,4.964212890625,0.02292514778673649,0.031053001061081886,0.22937540709972382
1782984680940287000,4.974286865234375,0.03118997812271118,-0.0077706268057227135,0.2869366705417633
1782984680950361000,4.984361083984375,0.01963984966278076,-0.04205989092588425,0.3413120210170746
1782984680960435000,4.99443505859375,0.013268452137708664,-0.07327674329280853,0.3762805759906769
1782984680970510000,5.004510009765625,0.00909421406686306,-0.08401194959878922,0.38406234979629517
1782984680980584000,5.014583984375,0.017800183966755867,-0.077476367354393,0.37735360860824585
1782984680990657800,5.02465771484375,0.02528819441795349,-0.05799374729394913,0.36436641216278076
1782984681000732000,5.03473193359375,0.026859555393457413,-0.036393702030181885,0.35692650079727173
1782984681010805800,5.0448056640625,0.0374501496553421,-0.05064667388796806,0.3628895878791809
1782984681020881000,5.054880859375,0.04488092660903931,-0.05009565129876137,0.4030876159667969
1782984681030954800,5.064954833984375,0.06110597029328346,-0.06008436903357506,0.4705265760421753
1782984681041028400,5.0750283203125,0.0764181911945343,-0.10293939709663391,0.5571470260620117
1782984681051102500,5.0851025390625,0.08502712845802307,-0.19863155484199524,0.6497885584831238
1782984681061176300,5.09517626953125,0.0649166852235794,-0.371873140335083,0.6809755563735962
1782984681071251500,5.10525146484375,0.046367768198251724,-0.40067654848098755,0.7071419358253479
1782984681081325300,5.1153251953125,0.053871627897024155,-0.38704535365104675,0.7072705030441284
1782984681091399200,5.125399169921875,0.06746972352266312,-0.3180292844772339,0.6781488656997681
1782984681101473300,5.135473388671875,0.07814554125070572,-0.22365592420101166,0.6414687037467957
1782984681111547100,5.145547119140625,0.08029844611883163,-0.15445367991924286,0.5917304754257202
1782984681121621200,5.155621337890625,0.06345702707767487,-0.1021297425031662,0.5506919026374817
1782984681131696000,5.165696044921875,0.029088934883475304,-0.06705484539270401,0.5153771042823792
1782984681141770200,5.175770263671875,-0.0017772226128727198,-0.027922596782445908,0.49162960052490234
1782984681151844400,5.18584423828125,-0.015510611236095428,0.03121821954846382,0.4832574427127838
1782984681161918200,5.195918212890625,-0.018338961526751518,0.06590761244297028,0.47559991478919983
1782984681171992300,5.205992431640625,-0.03230084851384163,0.12495868653059006,0.5051527619361877
1782984681182067500,5.2160673828125,-0.04053889960050583,0.14587174355983734,0.5426360368728638
1782984681192141300,5.226141357421875,-0.03838520124554634,0.12263007462024689,0.5649839639663696
1782984681202215200,5.236215087890625,-0.031138909980654716,0.11662616580724716,0.5885223746299744
1782984681212289300,5.246289306640625,-0.01211754884570837,0.11749275773763657,0.5904060006141663
1782984681222363100,5.256363037109375,0.020304353907704353,0.08361691236495972,0.574152946472168
1782984681232438300,5.266438232421875,0.04381633922457695,0.01774602197110653,0.5393507480621338
1782984681242512100,5.27651220703125,0.052699096500873566,-0.030985195189714432,0.4914066195487976
1782984681252586200,5.286586181640625,0.05366981774568558,-0.06295271217823029,0.4509443938732147
1782984681262660400,5.296660400390625,0.05492532625794411,-0.1234763041138649,0.40250110626220703
1782984681272734200,5.306734130859375,0.04271446540951729,-0.15065120160579681,0.34775370359420776
1782984681282809300,5.316809326171875,0.0281074158847332,-0.13183388113975525,0.2925513684749603
1782984681292883500,5.326883544921875,0.021586133167147636,-0.08660727739334106,0.25731161236763
1782984681302957300,5.336957275390625,0.0057048555463552475,-0.04395337402820587,0.2448308914899826
1782984681313031200,5.34703125,-0.014752216637134552,-0.007537041790783405,0.2569730579853058
1782984681323105300,5.357105224609375,-0.04341981187462807,0.02705792710185051,0.28393980860710144
1782984681333180200,5.36718017578125,-0.06252826005220413,0.0460827499628067,0.2978260815143585
1782984681343254300,5.377254150390625,-0.05334330350160599,0.05389482527971268,0.31054142117500305
1782984681353328000,5.387328125,-0.04163684695959091,0.03407904505729675,0.32037675380706787
1782984681363402200,5.39740234375,-0.03199729695916176,0.0062835942953825,0.31769824028015137
1782984681373476400,5.407476318359375,-0.022879431024193764,-0.007148857228457928,0.3190942704677582
1782984681383551200,5.41755126953125,-0.005625249817967415,-0.035231415182352066,0.3050454556941986
1782984681393625300,5.427625244140625,0.004507279023528099,-0.04616395756602287,0.2929011583328247
1782984681403699500,5.437699462890625,0.004084639251232147,-0.04026028886437416,0.29013559222221375
1782984681413773300,5.447773193359375,-0.004592472687363625,-0.03325537592172623,0.28463616967201233
1782984681423847200,5.45784716796875,-0.007221738807857037,-0.007969850674271584,0.2952266037464142
1782984681433922300,5.46792236328125,-0.01452599000185728,-0.026088133454322815,0.30757805705070496
1782984681443996200,5.47799609375,-0.02561364881694317,-0.042476676404476166,0.3453595042228699
1782984681454070300,5.4880703125,-0.03620477393269539,-0.05271439999341965,0.3846009075641632
1782984681464144100,5.49814404296875,-0.04359930753707886,-0.07432941347360611,0.4003508388996124
1782984681474218500,5.508218505859375,-0.046723995357751846,-0.06580223143100739,0.3973870277404785
1782984681484292400,5.518292236328125,-0.04006054997444153,-0.07430712133646011,0.3776246905326843
1782984681494367500,5.528367431640625,-0.039029642939567566,-0.05606686323881149,0.37048768997192383
1782984681504441300,5.53844140625,-0.03369200974702835,-0.06339167058467865,0.36913707852363586
1782984681514515200,5.54851513671875,-0.03742549568414688,-0.0763934850692749,0.3767257630825043
1782984681524589300,5.55858935546875,-0.03635400906205177,-0.0785411149263382,0.39836809039115906
1782984681534663200,5.5686630859375,-0.03375076875090599,-0.08450473845005035,0.42344415187835693
1782984681544738300,5.57873828125,-0.031601935625076294,-0.10796521604061127,0.4389544129371643
1782984681554812200,5.588812255859375,-0.03184455260634422,-0.10494199395179749,0.4315132796764374
1782984681564886300,5.59888623046875,-0.018135711550712585,-0.08942144364118576,0.3997212052345276
1782984681574960000,5.608960205078125,0.005768822506070137,-0.06690680980682373,0.3489435315132141
1782984681585034500,5.619034423828125,0.019717248156666756,-0.05250632390379906,0.3043667674064636
1782984681595109000,5.629109130859375,0.031383492052555084,-0.07784390449523926,0.278224378824234
1782984681605183500,5.63918359375,0.03436487540602684,-0.10987058281898499,0.27463510632514954
1782984681615257300,5.64925732421875,0.036493007093667984,-0.11810854077339172,0.24895581603050232
1782984681625331200,5.659331298828125,0.03808194398880005,-0.09277554601430893,0.20333229005336761
1782984681635405300,5.6694052734375,0.038363173604011536,-0.06625711917877197,0.15031594038009644
1782984681645480400,5.67948046875,0.029775643721222878,-0.05815666913986206,0.10558895766735077
1782984681655554300,5.68955419921875,0.013674970716238022,-0.057636287063360214,0.08079040050506592
1782984681665628200,5.699628173828125,0.0029667867347598076,-0.05639740079641342,0.06758570671081543
1782984681675702300,5.709702392578125,-0.003842649981379509,-0.04640202596783638,0.04479090869426727
1782984681685776100,5.719776123046875,-0.0058583966456353664,-0.03545590117573738,0.022832345217466354
1782984681695851300,5.729851318359375,-0.0007762861205264926,-0.012354576960206032,0.00398968206718564
1782984681705925000,5.739925048828125,0.0005596789997071028,-0.003155531594529748,-0.005804718006402254
1782984681715999500,5.74999951171875,0.0023794169537723064,-0.017313694581389427,-0.007862542755901814
1782984681726073300,5.7600732421875,0.006203789263963699,-0.025852978229522705,0.0041846404783427715
1782984681736147200,5.770147216796875,0.010160448029637337,-0.0317915603518486,0.010758654214441776
1782984681746222300,5.780222412109375,0.01624654419720173,-0.03207682445645332,0.0033628896344453096
1782984681756296400,5.79029638671875,0.01932941935956478,-0.025425314903259277,-0.006368567235767841
1782984681766370300,5.800370361328125,0.014309529215097427,-0.033435750752687454,-0.0060884105041623116
1782984681776444200,5.810444091796875,0.008157627657055855,-0.03913092240691185,0.006932849530130625
1782984681786518300,5.820518310546875,0.006500608287751675,-0.03948458656668663,0.019375937059521675
1782984681796593200,5.83059326171875,0.002226767363026738,-0.03907845541834831,0.02102922648191452
1782984681806667300,5.840667236328125,-0.0036969720385968685,-0.052453551441431046,0.013240295462310314
1782984681816741000,5.8507412109375,-0.009081085212528706,-0.05150413513183594,0.010588052682578564
1782984681826815500,5.8608154296875,-0.012296851724386215,-0.05074593052268028,0.0002089152403641492
1782984681836889300,5.870889404296875,-0.011321868747472763,-0.04550988972187042,-0.014896534383296967
1782984681846964500,5.880964599609375,-0.008722527883946896,-0.04293547570705414,-0.030293183401226997
1782984681857038300,5.891038330078125,-0.0047746580094099045,-0.04675231873989105,-0.03422081470489502
1782984681867112400,5.901112548828125,-0.0008864174596965313,-0.0388307049870491,-0.02910578064620495
1782984681877186300,5.911186279296875,-0.0021807136945426464,-0.02611490897834301,-0.02190299518406391
1782984681887260200,5.92126025390625,-0.0019829170778393745,-0.04288255423307419,-0.008573039434850216
1782984681897335300,5.931335205078125,-0.002724873833358288,-0.06178327277302742,-0.006696043536067009
1782984681907409200,5.9414091796875,-0.003926659934222698,-0.06285768002271652,-0.002766008721664548
1782984681917483300,5.951483154296875,-0.010723846033215523,-0.05706290900707245,-0.003096240572631359
1782984681927557000,5.96155712890625,-0.018754800781607628,-0.02542148157954216,0.0036491216160357
1782984681937631500,5.971631591796875,-0.02285100892186165,0.006362014915794134,0.018592650070786476
1782984681947706000,5.9817060546875,-0.021567340940237045,0.03547067195177078,0.026395345106720924
1782984681957780500,5.991780517578125,-0.006142578087747097,0.036675482988357544,0.016885995864868164
1782984681967854300,6.001854248046875,0.0179410632699728,0.015011513605713844,0.005590558052062988
1782984681977928200,6.01192822265625,0.030490677803754807,-0.01991158165037632,0.010832191444933414
1782984681988002300,6.022002197265625,0.039081938564777374,-0.0668790340423584,0.015765545889735222
1782984681998076200,6.032076171875,0.03940071910619736,-0.08109791576862335,0.01127545814961195
1782984682008151300,6.0421513671875,0.03238752856850624,-0.052567269653081894,0.003211629344150424
1782984682018225200,6.05222509765625,0.02479911595582962,-0.01650620438158512,-0.011841089464724064
1782984682028299300,6.06229931640625,0.015846705064177513,0.020890871062874794,-0.04225946590304375
1782984682038374000,6.072373779296875,0.01438782550394535,0.04793314263224602,-0.06417887657880783
1782984682048448000,6.082447998046875,0.01053357869386673,0.051334552466869354,-0.06050083786249161
1782984682058523000,6.09252294921875,0.003473804797977209,0.04851905629038811,-0.05539742112159729
1782984682068597000,6.102596923828125,0.006301042623817921,0.05902872607111931,-0.05186190828680992
1782984682078671000,6.112671142578125,0.011284083127975464,0.052751388400793076,-0.04885439947247505
1782984682088745200,6.1227451171875,0.013854004442691803,0.04404230788350105,-0.038276880979537964
1782984682098819000,6.132819091796875,0.022216062992811203,0.024314412847161293,-0.026782143861055374
1782984682108894200,6.142894287109375,0.03207560256123543,0.019336603581905365,-0.013450811617076397
1782984682118968000,6.152968017578125,0.03040206991136074,0.00709272176027298,-0.00844779796898365
1782984682129042200,6.163042236328125,0.027134444564580917,0.004946090746670961,-0.0020595653913915157
1782984682139116000,6.173115966796875,0.02763352170586586,0.02285478264093399,0.006189043167978525
1782984682149190000,6.18318994140625,0.02268785983324051,0.03704297915101051,-0.007287731859833002
1782984682159265000,6.19326513671875,0.020928308367729187,0.04174133017659187,-0.027323758229613304
1782984682169339000,6.2033388671875,0.0212421752512455,0.03375186771154404,-0.04199542850255966
1782984682179413000,6.2134130859375,0.021163344383239746,0.03297608718276024,-0.043281204998493195
1782984682189487000,6.223487060546875,0.015626728534698486,0.04131811484694481,-0.0334119088947773
1782984682199561200,6.233561279296875,0.01077631302177906,0.039064280688762665,-0.027191033586859703
1782984682209636000,6.243635986328125,0.004934284836053848,0.030398618429899216,-0.02374083548784256
1782984682219710200,6.253710205078125,0.009404666721820831,0.0364525131881237,-0.023189561441540718
1782984682229784000,6.2637841796875,0.00988071784377098,0.03678278997540474,-0.02614504285156727
1782984682239858000,6.27385791015625,0.01387785654515028,0.03371402993798256,-0.02971794083714485
1782984682249932000,6.28393212890625,0.018562691286206245,0.02884008176624775,-0.03246207535266876
1782984682260007200,6.294007080078125,0.018624477088451385,0.025161458179354668,-0.02240384928882122
1782984682270081000,6.3040810546875,0.022722648456692696,0.01353001594543457,-0.012175439856946468
1782984682280155000,6.31415478515625,0.019994506612420082,0.014547877013683319,-0.0037657092325389385
1782984682290229000,6.32422900390625,0.02335342951118946,0.019339721649885178,-0.0023769207764416933
1782984682300303000,6.33430322265625,0.026741769164800644,0.02218664065003395,-0.009961603209376335
1782984682310378000,6.3443779296875,0.033966924995183945,0.022576794028282166,-0.02490966022014618
1782984682320452000,6.3544521484375,0.031322140246629715,0.020574096590280533,-0.037946365773677826
1782984682330526200,6.364526123046875,0.03852662444114685,0.011421769857406616,-0.04985376074910164
1782984682340600000,6.37460009765625,0.04163986071944237,0.005485318601131439,-0.05027959868311882
1782984682350674000,6.384673828125,0.03669238090515137,-0.005004804581403732,-0.037436533719301224
1782984682360749000,6.3947490234375,0.028083711862564087,-0.0038724280893802643,-0.01913449540734291
1782984682370823200,6.4048232421875,0.025568820536136627,-0.00631101056933403,-0.009453234262764454
1782984682380897000,6.41489697265625,0.01866697333753109,-0.001302936114370823,-0.020204149186611176
1782984682390971000,6.424970947265625,0.01099086832255125,0.013046587817370892,-0.03434709832072258
1782984682401045000,6.435044921875,0.009310680441558361,0.02136736921966076,-0.04871352016925812
1782984682411119900,6.445119873046875,0.004656055476516485,0.033945050090551376,-0.04537050798535347
1782984682421194000,6.455194091796875,0.008775966241955757,0.031221169978380203,-0.03460627794265747
1782984682431268000,6.46526806640625,0.005987562704831362,0.02114522084593773,-0.020882321521639824
1782984682441342200,6.47534228515625,0.010210004635155201,0.021554550155997276,-0.01658451184630394
1782984682451416000,6.485416015625,0.013252593576908112,0.016493335366249084,-0.012417037971317768
1782984682461490000,6.495489990234375,0.016998061910271645,0.022950168699026108,-0.016842147335410118
1782984682471565000,6.50556494140625,0.014098967425525188,0.04508616402745247,-0.013755766674876213
1782984682481639200,6.51563916015625,0.01206457894295454,0.050607163459062576,-0.012151478789746761
1782984682491713000,6.525713134765625,0.0035804733633995056,0.057708874344825745,-0.015437927097082138
1782984682501787000,6.535786865234375,0.0011279683094471693,0.05856721103191376,-0.01437079906463623
1782984682511861000,6.545861083984375,0.0008020265959203243,0.04246308654546738,-0.02352992072701454
1782984682521936000,6.555935791015625,0.002961051417514682,0.03140537440776825,-0.032568156719207764
1782984682532010000,6.566010009765625,-0.0012884341413155198,0.04485245421528816,-0.02735816314816475
1782984682542084000,6.576083984375,-0.0070898644626140594,0.05482306331396103,-0.019952446222305298
1782984682552158200,6.586158203125,-0.009134737774729729,0.08942986279726028,-0.012643938884139061
1782984682562232000,6.596232177734375,-0.0005790663417428732,0.10535609722137451,-0.005323974881321192
1782984682572307200,6.60630712890625,0.006687248591333628,0.0972161665558815,0.0039528305642306805
1782984682582381000,6.616381103515625,0.02588437870144844,0.06670193374156952,0.012652845121920109
1782984682592455200,6.626455078125,0.03979673236608505,0.020297946408391,0.018119513988494873
1782984682602529000,6.636529052734375,0.04842217639088631,-0.009713481180369854,0.02159840241074562
1782984682612603000,6.646602783203125,0.047993648797273636,-0.020370425656437874,0.017959026619791985
1782984682622678000,6.656677978515625,0.03976821154356003,-0.01270797848701477,0.011525096371769905
1782984682632751900,6.666751953125,0.028242100030183792,0.02540379948914051,0.0007489469135180116
1782984682642826000,6.676825927734375,0.019967125728726387,0.04836850240826607,-0.016846559941768646
1782984682652900000,6.686900146484375,0.0161915123462677,0.058393895626068115,-0.030916104093194008
1782984682662974200,6.69697412109375,0.012560823932290077,0.06441876292228699,-0.03646240010857582
1782984682673049000,6.707049072265625,0.01203959621489048,0.04991748183965683,-0.0305370781570673
1782984682683123200,6.717123291015625,0.014142428524792194,0.03808292746543884,-0.0221161637455225
1782984682693197000,6.727197021484375,0.011194455437362194,0.03827735409140587,-0.0019148045685142279
1782984682703271000,6.73727099609375,0.012048264965415001,0.03174355626106262,0.0011446349089965224
1782984682713345000,6.747344970703125,0.010824760422110558,0.03357544168829918,-0.0009139308822341263
1782984682723420200,6.757420166015625,0.008925659582018852,0.03774355351924896,-0.0006585337105207145
1782984682733494000,6.767493896484375,0.005308579653501511,0.05445706099271774,-0.01134190522134304
1782984682743568000,6.77756787109375,0.008884938433766365,0.06773771345615387,-0.025441478937864304
1782984682753642000,6.78764208984375,0.00975337065756321,0.07642330974340439,-0.03174294903874397
1782984682763716000,6.797716064453125,0.015174500644207,0.07954905927181244,-0.03767567127943039
1782984682773791000,6.807791015625,0.0325968973338604,0.06521036475896835,-0.03487894684076309
1782984682783865000,6.817864990234375,0.038359977304935455,0.056789979338645935,-0.03240114077925682
1782984682793939200,6.827939208984375,0.04567672684788704,0.0336744450032711,-0.03293422609567642
1782984682804013000,6.838012939453125,0.054133061319589615,-0.0028950143605470657,-0.012707782909274101
1782984682814087000,6.8480869140625,0.045284029096364975,-0.03733927011489868,0.009375875815749168
1782984682824162000,6.858162109375,0.03674939647316933,-0.053781360387802124,0.027099210768938065
1782984682834236200,6.868236083984375,0.028660990297794342,-0.0453665517270565,0.02382081001996994
1782984682844310000,6.87831005859375,0.02130134589970112,-0.010616293177008629,0.01013109739869833
1782984682854383900,6.8883837890625,0.01426425576210022,0.027039311826229095,-0.00419596815481782
1782984682864458000,6.8984580078125,0.00927482359111309,0.031120337545871735,-0.0224751066416502
1782984682874532900,6.908532958984375,0.007480505388230085,0.030738690868020058,-0.03882899507880211
1782984682884607000,6.91860693359375,0.00774735352024436,0.026310650631785393,-0.04450712352991104
1782984682894681000,6.92868115234375,0.005221466068178415,0.019580556079745293,-0.04613745957612991
1782984682904755200,6.938755126953125,0.001981730805709958,0.020186958834528923,-0.04056878760457039
1782984682914829000,6.9488291015625,0.00873461365699768,0.013541096821427345,-0.03133043274283409
1782984682924904200,6.958904296875,0.011611626483500004,0.008344205096364021,-0.02488851360976696
1782984682934978000,6.96897802734375,0.013236107304692268,0.004692109301686287,-0.02600565180182457
1782984682945052200,6.97905224609375,0.011625693179666996,0.005757906474173069,-0.026388082653284073
1782984682955126000,6.9891259765625,0.009674271568655968,0.0019051569979637861,-0.02487744390964508
1782984682965200000,6.999199951171875,0.005036110058426857,0.010718622244894505,-0.02174503356218338
1782984682975275000,7.00927490234375,-0.002958016935735941,0.02713458612561226,-0.025998439639806747
1782984682985348900,7.019348876953125,-0.008090727031230927,0.041191015392541885,-0.03317113220691681
1782984682995423000,7.029423095703125,-0.004884212277829647,0.057539019733667374,-0.043885163962841034
1782984683005497000,7.0394970703125,-0.001250861445441842,0.05124890059232712,-0.04360659793019295
1782984683015571200,7.0495712890625,0.0016440930776298046,0.03064020909368992,-0.03143807500600815
1782984683025646000,7.05964599609375,0.008021831512451172,0.014547793194651604,-0.018062349408864975
1782984683035720200,7.06972021484375,0.01034223847091198,0.0099298981949687,-0.007836200296878815
1782984683045793000,7.07979296875,0.011254904791712761,0.003925269469618797,-0.0030214714352041483
1782984683055867100,7.0898671875,0.012357723899185658,0.0057021030224859715,-0.003936676308512688
1782984683065941000,7.09994091796875,0.019756518304347992,0.012158671393990517,-0.018249303102493286
1782984683076015400,7.110015380859375,0.01853710226714611,0.010086036287248135,-0.028125427663326263
1782984683086090000,7.120090087890625,0.019938990473747253,0.003850244916975498,-0.02143210545182228
1782984683096164400,7.130164306640625,0.019277529790997505,-0.00879746861755848,-0.013446366414427757
1782984683106238200,7.14023828125,0.018081771209836006,-0.0097625982016325,-0.00649498263373971
1782984683116312300,7.150312255859375,0.01490506250411272,-0.005230666603893042,-0.0029748433735221624
1782984683126386200,7.16038623046875,0.01460252795368433,-0.004646102897822857,-0.014882901683449745
1782984683136461300,7.17046142578125,0.016561884433031082,0.00221676635555923,-0.03089543990790844
1782984683146535200,7.18053515625,0.014530159533023834,0.0076605333015322685,-0.05103959143161774
1782984683156609000,7.190609130859375,0.010312368161976337,0.004705177620053291,-0.05421843007206917
1782984683166683100,7.20068310546875,0.01168203167617321,-0.0014872041065245867,-0.04948492720723152
1782984683176757000,7.210757080078125,0.011097977869212627,-0.02734442986547947,-0.034811221063137054
1782984683186832100,7.22083203125,0.007412429433315992,-0.06232292205095291,-0.019412558525800705
1782984683196906000,7.230906005859375,-0.001837601070292294,-0.07830096781253815,-0.00678608613088727
1782984683206980400,7.24098046875,-0.004031246993690729,-0.07072719931602478,0.004643668420612812
1782984683217054200,7.25105419921875,-0.012117329984903336,-0.03661063686013222,-0.002281240886077285
1782984683227128300,7.26112841796875,-0.021541723981499672,0.01604378968477249,-0.020533747971057892
1782984683237203200,7.271203125,-0.011814216151833534,0.03634732589125633,-0.05055947229266167
1782984683247277300,7.28127734375,-0.0017890133894979954,0.017765650525689125,-0.06009704992175102
1782984683257351200,7.29135107421875,0.0045471093617379665,-0.011477356776595116,-0.05747755244374275
1782984683267425000,7.301425048828125,0.013951263390481472,-0.04416739195585251,-0.05012429878115654
1782984683277499100,7.3114990234375,0.013039754703640938,-0.0518258772790432,-0.03583348169922829
1782984683287574000,7.321573974609375,0.009812802076339722,-0.047838591039180756,-0.024865517392754555
1782984683297648000,7.331648193359375,0.0037833373062312603,-0.03390190750360489,-0.027477264404296875
1782984683307722000,7.341721923828125,-0.004623463377356529,-0.014499181881546974,-0.028300713747739792
1782984683317796400,7.35179638671875,-0.00781949795782566,0.003970944322645664,-0.03401462361216545
1782984683327870200,7.3618701171875,-0.005438098683953285,0.022047949954867363,-0.03513901308178902
1782984683337945300,7.3719453125,-0.00532404612749815,0.03579402342438698,-0.03924056142568588
1782984683348019200,7.382019287109375,-0.0019162651151418686,0.043907079845666885,-0.038656264543533325
1782984683358093300,7.39209326171875,-0.0002620518789626658,0.03828722983598709,-0.029901748523116112
1782984683368167200,7.402167236328125,-0.0005099921836517751,0.026992231607437134,-0.02260628528892994
1782984683378241000,7.412240966796875,-0.0009382794378325343,0.009990799240767956,-0.012557445093989372
1782984683388316200,7.422316162109375,-0.0014898200752213597,0.011260327883064747,-0.008119286969304085
1782984683398390000,7.43239013671875,-0.0028652441687881947,0.015098923817276955,-0.009072157554328442
1782984683408464100,7.442464111328125,-0.005269546061754227,0.017790047451853752,-0.01105275098234415
1782984683418538000,7.4525380859375,-0.001580196083523333,0.029345912858843803,-0.013107271865010262
1782984683428612400,7.4626123046875,0.0048595936968922615,0.04119192063808441,-0.011481944471597672
1782984683438686200,7.472686279296875,0.01035073958337307,0.036236006766557693,-0.015445692464709282
1782984683448761300,7.48276123046875,0.018553009256720543,0.022982783615589142,-0.010963859036564827
1782984683458835200,7.492835205078125,0.03002755343914032,0.004168453626334667,-0.009738064371049404
1782984683468909300,7.502909423828125,0.031093884259462357,-0.003671093378216028,-0.007426174357533455
1782984683478983200,7.512983154296875,0.03160961717367172,-0.010363331995904446,-0.013891846872866154
1782984683489057000,7.52305712890625,0.031857557594776154,-0.012736475095152855,-0.02690458483994007
1782984683499132200,7.533132080078125,0.024773405864834785,-0.0016724171582609415,-0.0435720719397068
1782984683509206000,7.5432060546875,0.01466138381510973,0.0005326801910996437,-0.042615994811058044
1782984683519280000,7.553280029296875,-0.0024658176116645336,-0.003483652835711837,-0.04222526028752327
1782984683529354000,7.56335400390625,-0.014144045300781727,-0.0008718908065930009,-0.030391238629817963
1782984683539428400,7.573428466796875,-0.026451434940099716,0.005048362538218498,-0.02532155066728592
1782984683549503000,7.5835029296875,-0.03535837680101395,0.02297969162464142,-0.033236730843782425
1782984683559577300,7.593577392578125,-0.03553009778261185,0.03896885737776756,-0.04085490480065346
1782984683569651200,7.603651123046875,-0.030878357589244843,0.05199384689331055,-0.04436814785003662
1782984683579725300,7.613725341796875,-0.02503308281302452,0.044183410704135895,-0.04174813628196716
1782984683589799200,7.623799072265625,-0.02153502218425274,0.018049277365207672,-0.03253759443759918
1782984683599874300,7.633874267578125,-0.015841109678149223,0.001763924490660429,-0.024634024128317833
1782984683609948200,7.6439482421875,-0.011462606489658356,-0.009473550133407116,-0.013615992851555347
1782984683620022000,7.65402197265625,-0.01337451208382845,-0.01733819581568241,-0.010565385222434998
1782984683630096100,7.66409619140625,-0.015033927746117115,-0.015742164105176926,-0.004144770093262196
1782984683640170000,7.674169921875,-0.01979387179017067,-0.009966416284441948,0.014313900843262672
1782984683650245000,7.6842451171875,-0.02574843540787697,-0.010410631075501442,0.013851042836904526
1782984683660319000,7.694319091796875,-0.028492985293269157,-0.007233057636767626,0.010210366919636726
1782984683670393300,7.704393310546875,-0.03178385645151138,-0.009871184825897217,0.0013777264393866062
1782984683680467200,7.71446728515625,-0.03706679493188858,-0.01667291298508644,-0.009559365920722485
1782984683690541300,7.724541259765625,-0.03809664025902748,-0.028125036507844925,-0.02490982599556446
1782984683700616200,7.7346162109375,-0.044181548058986664,-0.0290110781788826,-0.0297178253531456
1782984683710690300,7.744690185546875,-0.0465184710919857,-0.028614532202482224,-0.028561213985085487
1782984683720764200,7.75476416015625,-0.04783526062965393,-0.020319804549217224,-0.03467653691768646
1782984683730838000,7.764838134765625,-0.050933316349983215,-0.013245118781924248,-0.03768857195973396
1782984683740912000,7.774912109375,-0.050395917147397995,-0.01498020626604557,-0.03885546699166298
1782984683750987000,7.784987060546875,-0.04885181412100792,-0.026988133788108826,-0.03212619200348854
1782984683761061000,7.79506103515625,-0.05020446330308914,-0.032378941774368286,-0.022694243118166924
1782984683771135000,7.805135009765625,-0.04568267986178398,-0.03270837664604187,-0.024792812764644623
1782984683781209300,7.815209228515625,-0.04079284518957138,-0.029783984646201134,-0.03147323057055473
1782984683791283200,7.825283203125,-0.03958430141210556,-0.0242235716432333,-0.03370096534490585
1782984683801358300,7.8353583984375,-0.03363296017050743,-0.027056148275732994,-0.03102731704711914
1782984683811432200,7.84543212890625,-0.03196262940764427,-0.031751833856105804,-0.029440604150295258
1782984683821506300,7.85550634765625,-0.027401767671108246,-0.04375726357102394,-0.02882859669625759
1782984683831580200,7.865580078125,-0.025401469320058823,-0.05760916322469711,-0.02911754883825779
1782984683841654000,7.875654052734375,-0.030417073518037796,-0.05914115905761719,-0.0307011716067791
1782984683851729200,7.885729248046875,-0.04084547609090805,-0.046494875103235245,-0.02126585878431797
1782984683861803000,7.895802978515625,-0.051281172782182693,-0.00897617544978857,-0.019736945629119873
1782984683871877000,7.905877197265625,-0.049001507461071014,0.019653871655464172,-0.01430276408791542
1782984683881951000,7.915950927734375,-0.045052528381347656,0.03097376972436905,-0.024655451998114586
1782984683892025300,7.926025390625,-0.028177941218018532,0.01239023171365261,-0.029001465067267418
1782984683902100000,7.936099853515625,-0.013235765509307384,-0.02442164532840252,-0.030165042728185654
1782984683912174300,7.94617431640625,0.0039520105347037315,-0.07527044415473938,-0.021146513521671295
1782984683922248200,7.956248291015625,0.009133409708738327,-0.10968764871358871,-0.01007889024913311
1782984683932322300,7.966322265625,0.007275588344782591,-0.10802503675222397,-0.0058196973986923695
1782984683942396200,7.976396240234375,-0.0011395671172067523,-0.08066975325345993,-0.0194843839854002
1782984683952470000,7.986469970703125,-0.01450650580227375,-0.05294332280755043,-0.03849482536315918
1782984683962545200,7.996545166015625,-0.02466605231165886,-0.01925751008093357,-0.05307115614414215
1782984683972619000,8.006618896484374,-0.02924695424735546,0.008439898490905762,-0.05963025614619255
1782984683982693000,8.016693115234375,-0.028623800724744797,0.020856551826000214,-0.06310809403657913
1782984683992767000,8.02676708984375,-0.024214938282966614,0.007754865102469921,-0.05821853131055832
1782984684002841300,8.03684130859375,-0.014897044748067856,-0.009877324104309082,-0.035582710057497025
1782984684012916000,8.046916015625,-0.005964003503322601,-0.030460629612207413,-0.022778498008847237
1782984684022990300,8.056990234375,0.0036766391713172197,-0.037734255194664,-0.020187243819236755
1782984684033064200,8.067064208984375,0.009737727232277393,-0.03169500455260277,-0.016626862809062004
1782984684043138000,8.077137939453126,0.013252153992652893,-0.03526102751493454,-0.00549517385661602
1782984684053212000,8.0872119140625,0.011182611808180809,-0.025945555418729782,0.0008460788521915674
1782984684063287000,8.097287109375,0.008638832718133926,-0.01865767315030098,0.006359999068081379
1782984684073361000,8.10736083984375,0.012066587805747986,-0.013021891005337238,0.005605259444564581
1782984684083435000,8.11743505859375,0.012153695337474346,-0.00663026561960578,-0.007611295208334923
1782984684093508900,8.1275087890625,0.015504750423133373,-0.0069666230119764805,-0.014329119585454464
1782984684103583000,8.1375830078125,0.0137189831584692,-0.012304616160690784,-0.0180463008582592
1782984684113657900,8.147657958984375,0.014552019536495209,-0.026349861174821854,-0.01748703606426716
1782984684123732000,8.15773193359375,0.009845560416579247,-0.029560282826423645,-0.012247576378285885
1782984684133806000,8.16780615234375,0.005121112335473299,-0.024312257766723633,-0.008632334880530834
1782984684143880200,8.177880126953125,0.0039246282540261745,-0.026855401694774628,-0.011124840937554836
1782984684153954000,8.1879541015625,0.007990743033587933,-0.015090090222656727,-0.012179985642433167
1782984684164029200,8.198029296875,0.005857810843735933,0.0037266837898641825,-0.019252212718129158
1782984684174103000,8.20810302734375,0.0097297802567482,0.01080483291298151,-0.02426614612340927
1782984684184177000,8.218177001953125,0.010355189442634583,0.009304349310696125,-0.023446030914783478
1782984684194251000,8.2282509765625,0.011553613469004631,0.00704758707433939,-0.015887180343270302
1782984684204324900,8.238324951171874,0.01314655039459467,-0.008355097845196724,-0.013906358741223812
1782984684214400000,8.24839990234375,0.02039327844977379,-0.016358962282538414,-0.008781904354691505
1782984684224473900,8.258473876953126,0.02053137496113777,-0.027198009192943573,0.001441129599697888
1782984684234548000,8.2685478515625,0.02197108045220375,-0.026925567537546158,0.012273005209863186
1782984684244622000,8.2786220703125,0.027983330190181732,-0.019308101385831833,0.013843242079019547
1782984684254696200,8.2886962890625,0.027049092575907707,0.0010072907898575068,0.00423748604953289
1782984684264770000,8.29877001953125,0.026822606101632118,0.004836429841816425,-0.0032861512154340744
1782984684274845200,8.30884521484375,0.017488494515419006,-0.0004576676292344928,-0.006771962624043226
1782984684284919000,8.3189189453125,0.013531859032809734,-0.01708720624446869,-0.0031434912234544754
1782984684294993000,8.328992919921875,0.011321168392896652,-0.017964184284210205,0.004716828931123018
1782984684305067000,8.33906689453125,0.006060408893972635,-0.01324842032045126,-0.0007421877235174179
1782984684315140900,8.349140869140625,0.004815115127712488,-0.0032517132349312305,-0.011430252343416214
1782984684325216000,8.359216064453125,-0.0009424452437087893,0.0077384766191244125,-0.02809828892350197
1782984684335291100,8.369291015625,-0.0005296552553772926,0.02035999670624733,-0.028845306485891342
1782984684345365000,8.379364990234375,-0.005473790690302849,0.019776802510023117,-0.013347392901778221
1782984684355438800,8.38943896484375,-0.009152415208518505,0.013660585507750511,0.000521018635481596
1782984684365513000,8.399512939453125,-0.008508462458848953,0.013019297271966934,0.012186462990939617
1782984684375587000,8.409587158203125,-0.0037493938580155373,0.011137773282825947,0.023017538711428642
1782984684385662000,8.419661865234374,-0.003621417563408613,0.005285763181746006,0.028283098712563515
1782984684395736000,8.429736083984375,-0.0014860950177535415,0.00328572909347713,0.027555523440241814
1782984684405810200,8.43981005859375,0.004087831825017929,-0.003194387536495924,0.021045414730906487
1782984684415884000,8.449884033203125,0.0027818174567073584,-0.004528098739683628,0.020660322159528732
1782984684425958000,8.4599580078125,0.0017624289030209184,-0.01045911107212305,0.016748415306210518
1782984684436033000,8.470032958984374,-0.0004621096304617822,-0.005088314414024353,0.01260347105562687
1782984684446107100,8.480107177734375,-0.0017151269130408764,-0.006591669283807278,-0.00010619853856042027
1782984684456181000,8.490180908203126,-0.005923187825828791,-0.010015695355832577,-0.017551235854625702
1782984684466254800,8.5002548828125,-0.009859916754066944,-0.013981718569993973,-0.02606668882071972
1782984684476329200,8.5103291015625,-0.015476523898541927,-0.006748572923243046,-0.026324482634663582
1782984684486403800,8.52040380859375,-0.022590190172195435,0.016040416434407234,-0.01650846377015114
1782984684496478200,8.530478271484375,-0.029208678752183914,0.04093911126255989,0.002975755138322711
1782984684506552000,8.540552001953126,-0.023215187713503838,0.0608455166220665,0.011105417273938656
1782984684516626200,8.550626220703125,-0.016030779108405113,0.0564505010843277,0.012433002702891827
1782984684526700000,8.560699951171875,-0.000586137524805963,0.024277202785015106,0.02397964335978031
1782984684536775200,8.570775146484374,0.017773427069187164,-0.03402924910187721,0.03843048959970474
1782984684546849000,8.58084912109375,0.03214200213551521,-0.07489916682243347,0.058745693415403366
1782984684556923000,8.5909228515625,0.03993414342403412,-0.1012578010559082,0.07017678022384644
1782984684566997000,8.6009970703125,0.0363369919359684,-0.12038783729076385,0.06156696751713753
1782984684577070800,8.61107080078125,0.03774847090244293,-0.10581235587596893,0.03957857936620712
1782984684587146000,8.62114599609375,0.03686857968568802,-0.07225275784730911,0.01325500849634409
1782984684597219800,8.6312197265625,0.027582673355937004,-0.03271893411874771,-0.014532946050167084
1782984684607294200,8.641294189453125,0.01727168634533882,-0.007444269955158234,-0.037324026226997375
1782984684617368000,8.6513681640625,0.0020011202432215214,0.01958548277616501,-0.05282202735543251
1782984684627442200,8.661442138671875,-0.0100527573376894,0.03511515632271767,-0.0530179925262928
1782984684637517000,8.67151708984375,-0.018799377605319023,0.026152819395065308,-0.06670638173818588
1782984684647591200,8.681591064453125,-0.020122725516557693,0.03901425376534462,-0.06988637149333954
1782984684657665000,8.6916650390625,-0.021377872675657272,0.04434590041637421,-0.06676141917705536
1782984684667739000,8.70173876953125,-0.0201678778976202,0.024667249992489815,-0.05426688864827156
1782984684677813000,8.71181298828125,-0.016171270981431007,0.03114458918571472,-0.04470081627368927
1782984684687888100,8.72188818359375,-0.017161529511213303,0.020356478169560432,-0.04664494842290878
1782984684697962000,8.7319619140625,-0.01847580075263977,0.01913914829492569,-0.0499749630689621
1782984684708035800,8.742035888671875,-0.02414175122976303,0.03051759861409664,-0.05724640563130379
1782984684718110200,8.752110107421874,-0.028383901342749596,0.03857073187828064,-0.06200867146253586
1782984684728184000,8.76218408203125,-0.03201666846871376,0.03881238400936127,-0.05833970382809639
1782984684738259200,8.77225927734375,-0.032164741307497025,0.026457712054252625,-0.05177900940179825
1782984684748333000,8.7823330078125,-0.03334270790219307,0.0062639228999614716,-0.0433039590716362
1782984684758407200,8.7924072265625,-0.037775006145238876,-0.008409827947616577,-0.02970612607896328
1782984684768481000,8.80248095703125,-0.037817277014255524,-0.010497869923710823,-0.024485154077410698
1782984684778555000,8.812554931640625,-0.03743324801325798,0.0004346724599599838,-0.01793084666132927
1782984684788629000,8.82262890625,-0.03849877789616585,0.0032123494893312454,-0.01637795753777027
1782984684798704000,8.8327041015625,-0.04346717149019241,0.013075366616249084,-0.016579825431108475
1782984684808778000,8.842778076171875,-0.046616990119218826,0.014786266721785069,-0.010762975551187992
1782984684818851800,8.852851806640626,-0.04662897437810898,0.013874133117496967,-0.0048390403389930725
1782984684828926200,8.86292626953125,-0.04365262761712074,0.011276486329734325,-0.0011950371554121375
1782984684839000000,8.873,-0.0399034284055233,0.004759198985993862,0.0036665634252130985
1782984684849075200,8.8830751953125,-0.033203691244125366,0.004347778856754303,0.007918747141957283
1782984684859149000,8.893149169921875,-0.028483768925070763,0.001484081381931901,0.005212975665926933
1782984684869223200,8.90322314453125,-0.023437656462192535,-0.004700919613242149,0.01174934208393097
1782984684879297000,8.913297119140625,-0.01673128455877304,-0.001587151549756527,0.005691982340067625
1782984684889371000,8.923370849609375,-0.012804917991161346,0.004783510230481625,-0.0036612949334084988
1782984684899446000,8.933446044921874,0.006647875998169184,0.007361982483416796,-0.012614044360816479
1782984684909520100,8.94352001953125,0.0028035533614456654,0.003905628575012088,-0.019112354144454002
1782984684919594000,8.953593994140626,0.0029569510370492935,-0.008301769383251667,-0.026166269555687904
1782984684929667800,8.963667724609374,0.0038745589554309845,-0.004004446789622307,-0.03190132603049278
1782984684939742200,8.9737421875,0.006492446642369032,0.01162644475698471,-0.04068070277571678
1782984684949816800,8.98381689453125,-0.0011618173448368907,0.030780555680394173,-0.0391622819006443
1782984684959891200,8.99389111328125,-0.004663075320422649,0.032536644488573074,-0.03276084363460541
1782984684969965000,9.003965087890625,-0.009958287701010704,0.016257701441645622,-0.020108625292778015
1782984684980039200,9.0140390625,-0.01323690451681614,0.0007250804919749498,-0.003931786864995956
1782984684990113000,9.024113037109375,-0.011262970045208931,-0.011654623784124851,0.00952197052538395
1782984685000188200,9.034188232421876,-0.011153779923915863,-0.022549616172909737,0.019484056159853935
1782984685010262000,9.044261962890625,-0.015420332551002502,-0.019145086407661438,0.019083380699157715
1782984685020335900,9.0543359375,-0.013333478942513466,-0.020853504538536072,0.011574862524867058
1782984685030410000,9.064409912109374,-0.010695960372686386,-0.011505713686347008,-0.002546762116253376
1782984685040484600,9.074484619140625,-0.008268222212791443,0.0034287599846720695,-0.016351524740457535
1782984685050559700,9.084559814453126,-0.008389368653297424,0.0072813862934708595,-0.025215737521648407
1782984685060633900,9.0946337890625,-0.00734194740653038,0.004273612052202225,-0.02763628587126732
1782984685070707700,9.104707763671875,-0.010145409032702446,0.0033684768714010715,-0.02685668133199215
1782984685080781800,9.11478173828125,-0.009617038071155548,0.00671234168112278,-0.019447501748800278
1782984685090856000,9.12485595703125,-0.021079115569591522,0.002590891206637025,-0.01611361838877201
1782984685100930800,9.134930908203126,-0.030853716656565666,0.011836054734885693,-0.0098242973908782
1782984685111005000,9.1450048828125,-0.041128069162368774,0.03505616635084152,-0.005281067453324795
1782984685121078800,9.155078857421875,-0.041301973164081573,0.04509468749165535,0.006083706393837929
1782984685131153000,9.16515283203125,-0.03623971715569496,0.039039939641952515,0.0221899151802063
1782984685141226800,9.175226806640625,-0.025654450058937073,0.016834771260619164,0.034204766154289246
1782984685151302000,9.185302001953126,-0.013168484903872013,-0.021200763061642647,0.03635180741548538
1782984685161375700,9.195375732421875,0.005640089977532625,-0.03915366530418396,0.015601785853505135
1782984685171449900,9.205449951171875,0.016947168856859207,-0.030302999541163445,-0.025987708941102028
1782984685181523700,9.215523681640626,0.026936152949929237,0.003316212445497513,-0.08322303742170334
1782984685191597800,9.225597900390625,0.02160358801484108,0.05576428771018982,-0.14302054047584534
1782984685201672000,9.235671875,0.013033800758421421,0.08879148215055466,-0.18995022773742676
1782984685211746800,9.245746826171874,0.01635907217860222,0.12257324904203415,-0.2091466188430786
1782984685221821000,9.255821044921875,0.011984564363956451,0.1326005756855011,-0.21268223226070404
1782984685231894800,9.265894775390626,-0.000754570763092488,0.12392498552799225,-0.19822070002555847
1782984685241969000,9.275968994140625,-0.019417205825448036,0.10371904820203781,-0.16919144988059998
1782984685252042800,9.286042724609375,-0.03165789321064949,0.07247190922498703,-0.14990270137786865
1782984685262118000,9.296117919921874,-0.034681644290685654,0.06046052649617195,-0.14171135425567627
1782984685272191700,9.306191650390625,-0.038035798817873,0.05922526493668556,-0.13699807226657867
1782984685282265600,9.316265625,-0.029983732849359512,0.06022820994257927,-0.13303209841251373
1782984685292339700,9.326339599609375,-0.03460436686873436,0.04405901953577995,-0.13840430974960327
1782984685302413800,9.336413818359375,-0.055086202919483185,0.024048294872045517,-0.14635677635669708
1782984685312488700,9.34648876953125,-0.06717880070209503,0.03851459547877312,-0.15847516059875488
1782984685322562800,9.356562744140625,-0.060388803482055664,0.0550251305103302,-0.18447346985340118
1782984685332637000,9.366636962890626,-0.052975382655858994,0.08668211102485657,-0.20215825736522675
1782984685342710800,9.376710693359374,-0.049311406910419464,0.11111022531986237,-0.21014481782913208
1782984685352785000,9.386784912109375,-0.037796501070261,0.09374654293060303,-0.20050881803035736
1782984685362859800,9.39685986328125,-0.03766254335641861,0.06408052146434784,-0.18561455607414246
1782984685372934000,9.406933837890625,-0.028543833643198013,0.018927501514554024,-0.17627555131912231
1782984685383007700,9.4170078125,-0.011627702042460442,-0.0006283572874963284,-0.16036157310009003
1782984685393081600,9.42708154296875,-0.004326839465647936,0.0030887594912201166,-0.1511719524860382
1782984685403155700,9.43715576171875,0.0046296375803649426,0.02395089715719223,-0.15804876387119293
1782984685413230800,9.44723095703125,0.01527751050889492,0.06093958020210266,-0.16817446053028107
1782984685423304700,9.4573046875,0.01853322610259056,0.08356979489326477,-0.17708192765712738
1782984685433378800,9.46737890625,0.005833146162331104,0.0936000794172287,-0.17366206645965576
1782984685443453000,9.477452880859374,-0.006700755096971989,0.08414612710475922,-0.15599119663238525
1782984685453526800,9.48752685546875,-0.014415787532925606,0.06351916491985321,-0.13000009953975677
1782984685463602000,9.497601806640626,-0.026401877403259277,0.06837623566389084,-0.10819388180971146
1782984685473675800,9.50767578125,-0.03301827982068062,0.07550358772277832,-0.0953064113855362
1782984685483750000,9.51775,-0.032157015055418015,0.08303900063037872,-0.08843039721250534
1782984685493823700,9.52782373046875,-0.037750501185655594,0.08419763296842575,-0.07946186512708664
1782984685503897600,9.537897705078125,-0.0340748094022274,0.0927724838256836,-0.0511854849755764
1782984685513972700,9.54797265625,-0.024082118645310402,0.0781513899564743,-0.01829732395708561
1782984685524046800,9.558046875,-0.01968417502939701,0.04964784160256386,0.01582043245434761
1782984685534120700,9.56812060546875,-0.010244430042803288,0.02147115394473076,0.044122084975242615
1782984685544194800,9.57819482421875,-0.007121341302990913,0.005908971652388573,0.05760859698057175
1782984685554269000,9.58826904296875,-0.0024518021382391453,-0.007002638187259436,0.06746193021535873
1782984685564342800,9.5983427734375,-0.003075514454394579,-0.014378795400261879,0.05662419646978378
1782984685574418000,9.60841796875,0.012475116178393364,-0.0037791237700730562,0.034949567168951035
1782984685584491800,9.61849169921875,0.018377212807536125,0.023200562223792076,0.02058953419327736
1782984685594566000,9.62856591796875,0.01847446896135807,0.02096227928996086,0.004275207873433828
1782984685604639700,9.6386396484375,0.019772758707404137,0.00474043283611536,0.010669990442693233
1782984685614713600,9.648713623046875,0.021926820278167725,-0.026759492233395576,0.03143078833818436
1782984685624788700,9.658788818359374,0.019107598811388016,-0.054367151111364365,0.05688128620386124
1782984685634862800,9.66886279296875,0.016461435705423355,-0.07118455320596695,0.08140677213668823
1782984685644936700,9.678936767578126,0.016223615035414696,-0.09606034308671951,0.09627946466207504
1782984685655010800,9.6890107421875,0.01708616502583027,-0.11718916893005371,0.09887717664241791
1782984685665085000,9.6990849609375,0.017542896792292595,-0.11894312500953674,0.09352102875709534
1782984685675159800,9.709159912109374,0.015517198480665684,-0.11737766861915588,0.07099828869104385
1782984685685234000,9.71923388671875,0.017792072147130966,-0.12104936689138412,0.054878439754247665
1782984685695307800,9.729307861328126,0.02257009781897068,-0.11652481555938721,0.04742258042097092
1782984685705382000,9.7393818359375,0.013578465208411217,-0.1055789589881897,0.04743403196334839
1782984685715455700,9.749455810546875,0.005164862610399723,-0.108596071600914,0.0590667650103569
1782984685725531000,9.75953076171875,-0.007981299422681332,-0.12780386209487915,0.07669555395841599
1782984685735604700,9.769604736328125,-0.027369718998670578,-0.12666712701320648,0.09700700640678406
1782984685745678600,9.7796787109375,-0.03771263733506203,-0.09518510103225708,0.09579367190599442
1782984685755752700,9.789752685546874,-0.04174771532416344,-0.03253155201673508,0.07572378218173981
1782984685765826800,9.799826904296875,-0.033075395971536636,0.029762715101242065,0.03911863639950752
1782984685775901700,9.809901611328126,-0.011993207037448883,0.05990614369511604,-0.006403631996363401
1782984685785975800,9.819975830078125,0.016568664461374283,0.06048990786075592,-0.05478181689977646
1782984685796050000,9.8300498046875,0.035416703671216965,0.03830854222178459,-0.0998324528336525
1782984685806123800,9.840123779296874,0.04964384064078331,0.01374834030866623,-0.12145332992076874
1782984685816198000,9.850197998046875,0.05204843357205391,-0.004798942245543003,-0.12264703959226608
1782984685826272800,9.860272705078126,0.045045915991067886,-0.011921832337975502,-0.10702866315841675
1782984685836347000,9.870346923828125,0.03148233890533447,-0.0003497774014249444,-0.08861666172742844
1782984685846420700,9.880420654296875,0.02635149471461773,0.001579150091856718,-0.06888796389102936
1782984685856494600,9.89049462890625,0.020198792219161987,0.009484711103141308,-0.04736945778131485
1782984685866568700,9.900568603515625,0.01655399054288864,0.011853327043354511,-0.0349053293466568
1782984685876643800,9.910643798828126,0.02200993150472641,0.025212105363607407,-0.01968344859778881
1782984685886717700,9.9207177734375,0.02261260524392128,0.02481769025325775,-0.002161711920052767
1782984685896791800,9.930791748046875,0.019874442368745804,0.020531009882688522,0.008578678593039513
1782984685906866000,9.940865966796874,0.0191964004188776,0.005513709969818592,0.016164159402251244
1782984685916939800,9.950939697265625,0.012746373191475868,-0.0044025215320289135,0.0184465479105711
1782984685927014000,9.961013916015625,0.014195665717124939,-0.006292300298810005,0.0027621272020041943
1782984685937088800,9.9710888671875,0.020918766036629677,0.008985349908471107,-0.022718396037817
1782984685947163000,9.981162841796875,0.02937403693795204,0.04522804543375969,-0.04991006851196289
1782984685957236700,9.99123681640625,0.028478706255555153,0.06464572250843048,-0.057193368673324585
1782984685967310600,10.001310546875,0.028808139264583588,0.05688047409057617,-0.047203052788972855
1782984685977385700,10.0113857421875,0.029441144317388535,0.03937358781695366,-0.029022999107837677
1782984685987459800,10.0214599609375,0.024611234664916992,0.015086890198290348,-0.011127354577183723
1782984685997533700,10.03153369140625,0.027101755142211914,-0.0067673902958631516,0.006002618931233883
1782984686007607800,10.04160791015625,0.018452074378728867,-0.002540154382586479,0.00702447397634387
1782984686017682000,10.051681884765625,0.01924801804125309,0.009102481417357922,-0.002567646326497197
1782984686027755800,10.061755859375,0.013979220762848854,0.029597369953989983,-0.0190142635256052
1782984686037831000,10.071830810546874,0.008445052430033684,0.054165344685316086,-0.040312834084033966
1782984686047905000,10.081905029296875,0.008865831419825554,0.061909016221761703,-0.051570285111665726
1782984686057979000,10.091978759765626,0.007489848881959915,0.060175709426403046,-0.05343065783381462
1782984686068053000,10.102052978515625,0.00574627798050642,0.04715977609157562,-0.03519492968916893
1782984686078126800,10.112126953125,0.009485018439590931,0.030352456495165825,-0.01795949414372444
1782984686088202000,10.122201904296874,0.006068981718271971,0.018632950261235237,-0.004391487222164869
1782984686098275800,10.13227587890625,0.009476518258452415,0.0065549868158996105,0.00263747526332736
1782984686108349700,10.142349609375,0.017365600913763046,0.0044431001879274845,0.011542286723852158
1782984686118424000,10.152424072265624,0.021474473178386688,0.012026767246425152,0.00802830420434475
1782984686128498000,10.162497802734375,0.022973299026489258,0.010792392306029797,0.013309085741639137
1782984686138573000,10.172572998046874,0.018983593210577965,-0.006467090919613838,0.01184246875345707
1782984686148647000,10.18264697265625,0.018086640164256096,-0.007774702273309231,0.00850046705454588
1782984686158721000,10.192720947265625,0.013052297756075859,0.005293106660246849,-0.0008103492436930537
1782984686168795000,10.202794921875,0.016873935237526894,0.018690938130021095,-0.021313227713108063
1782984686178869000,10.212868896484375,0.020717864856123924,0.05151369422674179,-0.055671945214271545
1782984686188944000,10.22294384765625,0.029101496562361717,0.0887065976858139,-0.09085017442703247
1782984686199018000,10.23301806640625,0.029767895117402077,0.09513963758945465,-0.1210121288895607
1782984686209091800,10.243091796875,0.040096964687108994,0.09081226587295532,-0.12767907977104187
1782984686219165700,10.253165771484374,0.03736818954348564,0.09866812080144882,-0.12785311043262482
1782984686229240000,10.263239990234375,0.038173262029886246,0.12964200973510742,-0.15347698330879211
1782984686239314700,10.273314697265626,0.04915299266576767,0.1548161506652832,-0.1932820975780487
1782984686249389000,10.28338916015625,0.04361414909362793,0.18866679072380066,-0.2109343260526657
1782984686259463000,10.293462890625,0.008198397234082222,0.16683216392993927,-0.1538916826248169
1782984686269537000,10.303537109375,0.007037525065243244,0.05600525066256523,-0.06978773325681686
1782984686279611000,10.31361083984375,0.02041022479534149,-0.04580068588256836,0.0023585036396980286
1782984686289686000,10.32368603515625,0.013266295194625854,-0.06933797150850296,0.027362922206521034
1782984686299759900,10.333759765625,-0.00020976044470444322,-0.04915878549218178,-0.0019453188870102167
1782984686309834000,10.343833984375,-0.010977985337376595,-0.016339588910341263,-0.051056139171123505
1782984686319907800,10.353907958984376,-0.021024059504270554,0.020350037142634392,-0.08605259656906128
1782984686329981700,10.363981689453125,-0.03898867964744568,0.029189333319664,-0.09062311798334122
1782984686340056800,10.374056884765626,-0.06804882735013962,-0.02490852028131485,-0.05331489071249962
1782984686350130700,10.384130615234374,-0.09513556957244873,-0.1192731037735939,0.035086341202259064
1782984686360205000,10.394205078125,-0.10921482741832733,-0.24202202260494232,0.14650629460811615
1782984686370279000,10.40427880859375,-0.12779811024665833,-0.3395429849624634,0.2314840406179428
