time,seconds_elapsed,z,y,x
1782984676025340200,0.059340087890625,0.01359543763101101,0.034871429204940796,0.01641705632209778
1782984676035414000,0.0694140625,0.0007177218794822693,0.01714196801185608,0.02309759519994259
1782984676045488000,0.079488037109375,-0.0025872609112411737,-0.0028479844331741333,0.027823109179735184
1782984676055562000,0.08956201171875,-0.0029846045654267073,-0.013376791961491108,0.026328276842832565
1782984676065635800,0.0996357421875,-0.0006820355774834752,-0.004095142707228661,0.018005365505814552
1782984676075711000,0.1097109375,0.00487225316464901,-0.001261539408005774,0.013178120367228985
1782984676085784800,0.119784912109375,0.005893575493246317,0.0175800584256649,0.016578976064920425
1782984676095859000,0.12985888671875,0.005066930316388607,0.03707892447710037,0.02040407434105873
1782984676105933000,0.13993310546875,0.0037819549906998873,0.04219139739871025,0.02761511690914631
1782984676116007200,0.150007080078125,0.0062304651364684105,0.04001452773809433,0.03327300027012825
1782984676126082000,0.16008203125,0.01552516408264637,0.035352133214473724,0.024229971691966057
1782984676136156200,0.17015625,0.027722707018256187,0.03386076167225838,0.016526246443390846
1782984676146230000,0.18022998046875,0.032770995050668716,0.031717449426651,0.01908234879374504
1782984676156304100,0.19030419921875,0.03496677055954933,0.012625247240066528,0.03346022218465805
1782984676166378000,0.2003779296875,0.03678224980831146,0.002484729280695319,0.04725193604826927
1782984676176453000,0.210453125,0.030222350731492043,-0.005216599907726049,0.05296068638563156
1782984676186527000,0.22052685546875,0.03020930103957653,-0.004916994366794825,0.04531048983335495
1782984676196600800,0.230600830078125,0.030015956610441208,0.0016857809387147427,0.03093048557639122
1782984676206675000,0.240675048828125,0.029225263744592667,0.008530637249350548,0.023599868640303612
1782984676216749000,0.2507490234375,0.03238030895590782,0.01067980844527483,0.02117559313774109
1782984676226824000,0.260823974609375,0.029742982238531113,0.0017632789677008986,0.025791384279727936
1782984676236898000,0.27089794921875,0.034567032009363174,-0.011096326634287834,0.033247433602809906
1782984676246972200,0.28097216796875,0.03256859630346298,-0.023479759693145752,0.04622422158718109
1782984676257046000,0.2910458984375,0.03488687798380852,-0.03573589399456978,0.05626407265663147
1782984676267120000,0.3011201171875,0.0285275150090456,-0.04333815351128578,0.05902949720621109
1782984676277195000,0.311195068359375,0.024502946063876152,-0.04507613182067871,0.048593636602163315
1782984676287269000,0.32126904296875,0.02888730727136135,-0.032165657728910446,0.022957513108849525
1782984676297343000,0.331343017578125,0.02828916162252426,-0.021258683875203133,-0.001573928166180849
1782984676307416800,0.341416748046875,0.02383715659379959,-0.01619654707610607,-0.014404239133000374
1782984676317491000,0.351490966796875,0.013485182076692581,-0.007702128030359745,-0.013436713255941868
1782984676327566000,0.361566162109375,0.005829659756273031,-0.01091842819005251,0.0024644893128424883
1782984676337640000,0.371639892578125,0.0034469293896108866,-0.015663381665945053,0.016104934737086296
1782984676347714000,0.381714111328125,-0.004047738388180733,-0.016514262184500694,0.030908647924661636
1782984676357788200,0.3917880859375,-0.009379653260111809,-0.015273494645953178,0.04270565137267113
1782984676367862000,0.401862060546875,-0.019054118543863297,-0.014912104234099388,0.05342008173465729
1782984676377937200,0.411937255859375,-0.025465412065386772,-0.011293933726847172,0.056046757847070694
1782984676388011000,0.422010986328125,-0.028901955112814903,-0.011804461479187012,0.06572548300027847
1782984676398085000,0.432085205078125,-0.03510632365942001,-0.02363821677863598,0.07740184664726257
1782984676408159000,0.442158935546875,-0.035540416836738586,-0.0368616096675396,0.0796346440911293
1782984676418232800,0.45223291015625,-0.0359199158847332,-0.03864779323339462,0.08029830455780029
1782984676428308000,0.462307861328125,-0.03422348573803902,-0.026731213554739952,0.07045632600784302
1782984676438382000,0.472382080078125,-0.03289749473333359,-0.018214423209428787,0.06814869493246078
1782984676448456000,0.4824560546875,-0.03139414265751839,-0.011327489279210567,0.07157671451568604
1782984676458530000,0.492530029296875,-0.03765310347080231,0.001714010490104556,0.08701851963996887
1782984676468604200,0.502604248046875,-0.04873185232281685,0.03308817744255066,0.1166006475687027
1782984676478678000,0.512677978515625,-0.05566326156258583,0.04506654292345047,0.15328755974769592
1782984676488753200,0.522753173828125,-0.07108137011528015,0.036256276071071625,0.19018538296222687
1782984676498827000,0.532826904296875,-0.0711042732000351,0.01242151577025652,0.2128763198852539
1782984676508901000,0.542901123046875,-0.07514774799346924,-0.018632274121046066,0.21918295323848724
1782984676518975000,0.55297509765625,-0.06577502191066742,-0.0540832094848156,0.20607860386371613
1782984676529048800,0.563048828125,-0.050340134650468826,-0.06671671569347382,0.2072400003671646
1782984676539124000,0.5731240234375,-0.04481301084160805,-0.06167960911989212,0.23034505546092987
1782984676549197800,0.58319775390625,-0.053343649953603745,-0.06770581007003784,0.25236648321151733
1782984676559272000,0.59327197265625,-0.0683865174651146,-0.05895519629120827,0.2573409974575043
1782984676569346000,0.603345947265625,-0.07650649547576904,-0.03821422904729843,0.2608156204223633
1782984676579420200,0.613420166015625,-0.08740974217653275,-0.02207627333700657,0.26589933037757874
1782984676589495000,0.6234951171875,-0.08990565687417984,-0.036855220794677734,0.29745379090309143
1782984676599569200,0.633569091796875,-0.1075110137462616,-0.06908585876226425,0.32329070568084717
1782984676609643000,0.64364306640625,-0.11953146010637283,-0.10569500178098679,0.32500365376472473
1782984676619717000,0.653717041015625,-0.12488361448049545,-0.11556600779294968,0.3050893247127533
1782984676629791000,0.663791015625,-0.12197091430425644,-0.11490394920110703,0.27075666189193726
1782984676639866000,0.6738662109375,-0.11699745804071426,-0.09970342367887497,0.22735512256622314
1782984676649940000,0.68393994140625,-0.10750994831323624,-0.07022888958454132,0.20398296415805817
1782984676660013800,0.694013916015625,-0.10602763295173645,-0.028447620570659637,0.20211422443389893
1782984676670088000,0.704087890625,-0.10946577042341232,-0.019661052152514458,0.21927642822265625
1782984676680162000,0.714162109375,-0.11744034290313721,-0.04411552846431732,0.23331022262573242
1782984676690237000,0.72423681640625,-0.11913038790225983,-0.061282530426979065,0.23187583684921265
1782984676700311000,0.73431103515625,-0.11717269569635391,-0.06791780143976212,0.23117463290691376
1782984676710385200,0.74438525390625,-0.11682089418172836,-0.07004566490650177,0.22447997331619263
1782984676720459000,0.754458984375,-0.11160722374916077,-0.07008960843086243,0.2209901660680771
1782984676730533000,0.764533203125,-0.11150681972503662,-0.06705493479967117,0.20671296119689941
1782984676740608000,0.77460791015625,-0.10139213502407074,-0.058640941977500916,0.18898509442806244
1782984676750682000,0.78468212890625,-0.09284578263759613,-0.0346679650247097,0.1734098643064499
1782984676760756000,0.794755859375,-0.09050167351961136,-0.005252019967883825,0.17762991786003113
1782984676770829800,0.804829833984375,-0.08316386491060257,0.02088024839758873,0.20800992846488953
1782984676780904000,0.814904052734375,-0.07757069170475006,0.02845454402267933,0.25963422656059265
1782984676790979000,0.82497900390625,-0.08230818808078766,0.022339127957820892,0.3096641004085541
1782984676801053000,0.835052978515625,-0.085645392537117,-0.004580104257911444,0.33822599053382874
1782984676811127000,0.845126953125,-0.08590878546237946,-0.020143883302807808,0.34605222940444946
1782984676821201200,0.855201171875,-0.07657919824123383,-0.0396621897816658,0.3205553889274597
1782984676831275000,0.86527490234375,-0.06094963848590851,-0.029283853247761726,0.2776321470737457
1782984676841350100,0.87535009765625,-0.040280044078826904,0.013317669741809368,0.2580525875091553
1782984676851424000,0.885424072265625,-0.041372206062078476,0.034977689385414124,0.24609099328517914
1782984676861498000,0.895498046875,-0.049432262778282166,0.014705975539982319,0.22629812359809875
1782984676871572000,0.905572021484375,-0.057623881846666336,-0.015688681975007057,0.18900880217552185
1782984676881645800,0.915645751953125,-0.05982205271720886,-0.029028188437223434,0.11557932943105698
1782984676891721000,0.925720947265625,-0.050759050995111465,-0.030016489326953888,0.037216611206531525
1782984676901795000,0.935795166015625,-0.0065444521605968475,0.08305653929710388,0.045762695372104645
1782984676911869000,0.945868896484375,0.041728273034095764,0.29162198305130005,0.3438708186149597
1782984676921943000,0.955943115234375,0.04947434365749359,0.03069186583161354,0.5130752921104431
1782984676932017200,0.96601708984375,0.07494082301855087,-0.07106378674507141,0.6528393030166626
1782984676942092000,0.976092041015625,0.0871676579117775,-0.14265301823616028,0.7576424479484558
1782984676952166100,0.986166259765625,0.07325317710638046,-0.2709020674228668,0.8156349062919617
1782984676962240000,0.996239990234375,0.049001630395650864,-0.3214307725429535,0.8471981287002563
1782984676972314000,1.006314208984375,0.016711868345737457,-0.2980839014053345,0.8474010825157166
1782984676982388000,1.016387939453125,-0.037036050111055374,-0.28473585844039917,0.783255934715271
1782984676992463000,1.026463134765625,-0.08337771147489548,-0.27064454555511475,0.6759611368179321
1782984677002537000,1.036536865234375,-0.10316606611013412,-0.2396799623966217,0.5384413599967957
1782984677012610800,1.04661083984375,-0.12028992921113968,-0.20754307508468628,0.38412344455718994
1782984677022685000,1.056684814453125,-0.13064563274383545,-0.19616365432739258,0.23876038193702698
1782984677032758300,1.06675830078125,-0.1338169127702713,-0.19078166782855988,0.1252197027206421
1782984677042833400,1.07683349609375,-0.129767045378685,-0.19378171861171722,0.06443704664707184
1782984677052907300,1.0869072265625,-0.13216815888881683,-0.20417603850364685,0.06526635587215424
1782984677062981400,1.0969814453125,-0.14245115220546722,-0.208516463637352,0.11242188513278961
1782984677073055200,1.10705517578125,-0.14582191407680511,-0.19839350879192352,0.17757637798786163
1782984677083129000,1.117129150390625,-0.14717666804790497,-0.19552288949489594,0.22985076904296875
1782984677093204200,1.127204345703125,-0.14317020773887634,-0.20186467468738556,0.26717790961265564
1782984677103278300,1.1372783203125,-0.13641589879989624,-0.18706336617469788,0.2968263328075409
1782984677113352200,1.147352294921875,-0.13269972801208496,-0.15754728019237518,0.30319368839263916
1782984677123426300,1.15742626953125,-0.11987314373254776,-0.10991264879703522,0.2913767099380493
1782984677133500400,1.16750048828125,-0.10507741570472717,-0.06999240070581436,0.2777716815471649
1782984677143575300,1.1775751953125,-0.09972712397575378,-0.02967427298426628,0.25717827677726746
1782984677153649400,1.1876494140625,-0.10666359215974808,-0.007703193463385105,0.23276959359645844
1782984677163723300,1.19772314453125,-0.09870793670415878,-0.016043148934841156,0.19371327757835388
1782984677173797400,1.20779736328125,-0.0890105664730072,-0.04998886585235596,0.14395157992839813
1782984677183871200,1.217871337890625,-0.08356360346078873,-0.05180007964372635,0.10174180567264557
1782984677193946400,1.2279462890625,-0.0934085100889206,-0.02112392708659172,0.0799986943602562
1782984677204020200,1.238020263671875,-0.09130514413118362,0.022954851388931274,0.08261524885892868
1782984677214094000,1.248093994140625,-0.07869134843349457,0.0745682418346405,0.1088484525680542
1782984677224168200,1.258168212890625,-0.05958583205938339,0.11269938200712204,0.1589859277009964
1782984677234242300,1.2682421875,-0.041849181056022644,0.13136520981788635,0.218229278922081
1782984677244317200,1.278317138671875,-0.030193321406841278,0.12103001773357391,0.2706458866596222
1782984677254391300,1.288391357421875,-0.023899739608168602,0.09688713401556015,0.31039780378341675
1782984677264465400,1.29846533203125,-0.01684023253619671,0.05759831517934799,0.33243146538734436
1782984677274539300,1.308539306640625,-0.01756514422595501,0.03171771392226219,0.33041518926620483
1782984677284613400,1.31861328125,-0.013962420634925365,0.0224392618983984,0.31748342514038086
1782984677294688300,1.328688232421875,-0.004996889270842075,0.014058294706046581,0.28587064146995544
1782984677304762400,1.338762451171875,0.010688863694667816,0.019694343209266663,0.2508407533168793
1782984677314836200,1.348836181640625,0.032391760498285294,0.030236732214689255,0.21653230488300323
1782984677324910000,1.35891015625,0.05119927227497101,0.02629685215651989,0.17718863487243652
1782984677334984200,1.368984130859375,0.05570187792181969,0.02263287454843521,0.1477886587381363
1782984677345058300,1.379058349609375,0.061528075486421585,0.03008067049086094,0.12381648272275925
1782984677355133200,1.38913330078125,0.06160876899957657,0.062528096139431,0.11158538609743118
1782984677365207300,1.399207275390625,0.05885506048798561,0.10768864303827286,0.10883726924657822
1782984677375281400,1.409281494140625,0.04517680034041405,0.12527483701705933,0.10705454647541046
1782984677385355300,1.419355224609375,0.038785479962825775,0.13023310899734497,0.10752219706773758
1782984677395429400,1.429429443359375,0.03298963978886604,0.11941427737474442,0.09695903956890106
1782984677405504300,1.439504150390625,0.03218962624669075,0.08459717780351639,0.08001068234443665
1782984677415578400,1.449578369140625,0.032114528119564056,0.052209142595529556,0.062012769281864166
1782984677425652200,1.45965234375,0.036123648285865784,0.03105059452354908,0.03964648023247719
1782984677435726000,1.46972607421875,0.03472176194190979,0.01480557769536972,0.016159528866410255
1782984677445800200,1.47980029296875,0.036437101662158966,0.027088874951004982,-0.004108458757400513
1782984677455875300,1.489875244140625,0.04084064066410065,0.04699520394206047,-0.014664696529507637
1782984677465949200,1.49994921875,0.04790520668029785,0.06395314633846283,-0.010824950411915779
1782984677476023300,1.510023193359375,0.05475166067481041,0.05970301106572151,0.0034000577870756388
1782984677486097400,1.520097412109375,0.059305399656295776,0.03900865092873573,0.024574318900704384
1782984677496171300,1.530171142578125,0.06527833640575409,0.013768276199698448,0.04728389158844948
1782984677506246400,1.540246337890625,0.06993567198514938,-0.010117349214851856,0.06735746562480927
1782984677516320300,1.5503203125,0.07249417155981064,-0.030839672312140465,0.0681963637471199
1782984677526394400,1.560394287109375,0.07668066024780273,-0.05686834082007408,0.05453328415751457
1782984677536468200,1.57046826171875,0.07785911113023758,-0.04574804753065109,0.034627750515937805
1782984677546542000,1.5805419921875,0.07891611754894257,-0.04500209540128708,0.01522902026772499
1782984677556617200,1.5906171875,0.06915377080440521,-0.06691751629114151,-0.0060086240991950035
1782984677566691300,1.60069140625,0.048878591507673264,-0.06759395450353622,-0.023258984088897705
1782984677576765200,1.61076513671875,0.03681713715195656,-0.05504913628101349,-0.034329213201999664
1782984677586839300,1.62083935546875,0.023688284680247307,-0.04411206766963005,-0.03610846772789955
1782984677596913400,1.630913330078125,0.012047075666487217,-0.036856818944215775,-0.03003726154565811
1782984677606988300,1.64098828125,-0.0003480751474853605,-0.051956940442323685,-0.02232794277369976
1782984677617062400,1.6510625,-0.005800365004688501,-0.07442310452461243,-0.033782996237277985
1782984677627136300,1.66113623046875,-0.0035835495218634605,-0.07365371286869049,-0.04508332163095474
1782984677637210400,1.67121044921875,-0.003792874049395323,-0.07091359049081802,-0.06481681019067764
1782984677647284200,1.6812841796875,0.0014085458824411035,-0.042804986238479614,-0.09904562681913376
1782984677657359400,1.691359375,0.0012815131340175867,0.0067718857899308205,-0.14157336950302124
1782984677667433200,1.70143310546875,0.003748931922018528,0.06589299440383911,-0.19908487796783447
1782984677677507000,1.711507080078125,0.010869425721466541,0.10038332641124725,-0.26594966650009155
1782984677687581200,1.721581298828125,0.013069462962448597,0.10067547857761383,-0.3200645446777344
1782984677697655300,1.7316552734375,0.010610832832753658,0.07227712869644165,-0.3500288426876068
1782984677707730200,1.741730224609375,0.006074137985706329,0.020388362929224968,-0.3626652657985687
1782984677717804300,1.75180419921875,-0.0006886934279464185,-0.03195234015583992,-0.35483691096305847
1782984677727878400,1.76187841796875,-0.00002609897819638718,-0.08173933625221252,-0.3390859067440033
1782984677737952300,1.7719521484375,0.003695935010910034,-0.12432381510734558,-0.325168251991272
1782984677748026400,1.7820263671875,0.0067828050814569,-0.1373133808374405,-0.292442262172699
1782984677758101200,1.792101318359375,0.0021054951939731836,-0.10849159210920334,-0.22116567194461823
1782984677768175400,1.80217529296875,-0.0021979068405926228,-0.08055902272462845,-0.11364826560020447
1782984677778249200,1.812249267578125,-0.017068199813365936,-0.05975760519504547,-0.0017446368001401424
1782984677788323000,1.822322998046875,-0.02582360804080963,-0.03427674621343613,0.10686279833316803
1782984677798397200,1.832397216796875,-0.02636263146996498,-0.021585986018180847,0.2008388340473175
1782984677808472300,1.842472412109375,-0.020197680220007896,-0.015267635695636272,0.282434344291687
1782984677818546200,1.852546142578125,-0.01576405018568039,-0.011257181875407696,0.35490748286247253
1782984677828620300,1.862620361328125,-0.016504675149917603,-0.006176669616252184,0.3919813632965088
1782984677838694400,1.8726943359375,-0.012500345706939697,-0.006353503558784723,0.38292819261550903
1782984677848768300,1.882768310546875,-0.009928797371685505,-0.013068397529423237,0.33342403173446655
1782984677858842400,1.89284228515625,-0.015337677672505379,-0.013569604605436325,0.2767333388328552
1782984677868917200,1.902917236328125,-0.027663851156830788,-0.0025771409273147583,0.23175014555454254
1782984677878991400,1.912991455078125,-0.045820217579603195,0.007923969067633152,0.20119249820709229
1782984677889065200,1.923065185546875,-0.05371915549039841,0.008977781981229782,0.18143637478351593
1782984677899139000,1.93313916015625,-0.0551050640642643,0.022351911291480064,0.16714291274547577
1782984677909213200,1.943213134765625,-0.05402674898505211,0.025347966700792313,0.14954794943332672
1782984677919288300,1.953288330078125,-0.05856158211827278,0.022005699574947357,0.11822783946990967
1782984677929362200,1.963362060546875,-0.07728014141321182,0.01793106272816658,0.06606557220220566
1782984677939436300,1.973436279296875,-0.10387499630451202,0.027475565671920776,-0.0075692362152040005
1782984677949510400,1.983510498046875,-0.11036698520183563,0.054008904844522476,-0.08838099241256714
1782984677959584300,1.993584228515625,-0.0920281931757927,0.10456209629774094,-0.13493332266807556
1782984677969659400,2.003659423828125,-0.06084364280104637,0.10271572321653366,-0.1443862020969391
1782984677979733200,2.013733154296875,-0.046833816915750504,0.023799072951078415,-0.13718847930431366
1782984677989807400,2.023807373046875,-0.023088807240128517,-0.007285343483090401,-0.09689778089523315
1782984677999881200,2.033881103515625,-0.011810853146016598,-0.024510402232408524,-0.058099254965782166
1782984678009955000,2.043955078125,-0.01763225719332695,-0.05949155613780022,-0.055335693061351776
1782984678020030200,2.0540302734375,-0.024466993287205696,-0.08082134276628494,-0.05642998591065407
1782984678030105000,2.06410498046875,-0.033854104578495026,-0.016932643949985504,-0.031016772612929344
1782984678040179200,2.07417919921875,-0.02979118563234806,0.04187927395105362,-0.005111671518534422
1782984678050253000,2.084253173828125,-0.01841762289404869,0.03904753550887108,0.009502158500254154
1782984678060327200,2.0943271484375,-0.004618453793227673,-0.011541874147951603,0.024959411472082138
1782984678070402000,2.104402099609375,-0.0021888520568609238,-0.0602409690618515,0.04109976440668106
1782984678080476200,2.11447607421875,-0.0026676885318011045,-0.11012277752161026,0.03843554109334946
1782984678090550300,2.12455029296875,0.0046208505518734455,-0.13807131350040436,0.021450696513056755
1782984678100624100,2.1346240234375,0.0032863407395780087,-0.1284639686346054,-0.010055563412606716
1782984678110698200,2.1446982421875,-0.007041664328426123,-0.08358863741159439,-0.035465583205223083
1782984678120773000,2.154773193359375,-0.02713414840400219,-0.022835275158286095,-0.0442497543990612
1782984678130847200,2.16484716796875,-0.05709604173898697,0.027366111055016518,-0.04981362819671631
1782984678140921000,2.174921142578125,-0.07572032511234283,0.08025089651346207,-0.057923488318920135
1782984678150995200,2.1849951171875,-0.07167338579893112,0.10692431777715683,-0.08022373169660568
1782984678161069000,2.195069091796875,-0.04306331276893616,0.09912338852882385,-0.08384962379932404
1782984678171144200,2.205144287109375,-0.02971555106341839,0.06902540475130081,-0.07599303126335144
1782984678181218000,2.215218017578125,-0.04055541753768921,0.0251583494246006,-0.062427423894405365
1782984678191292200,2.225292236328125,-0.049491118639707565,-0.015516108833253384,-0.052269596606492996
1782984678201366300,2.2353662109375,-0.04571262747049332,-0.047333694994449615,-0.0557415597140789
1782984678211440000,2.245440185546875,-0.0339244119822979,-0.06064949929714203,-0.06585118174552917
1782984678221515300,2.255515380859375,-0.023868581280112267,-0.059179168194532394,-0.08252470195293427
1782984678231589000,2.265589111328125,-0.019397666677832603,-0.05295935645699501,-0.09186387807130814
1782984678241663200,2.275663330078125,-0.02388615719974041,-0.010006827302277088,-0.09976094961166382
1782984678251737000,2.285737060546875,-0.03147803246974945,0.04585244134068489,-0.10384916514158249
1782984678261811200,2.295811279296875,-0.030343258753418922,0.0827055349946022,-0.08768750727176666
1782984678271885000,2.305885009765625,-0.04392564669251442,0.1068153977394104,-0.0450870506465435
1782984678281960200,2.315960205078125,-0.046902261674404144,0.0835268497467041,-0.008551676757633686
1782984678292034000,2.326033935546875,-0.035291146486997604,0.023907730355858803,0.016713732853531837
1782984678302108200,2.336108154296875,-0.02443317137658596,-0.03508475050330162,0.02220889925956726
1782984678312182300,2.346182373046875,-0.009242766536772251,-0.06893645972013474,0.014388526789844036
1782984678322256100,2.356256103515625,0.012663597241044044,-0.07585348188877106,-0.008036088198423386
1782984678332331300,2.366331298828125,0.02750006690621376,-0.07069334387779236,-0.03719503805041313
1782984678342405000,2.376405029296875,0.02635144628584385,-0.03681527078151703,-0.05481185019016266
1782984678352479200,2.386479248046875,0.023433420807123184,-0.008286692202091217,-0.07228697836399078
1782984678362553000,2.396552978515625,0.021558554843068123,0.0054911719635128975,-0.07787135988473892
1782984678372627200,2.406627197265625,0.020300477743148804,0.014519021846354008,-0.08250685781240463
1782984678382702000,2.4167021484375,0.019164107739925385,0.018757442012429237,-0.07615096122026443
1782984678392776200,2.426776123046875,0.025469407439231873,0.011524297297000885,-0.058343999087810516
1782984678402850000,2.43685009765625,0.02894882671535015,-0.0046325684525072575,-0.032520659267902374
1782984678412924200,2.446924072265625,0.02280411496758461,-0.007199056912213564,-0.013464942574501038
1782984678422998300,2.456998291015625,0.024931982159614563,-0.004762797150760889,-0.0034432008396834135
1782984678433073200,2.4670732421875,0.025291774421930313,0.00041998049709945917,-0.0032410670537501574
1782984678443147300,2.477147216796875,0.023036077618598938,0.014845524914562702,-0.006730873137712479
1782984678453221000,2.48722119140625,0.021810490638017654,0.01954973302781582,-0.008569786325097084
1782984678463295200,2.497295166015625,0.02666143886744976,0.011090734042227268,-0.009831325151026249
1782984678473369000,2.507369140625,0.02929557114839554,0.006445914972573519,-0.0008290420519188046
1782984678483444200,2.5174443359375,0.03249083086848259,-0.003454119898378849,0.007001983001828194
1782984678493518000,2.52751806640625,0.03177124634385109,-0.015443138778209686,0.004958007019013166
1782984678503592200,2.53759228515625,0.031858596950769424,-0.014968829229474068,0.009778061881661415
1782984678513666000,2.547666015625,0.024522386491298676,-0.002924150787293911,0.00965635571628809
1782984678523740200,2.557740234375,0.02183951810002327,0.013457751832902431,0.010863300412893295
1782984678533815000,2.56781494140625,0.02075081877410412,0.015328888781368732,0.008103200234472752
1782984678543889200,2.57788916015625,0.021828865632414818,0.004277569241821766,0.014781875535845757
1782984678553963300,2.58796337890625,0.019960924983024597,-0.011688880622386932,0.019236810505390167
1782984678564037000,2.598037109375,0.014043115079402924,-0.029165608808398247,0.01991245523095131
1782984678574111200,2.608111328125,0.014999189414083958,-0.03798626363277435,0.01588176190853119
1782984678584186000,2.61818603515625,0.01866316609084606,-0.03248603641986847,0.005286640953272581
1782984678594260200,2.62826025390625,0.02341131679713726,-0.012189820408821106,-0.006573746912181377
1782984678604334000,2.638333984375,0.021446170285344124,0.007938616909086704,-0.022895462810993195
1782984678614408200,2.648408203125,0.02497326023876667,0.029746709391474724,-0.03747733309864998
1782984678624482000,2.65848193359375,0.02635064721107483,0.05446217581629753,-0.04950976371765137
1782984678634556200,2.66855615234375,0.028319789096713066,0.06719501316547394,-0.05675196275115013
1782984678644631000,2.678631103515625,0.022726351395249367,0.0639725923538208,-0.055992696434259415
1782984678654705200,2.688705078125,0.02339853346347809,0.05351489037275314,-0.039739422500133514
1782984678664779300,2.698779296875,0.02147546410560608,0.038183070719242096,-0.010528807528316975
1782984678674853000,2.70885302734375,0.012703011743724346,0.024935442954301834,0.021627530455589294
1782984678684927200,2.71892724609375,0.009404953569173813,0.014614628627896309,0.04579731449484825
1782984678695002000,2.729002197265625,0.012174640782177448,0.01133894082158804,0.06418484449386597
1782984678705076200,2.739076171875,0.006262689363211393,0.020747356116771698,0.07314930856227875
1782984678715150000,2.749150146484375,0.003534547286108136,0.006589192897081375,0.0769278034567833
1782984678725224200,2.75922412109375,-0.00021651499264407903,-0.0029984530992805958,0.06776413321495056
1782984678735298000,2.769298095703125,0.004765193909406662,-0.0034916705917567015,0.05558549612760544
1782984678745373200,2.779373291015625,0.011933624744415283,-0.0015928366919979453,0.037162017077207565
1782984678755447000,2.789447021484375,0.009268066845834255,-0.005528456065803766,0.02297802083194256
1782984678765521200,2.799521240234375,0.012895292602479458,0.00680144689977169,0.006736199837177992
1782984678775595300,2.80959521484375,0.016987506300210953,0.03311720862984657,0.006328735966235399
1782984678785669000,2.819669189453125,0.01498161256313324,0.03569434955716133,0.01037647482007742
1782984678795744300,2.829744140625,0.008947156369686127,0.020414993166923523,0.008271245285868645
1782984678805818000,2.839818115234375,0.0062243398278951645,0.01824371889233589,0.015632489696145058
1782984678815892200,2.849892333984375,0.005863481666892767,0.022230204194784164,0.013027118518948555
1782984678825966000,2.859966064453125,-0.002924417145550251,0.029885994270443916,0.014102502726018429
1782984678836040200,2.870040283203125,-0.008826514706015587,0.03946405276656151,0.006656304933130741
1782984678846115000,2.880114990234375,-0.010468087159097195,0.061646584421396255,0.015214905142784119
1782984678856189200,2.890189208984375,-0.007976699620485306,0.07546013593673706,0.03358352556824684
1782984678866263000,2.900262939453125,-0.011693674139678478,0.07484041899442673,0.05549441650509834
1782984678876337200,2.910337158203125,-0.005281581077724695,0.045213550329208374,0.06197601929306984
1782984678886411300,2.920411376953125,0.012781042605638504,0.005244030617177486,0.0487251952290535
1782984678896486100,2.930486083984375,0.03261120617389679,-0.010400443337857723,0.0272649098187685
1782984678906560300,2.940560302734375,0.043889425694942474,0.003275954397395253,0.010428672656416893
1782984678916634000,2.950634033203125,0.04469343647360802,0.014613830484449863,-0.003549993736669421
1782984678926708200,2.960708251953125,0.037749774754047394,0.014448714442551136,-0.013653494417667389
1782984678936782000,2.970781982421875,0.03646479919552803,0.02363795042037964,-0.015994412824511528
1782984678946857200,2.980857177734375,0.03670714795589447,0.035405393689870834,-0.02371038869023323
1782984678956931000,2.99093115234375,0.04308541864156723,0.039384424686431885,-0.03622245416045189
1782984678967005200,3.001005126953125,0.04832625389099121,0.047333162277936935,-0.0530104860663414
1782984678977079000,3.0110791015625,0.04855874553322792,0.05002641677856445,-0.05907503888010979
1782984678987153200,3.021153076171875,0.037097834050655365,0.04826899617910385,-0.06046707183122635
1782984678997227300,3.031227294921875,0.02768648788332939,0.037991590797901154,-0.05049220100045204
1782984679007302100,3.04130224609375,0.019836820662021637,0.043360788375139236,-0.036374785006046295
1782984679017376300,3.051376220703125,0.01805436797440052,0.05150393769145012,-0.016472183167934418
1782984679027450000,3.0614501953125,0.01537682581692934,0.0487787239253521,0.00028389296494424343
1782984679037524000,3.07152392578125,0.011916047893464565,0.049017343670129776,0.01498214527964592
1782984679047598000,3.08159814453125,0.0089953588321805,0.05843507871031761,0.031631696969270706
1782984679057673000,3.0916728515625,0.008416920900344849,0.04765913262963295,0.03849732503294945
1782984679067747000,3.1017470703125,0.01601598411798477,0.027159448713064194,0.04291204735636711
1782984679077821000,3.111821044921875,0.024994032457470894,0.019056782126426697,0.04519650712609291
1782984679087895000,3.12189501953125,0.027398867532610893,0.015630092471837997,0.03852076083421707
1782984679097969200,3.13196923828125,0.025008680298924446,0.01058952696621418,0.025311747565865517
1782984679108044000,3.1420439453125,0.023382820188999176,0.021738052368164062,0.01858700066804886
1782984679118118100,3.1521181640625,0.01920059323310852,0.042573560029268265,0.014339524321258068
1782984679128192000,3.16219189453125,0.006911968346685171,0.05031217262148857,0.014118482358753681
1782984679138266000,3.17226611328125,0.004857339430600405,0.05801962688565254,0.022214757278561592
1782984679148340000,3.182340087890625,0.003915645647794008,0.05552610754966736,0.035825107246637344
1782984679158415000,3.1924150390625,0.0027411917690187693,0.048527587205171585,0.05254816263914108
1782984679168489000,3.202489013671875,-0.0005406216951087117,0.030835943296551704,0.07649797201156616
1782984679178563000,3.21256298828125,-0.011263307183980942,0.029917152598500252,0.10686519742012024
1782984679188637000,3.222636962890625,-0.01312272623181343,0.02936081774532795,0.14115606248378754
1782984679198711000,3.2327109375,-0.007773234508931637,0.0339270755648613,0.1673586368560791
1782984679208786000,3.242785888671875,-0.0004647216119337827,0.02937253564596176,0.17370201647281647
1782984679218860000,3.252860107421875,-0.00007270430069183931,0.012106197886168957,0.15678802132606506
1782984679228934100,3.26293408203125,0.008913067169487476,0.0004271710349712521,0.13074709475040436
1782984679239008000,3.273008056640625,0.013909956440329552,-0.004973985720425844,0.0932798832654953
1782984679249082000,3.28308203125,0.01721307449042797,-0.0037910097744315863,0.047803208231925964
1782984679259157000,3.293156982421875,0.024291224777698517,0.012678510509431362,0.0022714100778102875
1782984679269231000,3.303231201171875,0.03442694991827011,0.021103953942656517,-0.03478940576314926
1782984679279305000,3.313304931640625,0.04079829528927803,0.023303991183638573,-0.063622385263443
1782984679289379000,3.323379150390625,0.0370488315820694,0.027247067540884018,-0.06840888410806656
1782984679299453000,3.333452880859375,0.032523054629564285,0.019706860184669495,-0.05783693492412567
1782984679309528000,3.343528076171875,0.03002794086933136,0.008858739398419857,-0.046309709548950195
1782984679319602000,3.353601806640625,0.026739202439785004,0.007337008602917194,-0.032645829021930695
1782984679329676000,3.363676025390625,0.02802897058427334,0.021689848974347115,-0.026631610468029976
1782984679339750100,3.373750244140625,0.03201998397707939,0.03183755651116371,-0.026706179603934288
1782984679349824000,3.383823974609375,0.033000558614730835,0.0366501547396183,-0.02172526903450489
1782984679359898000,3.393898193359375,0.03134460747241974,0.039633430540561676,-0.006257096771150827
1782984679369973000,3.403972900390625,0.026868898421525955,0.027763986960053444,0.00663553224876523
1782984679380047000,3.414047119140625,0.027782095596194267,0.014595188200473785,0.00663366774097085
1782984679390121000,3.424120849609375,0.036730848252773285,0.004053064621984959,0.003938282374292612
1782984679400195000,3.434195068359375,0.03822754696011543,-0.00279072648845613,-0.00771624268963933
1782984679410269000,3.44426904296875,0.038605980575084686,-0.016895625740289688,-0.02045387588441372
1782984679420344000,3.454343994140625,0.03875352069735527,-0.025544242933392525,-0.03232278674840927
1782984679430418000,3.46441796875,0.034743864089250565,-0.018065286800265312,-0.04321644455194473
1782984679440492000,3.474491943359375,0.02558099292218685,0.009017730131745338,-0.04379195719957352
1782984679450566100,3.484566162109375,0.017127854749560356,0.042697660624980927,-0.03205886483192444
1782984679460640000,3.494639892578125,0.014042316004633904,0.053578805178403854,-0.008401207625865936
1782984679470715100,3.504715087890625,0.010960238985717297,0.04223480448126793,0.018698053434491158
1782984679480789000,3.5147890625,0.011652661487460136,0.025373267009854317,0.03917083889245987
1782984679490863000,3.524863037109375,0.01919526606798172,-0.00276089902035892,0.036908481270074844
1782984679500937000,3.53493701171875,0.03153901919722557,-0.02605929784476757,0.024446753785014153
1782984679511011000,3.545010986328125,0.03367407247424126,-0.03160000219941139,0.004463191609829664
1782984679521086000,3.5550859375,0.029884928837418556,-0.027463048696517944,-0.015749402344226837
1782984679531160000,3.56516015625,0.023783359676599503,-0.007185208611190319,-0.03786882013082504
1782984679541234000,3.57523388671875,0.014187724329531193,0.027163976803421974,-0.0388890765607357
1782984679551308000,3.58530810546875,0.01188036147505045,0.04983093962073326,-0.02225417271256447
1782984679561382100,3.595382080078125,0.007077882997691631,0.04839549586176872,0.0002860235108528286
1782984679571457000,3.60545703125,0.007925300858914852,0.028958946466445923,0.021732458844780922
1782984679581531100,3.61553125,0.00848536379635334,0.0011073424248024821,0.03093767538666725
1782984679591605000,3.62560498046875,0.010676879435777664,-0.00851306039839983,0.029474535956978798
1782984679601679000,3.63567919921875,0.007605188991874456,-0.0013606089632958174,0.029931001365184784
1782984679611753000,3.6457529296875,0.002010686555877328,0.014162690378725529,0.019950272515416145
1782984679621828000,3.655828125,0.0013784521725028753,0.01504313200712204,0.015974439680576324
1782984679631902000,3.66590185546875,0.0015595471486449242,0.02262302115559578,0.014788533560931683
1782984679641976000,3.67597607421875,0.0003097256412729621,0.0375971756875515,0.016620788723230362
1782984679652050000,3.6860498046875,-0.0009475527331233025,0.04199778288602829,0.022283734753727913
1782984679662124000,3.6961240234375,0.0007086671539582312,0.02732882648706436,0.026619093492627144
1782984679672199000,3.706198974609375,0.007791077718138695,0.002749447477981448,0.03051130287349224
1782984679682273000,3.71627294921875,0.008156197145581245,-0.011778095737099648,0.0282279085367918
1782984679692347100,3.72634716796875,0.006989200133830309,-0.010668623261153698,0.0108872689306736
1782984679702421000,3.7364208984375,0.016353672370314598,-0.0020090886391699314,-0.009473929181694984
1782984679712495000,3.7464951171875,0.019122028723359108,0.0067873322404921055,-0.034632280468940735
1782984679722570000,3.756570068359375,0.018372349441051483,0.015203986316919327,-0.05132737010717392
1782984679732644000,3.76664404296875,0.015174158848822117,0.016565393656492233,-0.059718724340200424
1782984679742718000,3.776718017578125,0.01116370502859354,0.02497326023876667,-0.05950913205742836
1782984679752792000,3.7867919921875,0.00965742114931345,0.03296380862593651,-0.039922114461660385
1782984679762866000,3.796865966796875,0.003215500619262457,0.028613802045583725,-0.014313159510493279
1782984679772940000,3.80693994140625,-0.0015217302134260535,0.019645873457193375,0.009859022684395313
1782984679783015000,3.817014892578125,-0.007928497157990932,0.01619414985179901,0.034269291907548904
1782984679793089000,3.827089111328125,-0.016988836228847504,0.006595584563910961,0.0449533611536026
1782984679803163100,3.8371630859375,-0.022659506648778915,-0.006688795518130064,0.04214292764663696
1782984679813237000,3.847237060546875,-0.027419906109571457,-0.010498980060219765,0.02617807500064373
1782984679823311000,3.85731103515625,-0.02787077985703945,-0.0003712446487043053,0.005026184022426605
1782984679833386000,3.867385986328125,-0.025898441672325134,0.0172056183218956,-0.003949201665818691
1782984679843460000,3.877460205078125,-0.023478161543607712,0.02424115687608719,-0.01019591186195612
1782984679853534000,3.887533935546875,-0.019842680543661118,0.017766479402780533,-0.006103698629885912
1782984679863608000,3.897608154296875,-0.013342437334358692,0.006912501063197851,-0.0034384073223918676
1782984679873682000,3.907681884765625,-0.007337541319429874,-0.006554838269948959,-0.008311193436384201
1782984679883757000,3.917757080078125,-0.0042131207883358,-0.004895955324172974,-0.011342668905854225
1782984679893831000,3.927830810546875,-0.005780124571174383,0.006740194279700518,-0.0036464000586420298
1782984679903905000,3.937905029296875,-0.01059325598180294,0.003692206460982561,-0.0012175972806289792
1782984679913979100,3.947979248046875,-0.01944187469780445,-0.005757754202932119,0.005224855616688728
1782984679924053000,3.958052978515625,-0.027462517842650414,-0.0007563377148471773,0.011988219805061817
1782984679934128000,3.968128173828125,-0.03778199851512909,0.00805925764143467,0.01618482917547226
1782984679944202000,3.978201904296875,-0.04502686485648155,0.023510118946433067,0.02255990356206894
1782984679954275000,3.988275146484375,-0.04538346081972122,0.027186879888176918,0.024986043572425842
1782984679964349000,3.998348876953125,-0.048898302018642426,0.01576538011431694,0.024896828457713127
1782984679974423000,4.008423095703125,-0.05163150280714035,0.009274458512663841,0.0197468064725399
1782984679984498000,4.018497802734375,-0.04969538375735283,0.00040799626731313765,0.019268503412604332
1782984679994572000,4.028572021484375,-0.04583326727151871,0.012343218550086021,0.015049257315695286
1782984680004646100,4.038646240234375,-0.050390202552080154,0.03726241737604141,0.022518092766404152
1782984680014720000,4.048719970703125,-0.056285642087459564,0.0681295171380043,0.04538372531533241
1782984680024795100,4.058795166015625,-0.0656471848487854,0.09801178425550461,0.08101202547550201
1782984680034869000,4.068868896484375,-0.07810652256011963,0.11978046596050262,0.12377546727657318
1782984680044942800,4.07894287109375,-0.08338357508182526,0.11203039437532425,0.1607886105775833
1782984680055017000,4.089016845703125,-0.07784926146268845,0.08909711986780167,0.1781018227338791
1782984680065090800,4.0990908203125,-0.08082427829504013,0.057380467653274536,0.170298233628273
1782984680075164700,4.10916455078125,-0.08652663230895996,0.04772944003343582,0.14873887598514557
1782984680085239800,4.11923974609375,-0.07984769344329834,0.052975334227085114,0.12196718156337738
1782984680095313700,4.129313720703125,-0.06767118722200394,0.07076951116323471,0.09160501509904861
1782984680105388000,4.139387939453125,-0.050924964249134064,0.06837452948093414,0.05818021669983864
1782984680115462000,4.1494619140625,-0.027592478320002556,0.04610491171479225,0.020805945619940758
1782984680125536000,4.159535888671875,-0.002507898723706603,0.013013536110520363,-0.02659512497484684
1782984680135611000,4.16961083984375,0.01979261264204979,-0.022724486887454987,-0.07597705721855164
1782984680145685000,4.17968505859375,0.03747866675257683,-0.04695232957601547,-0.12129233777523041
1782984680155758800,4.1897587890625,0.04200364276766777,-0.03949121758341789,-0.1510787308216095
1782984680165833000,4.1998330078125,0.033845048397779465,-0.019936956465244293,-0.15324388444423676
1782984680175906800,4.20990673828125,0.022877618670463562,0.0006239786162041128,-0.1486339420080185
1782984680185982000,4.21998193359375,0.015458052046597004,0.011197793297469616,-0.12289902567863464
1782984680196055800,4.230055908203125,0.007907990366220474,0.009165268391370773,-0.09551160782575607
1782984680206129700,4.240129638671875,0.011544004082679749,0.004847751930356026,-0.06439550220966339
1782984680216204000,4.2502041015625,0.018149176612496376,0.0007560714147984982,-0.042942941188812256
1782984680226278000,4.26027783203125,0.021466143429279327,0.008318116888403893,-0.02702069841325283
1782984680236353000,4.27035302734375,0.016570454463362694,0.019783291965723038,-0.018759839236736298
1782984680246427000,4.280427001953125,0.01203855313360691,0.02257242053747177,-0.01782160811126232
1782984680256501000,4.2905009765625,0.011654258705675602,0.02887638844549656,-0.02153139002621174
1782984680266574800,4.300574951171875,0.017299095168709755,0.033244241029024124,-0.025408953428268433
1782984680276649000,4.31064892578125,0.01792866736650467,0.030194120481610298,-0.027766384184360504
1782984680286723800,4.320723876953125,0.015470835380256176,0.042811647057533264,-0.02502865344285965
1782984680296799000,4.330799072265625,0.019572369754314423,0.06850768625736237,-0.001023452845402062
1782984680306872800,4.340872802734375,0.02563558891415596,0.06663814932107925,0.019820310175418854
1782984680316947000,4.350947021484375,0.029438316822052002,0.050270359963178635,0.03413693234324455
1782984680327020800,4.361020751953125,0.02774321474134922,0.032942768186330795,0.04410967230796814
1782984680337095000,4.371094970703125,0.02689339965581894,0.016765663400292397,0.038068823516368866
1782984680347169800,4.381169677734375,0.02148265577852726,0.009213471785187721,0.011003116145730019
1782984680357244000,4.391243896484375,0.01587856560945511,0.023726368322968483,-0.01594541035592556
1782984680367318000,4.401318115234375,0.014096111990511417,0.04727856442332268,-0.038543928414583206
1782984680377391900,4.411391845703125,0.010730142705142498,0.06423570960760117,-0.05307972803711891
1782984680387466000,4.421466064453125,0.010877680964767933,0.07253678143024445,-0.05223790556192398
1782984680397540900,4.431540771484375,0.008254733867943287,0.0738433301448822,-0.032095618546009064
1782984680407615000,4.441614990234375,0.00643899105489254,0.05885639041662216,-0.007164702285081148
1782984680417688800,4.451688720703125,0.011106979101896286,0.04435601457953453,0.007816378027200699
1782984680427763000,4.461762939453125,0.01654328964650631,0.03074326552450657,0.01925518736243248
1782984680437836800,4.4718369140625,0.02666410058736801,0.024990571662783623,0.03160985931754112
1782984680447911000,4.481910888671875,0.029628731310367584,0.021736720576882362,0.03310708701610565
1782984680457985800,4.49198583984375,0.026766367256641388,0.024696025997400284,0.02526354417204857
1782984680468060000,4.502059814453125,0.028170384466648102,0.023248864337801933,0.012557869777083397
1782984680478134000,4.512134033203125,0.026224147528409958,0.03476596996188164,-0.008317850530147552
1782984680488208000,4.522207763671875,0.024806546047329903,0.04801679402589798,-0.02113005332648754
1782984680498282000,4.532281982421875,0.022173479199409485,0.055746886879205704,-0.03014565259218216
1782984680508356900,4.54235693359375,0.015796540305018425,0.06469883769750595,-0.022714100778102875
1782984680518431000,4.552430908203125,0.011992480605840683,0.061405837535858154,-0.01384231261909008
1782984680528504800,4.5625048828125,0.006702910177409649,0.047143012285232544,-0.0013251889031380415
1782984680538579000,4.572578857421875,0.005233910400420427,0.03339897096157074,-0.0021313277538865805
1782984680548652800,4.58265283203125,0.005934321787208319,0.024579644203186035,-0.004459463059902191
1782984680558728000,4.59272802734375,0.0005826996639370918,0.026855316013097763,-0.008522648364305496
1782984680568801800,4.6028017578125,-0.0007225155713967979,0.03170333430171013,-0.01625566929578781
1782984680578876000,4.6128759765625,-0.0006263754912652075,0.041677672415971756,-0.013235111720860004
1782984680588950000,4.622949951171875,0.0031305458396673203,0.048897236585617065,-0.019690081477165222
1782984680599023900,4.63302392578125,0.007115433923900127,0.046902526170015335,-0.01775476150214672
1782984680609099000,4.64309912109375,0.011683819815516472,0.03093448095023632,-0.013942713849246502
1782984680619172900,4.6531728515625,0.008899219334125519,0.018521752208471298,-0.0060182115994393826
1782984680629247000,4.6632470703125,0.001675128354690969,0.01996784843504429,0.004987568128854036
1782984680639320800,4.67332080078125,0.0016743293963372707,0.007531153038144112,0.01050297450274229
1782984680649395000,4.68339501953125,-0.00010839065362233669,0.004173972178250551,0.010536263696849346
1782984680659469800,4.6934697265625,0.005066663958132267,0.008164186961948872,0.0003296993381809443
1782984680669544000,4.7035439453125,0.0099610211327672,0.002237321576103568,-0.008708003908395767
1782984680679617800,4.71361767578125,0.007754059974104166,0.0015334481140598655,-0.013741112314164639
1782984680689692000,4.72369189453125,0.0033486587926745415,0.0038725025951862335,-0.024386832490563393
1782984680699766000,4.73376611328125,-0.0010671286145225167,0.0187838077545166,-0.02303980477154255
1782984680709841000,4.7438408203125,-0.02207467518746853,0.06360427290201187,-0.012461729347705841
1782984680719915000,4.7539150390625,-0.034458909183740616,0.09146174043416977,-0.013110475614666939
1782984680729988900,4.76398876953125,-0.02449309267103672,0.0917283222079277,-0.00023968449386302382
1782984680740063000,4.77406298828125,-0.013374128378927708,0.05928622558712959,0.010884338989853859
1782984680750136800,4.78413671875,-0.0025592977181077003,0.0028788771014660597,0.009877131320536137
1782984680760212000,4.7942119140625,0.013894510455429554,-0.03835431486368179,-0.0018002968281507492
1782984680770285800,4.804285888671875,0.022239524871110916,-0.05582331866025925,-0.013793043792247772
1782984680780360000,4.81435986328125,0.023557523265480995,-0.046792805194854736,-0.02503318153321743
1782984680790433800,4.824433837890625,0.01583222672343254,-0.0158346239477396,-0.025436917319893837
1782984680800508000,4.8345078125,0.00039974047103896737,0.024696025997400284,-0.02202194556593895
1782984680810582000,4.84458203125,-0.014367220923304558,0.04785913601517677,-0.01426442340016365
1782984680820657000,4.854656982421875,-0.02436392940580845,0.05549974367022514,0.0019065570086240768
1782984680830731000,4.86473095703125,-0.02412690781056881,0.05167784169316292,0.02526301145553589
1782984680840804900,4.874804931640625,-0.02160462737083435,0.03445970639586449,0.04499943181872368
1782984680850879000,4.88487890625,-0.015208779834210873,0.015956062823534012,0.05847981944680214
1782984680860952800,4.894952880859375,-0.0075841499492526054,-0.005084773525595665,0.05901138857007027
1782984680871028000,4.905028076171875,-0.006500243674963713,-0.013973872177302837,0.05721801519393921
1782984680881101800,4.915101806640625,0.0041587925516068935,-0.00941933412104845,0.05940606817603111
1782984680891176000,4.925176025390625,0.0046762446872889996,0.010183394886553288,0.07174023240804672
1782984680901249800,4.935249755859375,0.004201669245958328,0.03249988704919815,0.10690514743328094
1782984680911324000,4.945323974609375,0.011938950978219509,0.03407541289925575,0.13613998889923096
1782984680921398800,4.955398681640625,0.017286045476794243,0.03897962346673012,0.17788077890872955
1782984680931473000,4.965472900390625,0.02395193837583065,0.03008892573416233,0.23910392820835114
1782984680941547000,4.975547119140625,0.03188017010688782,-0.011696336790919304,0.2941887378692627
1782984680951620900,4.985620849609375,0.020110594108700752,-0.04272615909576416,0.34677445888519287
1782984680961695000,4.995695068359375,0.013964018784463406,-0.07185021787881851,0.37868979573249817
1782984680971769900,5.005769775390625,0.011108577251434326,-0.0812048390507698,0.3835817575454712
1782984680981844000,5.015843994140625,0.02003948763012886,-0.07166299968957901,0.37503141164779663
1782984680991917800,5.025917724609375,0.027835359796881676,-0.054175086319446564,0.361223965883255
1782984681001992000,5.035991943359375,0.028719529509544373,-0.035474903881549835,0.35852620005607605
1782984681012065800,5.046065673828125,0.04021506384015083,-0.049788329750299454,0.3668493628501892
1782984681022141000,5.056140869140625,0.050700992345809937,-0.049190182238817215,0.4108583629131317
1782984681032214300,5.06621435546875,0.06433185189962387,-0.061411429196596146,0.4788803160190582
1782984681042288400,5.076288330078125,0.0799449011683464,-0.1056598499417305,0.5702019333839417
1782984681052362200,5.0863623046875,0.0851159617304802,-0.2158087193965912,0.659898579120636
1782984681062436400,5.096436279296875,0.062001585960388184,-0.37980324029922485,0.6838238835334778
1782984681072511200,5.10651123046875,0.04547081142663956,-0.39834365248680115,0.7062351703643799
1782984681082585300,5.11658544921875,0.055390287190675735,-0.3789198696613312,0.7015032768249512
1782984681092659200,5.1266591796875,0.06975085288286209,-0.30275774002075195,0.6722561717033386
1782984681102733300,5.1367333984375,0.08099605143070221,-0.21072953939437866,0.6352925300598145
1782984681112807200,5.14680712890625,0.08211883902549744,-0.1467742621898651,0.5887719392776489
1782984681122882300,5.15688232421875,0.06024922430515289,-0.09331396967172623,0.5467514991760254
1782984681132956200,5.1669560546875,0.02618499845266342,-0.06241410970687866,0.510469377040863
1782984681143030300,5.1770302734375,-0.004476773552596569,-0.01744210720062256,0.48776355385780334
1782984681153104400,5.1871044921875,-0.014482269994914532,0.036966804414987564,0.4800150692462921
1782984681163178200,5.19717822265625,-0.01950232870876789,0.07334798574447632,0.47936978936195374
1782984681173253400,5.20725341796875,-0.031253259629011154,0.13210450112819672,0.5105056166648865
1782984681183327200,5.2173271484375,-0.037874143570661545,0.14585520327091217,0.5461592078208923
1782984681193401300,5.2274013671875,-0.036314066499471664,0.12084412574768066,0.5683369636535645
1782984681203475200,5.23747509765625,-0.027652665972709656,0.12008272856473923,0.5893117189407349
1782984681213549300,5.24754931640625,-0.007267766632139683,0.11743022501468658,0.590122401714325
1782984681223624200,5.257624267578125,0.024096814915537834,0.07802768796682358,0.5697638988494873
1782984681233698300,5.2676982421875,0.0470745675265789,0.014389059506356716,0.5318614840507507
1782984681243772200,5.277772216796875,0.05476444587111473,-0.030186664313077927,0.48744264245033264
1782984681253846300,5.28784619140625,0.05306375026702881,-0.06912074983119965,0.44361045956611633
1782984681263920400,5.29792041015625,0.05441636964678764,-0.12596271932125092,0.3964967429637909
1782984681273994200,5.307994140625,0.04268301650881767,-0.14583097398281097,0.34337306022644043
1782984681284069400,5.3180693359375,0.02707582525908947,-0.12619149684906006,0.2858504056930542
1782984681294143200,5.328143310546875,0.0208877045661211,-0.07792702317237854,0.25539660453796387
1782984681304217300,5.33821728515625,0.006976683158427477,-0.03879373520612717,0.24558313190937042
1782984681314291200,5.348291259765625,-0.01889432966709137,0.0004820321628358215,0.26137593388557434
1782984681324365300,5.358365234375,-0.04542127624154091,0.033059149980545044,0.2882064878940582
1782984681334440200,5.368440185546875,-0.05936958268284798,0.04932041093707085,0.2997342646121979
1782984681344514300,5.378514404296875,-0.04999019578099251,0.05463128536939621,0.3135693669319153
1782984681354588200,5.388588134765625,-0.040642235428094864,0.029814621433615685,0.3203026354312897
1782984681364662300,5.398662353515625,-0.030917702242732048,0.004730839282274246,0.32035937905311584
1782984681374736400,5.408736328125,-0.01943601667881012,-0.007447796408087015,0.3160652816295624
1782984681384811300,5.418811279296875,-0.0036637107841670513,-0.0366983599960804,0.30369651317596436
1782984681394885400,5.428885498046875,0.005591306835412979,-0.04419196397066116,0.2918986976146698
1782984681404959200,5.438959228515625,0.004083957523107529,-0.03741714730858803,0.28844910860061646
1782984681415033300,5.449033447265625,-0.0019510318525135517,-0.0320090651512146,0.28500083088874817
1782984681425107200,5.459107177734375,-0.008379636332392693,-0.005003280472010374,0.29660317301750183
1782984681435182300,5.469182373046875,-0.014604775235056877,-0.028313662856817245,0.31255656480789185
1782984681445256200,5.479256103515625,-0.026862772181630135,-0.042152248322963715,0.3488285541534424
1782984681455330300,5.489330322265625,-0.03712499886751175,-0.051962800323963165,0.3860004246234894
1782984681465404200,5.499404052734375,-0.04535842686891556,-0.07057270407676697,0.39971092343330383
1782984681475478300,5.509478271484375,-0.043535225093364716,-0.06461600959300995,0.39452654123306274
1782984681485553200,5.51955322265625,-0.03946005925536156,-0.07247073948383331,0.3722204267978668
1782984681495627300,5.529627197265625,-0.036432042717933655,-0.050451721996068954,0.3701418340206146
1782984681505701400,5.539701416015625,-0.032519061118364334,-0.06511508673429489,0.37053385376930237
1782984681515775200,5.549775146484375,-0.0365939624607563,-0.07456664741039276,0.3779294490814209
1782984681525849300,5.559849365234375,-0.03606186434626579,-0.07930121570825577,0.40538904070854187
1782984681535924200,5.56992431640625,-0.03211319446563721,-0.08484431356191635,0.4275699853897095
1782984681545998300,5.579998291015625,-0.02979065291583538,-0.10732965171337128,0.43884074687957764
1782984681556072200,5.590072265625,-0.028201811015605927,-0.09919849038124084,0.4309615194797516
1782984681566146300,5.600146240234375,-0.012367453426122665,-0.08540917187929153,0.3926679193973541
1782984681576220200,5.61022021484375,0.009770605713129044,-0.061167217791080475,0.3425480127334595
1782984681586295300,5.62029541015625,0.02425793558359146,-0.05128848925232887,0.2999097406864166
1782984681596369200,5.630369140625,0.03364291414618492,-0.08158913254737854,0.27762895822525024
1782984681606443300,5.640443359375,0.03489859402179718,-0.10930385440587997,0.2711585462093353
1782984681616517400,5.650517333984375,0.0369524247944355,-0.11544989794492722,0.24172420799732208
1782984681626591200,5.66059130859375,0.039138082414865494,-0.08791174739599228,0.19899991154670715
1782984681636666400,5.670666259765625,0.038903191685676575,-0.059491824358701706,0.14551778137683868
1782984681646740200,5.680740234375,0.030161896720528603,-0.058327220380306244,0.10088959336280823
1782984681656814300,5.690814453125,0.012997291050851345,-0.05638417974114418,0.08154279738664627
1782984681666888200,5.70088818359375,0.0034061830956488848,-0.05252739042043686,0.06307963281869888
1782984681676962300,5.71096240234375,-0.005832322873175144,-0.045516885817050934,0.04328009486198425
1782984681687037200,5.721037109375,-0.004485561978071928,-0.029560022056102753,0.02449335902929306
1782984681697111300,5.731111328125,-0.0011323761427775025,-0.00884941779077053,0.0031041805632412434
1782984681707185200,5.74118505859375,0.0013701963471248746,-0.002005360322073102,-0.006284793838858604
1782984681717259300,5.75125927734375,0.004850681405514479,-0.016873521730303764,-0.00509942090138793
1782984681727333400,5.76133349609375,0.005690908990800381,-0.024921327829360962,0.006040049251168966
1782984681737407200,5.7714072265625,0.01179087907075882,-0.029169602319598198,0.012052934616804123
1782984681747482400,5.781482421875,0.019048258662223816,-0.030533675104379654,-0.00035979304811917245
1782984681757556200,5.79155615234375,0.019543606787919998,-0.021107416599988937,-0.006450176239013672
1782984681767630300,5.80163037109375,0.014436463825404644,-0.03259842470288277,-0.004591023549437523
1782984681777704200,5.8117041015625,0.009290969930589199,-0.03965020552277565,0.009467803873121738
1782984681787778300,5.8217783203125,0.00803289283066988,-0.03623736649751663,0.018749186769127846
1782984681797853200,5.831853271484375,0.0009081379394046962,-0.036975596100091934,0.02033163607120514
1782984681807927300,5.84192724609375,-0.004529770463705063,-0.05320170149207115,0.012106464244425297
1782984681818001200,5.852001220703125,-0.0091759217903018,-0.0487331859767437,0.011776232160627842
1782984681828075300,5.8620751953125,-0.012659869156777859,-0.048700958490371704,0.0013539510546252131
1782984681838149400,5.8721494140625,-0.009493636898696423,-0.045954976230859756,-0.01583409123122692
1782984681848224300,5.882224365234375,-0.005916744936257601,-0.03995673730969429,-0.029768282547593117
1782984681858298400,5.89229833984375,-0.004450408276170492,-0.046850062906742096,-0.033666349947452545
1782984681868372200,5.902372314453125,-0.002311091171577573,-0.03358086198568344,-0.026501381769776344
1782984681878446300,5.9124462890625,-0.0022650184109807014,-0.02474263124167919,-0.020060792565345764
1782984681888520200,5.922520263671875,-0.0023060310631990433,-0.04078471288084984,-0.009355951100587845
1782984681898595300,5.93259521484375,-0.002826412906870246,-0.060745105147361755,-0.0079708406701684
1782984681908669200,5.942669189453125,-0.0035723643377423286,-0.06148519739508629,-0.0024144218768924475
1782984681918743300,5.952743408203125,-0.01387000922113657,-0.05036410316824913,-0.003579554846510291
1782984681928817200,5.962817138671875,-0.01774464175105095,-0.017847705632448196,0.006292783189564943
1782984681938891300,5.972891357421875,-0.02207627333700657,0.012919261120259762,0.01900671422481537
1782984681948966100,5.982966064453125,-0.02034734934568405,0.042444661259651184,0.02304406650364399
1782984681959040300,5.993040283203125,-0.00016325176693499088,0.03641153872013092,0.012741095386445522
1782984681969114400,6.0031142578125,0.02273567207157612,0.015241270884871483,0.005860285833477974
1782984681979188200,6.013188232421875,0.03280588239431381,-0.024461401626467705,0.010244381614029408
1782984681989262300,6.023262451171875,0.04045794531702995,-0.06881501525640488,0.015452992171049118
1782984681999337200,6.033337158203125,0.038124747574329376,-0.07686042785644531,0.007865912280976772
1782984682009411300,6.043411376953125,0.03322027251124382,-0.046130210161209106,0.004251736681908369
1782984682019485200,6.053485107421875,0.02369867078959942,-0.008085889741778374,-0.014098774641752243
1782984682029559300,6.063559326171875,0.01702372543513775,0.024217721074819565,-0.04478078708052635
1782984682039634000,6.073634033203125,0.014300642535090446,0.05078275501728058,-0.06613481044769287
1782984682049709000,6.083708984375,0.010999920777976513,0.052977465093135834,-0.05950114503502846
1782984682059783000,6.093782958984375,0.0041031320579349995,0.05381236597895622,-0.05439027026295662
1782984682069857000,6.10385693359375,0.008978847414255142,0.060079582035541534,-0.05241207405924797
1782984682079931100,6.11393115234375,0.013762683607637882,0.0538075715303421,-0.04891135171055794
1782984682090005000,6.1240048828125,0.015249527059495449,0.044921401888132095,-0.03711967170238495
1782984682100080000,6.134080078125,0.023803332820534706,0.025008147582411766,-0.026331206783652306
1782984682110154000,6.144154052734375,0.03298058733344078,0.019875703379511833,-0.014749917201697826
1782984682120228000,6.15422802734375,0.03051423281431198,0.006792392116039991,-0.008436361327767372
1782984682130302000,6.164302001953125,0.030236199498176575,0.010965831577777863,-0.00037497308221645653
1782984682140376000,6.1743759765625,0.026077140122652054,0.02593545988202095,0.0032234902027994394
1782984682150451000,6.184450927734375,0.022302109748125076,0.0411761999130249,-0.013065202161669731
1782984682160525000,6.194525146484375,0.023739950731396675,0.04308968037366867,-0.031647939234972
1782984682170599000,6.204598876953125,0.024525050073862076,0.03502615913748741,-0.045458029955625534
1782984682180673000,6.214673095703125,0.019757991656661034,0.03548049554228783,-0.04234905540943146
1782984682190747100,6.2247470703125,0.01775582693517208,0.04805833846330643,-0.033736392855644226
1782984682200821000,6.234821044921875,0.010450510308146477,0.0413394495844841,-0.02189917303621769
1782984682210896100,6.244896240234375,0.007656854577362537,0.033432260155677795,-0.02232794277369976
1782984682220970000,6.254969970703125,0.012796222232282162,0.040283240377902985,-0.02550988644361496
1782984682231044000,6.265044189453125,0.00993225909769535,0.04020201414823532,-0.02665557898581028
1782984682241118000,6.275117919921875,0.014701448380947113,0.034442927688360214,-0.030158966779708862
1782984682251192000,6.285192138671875,0.01788073033094406,0.032035164535045624,-0.03381602093577385
1782984682261267000,6.295266845703125,0.02010020799934864,0.023992950096726418,-0.023634489625692368
1782984682271341000,6.305341064453125,0.02400946244597435,0.014592258259654045,-0.011871307156980038
1782984682281415000,6.315414794921875,0.02383742295205593,0.01799657754600048,-0.0035079156514257193
1782984682291489000,6.325489013671875,0.024349814280867577,0.01973908394575119,-0.0025337315164506435
1782984682301563100,6.335563232421875,0.027088608592748642,0.02400386892259121,-0.008647549897432327
1782984682311638000,6.345637939453125,0.033543843775987625,0.024981781840324402,-0.02461533062160015
1782984682321712000,6.355712158203125,0.03864992409944534,0.02173112891614437,-0.04043504223227501
1782984682331786000,6.365785888671875,0.039627037942409515,0.013217534869909286,-0.04881494492292404
1782984682341860000,6.375860107421875,0.04018017649650574,0.009236641228199005,-0.050519101321697235
1782984682351934000,6.385933837890625,0.036318592727184296,-0.0030916635878384113,-0.03707066923379898
1782984682362009000,6.396009033203125,0.028855616226792336,-0.0021968416403979063,-0.016621587797999382
1782984682372083000,6.4060830078125,0.02430374175310135,-0.006156163290143013,-0.011048655956983566
1782984682382157000,6.416156982421875,0.02010287158191204,0.0012130698887631297,-0.021628862246870995
1782984682392231000,6.42623095703125,0.013933125883340836,0.015667643398046494,-0.038843002170324326
1782984682402305000,6.436304931640625,0.011468636803328991,0.021947110071778297,-0.04765886440873146
1782984682412380000,6.4463798828125,0.008582835085690022,0.037887461483478546,-0.04338369145989418
1782984682422454000,6.4564541015625,0.009473130106925964,0.03561924770474434,-0.03369617834687233
1782984682432528100,6.466528076171875,0.009758355095982552,0.02347310073673725,-0.01955266296863556
1782984682442602000,6.47660205078125,0.013967214152216911,0.02215244062244892,-0.013042831793427467
1782984682452676000,6.486676025390625,0.016768859699368477,0.017062606289982796,-0.012574381195008755
1782984682462751000,6.4967509765625,0.018025605008006096,0.0263674259185791,-0.01512995082885027
1782984682472825000,6.5068251953125,0.0145272770896554,0.05007169023156166,-0.013148292899131775
1782984682482899000,6.51689892578125,0.009241967462003231,0.05439480021595955,-0.012342154048383236
1782984682492973000,6.52697314453125,0.005919940769672394,0.06159785017371178,-0.015534218400716782
1782984682503047000,6.537046875,0.002377403900027275,0.055382031947374344,-0.017064470797777176
1782984682513122000,6.5471220703125,0.002749447477981448,0.04199831560254097,-0.025121064856648445
1782984682523196000,6.55719580078125,0.003963849041610956,0.036060530692338943,-0.03142130747437477
1782984682533270000,6.56727001953125,-0.00009214537567459047,0.04723488911986351,-0.028968002647161484
1782984682543344000,6.57734423828125,-0.005907423794269562,0.059715792536735535,-0.016994696110486984
1782984682553418000,6.58741796875,-0.00717588746920228,0.0982954129576683,-0.010386328212916851
1782984682563493000,6.5974931640625,-0.0006506102508865297,0.10732246190309525,-0.0037768951151520014
1782984682573567000,6.60756689453125,0.010259561240673065,0.0968458503484726,0.003862382611259818
1782984682583641000,6.61764111328125,0.028176244348287582,0.0658317431807518,0.014669756405055523
1782984682593715000,6.62771484375,0.04313761740922928,0.015586948953568935,0.01781441643834114
1782984682603789000,6.6377890625,0.048835717141628265,-0.011232414282858372,0.023544739931821823
1782984682613864000,6.647864013671875,0.04856247454881668,-0.018064221367239952,0.018636800348758698
1782984682623938000,6.65793798828125,0.040411338210105896,-0.007464041467756033,0.009141034446656704
1782984682634012000,6.668011962890625,0.028144020587205887,0.030532076954841614,0.001142496126703918
1782984682644086000,6.6780859375,0.019512714818120003,0.05399079620838165,-0.016695622354745865
1782984682654160100,6.68816015625,0.016749685630202293,0.06353449821472168,-0.030760042369365692
1782984682664235000,6.698235107421875,0.013863617554306984,0.06428337842226028,-0.03488927334547043
1782984682674309000,6.70830908203125,0.014489727094769478,0.04680159315466881,-0.030641531571745872
1782984682684383000,6.718383056640625,0.014563229866325855,0.03820943832397461,-0.018750252202153206
1782984682694457000,6.72845703125,0.013234579004347324,0.03943449258804321,-0.003314570290967822
1782984682704531000,6.738531005859375,0.010369284078478813,0.03347859904170036,0.0020783308427780867
1782984682714606000,6.748606201171875,0.011306184343993664,0.03742833063006401,-0.0005387574783526361
1782984682724680000,6.758679931640625,0.010800981894135475,0.04520369693636894,-0.003031476167961955
1782984682734754000,6.768754150390625,0.008320514112710953,0.0616854690015316,-0.014138988219201565
1782984682744828000,6.778827880859375,0.010734936222434044,0.07199110090732574,-0.02744121104478836
1782984682754902000,6.788902099609375,0.010998855344951153,0.08313509821891785,-0.035894617438316345
1782984682764976000,6.79897607421875,0.02047092095017433,0.08183174580335617,-0.03720249608159065
1782984682775051000,6.809051025390625,0.03333878144621849,0.06856654584407806,-0.03303917497396469
1782984682785125000,6.819125,0.040580447763204575,0.059124574065208435,-0.033065274357795715
1782984682795199000,6.829198974609375,0.04857499152421951,0.03224156051874161,-0.03081517107784748
1782984682805273000,6.839273193359375,0.053039249032735825,-0.006791327148675919,-0.011233213357627392
1782984682815347000,6.849346923828125,0.0431503988802433,-0.03790557011961937,0.013614345341920853
1782984682825422000,6.859422119140625,0.03517875820398331,-0.052567869424819946,0.029762689024209976
1782984682835496000,6.869495849609375,0.02973366156220436,-0.03988350182771683,0.02377483807504177
1782984682845570000,6.879570068359375,0.02261529676616192,-0.0026317357551306486,0.007284810766577721
1782984682855644000,6.889643798828125,0.013308081775903702,0.028617529198527336,-0.007485879585146904
1782984682865718000,6.899718017578125,0.00899748969823122,0.03315901756286621,-0.024946894496679306
1782984682875793000,6.90979296875,0.007815046235918999,0.03321121633052826,-0.04068164899945259
1782984682885867000,6.919866943359375,0.00890614278614521,0.028361067175865173,-0.04249313101172447
1782984682895941000,6.929941162109375,0.006389189511537552,0.02226855419576168,-0.045761894434690475
1782984682906015000,6.940014892578125,0.008649148046970367,0.02130315825343132,-0.0371958389878273
1782984682916089000,6.950089111328125,0.011679026298224926,0.015230884775519371,-0.030251380056142807
1782984682926164000,6.9601640625,0.012469719164073467,0.010313889943063259,-0.023973509669303894
1782984682936238000,6.970238037109375,0.012615393847227097,0.006648048758506775,-0.0262430552393198
1782984682946312000,6.98031201171875,0.014249242842197418,0.00802996288985014,-0.024633973836898804
1782984682956386000,6.990385986328125,0.010940265841782093,0.004422178957611322,-0.026104304939508438
1782984682966460000,7.0004599609375,0.003641340183094144,0.015390674583613873,-0.02293567545711994
1782984682976535000,7.01053515625,-0.003029079409316182,0.033191509544849396,-0.025109346956014633
1782984682986609000,7.02060888671875,-0.007930893450975418,0.04525642842054367,-0.035478100180625916
1782984682996683000,7.03068310546875,-0.005077316425740719,0.05787448585033417,-0.04629506170749664
1782984683006757000,7.040757080078125,-0.00041438787593506277,0.050389669835567474,-0.04393576458096504
1782984683016831000,7.0508310546875,0.0030341395176947117,0.02984524704515934,-0.031620509922504425
1782984683026906000,7.060906005859375,0.010290720500051975,0.013266270980238914,-0.01625300571322441
1782984683036979200,7.070979248046875,0.011988752521574497,0.013687049970030785,-0.00851412583142519
1782984683047053000,7.081052978515625,0.012709403410553932,0.002983273006975651,-0.0010008158860728145
1782984683057127200,7.091127197265625,0.01353578269481659,0.009633452631533146,-0.008263256400823593
1782984683067201000,7.101200927734375,0.021892249584197998,0.014911305159330368,-0.017721738666296005
1782984683077276200,7.111276123046875,0.021936191245913506,0.012802081182599068,-0.027279557660222054
1782984683087350000,7.12135009765625,0.02135535515844822,0.006596117280423641,-0.019208049401640892
1782984683097424400,7.13142431640625,0.020800886675715446,-0.008262457326054573,-0.012971725314855576
1782984683107498200,7.141498291015625,0.018641062080860138,-0.004319380968809128,-0.0034232272300869226
1782984683117572000,7.151572021484375,0.015075355768203735,-0.0014349111588671803,-0.0024498419370502234
1782984683127647200,7.161647216796875,0.017463145777583122,-0.0013275857781991363,-0.018430139869451523
1782984683137721000,7.17172119140625,0.016745690256357193,0.00788748450577259,-0.034930817782878876
1782984683147795200,7.181795166015625,0.013508884236216545,0.011179417371749878,-0.05259370431303978
1782984683157869000,7.191869140625,0.01053360104560852,0.009156746789813042,-0.05420251935720444
1782984683167943200,7.201943115234375,0.012381035834550858,-0.002383529208600521,-0.04724527522921562
1782984683178017000,7.21201708984375,0.010513893328607082,-0.03227484971284866,-0.03166445344686508
1782984683188092200,7.222092041015625,0.005916212219744921,-0.06434410065412521,-0.018999524414539337
1782984683198166000,7.232166015625,0.0017797905020415783,-0.07707428187131882,-0.0032487902790308
1782984683208240400,7.242240478515625,-0.006626477465033531,-0.06448045372962952,0.0038301581516861916
1782984683218314200,7.252314208984375,-0.014318485744297504,-0.031025027856230736,-0.003910585772246122
1782984683228389400,7.262389404296875,-0.01787753403186798,0.022826485335826874,-0.0253349170088768
1782984683238463200,7.272463134765625,-0.007785751484334469,0.03635268285870552,-0.05236999690532684
1782984683248537000,7.282537109375,-0.0003025351034011692,0.01697578839957714,-0.06024150177836418
1782984683258611200,7.292611083984375,0.006609965581446886,-0.01575499400496483,-0.05932830274105072
1782984683268685000,7.30268505859375,0.013790380209684372,-0.04277702420949936,-0.046187203377485275
1782984683278759200,7.31275927734375,0.01281885989010334,-0.04862399399280548,-0.03338512033224106
1782984683288834000,7.322833984375,0.00839801225811243,-0.040292561054229736,-0.026518426835536957
1782984683298908200,7.332908203125,0.0026639599818736315,-0.030305707827210426,-0.02918425016105175
1782984683308982000,7.34298193359375,-0.004239486064761877,-0.012124307453632355,-0.028803419321775436
1782984683319056400,7.353056396484375,-0.003144660498946905,0.009692574851214886,-0.03544214740395546
1782984683329130200,7.363130126953125,-0.0031965922098606825,0.025486450642347336,-0.033844783902168274
1782984683339205400,7.373205322265625,-0.0057681407779455185,0.04056766629219055,-0.03874899446964264
1782984683349279200,7.383279296875,-0.0011883024126291275,0.043287284672260284,-0.0386832132935524
1782984683359353000,7.39335302734375,0.0004271710349712521,0.039982035756111145,-0.03202078491449356
1782984683369427200,7.40342724609375,0.0007337008719332516,0.030010629445314407,-0.022274412214756012
1782984683379501000,7.4135009765625,-0.0014120079576969147,0.01248170342296362,-0.015684952959418297
1782984683389576200,7.423576171875,-0.00063356600003317,0.016028234735131264,-0.005319131538271904
1782984683399650000,7.433650146484375,-0.0016218650853261352,0.014314490370452404,-0.00797590147703886
1782984683409724200,7.44372412109375,-0.0038432078436017036,0.018668493255972862,-0.01073733251541853
1782984683419798000,7.453798095703125,0.002460228279232979,0.03626666218042374,-0.013349627144634724
1782984683429872400,7.463872314453125,0.005346029531210661,0.043661992996931076,-0.014904913492500782
1782984683439947000,7.473947021484375,0.01369503978639841,0.03849146515130997,-0.01577070727944374
1782984683450021400,7.484021484375,0.017774203792214394,0.02538711577653885,-0.01272884476929903
1782984683460095200,7.49409521484375,0.032100677490234375,0.004716191906481981,-0.007982292212545872
1782984683470169000,7.504169189453125,0.033002424985170364,0.00105354655534029,-0.008739962242543697
1782984683480243200,7.5142431640625,0.03244901821017265,-0.009649164974689484,-0.017765946686267853
1782984683490318000,7.524318115234375,0.03310362622141838,-0.009325857274234295,-0.02900075912475586
1782984683500392200,7.53439208984375,0.027528829872608185,0.004715925548225641,-0.04409262537956238
1782984683510466000,7.544466064453125,0.013530722819268703,0.0027827369049191475,-0.04448171332478523
1782984683520540200,7.5545400390625,-0.0025036376900970936,-0.003596332622691989,-0.03985953330993652
1782984683530614000,7.564614013671875,-0.016098542138934135,0.0024943165481090546,-0.030064690858125687
1782984683540689200,7.574689208984375,-0.02623559907078743,0.007334079127758741,-0.023661121726036072
1782984683550763000,7.584762939453125,-0.03467941656708717,0.027028154581785202,-0.03175180405378342
1782984683560837400,7.59483740234375,-0.0323648639023304,0.04271310940384865,-0.03959134966135025
1782984683570911200,7.6049111328125,-0.0287094097584486,0.056422796100378036,-0.04652675613760948
1782984683580985000,7.614985107421875,-0.021621139720082283,0.04332643374800682,-0.041126664727926254
1782984683591060200,7.625060302734375,-0.019604327157139778,0.016568057239055634,-0.030819430947303772
1782984683601134000,7.635134033203125,-0.015727831050753593,0.003422162029892206,-0.025045698508620262
1782984683611208200,7.645208251953125,-0.011040400713682175,-0.007231014780700207,-0.014646054245531559
1782984683621282000,7.655281982421875,-0.01275787316262722,-0.012774650938808918,-0.011960255913436413
1782984683631356200,7.665356201171875,-0.013433250598609447,-0.011890481226146221,-0.002520415699109435
1782984683641430000,7.675429931640625,-0.019291406497359276,-0.007297594100236893,0.0126420259475708
1782984683651505200,7.685505126953125,-0.02532985806465149,-0.008451808243989944,0.016834640875458717
1782984683661579000,7.6955791015625,-0.030313696712255478,-0.003403786104172468,0.011955728754401207
1782984683671653400,7.7056533203125,-0.033965423703193665,-0.007543936371803284,0.00284984870813787
1782984683681727200,7.715727294921875,-0.03458807244896889,-0.017470603808760643,-0.011043063364923
1782984683691801000,7.725801025390625,-0.037156157195568085,-0.026737337931990623,-0.027769045904278755
1782984683701876200,7.735876220703125,-0.04171282425522804,-0.025652365759015083,-0.029224198311567307
1782984683711950000,7.7459501953125,-0.044688642024993896,-0.0258110910654068,-0.02816559188067913
1782984683722024200,7.756024169921875,-0.04713156074285507,-0.017900170758366585,-0.03389671444892883
1782984683732098000,7.76609814453125,-0.04950976371765137,-0.009911220520734787,-0.04179831221699715
1782984683742172200,7.776172119140625,-0.04888045787811279,-0.012001534923911095,-0.039445944130420685
1782984683752247000,7.7862470703125,-0.05013507232069969,-0.02762576937675476,-0.031624771654605865
1782984683762321200,7.796321044921875,-0.04884263873100281,-0.0316292978823185,-0.021890385076403618
1782984683772395000,7.80639501953125,-0.04356319084763527,-0.03133635222911835,-0.02870647981762886
1782984683782469400,7.816469482421875,-0.03928029537200928,-0.02701031230390072,-0.031920116394758224
1782984683792543200,7.826543212890625,-0.03816016763448715,-0.02190743014216423,-0.033307354897260666
1782984683802618400,7.836618408203125,-0.033604830503463745,-0.025544242933392525,-0.03131291642785072
1782984683812692200,7.846692138671875,-0.030304908752441406,-0.030042853206396103,-0.03207564353942871
1782984683822766000,7.85676611328125,-0.02520335651934147,-0.04337890073657036,-0.028914738446474075
1782984683832840200,7.866840087890625,-0.025718946009874344,-0.05558469891548157,-0.03139893710613251
1782984683842914000,7.8769140625,-0.030165625736117363,-0.056114934384822845,-0.02828037366271019
1782984683852989200,7.8869892578125,-0.039085615426301956,-0.03985127434134483,-0.02238653227686882
1782984683863063000,7.89706298828125,-0.04899949952960014,-0.004248807206749916,-0.017582988366484642
1782984683873137200,7.90713720703125,-0.04584525153040886,0.02418869361281395,-0.014113688841462135
1782984683883211000,7.9172109375,-0.041431061923503876,0.029737122356891632,-0.02333807945251465
1782984683893285400,7.927285400390625,-0.023191604763269424,0.01212537195533514,-0.027759725227952003
1782984683903360300,7.9373603515625,-0.009487511590123177,-0.029017535969614983,-0.02924923226237297
1782984683913434400,7.947434326171875,0.004778776317834854,-0.07811184227466583,-0.021250959485769272
1782984683923508200,7.95750830078125,0.01170379389077425,-0.10754377394914627,-0.011167965829372406
1782984683933582000,7.96758203125,0.008076302707195282,-0.10252904146909714,-0.008540757931768894
1782984683943656200,7.97765625,-0.003540406236425042,-0.0742231011390686,-0.02070740796625614
1782984683953730000,7.98772998046875,-0.012429239228367805,-0.04487985745072365,-0.043175701051950455
1782984683963804200,7.99780419921875,-0.02520575374364853,-0.01130991242825985,-0.053887732326984406
1782984683973878300,8.007878173828125,-0.028303543105721474,0.012384763918817043,-0.06276431679725647
1782984683983952100,8.0179521484375,-0.024928785860538483,0.022274678573012352,-0.06356752663850784
1782984683994027300,8.02802734375,-0.020986242219805717,0.00794367678463459,-0.05594715476036072
1782984684004101000,8.03810107421875,-0.012712866067886353,-0.008285360410809517,-0.037035781890153885
1782984684014175200,8.04817529296875,-0.004603273700922728,-0.029472671449184418,-0.02273806929588318
1782984684024249000,8.0582490234375,0.005595034919679165,-0.03272305801510811,-0.017283115535974503
1782984684034323200,8.0683232421875,0.010484864935278893,-0.028422053903341293,-0.014426076784729958
1782984684044397000,8.07839697265625,0.015510516241192818,-0.030192524194717407,-0.006580670829862356
1782984684054472000,8.088471923828125,0.011957593262195587,-0.02189730852842331,0.003344131400808692
1782984684064546000,8.098546142578124,0.01104359608143568,-0.015478558838367462,0.009369533509016037
1782984684074620000,8.108619873046875,0.010703776963055134,-0.009310944005846977,0.005849100649356842
1782984684084694300,8.1186943359375,0.012412461452186108,-0.007275223266333342,-0.008171110413968563
1782984684094768000,8.12876806640625,0.01685008592903614,-0.0027827369049191475,-0.01435417216271162
1782984684104843300,8.13884326171875,0.014693458564579487,-0.010479005984961987,-0.01786395162343979
1782984684114917000,8.148917236328124,0.014278005808591843,-0.02401452139019966,-0.01715848036110401
1782984684124991000,8.158990966796875,0.009351423941552639,-0.02708461508154869,-0.013259080238640308
1782984684135065000,8.169065185546875,0.005530852824449539,-0.021270668134093285,-0.010881942696869373
1782984684145139000,8.179138916015624,0.007929029874503613,-0.021708756685256958,-0.011210310272872448
1782984684155214000,8.189214111328125,0.008160724304616451,-0.010989533737301826,-0.013137905858457088
1782984684165288000,8.199287841796876,0.007478955201804638,0.009953830391168594,-0.02033989317715168
1782984684175362000,8.209362060546875,0.01092508528381586,0.013038303703069687,-0.02701191045343876
1782984684185436000,8.219435791015625,0.008037686347961426,0.012257465161383152,-0.021459752693772316
1782984684195510300,8.22951025390625,0.010487794876098633,0.00866139866411686,-0.016944361850619316
1782984684205585000,8.2395849609375,0.015250857919454575,-0.009140501730144024,-0.01170139666646719
1782984684215659300,8.2496591796875,0.022170815616846085,-0.011641209945082664,-0.006216084118932486
1782984684225733000,8.259733154296875,0.019216304644942284,-0.02345925383269787,0.0008527441532351077
1782984684235807000,8.269806884765625,0.023144733160734177,-0.023455791175365448,0.014515825547277927
1782984684245881000,8.279881103515624,0.028548553586006165,-0.015929697081446648,0.014129134826362133
1782984684255956000,8.2899560546875,0.02640897035598755,0.003099120454862714,0.003400324145331979
1782984684266030000,8.300030029296876,0.027722440659999847,0.011538411490619183,-0.004294613376259804
1782984684276104000,8.31010400390625,0.017551563680171967,-0.0003424825263209641,-0.006568686570972204
1782984684286178000,8.320177978515625,0.012819391675293446,-0.013421532697975636,-0.0009195895399898291
1782984684296252000,8.330251953125,0.010604441165924072,-0.01392566878348589,0.003058906877413392
1782984684306327000,8.3403271484375,0.007696535438299179,-0.009819607250392437,-0.00022743394947610795
1782984684316401000,8.35040087890625,0.006367085501551628,-0.0008298410102725029,-0.014220480807125568
1782984684326475300,8.360475341796874,0.0009379653492942452,0.009711217135190964,-0.029338713735342026
1782984684336550000,8.3705498046875,-0.00030306773260235786,0.023364178836345673,-0.02805081009864807
1782984684346624300,8.380624267578124,-0.003768639173358679,0.021148428320884705,-0.012706208042800426
1782984684356698000,8.390697998046875,-0.009781524538993835,0.01631585694849491,0.004436826333403587
1782984684366772000,8.40077197265625,-0.007533550262451172,0.01503833755850792,0.016505207866430283
1782984684376846000,8.41084619140625,-0.001710814656689763,0.013065468519926071,0.023357253521680832
1782984684386921000,8.4209208984375,-0.002415753435343504,0.006441121455281973,0.027812723070383072
1782984684396995000,8.4309951171875,0.0017028251895681024,0.004424042999744415,0.025016935542225838
1782984684407069000,8.44106884765625,0.004099670331925154,-0.00026072346372529864,0.020863469690084457
1782984684417143000,8.45114306640625,0.001948368619196117,-2.6631610694494157e-7,0.01709802635014057
1782984684427217000,8.461216796875,0.003614708548411727,-0.007399859372526407,0.018040519207715988
1782984684437292000,8.4712919921875,0.00039015308720991015,-0.002064482541754842,0.013487845659255981
1782984684447366000,8.481365966796876,0.0010128001449629664,-0.004375840071588755,0.00015472965606022626
1782984684457440300,8.491440185546875,-0.0035989959724247456,-0.008069111965596676,-0.017113739624619484
1782984684467514000,8.50151416015625,-0.01022494025528431,-0.01119033619761467,-0.02539830096065998
1782984684477588000,8.511587890625,-0.017186710610985756,-0.00293347192928195,-0.027246801182627678
1782984684487663000,8.5216630859375,-0.0250835157930851,0.021555358543992043,-0.011932292953133583
1782984684497737000,8.531737060546876,-0.02893870696425438,0.04399915039539337,0.004033091012388468
1782984684507811000,8.54181103515625,-0.02136494405567646,0.06364502012729645,0.010380202904343605
1782984684517885000,8.551885009765625,-0.014120079576969147,0.05738899111747742,0.01179167814552784
1782984684527959000,8.561958984375,0.001056476030498743,0.020725252106785774,0.026284867897629738
1782984684538034000,8.572033935546875,0.022215556353330612,-0.03862142935395241,0.04222015663981438
1782984684548108000,8.58210791015625,0.03321201354265213,-0.07714857906103134,0.06369269639253616
1782984684558182000,8.592181884765624,0.03868401423096657,-0.10119106620550156,0.06883392482995987
1782984684568256300,8.60225634765625,0.03705096244812012,-0.12018659710884094,0.060622066259384155
1782984684578330000,8.612330078125,0.039208121597766876,-0.09829355031251907,0.03646773099899292
1782984684588405200,8.6224052734375,0.0346224270761013,-0.06614919006824493,0.010372479446232319
1782984684598479000,8.63247900390625,0.025845179334282875,-0.02797704003751278,-0.01731986738741398
1782984684608553000,8.642552978515624,0.01690148562192917,-0.0030652983114123344,-0.03834952041506767
1782984684618627000,8.652626953125,0.0013757890556007624,0.026747990399599075,-0.05289037898182869
1782984684628701000,8.662700927734376,-0.010397247038781643,0.03533988073468208,-0.0538933239877224
1782984684638776000,8.672776123046875,-0.017165670171380043,0.02792111411690712,-0.06493479013442993
1782984684648850000,8.682849853515625,-0.016691096127033234,0.04597334936261177,-0.06914817541837692
1782984684658924000,8.692924072265624,-0.023972177878022194,0.04207687824964523,-0.06589459627866745
1782984684668998000,8.702997802734375,-0.018150774762034416,0.027590615674853325,-0.05570667237043381
1782984684679072300,8.713072265625,-0.01631718873977661,0.03243197500705719,-0.046609312295913696
1782984684689147000,8.72314697265625,-0.01655713841319084,0.021642711013555527,-0.04637628793716431
1782984684699221200,8.73322119140625,-0.016998691484332085,0.02045094594359398,-0.054133009165525436
1782984684709295000,8.743295166015624,-0.020747356116771698,0.03345596045255661,-0.057982876896858215
1782984684719369000,8.753368896484375,-0.02646809257566929,0.042636942118406296,-0.0607626847922802
1782984684729443000,8.763443115234375,-0.03225913643836975,0.04023423790931702,-0.058406051248311996
1782984684739518000,8.77351806640625,-0.03009558469057083,0.0270148403942585,-0.050886884331703186
1782984684749592000,8.783592041015625,-0.033314015716314316,0.0032021848019212484,-0.04066593572497368
1782984684759666000,8.793666015625,-0.036728452891111374,-0.005275189410895109,-0.02936374768614769
1782984684769740000,8.803739990234375,-0.036318328231573105,-0.007126619108021259,-0.02430560626089573
1782984684779814000,8.81381396484375,-0.035110317170619965,0.0026168220210820436,-0.018610702827572823
1782984684789888300,8.82388818359375,-0.03743685409426689,0.006430734880268574,-0.01854172721505165
1782984684799963000,8.833962890625,-0.04467000067234039,0.016260461881756783,-0.013450294733047485
1782984684810037200,8.844037353515626,-0.04704500734806061,0.016921725124120712,-0.009277121163904667
1782984684820111000,8.854111083984375,-0.04418770223855972,0.016288159415125847,-0.0036187032237648964
1782984684830185000,8.86418505859375,-0.04361538961529732,0.014749385416507721,0.000570981705095619
1782984684840259000,8.874259033203124,-0.0375569611787796,0.006849916651844978,0.005605954211205244
1782984684850334000,8.884333984375,-0.03080078959465027,0.00842917151749134,0.007650196552276611
1782984684860408000,8.894407958984376,-0.02472984790802002,0.003088201628997922,0.0062973108142614365
1782984684870482000,8.90448193359375,-0.019958261400461197,-0.0030282805673778057,0.00851359311491251
1782984684880556000,8.91455615234375,-0.015909457579255104,0.0029885992407798767,0.0018644790397956967
1782984684890630000,8.9246298828125,-0.010878213681280613,0.007830758579075336,-0.00395639194175601
1782984684900705000,8.934705078125,0.00717588746920228,0.01037514302879572,-0.013687849044799805
1782984684910779000,8.94477880859375,0.0029704899061471224,0.004915129859000444,-0.021018199622631073
1782984684920853200,8.954853271484374,0.005271194502711296,-0.007169762160629034,-0.026202043518424034
1782984684930927000,8.964927001953125,0.004420847166329622,0.0028722193092107773,-0.034265294671058655
1782984684941001000,8.9750009765625,0.005910353269428015,0.015456986613571644,-0.04171415790915489
1782984684951076000,8.985076171875,-0.001793905277736485,0.03520885482430458,-0.0379503108561039
1782984684961150000,8.99514990234375,-0.005844573490321636,0.032831717282533646,-0.029334452003240585
1782984684971224000,9.00522412109375,-0.01068060752004385,0.014580274000763893,-0.0161262396723032
1782984684981298000,9.0152978515625,-0.013833523727953434,0.001213336130604148,-0.00023036343918647617
1782984684991372000,9.0253720703125,-0.010669955052435398,-0.008007858879864216,0.012313923798501492
1782984685001447000,9.035447021484375,-0.008686166256666183,-0.018615495413541794,0.018545188009738922
1782984685011521000,9.04552099609375,-0.011859056539833546,-0.016996027901768684,0.016577644273638725
1782984685021595000,9.055594970703124,-0.011022291146218777,-0.020443756133317947,0.010451842099428177
1782984685031669200,9.065669189453125,-0.007637679576873779,-0.008342351764440536,-0.003084739437326789
1782984685041744000,9.075743896484376,-0.006987601984292269,0.005945506971329451,-0.017645040526986122
1782984685051818800,9.08581884765625,-0.009198558516800404,0.008610532619059086,-0.026509903371334076
1782984685061892900,9.095892822265625,-0.005115133244544268,0.005565740168094635,-0.02961275354027748
1782984685071967000,9.105967041015624,-0.007675496395677328,0.005733785685151815,-0.025556758046150208
1782984685082040800,9.116040771484375,-0.013397564180195332,0.00902412086725235,-0.018305771052837372
1782984685092114700,9.12611474609375,-0.02153298817574978,0.003433613572269678,-0.015748070552945137
1782984685102189800,9.13618994140625,-0.03197071701288223,0.016265522688627243,-0.00939003936946392
1782984685112263700,9.146263671875,-0.03976046293973923,0.03802195191383362,-0.001204814063385129
1782984685122337800,9.156337890625,-0.04020680859684944,0.04873931035399437,0.00782410055398941
1782984685132411600,9.16641162109375,-0.03447595238685608,0.041852641850709915,0.022477878257632256
1782984685142485800,9.17648583984375,-0.022343920543789864,0.013974138535559177,0.0365966260433197
1782984685152560600,9.186560546875,-0.008267783559858799,-0.024100542068481445,0.03550712764263153
1782984685162634800,9.196634765625,0.009557818993926048,-0.0384102389216423,0.01173308864235878
1782984685172708900,9.206708984375,0.020424582064151764,-0.025968216359615326,-0.02833656594157219
1782984685182783000,9.216782958984375,0.027283020317554474,0.012414325028657913,-0.09316669404506683
1782984685192856800,9.22685693359375,0.021135911345481873,0.06319548189640045,-0.1494659185409546
1782984685202930700,9.2369306640625,0.015721704810857773,0.09579523652791977,-0.19342832267284393
1782984685213005800,9.247005859375,0.01895291917026043,0.12608470022678375,-0.20884749293327332
1782984685223079700,9.25707958984375,0.013262541964650154,0.13273780047893524,-0.2111079841852188
1782984685233153800,9.26715380859375,-0.0009747169679030776,0.12429079413414001,-0.19585739076137543
1782984685243227600,9.2772275390625,-0.01998276263475418,0.10281000286340714,-0.1659594029188156
1782984685253301800,9.2873017578125,-0.033132120966911316,0.07226461172103882,-0.14912210404872894
1782984685263376600,9.297376708984375,-0.03470338508486748,0.060925401747226715,-0.13915789127349854
1782984685273450800,9.30745068359375,-0.037939924746751785,0.06285885721445084,-0.13603347539901733
1782984685283524900,9.31752490234375,-0.027056118473410606,0.06127720698714256,-0.13664786517620087
1782984685293599000,9.327598876953125,-0.03743286058306694,0.04289686679840088,-0.13818690180778503
1782984685303672800,9.3376728515625,-0.05432502552866936,0.02136787213385105,-0.14791302382946014
1782984685313748000,9.347748046875,-0.06448684632778168,0.04350406676530838,-0.16050845384597778
1782984685323821800,9.35782177734375,-0.05741402506828308,0.06138506531715393,-0.18753820657730103
1782984685333895700,9.367895751953125,-0.05124960467219353,0.09396537393331528,-0.20506499707698822
1782984685343969800,9.3779697265625,-0.04385267570614815,0.1131603792309761,-0.20993885397911072
1782984685354043600,9.388043701171876,-0.03466849774122238,0.09482531249523163,-0.19646058976650238
1782984685364118800,9.398118896484375,-0.0332876481115818,0.06072832643985748,-0.18540048599243164
1782984685374192600,9.408192626953126,-0.0266523826867342,0.01866050250828266,-0.1740679293870926
1782984685384266800,9.418266845703124,-0.009816944599151611,0.00035233621019870043,-0.15674567222595215
1782984685394340900,9.4283408203125,-0.00016698020044714212,0.005935653578490019,-0.1509018987417221
1782984685404415000,9.4384150390625,0.005043228156864643,0.030664434656500816,-0.1589166820049286
1782984685414489900,9.44848974609375,0.014964834786951542,0.06927414238452911,-0.17079438269138336
1782984685424564000,9.45856396484375,0.017678596079349518,0.08775488287210464,-0.1776336431503296
1782984685434637800,9.468637939453124,0.0028336034156382084,0.0975894033908844,-0.1752631664276123
1782984685444711700,9.478711669921875,-0.006420348770916462,0.08237849920988083,-0.1529109925031662
1782984685454785800,9.488785888671876,-0.014768825843930244,0.06283781677484512,-0.1292453408241272
1782984685464860700,9.498860595703125,-0.02742922678589821,0.0681404396891594,-0.10692218691110611
1782984685474934800,9.508934814453125,-0.03148122876882553,0.07631474733352661,-0.09529562294483185
1782984685485008600,9.519008544921874,-0.032642632722854614,0.08454418182373047,-0.08966730535030365
1782984685495082800,9.529082763671875,-0.03825550898909569,0.08955544978380203,-0.0756731927394867
1782984685505156900,9.539156982421876,-0.03269509598612785,0.09430626034736633,-0.047038882970809937
1782984685515231700,9.549231689453125,-0.02117079868912697,0.0775589719414711,-0.012337359599769115
1782984685525305900,9.559305908203125,-0.020318854600191116,0.04757604002952576,0.023556191474199295
1782984685535380000,9.5693798828125,-0.009240902960300446,0.02317722514271736,0.04626017436385155
1782984685545453800,9.579453857421875,-0.005056543741375208,0.007298126816749573,0.057502709329128265
1782984685555527700,9.589527587890625,-0.002162753138691187,-0.005544701125472784,0.06908079981803894
1782984685565601800,9.599601806640624,0.0011747203534469008,-0.014434332959353924,0.05421796441078186
1782984685575676700,9.6096767578125,0.01420636661350727,0.0030450583435595036,0.03304982930421829
1782984685585750800,9.619750732421876,0.018309231847524643,0.026278208941221237,0.014883874915540218
1782984685595824600,9.62982470703125,0.01774277724325657,0.02106187492609024,0.0033662356436252594
1782984685605898800,9.639898681640625,0.01980353146791458,0.004262921866029501,0.014336861670017242
1782984685615972900,9.649972900390624,0.02592906914651394,-0.028773324564099312,0.034819234162569046
1782984685626047700,9.6600478515625,0.01870684139430523,-0.05409039929509163,0.058169830590486526
1782984685636121900,9.670121826171876,0.016511065885424614,-0.07200601696968079,0.08186450600624084
1782984685646196000,9.680196044921875,0.018620289862155914,-0.09762270003557205,0.09743068367242813
1782984685656269800,9.690269775390625,0.019215771928429604,-0.11526480317115784,0.09703972935676575
1782984685666343700,9.70034375,0.01944800093770027,-0.11378355324268341,0.09198638051748276
1782984685676418800,9.710418701171875,0.017611218616366386,-0.11588133126497269,0.06891675293445587
1782984685686492700,9.72049267578125,0.018445054069161415,-0.11876686662435532,0.0534999780356884
1782984685696566800,9.73056689453125,0.023453660309314728,-0.11277155578136444,0.046424224972724915
1782984685706640600,9.740640625,0.01468466967344284,-0.10122515261173248,0.05073428526520729
1782984685716714800,9.75071484375,0.008566057309508324,-0.10872781276702881,0.06166363134980202
1782984685726789600,9.76078955078125,-0.009506153874099255,-0.1269845813512802,0.08451434969902039
1782984685736863700,9.77086376953125,-0.027875838801264763,-0.12077409029006958,0.09971008449792862
1782984685746937900,9.780937744140624,-0.037395309656858444,-0.08569200336933136,0.09541440010070801
1782984685757012000,9.791011962890625,-0.0387151725590229,-0.020904483273625374,0.07053062319755554
1782984685767085800,9.8010859375,-0.03319390490651131,0.036917537450790405,0.0316103920340538
1782984685777161000,9.811160888671875,-0.010599381290376186,0.06338802725076675,-0.014907843433320522
1782984685787234800,9.82123486328125,0.019124425947666168,0.06187721714377403,-0.06302104145288467
1782984685797308700,9.83130859375,0.037396375089883804,0.036495957523584366,-0.10294982045888901
1782984685807382800,9.8413828125,0.051719918847084045,0.012433766387403011,-0.12294109910726547
1782984685817456600,9.85145654296875,0.05239582806825638,-0.0034386736806482077,-0.12178608775138855
1782984685827531800,9.86153173828125,0.04572887346148491,-0.008682703599333763,-0.10562070459127426
1782984685837605600,9.871605712890625,0.03513295203447342,0.0007014766451902688,-0.0854744240641594
1782984685847679700,9.8816796875,0.025237446650862694,0.003082342678681016,-0.06916282325983047
1782984685857753900,9.89175390625,0.021583855152130127,0.011326157487928867,-0.04578852653503418
1782984685867828000,9.901827880859376,0.01878460682928562,0.015429556369781494,-0.032760076224803925
1782984685877902800,9.91190283203125,0.023755397647619247,0.02839355729520321,-0.016391223296523094
1782984685887977000,9.92197705078125,0.02147945947945118,0.026943733915686607,-0.00027084347675554454
1782984685898050800,9.93205078125,0.020138025283813477,0.02334553562104702,0.010423879139125347
1782984685908124700,9.942124755859375,0.01774916984140873,0.00592553336173296,0.019213907420635223
1782984685918198800,9.95219873046875,0.014006363227963448,-0.0028626318089663982,0.017977934330701828
1782984685928272600,9.962272705078124,0.015725433826446533,-0.003915645647794008,-0.0008290420519188046
1782984685938347800,9.97234765625,0.023792946711182594,0.015513712540268898,-0.028435902670025826
1782984685948421600,9.982421630859376,0.02941674366593361,0.05064693093299866,-0.05375617370009422
1782984685958495700,9.992495849609375,0.028692098334431648,0.06766000390052795,-0.05776689201593399
1782984685968569900,10.00256982421875,0.028907282277941704,0.059007395058870316,-0.047017574310302734
1782984685978644700,10.012644775390624,0.030768565833568573,0.03964594751596451,-0.02484090067446232
1782984685988718800,10.02271875,0.02664918825030327,0.013173592276871204,-0.007651794236153364
1782984685998793000,10.03279296875,0.027464646846055984,-0.007570301648229361,0.007191067561507225
1782984686008866800,10.04286669921875,0.01943974383175373,-0.001496430253610015,0.007961253635585308
1782984686018940700,10.052940673828125,0.017950505018234253,0.013822871260344982,-0.003421362955123186
1782984686029014800,10.063014892578124,0.013886254280805588,0.035630963742733,-0.021859493106603622
1782984686039090000,10.07308984375,0.010744256898760796,0.057197775691747665,-0.03901078179478645
1782984686049163800,10.083163818359376,0.007787615526467562,0.06520110368728638,-0.05168449878692627
1782984686059238000,10.09323779296875,0.00615323381498456,0.06018291413784027,-0.05107064172625542
1782984686069311700,10.103311767578125,0.010904313065111637,0.04590517282485962,-0.03404797986149788
1782984686079386000,10.11338623046875,0.010665693320333958,0.03223410248756409,-0.016917996108531952
1782984686089460700,10.123460693359375,0.008612129837274551,0.019709521904587746,-0.0025073662400245667
1782984686099535000,10.13353515625,0.010632137767970562,0.009068329818546772,0.006962302140891552
1782984686109609000,10.14360888671875,0.017887121066451073,0.00860334187746048,0.011040933430194855
1782984686119682800,10.153682861328125,0.02429948002099991,0.014090784825384617,0.009544236585497856
1782984686129757000,10.1637568359375,0.025163942947983742,0.01167396642267704,0.012553342618048191
1782984686139832000,10.17383203125,0.019891150295734406,-0.004832305945456028,0.010513893328607082
1782984686149906000,10.183906005859376,0.01894998922944069,-0.005577990785241127,0.00845660176128149
1782984686159979800,10.193979736328124,0.01449984684586525,0.008928514085710049,-0.002463690238073468
1782984686170054000,10.204053955078125,0.017969412729144096,0.02436659298837185,-0.021567609161138535
1782984686180127700,10.214127685546876,0.02281397022306919,0.05624755844473839,-0.05747634172439575
1782984686190203000,10.224202880859375,0.031128358095884323,0.09090486913919449,-0.09577925503253937
1782984686200276700,10.23427685546875,0.032155539840459824,0.10051329433917999,-0.12336481362581253
1782984686210351000,10.24435107421875,0.04255198687314987,0.09007316827774048,-0.12754331529140472
1782984686220425000,10.254425048828125,0.038536205887794495,0.1040576919913292,-0.12726661562919617
1782984686230498800,10.264498779296876,0.04172028228640556,0.13530509173870087,-0.15799416601657867
1782984686240574000,10.274573974609375,0.049364086240530014,0.15899018943309784,-0.20327268540859222
1782984686250648000,10.28464794921875,0.040828920900821686,0.19521503150463104,-0.2044151872396469
1782984686260722000,10.294721923828124,0.003963316325098276,0.15468092262744904,-0.14212970435619354
1782984686270795800,10.304795654296875,0.008854211308062077,0.04122013971209526,-0.05838101729750633
1782984686280870000,10.314869873046876,0.02184857428073883,-0.047322776168584824,0.006009423173964024
1782984686290944800,10.32494482421875,0.010391920804977417,-0.06469564139842987,0.023197997361421585
1782984686301019000,10.335018798828125,0.0016487629618495703,-0.04071440547704697,-0.00791651289910078
1782984686311092700,10.3450927734375,-0.009405752643942833,-0.009734386578202248,-0.05385737121105194
1782984686321167000,10.3551669921875,-0.021226724609732628,0.02514796331524849,-0.0853029116988182
1782984686331241000,10.365240966796875,-0.04327983036637306,0.026460103690624237,-0.08888699859380722
1782984686341316000,10.375316162109375,-0.07158603519201279,-0.03284689784049988,-0.04158153012394905
1782984686351390000,10.385389892578125,-0.09503916651010513,-0.130048006772995,0.05096784234046936
1782984686361464000,10.395464111328126,-0.11116007715463638,-0.2564949095249176,0.16216866672039032
1782984686371538000,10.405537841796875,-0.12471184134483337,-0.34664076566696167,0.23927010595798492
1782984686381611800,10.41561181640625,-0.11491379886865616,-0.3787536919116974,0.2784486711025238
