time,seconds_elapsed,z,y,x
1782987798768333000,0.0693330078125,-0.2575748313874006,-1.7941309036821127,-0.7337853994369506
1782987798778407200,0.0794072265625,-0.5532008687496185,-1.488789527991414,-0.9591893881250172
1782987798788482000,0.08948193359375,-0.9559972410202026,-1.1258061106711625,-1.0126991522554307
1782987798798556200,0.09955615234375,-1.2690472913920878,-0.7607377037703991,-0.9991592141374945
1782987798808631000,0.109631103515625,-1.2931179028093813,-0.463599508279562,-0.949138753427565
1782987798818705200,0.119705078125,-1.0430296277850866,-0.31437983767092226,-0.7653965624269098
1782987798828780000,0.129780029296875,-0.6589671820789575,-0.2659188813626766,-0.5375764525078237
1782987798838854100,0.139854248046875,-0.32808687598407266,-0.1457955413788557,-0.4261537939172238
1782987798848929300,0.14992919921875,-0.0665232672214508,0.02539163088798523,-0.4174827770099044
1782987798859003100,0.160003173828125,0.16370470755696295,0.14552256965637206,-0.5178337142270059
1782987798869078300,0.170078369140625,0.34394670841693875,0.224923438629508,-0.6125408003382384
1782987798879152000,0.180152099609375,0.41596038974821564,0.37583997628390786,-0.6934099152330309
1782987798889227300,0.190227294921875,0.3601309504985809,0.544686138382554,-0.7728290505152196
1782987798899301000,0.200301025390625,0.21995324900150298,0.7136947975665331,-0.7989997760169207
1782987798909376300,0.210376220703125,0.1356909114718437,0.8776672161489725,-0.8421799423780292
1782987798919450000,0.2204501953125,0.1358440562069416,1.0269932697415352,-0.9230729496050626
1782987798929525200,0.230525146484375,0.10171090045869349,1.1832955920875072,-0.9206165694288909
1782987798939599000,0.24059912109375,-0.004770867663621902,1.3449486278116702,-0.9245863498426973
1782987798949674200,0.25067431640625,-0.013079261803627014,1.450484054994583,-0.9986922542128711
1782987798959748000,0.260748046875,0.22887772921323776,1.5074118108749388,-1.0352389008436351
1782987798969823200,0.2708232421875,0.6449456709891558,1.4390145664751528,-1.0696768847573548
1782987798979897000,0.28089697265625,1.0557762966334818,1.290350776183605,-1.0458004076726735
1782987798989972200,0.29097216796875,1.440942904189229,1.101177865371108,-0.9900731136232614
1782987799000046000,0.301046142578125,1.6830208912372588,0.9241969121336936,-0.8557435536324978
1782987799010121200,0.311121337890625,1.7263310406535863,0.7664630956798791,-0.7178755903825164
1782987799020195300,0.3211953125,1.6446376768290996,0.638065263825655,-0.6187129131019115
1782987799030270500,0.3312705078125,1.5250830766439436,0.58374681366086,-0.5949906767308711
1782987799040344300,0.34134423828125,1.5051578944683075,0.5760363854140043,-0.5502874655209481
1782987799050419500,0.35141943359375,1.4822510661333799,0.5399240385472774,-0.4318111620917916
1782987799060493300,0.361493408203125,1.4812433503955602,0.4456079245150089,-0.34975305660814043
1782987799070568400,0.371568359375,1.5161527512133122,0.34239246471226215,-0.2710312559403479
1782987799080642300,0.381642333984375,1.6102520076245068,0.1921674164533615,-0.21062208768501878
1782987799090717400,0.391717529296875,1.7236825719714164,0.006371873119473457,-0.1153382976643741
1782987799100791300,0.401791259765625,1.7283932338804004,-0.18482932865023613,-0.07345876557305454
1782987799110866400,0.411866455078125,1.6288427263259886,-0.30989655477702616,-0.1048743329256773
1782987799120940300,0.421940185546875,1.491883402353525,-0.3673404434859752,-0.2202409799017012
1782987799131015400,0.432015380859375,1.2909130862414837,-0.4268810122132301,-0.39166941357851026
1782987799141089300,0.44208935546875,1.0842571257084608,-0.5139706821233034,-0.5501587245747447
1782987799151164400,0.452164306640625,0.8969394873738288,-0.634337183213234,-0.7523430926516652
1782987799161238300,0.46223828125,0.8091407924115658,-0.7409908007711171,-0.9019184448301791
1782987799171313400,0.4723134765625,0.7505775442838668,-0.8478104225456714,-0.9315262321084737
1782987799181387300,0.48238720703125,0.6040379065394401,-0.9144184454411267,-0.9788662215627729
1782987799191462400,0.49246240234375,0.4167296205550432,-0.93530048995018,-0.9840333950676023
1782987799201536500,0.50253662109375,0.31670272766053675,-0.9260276346921921,-0.982537457421422
1782987799211611400,0.512611328125,0.27023031482100485,-0.9967390012532472,-0.9454398989096283
1782987799221685500,0.522685546875,0.2194388697385788,-1.0970499717861413,-0.7041502857603132
1782987799231760400,0.532760498046875,0.06992109296619892,-1.110060844528675,-0.434503469915688
1782987799241834500,0.54283447265625,-0.13203531157374382,-0.9980477457642555,-0.19011589075103402
1782987799251909400,0.552909423828125,-0.2025982095748186,-0.8451724752575158,-0.05812397992759943
1782987799261983500,0.5629833984375,-0.2198433588862419,-0.8178355555206537,0.017922610181570053
1782987799272057300,0.573057373046875,-0.14334347205162049,-0.8415227205783128,0.13023571480587123
1782987799282132500,0.583132568359375,0.04322714730799198,-0.9598001404345035,0.2682609144441783
1782987799292207400,0.593207275390625,0.1862988166809082,-1.105931781899929,0.4526914530351758
1782987799302281500,0.603281494140625,0.3422445806741714,-1.273491411319375,0.6282248378127813
1782987799312355300,0.613355224609375,0.4914958154648542,-1.3746797492086886,0.7700299943812191
1782987799322430500,0.623430419921875,0.5801876598745584,-1.4660019421219825,0.8545986213810741
1782987799332504300,0.63350439453125,0.5864052192151546,-1.5604478200137615,0.8896573675416409
1782987799342579500,0.643579345703125,0.5653606776207685,-1.6602327208459375,0.8964857522569596
1782987799352653300,0.6536533203125,0.5340513471215963,-1.7492121500253677,0.8390845336459577
1782987799362728400,0.663728515625,0.39293899512290953,-1.7989035249114036,0.7934497406743466
1782987799372802300,0.67380224609375,0.16003215652406214,-1.7677619521945713,0.7207676585622131
1782987799382877400,0.68387744140625,-0.21714754393100738,-1.6275503484278917,0.6477040297865867
1782987799392951300,0.693951416015625,-0.5406611206501722,-1.4743962609797716,0.5875466443352401
1782987799403026400,0.7040263671875,-0.7255933251529931,-1.49284377181828,0.7162099952578544
1782987799413100300,0.714100341796875,-0.522645571488142,-1.6785130584239958,0.9528783783473074
1782987799423175400,0.724175537109375,-0.02437806993126869,-1.7386802346169947,1.051387706285715
1782987799433249300,0.734249267578125,0.29280396567881106,-1.734915913647413,0.9419107018701731
1782987799443324400,0.744324462890625,0.18002222062945364,-1.6158476356744764,0.6512995700605213
1782987799453398300,0.754398193359375,-0.2348579726666212,-1.3893693688184021,0.4496979703076184
1782987799463473400,0.764473388671875,-0.9113859458774328,-1.1709206791609525,0.33182387055531143
1782987799473547300,0.77454736328125,-1.5448434236466884,-0.8273813825011253,0.1549471083447337
1782987799483622400,0.784622314453125,-1.9564123004376888,-0.4101946658283472,-0.04614332701563835
1782987799493696300,0.7946962890625,-2.1719851423978804,0.02580196525454521,-0.18007760407850146
1782987799503771400,0.804771484375,-2.1396195808440446,0.365865694758296,-0.19417086523026228
1782987799513845200,0.81484521484375,-1.8897785585790872,0.6052665715515613,-0.13022358597666026
1782987799523920400,0.82492041015625,-1.5267746829926967,0.7419500011920929,-0.007967325617372989
1782987799533994200,0.834994140625,-0.9196060772120952,0.7940928608834743,0.13431114755123852
1782987799544069400,0.8450693359375,-0.20666297479569912,0.7812672815799713,0.3256298382207751
1782987799554143200,0.855143310546875,0.4415373140752315,0.8044552649438381,0.47201223957687616
1782987799564218400,0.86521826171875,1.0013228219121695,0.8316273495078086,0.5996354337967932
1782987799574292200,0.875292236328125,1.3887059364736078,0.8591828804314136,0.7560691274374723
1782987799584367400,0.885367431640625,1.5034645345538853,0.8692161986678838,0.8391947160221636
1782987799594441500,0.89544140625,1.4117957201600073,0.9636790276944637,0.810021520768851
1782987799604516400,0.905516357421875,1.1161790351480245,1.0203110154986381,0.6744036745332181
1782987799614590500,0.915590576171875,0.7117997776001691,1.0220423693358898,0.4570363503716886
1782987799624665300,0.925665283203125,0.258202607896924,1.0497773484796284,0.22216931761577724
1782987799634739500,0.935739501953125,-0.18594868806898593,1.097011393341422,-0.005853109942376613
1782987799644814300,0.945814453125,-0.5182587347060442,1.1359084024906159,-0.2223094567388296
1782987799654888400,0.955888427734375,-0.6815905172973871,1.0784300269901752,-0.32162878588587046
1782987799664963300,0.96596337890625,-0.7259077979296445,1.0471049143999815,-0.32933366117477414
1782987799675037400,0.976037353515625,-0.6955611749827861,1.0722755960136652,-0.3364342869602144
1782987799685112300,0.9861123046875,-0.5407330168426037,1.146191896095872,-0.3397514486841857
1782987799695186400,0.9961865234375,-0.2584650582253933,1.1655629515200852,-0.2784283804543316
1782987799705261300,1.00626123046875,0.05843173070251941,1.1175929935991764,-0.21748758954033254
1782987799715335400,1.01633544921875,0.36703999923467634,1.0858031861066817,-0.19461364056169986
1782987799725410300,1.026410400390625,0.7011328376352787,1.0995675075650215,-0.170812201474607
1782987799735484400,1.036484375,1.0854647479325532,1.068335333955288,-0.13058540502637625
1782987799745559300,1.046559326171875,1.2817635651022194,0.9980261184543371,-0.12811580004245043
1782987799755633400,1.05663330078125,1.2745698542058468,0.951408744186163,-0.22241788554936645
1782987799765708300,1.066708251953125,1.3238228376746177,0.8289601761251687,-0.3090503132112324
1782987799775782400,1.076782470703125,1.305078974238038,0.6835813988536595,-0.35804318443909283
1782987799785857300,1.086857177734375,1.2091209382176398,0.5902677398622036,-0.39461204290166496
1782987799795931400,1.096931396484375,1.13711251758337,0.5220633876860141,-0.36103447520956394
1782987799806006300,1.10700634765625,1.1087386560142038,0.4555903893470764,-0.28840017776191235
1782987799816080400,1.117080322265625,1.1685878522992132,0.34114100334644315,-0.1430526724115014
1782987799826155300,1.1271552734375,1.2827800486683845,0.21758944247961043,0.0009888649068772793
1782987799836229400,1.1372294921875,1.3434732945621013,0.10288169780373572,0.15858765680417417
1782987799846304500,1.147304443359375,1.3201421033352612,-0.06674187840819358,0.2983873187690973
1782987799856378400,1.15737841796875,1.1025608441621064,-0.19753391192257402,0.3286984320111573
1782987799866453500,1.16745361328125,0.7950964849680662,-0.29301965425610543,0.23566212865635752
1782987799876527400,1.17752734375,0.4624783952951431,-0.4042594305604696,0.1072716033257544
1782987799886602500,1.1876025390625,0.0012964695513248442,-0.4909989718586206,-0.004167787203937769
1782987799896676400,1.19767626953125,-0.5254466003835201,-0.5321031356632709,-0.1411009538218379
1782987799906751500,1.20775146484375,-1.0054325953185557,-0.5227870257854461,-0.2242084222279489
1782987799916825300,1.217825439453125,-1.3693892415851354,-0.5369342090815306,-0.24057021283358335
1782987799926900500,1.227900390625,-1.6275246294647454,-0.6085077454298734,-0.09741378778666257
1782987799936974300,1.237974365234375,-1.673583785328269,-0.6386591380655765,0.04938216280639171
1782987799947049500,1.248049560546875,-1.515856398615241,-0.603415390726924,0.143001234485209
1782987799957123300,1.258123291015625,-1.2511685203522442,-0.6507850446671247,0.12564867927655576
1782987799967198500,1.268198486328125,-0.875364784425497,-0.7468482946276664,0.09447451946437359
1782987799977272300,1.278272216796875,-0.2949474074482918,-0.8182517351061105,0.016978168938308953
1782987799987347500,1.288347412109375,0.11855623679757117,-1.0346218649238348,-0.0036199440628290175
1782987799997421300,1.29842138671875,-0.514478631645441,-0.9113543816953897,-0.5826224858060479
1782987800007496400,1.308496337890625,-0.521069700473547,-0.9002221623063087,-0.5735255716368556
1782987800017570300,1.3185703125,-0.7647732428967953,-1.1371470043748617,-0.5264927484355867
1782987800027645000,1.32864501953125,-0.4285246877670288,-1.432602361345291,-0.451418218228966
1782987800037718800,1.33871875,-0.16822773793935775,-1.4507161101847885,-0.3146620156131685
1782987800047794000,1.3487939453125,-0.26768063033819195,-1.411537361484766,-0.2095819309823215
1782987800057867800,1.35886767578125,-0.5435948360145092,-1.2525783871501683,-0.26711072149574755
1782987800067943000,1.36894287109375,-0.9882914909034967,-0.9501116901129484,-0.4813680969431996
1782987800078016800,1.379016845703125,-1.4636533331692219,-0.7250456281423568,-0.5883151444897056
1782987800088092000,1.389091796875,-1.733328936716914,-0.5660825621545315,-0.6704638508662581
1782987800098165800,1.399165771484375,-1.7280594718813895,-0.3311865955650806,-0.7909393652886152
1782987800108241000,1.409240966796875,-1.7291063505858182,-0.06033961015045643,-0.8588672386109828
1782987800118314800,1.419314697265625,-1.7731155881822107,0.15648410865366458,-0.9775174373023211
1782987800128390000,1.429389892578125,-1.7285346881777046,0.3130284230619669,-1.122982723813504
1782987800138463700,1.439463623046875,-1.469031519076228,0.41725919738709927,-1.2573827186919748
1782987800148539000,1.449538818359375,-1.0190729981362818,0.5208107572764158,-1.3315741824537515
1782987800158612700,1.45961279296875,-0.5023842892259359,0.5810457380086184,-1.275608987995237
1782987800168687900,1.46968798828125,-0.06809913823604584,0.6110100836396217,-1.1345743774078785
1782987800178761700,1.47976171875,0.2681634454190731,0.6731383307725191,-1.063834807665646
1782987800188836900,1.4898369140625,0.5483458299338817,0.6763327428996563,-1.0988485456407069
1782987800198910700,1.49991064453125,0.810389915689826,0.6443979739785194,-1.1678487243697047
1782987800208985900,1.50998583984375,0.9838099615752697,0.5797896004676818,-1.1844216735079884
1782987800219059700,1.520059814453125,1.1007371358662843,0.532988686326146,-1.225925504154712
1782987800229134800,1.530134765625,1.1911726090729235,0.5335550880372524,-1.2446921639449893
1782987800239208700,1.540208740234375,1.1551637225806712,0.583316021028161,-1.250111704775691
1782987800249282800,1.55028271484375,1.0292448480606078,0.6513754117757081,-1.22866135885939
1782987800259357700,1.560357666015625,0.9689420627892017,0.6701561000913381,-1.1411730450205504
1782987800269431800,1.570431884765625,1.0066922399908305,0.6590379092276096,-1.0142217587128282
1782987800279506700,1.580506591796875,1.1636375364154576,0.5694494082391262,-0.8879892881989478
1782987800289580800,1.590580810546875,1.3905851743489503,0.5252215594559908,-0.7065729828625917
1782987800299655700,1.60065576171875,1.6350719761043786,0.47549102160334583,-0.5035775906637311
1782987800309729800,1.610729736328125,1.785512128418684,0.4248264177709818,-0.2859238507762551
1782987800319804700,1.6208046875,1.8150263921946286,0.3636427580118179,-0.05525324679687619
1782987800329878800,1.630878662109375,1.6853683311462402,0.3277069367557764,0.07548837170451879
1782987800339953700,1.64095361328125,1.5162223093181848,0.2965793925642967,0.0882104906335473
1782987800350027800,1.65102783203125,1.2357803970843553,0.2350847671598196,0.056727411002665755
1782987800360102700,1.6611025390625,0.7426917594701051,0.2087947261273861,-0.048247751948982474
1782987800370176800,1.6711767578125,0.36594168260395527,0.1967027217954397,-0.16821166358739137
1782987800380251600,1.681251708984375,0.15477788925766944,0.1292091482371092,-0.2569711664058268
1782987800390325800,1.69132568359375,0.14178981286883352,-0.01916179658770561,-0.34265886056348677
1782987800400401000,1.70140087890625,0.24747838478684425,-0.1612362716168165,-0.3428882854051888
1782987800410474800,1.711474853515625,0.4647089308261871,-0.2833189289748668,-0.3612339433044195
1782987800420550000,1.7215498046875,0.6827367647230624,-0.39302199723124503,-0.4544990869790315
1782987800430623700,1.731623779296875,0.8156617186129093,-0.5136398427337407,-0.5207825540952384
1782987800440699000,1.741698974609375,0.9240770851463079,-0.6084755967259406,-0.545258677573502
1782987800450772700,1.751772705078125,1.001966965034604,-0.7145458614379168,-0.45378407057747244
1782987800460847900,1.761847900390625,1.04749946667552,-0.7829220630496739,-0.3046152533732355
1782987800470921700,1.771921630859375,1.0812526831954716,-0.8166197499901056,-0.15685717974975705
1782987800480996900,1.781996826171875,1.064610760474205,-0.9115548727035522,-0.04287731095701456
1782987800491070700,1.79207080078125,0.9261983150839805,-0.9705985978245735,-0.022194880673289296
1782987800501145900,1.802145751953125,0.7177461187839508,-1.0270634123682976,0.00827025408670306
1782987800511219700,1.8122197265625,0.531224599263072,-1.0979320153176784,0.07474398307800292
1782987800521294800,1.822294921875,0.26789573439359665,-1.156044597068429,0.12112009593620895
1782987800531368700,1.83236865234375,-0.07490706468522548,-1.1588298438727855,0.11100567528754472
1782987800541443800,1.84244384765625,-0.41104105352461334,-1.2044909403294324,0.13603183386400342
1782987800551517700,1.852517578125,-0.66472530721426,-1.235400457856059,0.19516937474831939
1782987800561592800,1.8625927734375,-0.7789788783818483,-1.2456471265822648,0.23615429608747363
1782987800571666700,1.872666748046875,-0.8313099541217088,-1.2328192091912031,0.3217933287978172
1782987800581741800,1.882741943359375,-0.9298176746249198,-1.2010913610190153,0.38136063940152526
1782987800591815700,1.892815673828125,-1.059668627896905,-1.150667580205202,0.36357553799450393
1782987800601890800,1.902890869140625,-1.0821090077638627,-1.0353267983227967,0.3344898748941719
1782987800611964700,1.912964599609375,-1.034763319221139,-0.9061614892274141,0.28870339849218724
1782987800622039800,1.923039794921875,-0.848551596301794,-0.9885188699185847,0.43750104429647324
1782987800632113700,1.93311376953125,-0.5160246920436621,-1.2873095087915658,0.818670545040071
1782987800642188800,1.943188720703125,-0.23177345065474508,-1.4298299740225076,0.972820657788217
1782987800652262700,1.9532626953125,-0.07534077992737293,-1.3615706767886877,0.7565577877372502
1782987800662337800,1.963337890625,-0.30263796195089815,-1.1319184560716151,0.30736206786334513
1782987800672411600,1.97341162109375,-0.8243132271021604,-1.03478027035594,-0.02823006918430328
1782987800682486800,1.98348681640625,-1.3197206630527973,-1.117000872924924,-0.04686272733137011
1782987800692560600,1.993560546875,-1.607381420624256,-1.0044862543791533,-0.0916702756986022
1782987800702635800,2.0036357421875,-1.714283459985256,-0.5959241581887006,-0.25981647283434867
1782987800712709600,2.013709716796875,-1.7801280972927809,-0.09647066171765327,-0.4013403282433748
1782987800722784800,2.02378466796875,-1.7767372858107089,0.2713169410139322,-0.4417971340551972
1782987800732858600,2.033858642578125,-1.5985650769621134,0.5000047006130218,-0.36583281540200113
1782987800742933800,2.043933837890625,-1.0763818622887134,0.5849398228377104,-0.24873028454408047
1782987800753007600,2.054007568359375,-0.3484253151357174,0.6075432843118905,-0.11305734712034463
1782987800763082800,2.064082763671875,0.3598825286954641,0.6570803454190492,0.087164780972898
1782987800773156600,2.074156494140625,0.8881161294490099,0.7721586769729852,0.2568254743248224
1782987800783231700,2.084231689453125,1.2792536281079052,0.8481564595043659,0.3721493050724268
1782987800793305900,2.094305908203125,1.4270365439116954,0.8941554096132517,0.4332267279781401
1782987800803380700,2.104380615234375,1.3652689467847345,0.9128916742652654,0.4283236122369766
1782987800813454800,2.114454833984375,1.2024521279782057,1.0288450350880622,0.31561902407705783
1782987800823529700,2.12452978515625,0.8857651824086904,1.1143892291218043,0.1263340311922133
1782987800833603800,2.134603759765625,0.35084114410579204,1.172133562082052,-0.15933116864785551
1782987800843678700,2.1446787109375,-0.21716040341258047,1.284908877390623,-0.36609555799141524
1782987800853752800,2.1547529296875,-0.601636106094718,1.3824258332908153,-0.5167519834049046
1782987800863827700,2.16482763671875,-0.6249293033987283,1.40938515188694,-0.5465111618526279
1782987800873901800,2.17490185546875,-0.40870179692208763,1.3616302980214356,-0.4893438981279731
1782987800883976700,2.184976806640625,-0.04301145873069763,1.253999944385886,-0.3609935586772859
1782987800894050800,2.19505078125,0.28749066170156,1.2344237217783927,-0.21931728918552398
1782987800904125700,2.205125732421875,0.5960018996000289,1.288465108567476,-0.1247983460575342
1782987800914199800,2.21519970703125,0.8471557580292224,1.314980190527439,-0.07217910102605819
1782987800924273700,2.225273681640625,1.075078962996602,1.2307201910853385,-0.017099895621836184
1782987800934348800,2.235348876953125,1.1948106733143329,1.0977975752830504,0.016580694053322076
1782987800944422700,2.245422607421875,1.2688105600267647,1.0043085597246886,0.07606500254869461
1782987800954497800,2.255497802734375,1.2962024248212576,0.9021937546402216,0.08960092207863926
1782987800964571600,2.265571533203125,1.3264157767772673,0.8181710710853338,0.11315335484072565
1782987800974646800,2.275646728515625,1.341351480102539,0.6776508397608995,0.13287512339875102
1782987800984720600,2.285720703125,1.2854893076270817,0.5351777208030224,0.14484613169953225
1782987800994795800,2.295795654296875,1.1222253295749425,0.47843116670846936,0.12247823254689573
1782987801004869600,2.30586962890625,0.9514064060986042,0.43292789116203784,0.09391147875413298
1782987801014944800,2.31594482421875,0.9000824615746736,0.2709130363881588,0.03391732104048133
1782987801025019100,2.32601904296875,0.9040461045086383,0.07797522008419036,-0.005224602780491114
1782987801035094000,2.336093994140625,0.8975503127485513,-0.170025142750144,-0.029679683470726012
1782987801045168000,2.346168212890625,0.8403764731526374,-0.35127076769471166,-0.05661255245134234
1782987801055243000,2.356242919921875,0.7455711142987013,-0.5336842673748732,-0.10393968242406844
1782987801065317000,2.366317138671875,0.6568342617034911,-0.648632250547409,-0.1550659124188125
1782987801075392000,2.37639208984375,0.5436743309915065,-0.7801689649492501,-0.20945932751595972
1782987801085466000,2.386466064453125,0.3200345024317503,-0.8758750720351934,-0.25142025428041814
1782987801095541000,2.396541015625,-0.03726502403318882,-0.9031009326130152,-0.3169374131992459
1782987801105615000,2.406614990234375,-0.40454467724263665,-0.831235135319829,-0.3933433381401002
1782987801115690000,2.41668994140625,-0.6898790376931428,-0.7423901461750269,-0.36264249492809175
1782987801125764000,2.42676416015625,-0.930548326987028,-0.7149620410233736,-0.2506510234735906
1782987801135839000,2.4368388671875,-1.0021826536118983,-0.7953361389428377,-0.11586845901831984
1782987801145913000,2.4469130859375,-0.9550269346833229,-0.8853355588197708,-0.01762055849507451
1782987801155988000,2.456988037109375,-0.8826730616122483,-0.9422153839051723,-0.04269084847420454
1782987801166062000,2.46706201171875,-0.7951520145475864,-0.9364309552848339,-0.12444938648939131
1782987801176137000,2.477136962890625,-0.7567775679677724,-0.9113578888267279,-0.1975898798935115
1782987801186211000,2.487211181640625,-0.8610533504784107,-0.8753881653010844,-0.26966405924037096
1782987801196286000,2.497285888671875,-1.0117869327813387,-0.7751409076541662,-0.31836598469763994
1782987801206360000,2.507360107421875,-1.1577934865623711,-0.642371436586976,-0.30204861775562164
1782987801216435000,2.51743505859375,-1.2469722377061843,-0.6632908904969692,-0.05701704159900546
1782987801226509000,2.527509033203125,-1.0417553700655697,-0.938137174680829,0.37287016669288275
1782987801236584000,2.537583984375,-0.5479524467021226,-1.0356126295268535,0.5527333973683417
1782987801246658000,2.547657958984375,-0.14319500349164008,-1.0218588294625282,0.5326671992868185
1782987801256733000,2.55773291015625,0.006758826610445976,-0.9621551791280507,0.28214842389076944
1782987801266807000,2.56780712890625,-0.1929693804860115,-0.7837614364832639,-0.18425766624212264
1782987801276882000,2.5778818359375,-0.6773164932399988,-0.6464274339795112,-0.6151106508262455
1782987801286956000,2.5879560546875,-1.1006523801922798,-0.49428223131299015,-0.9300308059189468
1782987801297031200,2.59803125,-1.387463827458024,-0.20707097107470035,-1.1099462782382965
1782987801307105000,2.60810498046875,-1.5171622205168007,0.09512216971814631,-1.1656740106791257
1782987801317180200,2.61818017578125,-1.4315052137583493,0.28940730897784234,-1.0609988535873591
1782987801327254000,2.62825390625,-1.1333107872128485,0.38372283848822114,-0.8189857484690845
1782987801337329200,2.6383291015625,-0.6973439667463303,0.36438159368038175,-0.5297529192753135
1782987801347403000,2.648403076171875,-0.20758067416250706,0.36954058387875555,-0.33312282432466744
1782987801357478100,2.65847802734375,0.1031616837888956,0.3788192843556404,-0.29347733489573
1782987801367552000,2.668552001953125,0.24038579617738723,0.4074129261553287,-0.35365722443982955
1782987801377627100,2.678627197265625,0.18842706088125705,0.4557219067722559,-0.4325754244625568
1782987801387701000,2.688700927734375,0.09560147766768932,0.5332207415163517,-0.5428907793983817
1782987801397776100,2.698776123046875,0.08194763084650039,0.6123211662381887,-0.6487038544788957
1782987801407850000,2.70885009765625,0.16127426553964613,0.6301660350084305,-0.7258204119071364
1782987801417925000,2.718925048828125,0.2593184601843357,0.6540770719498396,-0.7624043218083679
1782987801427999000,2.7289990234375,0.3407242392390966,0.6871990048289298,-0.7842593030028044
1782987801438074000,2.73907421875,0.34992987447977064,0.7595540469437837,-0.7106869940526783
1782987801448148000,2.74914794921875,0.3471966501235962,0.8167091818392276,-0.5584903534598649
1782987801458223000,2.75922314453125,0.41556349938511844,0.9255255303889512,-0.37663594896718855
1782987801468297000,2.769296875,0.6910363910347223,1.0018500606566667,-0.17918240880444644
1782987801478371000,2.77937109375,1.0970856276214123,0.9484855502158402,0.04558291665390134
1782987801488446000,2.789446044921875,1.4410662383079529,0.8251876718491316,0.28713045008704063
1782987801498520000,2.79952001953125,1.6586720474004744,0.6654699881017208,0.4354606245100498
1782987801508595000,2.809594970703125,1.7300111904710531,0.5438783291310072,0.4212364304549992
1782987801518669000,2.8196689453125,1.6886878309577702,0.4792752163171768,0.311677885235846
1782987801528744000,2.829743896484375,1.5638006375730036,0.4313064274400472,0.16433862154632806
1782987801538818000,2.839818115234375,1.4414566989302635,0.40096798779964443,0.025783698945492504
1782987801548893000,2.849892822265625,1.268783672019839,0.38378947398364543,-0.08888312919810414
1782987801558967000,2.859967041015625,1.0831646542966364,0.36534839288592336,-0.19032266536951065
1782987801569042000,2.8700419921875,0.89701196808815,0.34979484992325305,-0.28545491809025403
1782987801579116000,2.880115966796875,0.7533668827414512,0.3548357666999101,-0.38938773238211866
1782987801589191000,2.89019091796875,0.6965121920973062,0.3828939864486456,-0.44947117581442
1782987801599265000,2.90026513671875,0.6860451586186885,0.35401685153245926,-0.44868192513287064
1782987801609340000,2.91033984375,0.7695604771733283,0.2872171054571867,-0.39165129339993
1782987801619414000,2.9204140625,0.8883096061944961,0.23606734845638275,-0.3594664952404797
1782987801629489000,2.930489013671875,0.9971545963168144,0.15580898587107658,-0.30274215297773477
1782987801639563000,2.94056298828125,1.1158990491628646,0.03202595433592796,-0.30100904557481406
1782987801649638000,2.950637939453125,1.231903847911954,-0.09175766172111034,-0.34138869449719783
1782987801659712000,2.9607119140625,1.1938783609002828,-0.22402912013828752,-0.3992117917820811
1782987801669787100,2.970787109375,1.0140911180704832,-0.3735416362136602,-0.37844445969387885
1782987801679861000,2.980861083984375,0.7694803976744413,-0.48365679240226744,-0.3132794752135873
1782987801689936100,2.99093603515625,0.5154916080802678,-0.5639098942905664,-0.18655410661622882
1782987801700010000,3.001010009765625,0.26067162835896013,-0.6034557227373123,-0.011091741248220205
1782987801710085000,3.011085205078125,0.011453121906518935,-0.6816875479310751,0.16770166823863983
1782987801720159000,3.021158935546875,-0.24006956983506678,-0.7937889095008372,0.28830358551964164
1782987801730234000,3.031234130859375,-0.470565255638957,-0.8740209686011076,0.4251723085992038
1782987801740308000,3.041307861328125,-0.7266320205509662,-0.9524743275910615,0.5191434085860848
1782987801750383000,3.051383056640625,-0.9847966345250606,-0.97840079600811,0.6107382809609174
1782987801760457000,3.06145703125,-1.2021125207602976,-0.9310849180817603,0.665976037927717
1782987801770532000,3.071531982421875,-1.328880121064186,-0.8526531864017247,0.6441502828277648
1782987801780606000,3.08160595703125,-1.3204302726268768,-0.8425947337239981,0.6815097071461379
1782987801790681000,3.09168115234375,-1.0706114621937275,-1.0410644651919603,0.9401618123762309
1782987801800755000,3.1017548828125,-0.5639829595267772,-1.3980723152339458,1.3289625386506319
1782987801810830000,3.111830078125,-0.1616425143301487,-1.6063748739302157,1.464014859957993
1782987801820904000,3.121904052734375,-0.03876841433346271,-1.6336679545253514,1.2028963646143673
1782987801830979000,3.13197900390625,-0.3177238874018192,-1.566435077729821,0.7654233773685991
1782987801841053000,3.142052978515625,-1.1017267314255237,-1.5122154117643831,0.4256399261109531
1782987801851128000,3.152128173828125,-2.111384835484624,-1.365270115828514,0.17750819198191164
1782987801861202000,3.162201904296875,-3.106085608908534,-1.062891097074747,-0.16579656526967881
1782987801871277000,3.172277099609375,-3.8631460854709148,-0.547414686563611,-0.6053336454384028
1782987801881351000,3.182350830078125,-4.131465598234534,0.00762742613852024,-0.8774426136128604
1782987801891426000,3.192426025390625,-3.7189106330156325,0.4543786754697561,-0.9712843881316482
1782987801901500000,3.2025,-2.7331635658979416,0.6867863323748111,-0.8301981934875249
1782987801911575000,3.212574951171875,-1.4422960723638534,0.7205594226390123,-0.47922436291277404
1782987801921649000,3.22264892578125,-0.09947276614308356,0.7129641452044249,-0.13941373138725757
1782987801931724000,3.23272412109375,1.1947557282567023,0.7656587935596704,0.10254369802102446
1782987801941798000,3.2427978515625,2.244400390267372,0.7268576460003853,0.32344547991901634
1782987801951873000,3.252873046875,2.9080092606723307,0.6052718322485685,0.5786506595656276
1782987801961947000,3.26294677734375,3.1701100450515747,0.4642231931358576,0.7689872073300182
1782987801972022000,3.27302197265625,3.076056965869665,0.4543833516448736,0.7792603256717324
1782987801982096000,3.283095947265625,2.6263790154367683,0.5731506008446217,0.6485951334074139
1782987801992170000,3.293169921875,1.9645815783679483,0.8044464971154928,0.4681612632371485
1782987802002244900,3.303244873046875,1.1979478022962808,0.9638689973086119,0.31023528521209953
1782987802012319000,3.313319091796875,0.48066988554596896,1.061789273312688,0.12773659146651625
1782987802022393300,3.323393310546875,-0.07287702016234397,1.1513076316744089,-0.0703968937844038
1782987802032467500,3.333467529296875,-0.5545516988366842,1.1946154430031777,-0.24351503411382436
1782987802042542300,3.343542236328125,-0.9007225130438804,1.1729127297610045,-0.4426150263093412
1782987802052616400,3.353616455078125,-1.0416612620413304,1.1414876639276743,-0.6203972129270434
1782987802062691300,3.36369140625,-1.06081545984447,1.1047668297737836,-0.7237349839352071
1782987802072765400,3.373765380859375,-0.9494581946402788,1.0900316174566744,-0.7872228289835155
1782987802082840300,3.38384033203125,-0.6891185747146606,1.1308283227473497,-0.7868819065913557
1782987802092914400,3.39391455078125,-0.2889040356308222,1.1642577141404151,-0.7075847902536392
1782987802102989300,3.4039892578125,0.21189093857705593,1.1175567532420159,-0.5291121371537447
1782987802113063400,3.4140634765625,0.6824865893542766,1.0109054737716912,-0.30317192269712684
1782987802123138300,3.42413818359375,1.0718027178049088,0.8607914846718311,-0.12211129893064498
1782987802133212400,3.43421240234375,1.2918325391739607,0.739489748558402,0.004912175830453634
1782987802143287300,3.444287353515625,1.2805956903666258,0.6089817926824093,0.10154401945918798
1782987802153361400,3.454361328125,1.2498293807029723,0.48704585031867026,0.11618600053489207
1782987802163436300,3.464436279296875,1.3174398586392402,0.3610720307409763,0.11303951920270919
1782987802173510400,3.474510498046875,1.3397481365591286,0.217743171736598,0.10055296259522438
1782987802183585300,3.484585205078125,1.2521306433826684,0.11480126817822456,0.12323401935026049
1782987802193659400,3.494659423828125,1.1313286734849215,0.08158698084056377,0.24157222948297857
1782987802203734300,3.504734375,1.0803747313171626,0.02115384718775749,0.4151112255729735
1782987802213808400,3.514808349609375,1.0533429320067167,-0.06048632514476776,0.6358144161589443
1782987802223883300,3.52488330078125,0.9916390477657318,-0.12546411648988723,0.8319128884509205
1782987802233957400,3.534957275390625,0.8239975852817296,-0.15572715280652044,0.9221820651799439
1782987802244032300,3.5450322265625,0.6529927838444709,-0.18573124592602253,0.9229020500175654
1782987802254106400,3.5551064453125,0.5068646495103836,-0.27232641031742094,0.8538141930051147
1782987802264181200,3.56518115234375,0.35695641211569307,-0.3658481591016054,0.8063681128278374
1782987802274255400,3.57525537109375,0.2463163552701473,-0.3995411698669195,0.8173268753461539
1782987802284330500,3.58533056640625,0.13317980543375013,-0.3909393457382917,0.827529266539216
1782987802294404400,3.595404296875,0.10504442879557609,-0.3756517602354288,0.8513589088074862
1782987802304479500,3.6054794921875,0.13695640136301518,-0.4175385988503694,0.865585587080568
1782987802314553300,3.61555322265625,0.13674246635138987,-0.5032113876998424,0.8395430910684167
1782987802324628500,3.62562841796875,0.08842880955934523,-0.6156722302317619,0.7443446412436664
1782987802334702300,3.635702392578125,-0.08321604334712028,-0.7468769362002611,0.5984565992757678
1782987802344777500,3.645777587890625,-0.42698739519715306,-0.7977811940073967,0.41769583523869513
1782987802354851300,3.655851318359375,-0.8793822033733129,-0.7342559395581484,0.16634411614984274
1782987802364926500,3.665926513671875,-1.3096049272298813,-0.6447732370316982,-0.17215543277710676
1782987802375000300,3.676000244140625,-1.6071815141379833,-0.5382143120199442,-0.5128063145190477
1782987802385075500,3.686075439453125,-1.666646095019579,-0.46932606923282144,-0.8407628421217203
1782987802395149300,3.6961494140625,-1.6361989343076944,-0.4317307903319597,-1.0889880997531116
1782987802405224400,3.706224365234375,-1.6727344750225543,-0.4310895698189735,-1.277696754054725
1782987802415298300,3.71629833984375,-1.4657441679686307,-0.5790040030479431,-1.2089561030447482
1782987802425373400,3.72637353515625,-0.8066974909126758,-0.8661065422147511,-0.9158442404605448
1782987802435447300,3.736447265625,-0.14614508546888827,-1.23017658572793,-0.5705987244047224
1782987802445521400,3.746521484375,0.26566344529688357,-1.5378718310683965,-0.5515443337142467
1782987802455596300,3.75659619140625,0.1766138734906912,-1.5392875430852173,-1.0167259966187179
1782987802465671400,3.76667138671875,-0.575822450402379,-1.2591396453619002,-1.6194820466540754
1782987802475745300,3.776745361328125,-1.610454836720228,-0.9383709834367037,-2.0623428644180297
1782987802485819400,3.7868193359375,-2.533754507753253,-0.43506548771262166,-2.3590096430048346
1782987802495894300,3.796894287109375,-3.2516175309151407,0.2655909645825624,-2.532375620615482
1782987802505968400,3.806968505859375,-3.6648178083002567,0.8214899863749742,-2.437244829199463
1782987802516043300,3.817043212890625,-3.618610183876753,1.078180436143279,-2.1328988942869005
1782987802526117400,3.827117431640625,-3.141675393205881,1.177958322712779,-1.7996328620992599
1782987802536192500,3.837192626953125,-2.2845640583515165,1.234234921208024,-1.5789467687785625
1782987802546266400,3.847266357421875,-1.299689097893238,1.2508330047875642,-1.4551168293617665
1782987802556341500,3.857341552734375,-0.3990653690487146,1.204898352086544,-1.3560355467543006
1782987802566415400,3.867415283203125,0.23556232154369353,1.067747889456153,-1.207076865169406
1782987802576490500,3.877490478515625,0.5756126070439815,0.9462035767585039,-1.142692655803263
1782987802586564400,3.887564453125,0.7407944014161825,0.9014549189716577,-1.1858391390904783
1782987802596639500,3.897639404296875,0.774706607890129,0.9109633365511893,-1.3688159717418253
1782987802606713300,3.90771337890625,0.739873779439926,0.8687140943646431,-1.5267004487127065
1782987802616788500,3.91778857421875,0.6912362975209951,0.7839473144441843,-1.6321943748414516
1782987802626862300,3.9278623046875,0.6204974584311247,0.6848398744821548,-1.80139066555202
1782987802636937500,3.9379375,0.4337865538179874,0.6051677873522043,-1.967071203226596
1782987802647011300,3.94801123046875,0.21423311778903006,0.5347054271161555,-2.1616341365143654
1782987802657086500,3.95808642578125,0.18706921653151512,0.5195312388598918,-2.2193846069544554
1782987802667160300,3.968160400390625,0.3889402808755636,0.4759808509469032,-2.0786198993496594
1782987802677235500,3.9782353515625,0.8126298035711049,0.4264069649606943,-1.7562974321112035
1782987802687309300,3.988309326171875,1.2225520821988582,0.4065215302735567,-1.3891639093741774
1782987802697384400,3.998384521484375,1.5270868176817893,0.39202772549688814,-1.0899934774033724
1782987802707458300,4.008458251953125,1.609403281840682,0.3395739001601934,-0.7687137972161173
1782987802717533400,4.018533447265625,1.5274404534250496,0.2423252398073673,-0.5623069891385734
1782987802727607300,4.028607177734375,1.3986878167837857,0.19878361972272396,-0.5322992427572608
1782987802737682400,4.038682373046875,1.2793500742197037,0.1592196710973978,-0.605061988890171
1782987802747756300,4.04875634765625,1.1540034466296434,0.09315992973446846,-0.6586683452628552
1782987802757831400,4.05883154296875,1.0477730229198932,-0.02908113305568695,-0.6852944863818585
1782987802767905300,4.0689052734375,0.9588087913095951,-0.13373685479462147,-0.6844391847267747
1782987802777980400,4.07898046875,0.8552548933327198,-0.2542980016738176,-0.7328630238950252
1782987802788054300,4.08905419921875,0.7896767980068922,-0.407792865383625,-0.889383226775378
1782987802798129400,4.09912939453125,0.7894692927360534,-0.5103326178818941,-1.084060726353526
1782987802808203300,4.109203369140625,0.8274193764239549,-0.64482584400177,-1.269057374394685
1782987802818278400,4.1192783203125,1.002021325570345,-0.6773427967250347,-1.4586980488494037
1782987802828352300,4.129352294921875,0.959980173176527,-0.6644862377613783,-1.4740508085429667
1782987802838427400,4.139427490234375,0.5191080450117588,-0.6909691710174083,-1.4865604537650943
1782987802848501200,4.149501220703125,0.044263504618406294,-0.689149554374814,-1.5527585806854067
1782987802858576400,4.159576416015625,-0.2777010890930891,-0.5946095684587955,-1.6552254140779374
1782987802868650200,4.169650146484375,-0.40856911045312877,-0.4928168349355459,-1.6772233108744024
1782987802878724400,4.179724365234375,-0.3616027766168117,-0.5119020591557025,-1.5988579224288462
1782987802888799200,4.18979931640625,-0.1767436373502016,-0.6243564719468355,-1.4577670516096055
1782987802898873300,4.199873291015625,0.13996259744167328,-0.7835241205960511,-1.312310532926768
1782987802908948200,4.2099482421875,0.43397126273512837,-0.863676684719324,-1.1569168498583138
1782987802919022300,4.220022216796875,0.6338210503846406,-0.8960603664517403,-0.968002589982003
1782987802929097500,4.230097412109375,0.7072592115610837,-0.8849895218610763,-0.7616859444059431
1782987802939171300,4.24017138671875,0.6138350779324769,-0.8966057253748178,-0.6147955935277044
1782987802949246500,4.25024658203125,0.4098240789502859,-0.8587386437952518,-0.5428920945726334
1782987802959320300,4.2603203125,0.1507236454308033,-0.790906047540903,-0.48466436200961466
1782987802969395500,4.2703955078125,-0.2430225744217634,-0.7098655946671962,-0.4794644552789628
1782987802979469300,4.28046923828125,-0.637727410173416,-0.5946499004691839,-0.5880237603276968
1782987802989544400,4.29054443359375,-0.9128945968747139,-0.5614771141856908,-0.6132113930761813
1782987802999618300,4.300618408203125,-0.9403560197740792,-0.7854530428320169,-0.42830768401548264
1782987803009693400,4.310693359375,-0.5593780960798264,-1.085907231003046,-0.030101562144607304
1782987803019767300,4.320767333984375,-0.057900400304794306,-1.2903782487124205,0.24207579509094357
1782987803029843500,4.330843505859375,0.37103169921934603,-1.3816180240392684,0.27154651198610663
1782987803039917300,4.340917236328125,0.5245663104176521,-1.3948597829282283,-0.06992270040139556
1782987803049992400,4.350992431640625,0.17347206833362577,-1.362929690182209,-0.6290399535879493
1782987803060066300,4.36106640625,-0.6391542281061411,-1.2896096024274826,-1.048091148958355
1782987803070141400,4.371141357421875,-1.7125684727609156,-1.0619786584049462,-1.3515100321538747
1782987803080215300,4.38121533203125,-2.8097552226692435,-0.5425292526096105,-1.6012889489680528
1782987803090290400,4.39129052734375,-3.6975989649176597,0.12766980984061957,-1.7511438487403095
1782987803100364300,4.4013642578125,-4.130155684679746,0.6628314562916755,-1.7294637857213615
1782987803110439400,4.411439453125,-3.7478491427302356,0.9515160039529204,-1.4529785021588206
1782987803120513300,4.42151318359375,-2.7229168971717357,0.876314047974348,-0.9723325820103287
1782987803130588400,4.43158837890625,-1.4712030178964137,0.673955492374301,-0.5042943606309592
1782987803140662300,4.441662353515625,-0.23976971010565756,0.5046475579828024,-0.2438778760768473
1782987803150737400,4.4517373046875,0.701751261794567,0.39409284133315087,-0.033926819521188735
1782987803160811300,4.461811279296875,1.3284814771354199,0.3796761934459209,0.10526377063468098
1782987803170886400,4.471886474609375,1.5405448496699332,0.44358430973291396,0.11421601563617587
1782987803180960300,4.481960205078125,1.4386305355936289,0.5562134945690631,-0.004897855044156313
1782987803191035400,4.492035400390625,1.1793798799484967,0.7051777291119098,-0.23144494935274124
1782987803201109200,4.502109130859375,0.7418886263936758,0.8881377567589283,-0.41832799566239115
1782987803211184400,4.512184326171875,0.20403379533588886,1.0098217701882124,-0.5992484803058207
1782987803221258200,4.52225830078125,-0.36152328163981434,1.1221791523456572,-0.7572872710555791
1782987803231333400,4.53233349609375,-0.8556886085748672,1.234191958849132,-0.891614492958784
1782987803241407200,4.5424072265625,-1.1921095976620912,1.2817939602404833,-0.9406919737301767
1782987803251482400,4.552482421875,-1.277424659115076,1.2942679496273397,-0.9160461927734315
1782987803261556200,4.56255615234375,-1.0296154349386692,1.2871490575328468,-0.787002610361576
1782987803271631400,4.57263134765625,-0.5319628504097461,1.262525196146965,-0.6466496984280645
1782987803281705500,4.58270556640625,0.028205519264936446,1.2448311340242624,-0.47960430214107036
1782987803291780400,4.5927802734375,0.5468219813674688,1.229939854362607,-0.34265038499608635
1782987803301854500,4.6028544921875,0.9765046069979667,1.212449790379405,-0.24233298472240566
1782987803311928300,4.61292822265625,1.2836597541123629,1.1876093636333942,-0.21852803850397468
1782987803322003500,4.62300341796875,1.5300626186221837,1.1475088239133358,-0.14424042089134453
1782987803332077300,4.633077392578125,1.716027673304081,1.049496777972579,-0.07283975689187645
1782987803342152400,4.64315234375,1.7163304556429386,0.9236094676345586,-0.0075127137176692485
1782987803352226300,4.653226318359375,1.6139532002300023,0.8040683114528655,-0.06064896836057305
1782987803362301400,4.663301513671875,1.4471616325736045,0.7242617842882871,-0.21842545491233467
1782987803372375300,4.673375244140625,1.2403227166891098,0.682675974446535,-0.32877018207311626
1782987803382450400,4.683450439453125,1.0708569613873957,0.6072288115352392,-0.4148642650745809
1782987803392524300,4.693524169921875,0.9546154312729835,0.5072913504898547,-0.4642931896321475
1782987803402599400,4.703599365234375,0.8369289630472659,0.4353144940376282,-0.47794279866963624
1782987803412673300,4.71367333984375,0.6938204687952995,0.3628355332821607,-0.44215003914609546
1782987803422748400,4.72374853515625,0.5701479118973016,0.30738924813121554,-0.3603150748938322
1782987803432822300,4.733822265625,0.49566988627910613,0.27729835351109505,-0.277383255315572
1782987803442897400,4.7438974609375,0.4831961891531944,0.25686083789914843,-0.24264321971535682
1782987803452971300,4.75397119140625,0.48825230349898335,0.2122378523185849,-0.2563565416388213
1782987803463046400,4.76404638671875,0.34089667319655415,0.10153379032611846,-0.2558912622146308
1782987803473120300,4.774120361328125,0.07878770551085472,0.0020499182671308517,-0.35614334216713905
1782987803483195400,4.7841953125,-0.08778115930557251,-0.07407061386108398,-0.4154671994037926
1782987803493269200,4.794269287109375,-0.1464174726694822,-0.24409955600351094,-0.40378713687360285
1782987803503344400,4.804344482421875,-0.10507599297761916,-0.4446028391256928,-0.2952184794746339
1782987803513418200,4.814418212890625,-0.15412030213177202,-0.6517129731670022,-0.17669453751146794
1782987803523493400,4.824493408203125,-0.260384628111124,-0.8270490818068384,-0.11175722430720925
1782987803533567200,4.834567138671875,-0.429167661845684,-0.9675517774745821,-0.16071327065601945
1782987803543642400,4.844642333984375,-0.6835702929377555,-0.979350059556961,-0.32917291765511036
1782987803553716200,4.85471630859375,-0.9953320570647716,-0.8649997500166297,-0.5604676448822021
1782987803563791400,4.864791259765625,-1.2946055110186339,-0.7138751225695014,-0.7615997274272144
1782987803573865200,4.874865234375,-1.6030220563709734,-0.5754153309062123,-0.8956782352663576
1782987803583940400,4.8849404296875,-1.8915186802446842,-0.43445524685978887,-0.9583666735652834
1782987803594014200,4.89501416015625,-1.9695418311238289,-0.41396337071210143,-0.8472641868397593
1782987803604089300,4.90508935546875,-1.6230074443012474,-0.5857289273887872,-0.5517633832924068
1782987803614163200,4.9151630859375,-1.0799158816337584,-0.7402922971129416,-0.36808249402493237
1782987803624238300,4.92523828125,-0.7073790385484695,-0.834222918958962,-0.45442156476341183
1782987803634312200,4.935312255859375,-0.5808873325765133,-0.771554865860939,-0.7741825109507888
1782987803644387300,4.94538720703125,-0.6973831297129393,-0.5855237602055072,-1.223979192392528
1782987803654461200,4.955461181640625,-0.9292530264794826,-0.4091065783306956,-1.6029989677563308
1782987803664536300,4.965536376953125,-1.1619821704238653,-0.27121844907552,-2.0140508349359036
1782987803674610400,4.9756103515625,-1.3858511315643787,0.06210282043069601,-2.4930440194413066
1782987803684685300,4.985685302734375,-1.6920424020826816,0.4955865919098258,-2.7856241132363677
1782987803694759400,4.995759521484375,-2.0060791254043577,0.8496843997240066,-2.6184511450469494
1782987803704834300,5.005834228515625,-2.1185604262024165,1.1152832553520797,-2.0610022634640335
1782987803714908400,5.015908447265625,-1.8320055840462446,1.2600246115028857,-1.3673434149712322
1782987803724982300,5.025982177734375,-1.2359867333114147,1.306649292294681,-0.8181564580380916
1782987803735057400,5.036057373046875,-0.5311538721144199,1.2638818714529274,-0.4643992803551256
1782987803745131300,5.04613134765625,0.0042108956933021545,1.1003148188009857,-0.20792451916411517
1782987803755206400,5.056206298828125,0.2855763525128364,0.9236360633805394,-0.14034049084335565
1782987803765280300,5.0662802734375,0.3268786692380905,0.8815309058398008,-0.4094933856911957
1782987803775355400,5.07635546875,0.31544892820715903,0.8986535978153347,-0.9032102382063865
1782987803785429200,5.08642919921875,0.2838748092919588,0.826783124347031,-1.302953068125248
1782987803795504400,5.09650439453125,0.22019874819517135,0.703310473935306,-1.621404393018782
1782987803805578200,5.106578125,0.12401216411590575,0.6142363522097468,-1.849872518517822
1782987803815653400,5.1166533203125,0.04131459168493747,0.5239814962670206,-1.890435561183095
1782987803825727200,5.126727294921875,0.03574351355433464,0.45386634203344584,-1.7499207366861402
1782987803835802400,5.13680224609375,0.14134966788589953,0.401155327065289,-1.477228269535303
1782987803845876200,5.146876220703125,0.35431612673997875,0.37424189343750475,-1.1693030148312449
1782987803855951400,5.156951416015625,0.5441179831057786,0.41250732668489215,-0.8823138729110359
1782987803866025200,5.167025146484375,0.7897779202938079,0.4706695927962661,-0.6789955323681235
1782987803876100400,5.177100341796875,1.01889004278481,0.5266349333852529,-0.5575163938611746
1782987803886174200,5.18717431640625,1.1761252620667217,0.5544689889892935,-0.5416223668977618
1782987803896249300,5.197249267578125,1.173435876852274,0.5918053246930242,-0.5704385654069483
1782987803906323200,5.2073232421875,0.9071265348672867,0.6135296652451158,-0.6541328937903046
1782987803916398300,5.2173984375,0.49718847414851186,0.5899824931800365,-0.8588837513543665
1782987803926472200,5.22747216796875,0.2497673725068569,0.5250754289835691,-1.0645770043350755
1782987803936547300,5.23754736328125,0.11778642146885394,0.4058510836660862,-1.2142569859318435
1782987803946621200,5.24762109375,0.06143149704039096,0.28988252527415753,-1.1832685579501092
1782987803956696300,5.2576962890625,0.22835165951251982,0.2680021173775196,-1.0668052017785608
1782987803966770200,5.267770263671875,0.4347673815488815,0.1939785575285554,-0.9743423143975436
1782987803976845300,5.27784521484375,0.5629220522969961,0.049860886234045027,-0.8172951650336384
1782987803986919200,5.287919189453125,0.5683206964701414,-0.07943798611313105,-0.7786908552207052
1782987803996994300,5.297994384765625,0.5367956773936748,-0.15069032768309115,-0.8136269979149102
1782987804007068200,5.308068115234375,0.4874111764997244,-0.19082009349763393,-0.8647549814753234
1782987804017143300,5.318143310546875,0.44155426521003244,-0.22467530908733604,-0.9178083801403641
1782987804027216600,5.328216552734375,0.4174579348295927,-0.2954445433154702,-0.8969383183300494
1782987804037291800,5.338291748046875,0.3316454452484846,-0.3696905137434602,-0.7863214962296188
1782987804047365600,5.34836572265625,0.16024492249190805,-0.43472120431959627,-0.6448984708465635
1782987804057440800,5.358440673828125,-0.03050853551030159,-0.4316206079557538,-0.4951150288753211
1782987804067514600,5.3685146484375,-0.18812953923940656,-0.44394466747790573,-0.2821845181174576
1782987804077588700,5.378588623046875,-0.3287865486860275,-0.5176867800369859,-0.12125395144894718
1782987804087663600,5.38866357421875,-0.3571259234637022,-0.6527011074215173,-0.024618892949819563
1782987804097737700,5.39873779296875,-0.2697761413127184,-0.8554533385142683,-0.05750350994169712
1782987804107812600,5.4088125,-0.19002514372766016,-1.0027259667083621,-0.23880144959539173
1782987804117886700,5.41888671875,-0.11451368340849875,-1.019947735144198,-0.5498324152298272
1782987804127961900,5.4289619140625,-0.014513093999028205,-0.9612056233182549,-0.9182542242117225
1782987804138035700,5.43903564453125,0.043966567498445505,-0.8439964172154665,-1.1708883843265474
1782987804148110800,5.44911083984375,0.049154783791303634,-0.9019014936953782,-1.1468278559118508
1782987804158184700,5.459184814453125,0.23853636891841887,-1.1593597129657864,-0.8166494144760071
1782987804168259800,5.469259765625,0.580479336297512,-1.297229137520492,-0.5332748097911477
1782987804178333700,5.479333740234375,0.692133538621664,-1.2544564559817313,-0.6095670452244579
1782987804188408800,5.489408935546875,0.44061260044574735,-1.1485314449593425,-1.0200184622928499
1782987804198482700,5.499482666015625,-0.42309272584617136,-0.9587102993711829,-1.4139517291501165
1782987804208557800,5.509557861328125,-1.692619909709692,-0.7397074829623103,-1.6973508837543427
1782987804218631700,5.519631591796875,-2.928764463931322,-0.4046028371706605,-1.8852111045330762
1782987804228706800,5.529706787109375,-3.9239194108635185,0.04084814321696758,-2.0772383818633853
1782987804238780700,5.53978076171875,-4.212234248429537,0.603133651176095,-2.1666902508601544
1782987804248854800,5.549854736328125,-3.645221127426624,1.0389546334311366,-2.0367539573922753
1782987804258929700,5.5599296875,-2.4313269834578035,1.1244555728450416,-1.6053211270935832
1782987804269003800,5.570003662109375,-1.0706114621937275,0.8607593359678983,-1.0060042577266692
1782987804279078700,5.58007861328125,0.050559389892220495,0.5522323159784078,-0.5195800464376807
1782987804289152800,5.59015283203125,0.8333096035063267,0.35585400383174415,-0.26816534511521456
1782987804299227600,5.6002275390625,1.2835837662667036,0.28208091161251064,-0.252113351111114
1782987804309301800,5.6103017578125,1.431203600463271,0.3196224144995212,-0.3951142933353781
1782987804319376600,5.620376708984375,1.276952949950099,0.4290250385046005,-0.6369803911983967
1782987804329450800,5.63045068359375,0.8886170647084712,0.6111234808862209,-0.8958828179277479
1782987804339525600,5.640525634765625,0.3843167127281427,0.7804127105772495,-1.1071373582974076
1782987804349599700,5.650599853515625,-0.2078746886730194,0.9051344842672348,-1.2025652329638599
1782987804359674600,5.660674560546875,-0.6654758333206177,1.0161591565161943,-1.2396319579459727
1782987804369748700,5.670748779296875,-0.8595552208751439,1.0949626441180704,-1.243094373359531
1782987804379823600,5.68082373046875,-0.9088701636642217,1.12724695712924,-1.1181100032106042
1782987804389897700,5.690897705078125,-0.9200397924542426,1.1338038314267993,-0.9889037775829433
1782987804399972600,5.70097265625,-0.8148205916136503,1.1918716972529888,-0.8779834424912929
1782987804410046700,5.711046630859375,-0.6087643505394459,1.2477610499963163,-0.8280972756855189
1782987804420121600,5.72112158203125,-0.3486678917199373,1.317151104825735,-0.7128348197363317
1782987804430195700,5.73119580078125,-0.07196808862388133,1.3661162112638354,-0.6183063781276344
1782987804440270600,5.7412705078125,0.21773148129880426,1.448272516424954,-0.4959770525321364
1782987804450344700,5.7513447265625,0.4833446577131748,1.472173908755183,-0.31765725190639493
1782987804460419600,5.761419677734375,0.6845861919820309,1.4076377236977218,-0.17182517790943383
1782987804470493700,5.77149365234375,0.8786421986609697,1.3165443711042404,-0.0938704160913825
1782987804480568600,5.781568603515625,1.059368183645606,1.1731117594644427,-0.11805559379905461
1782987804490642700,5.791642578125,1.1572048730194568,0.9925450566947459,-0.08879764287173747
1782987804500717800,5.8017177734375,0.9615987142890691,0.8243620346799493,-0.0834754249356687
1782987804510791700,5.811791748046875,0.5288952795326709,0.7629089103296399,-0.15787322492450476
1782987804520866800,5.82186669921875,0.11773322997689246,0.7594991018861532,-0.3050396162651479
1782987804530940700,5.831940673828125,-0.20556816529631614,0.7719467877879739,-0.475832090125978
1782987804541015800,5.842015869140625,-0.3745464293420315,0.7427806067973375,-0.5547646109350025
1782987804551089700,5.852089599609375,-0.4899848263800144,0.607227350230515,-0.5610064279340208
1782987804561164800,5.862164794921875,-0.4282698362231254,0.4545069780245423,-0.5851216091454029
1782987804571238700,5.87223876953125,-0.1833709465354681,0.3774947577536106,-0.6020484862878919
1782987804581313800,5.882313720703125,0.10534136591553687,0.23888094457238912,-0.5071608559779822
1782987804591387600,5.8923876953125,0.3820522749274969,0.09636427873373031,-0.3840301508717239
1782987804601462800,5.902462890625,0.6395557946443557,-0.03888736453801393,-0.33533392450287935
1782987804611536600,5.91253662109375,0.7370680743694304,-0.18915362159013746,-0.2816863593369722
1782987804621611800,5.92261181640625,0.6037158349782228,-0.29629063875079154,-0.23995573419705032
1782987804631685600,5.932685546875,0.3209662303239107,-0.3565913781955838,-0.21709026078581808
1782987804641760000,5.942760009765625,0.021620880177617072,-0.36014059510976076,-0.15583105157241225
1782987804651834600,5.952834716796875,-0.27184359523653984,-0.39786505334824324,-0.05489917266219854
1782987804661909000,5.962908935546875,-0.5391892945319414,-0.41588761677294966,0.015602935062348841
1782987804671983600,5.972983642578125,-0.7958750681251286,-0.3516691193625331,0.014172463867813349
1782987804682058000,5.98305810546875,-0.9973188469678163,-0.25997838539779183,-0.058281800837814805
1782987804692132600,5.993132568359375,-1.1323597700983286,-0.16639409277141093,-0.16292276339903472
1782987804702207000,6.00320703125,-1.2600158436745403,-0.09474369179457426,-0.24798648043945432
1782987804712281600,6.013281494140625,-1.2354787837892771,-0.04228343671709299,-0.30939547338709233
1782987804722356000,6.02335595703125,-1.0879472123980523,-0.09053630323261022,-0.20807240320220588
1782987804732430600,6.0334306640625,-0.7963070298016071,-0.3431681252598762,0.1853071752950549
1782987804742505000,6.0435048828125,-0.30304245109856126,-0.636063860875368,0.6037504679001867
1782987804752579600,6.05357958984375,0.03585691080093384,-0.7451470436677337,0.6693648035831748
1782987804762654000,6.063654052734375,-0.04312894763052463,-0.6363324486836791,0.22658903375416992
1782987804772728600,6.073728515625,-0.6100058750331402,-0.3395285997137427,-0.4596373266503215
1782987804782803000,6.083802978515625,-1.3990291775673627,-0.04111877685189247,-1.077923246511817
1782987804792877600,6.093877685546875,-2.085125189590454,0.431055083027482,-1.6097192159220575
1782987804802952000,6.103951904296875,-2.5808260555297133,0.84049308526963,-1.9114196047618983
1782987804813026600,6.114026611328125,-2.64446646079123,1.016004842737317,-1.882634239782393
1782987804823101000,6.124100830078125,-2.1887854705512524,0.9651242580667138,-1.5168904178380966
1782987804833175600,6.134175537109375,-1.3204028000980614,0.7145020222961902,-0.964089800452441
1782987804843250000,6.14425,-0.4149398145288229,0.4050134637981653,-0.45221462930366396
1782987804853324500,6.154324462890625,0.2554173610925674,0.06620090339928865,0.07102123622782527
1782987804863399000,6.16439892578125,0.6537000553309917,-0.11087971082031726,0.33237755891531706
1782987804873473500,6.1744736328125,0.645062575367093,-0.042943946452438826,0.141957716781646
1782987804883548000,6.1845478515625,0.2881348048239946,0.16367138980925083,-0.39932226641923185
1782987804893622800,6.194622802734375,-0.18428689233660697,0.3546370292574167,-0.8743635714937001
1782987804903697000,6.20469677734375,-0.646868163484335,0.4903077747240662,-1.2169533123437315
1782987804913771800,6.214771728515625,-0.9894120193660259,0.5768783891960978,-1.4196099010422825
1782987804923846000,6.224845947265625,-1.1414368105232715,0.6170058169230819,-1.4532991124153136
1782987804933920800,6.234920654296875,-0.9652391166180372,0.5384156798109412,-1.2736825499773026
1782987804943995000,6.244994873046875,-0.48020460612177845,0.42239948288500306,-0.9304931627336889
1782987804954069800,6.25506982421875,0.12717033588588236,0.2974962151482701,-0.6369773224584758
1782987804964143900,6.265143798828125,0.8048620921790599,0.27283991279751063,-0.3908127967491746
1782987804974218800,6.27521875,1.4155501042574643,0.2548182261556387,-0.14765709746703504
1782987804984292900,6.28529296875,1.9050462703377007,0.21516279985457656,0.060161842430755494
1782987804994366700,6.29536669921875,2.2822663028031585,0.1832116643205285,0.19131730243004857
1782987805004441900,6.30544189453125,2.5148867256760594,0.12112491824179887,0.2896295003611594
1782987805014516000,6.315515869140625,2.5609844599843026,0.02540799750089645,0.29010742007121443
1782987805024590800,6.3255908203125,2.4289941565960644,-0.07508709742724895,0.22194230392687023
1782987805034665200,6.335665283203125,2.098241860795021,-0.15917057125866413,0.10869885964989662
1782987805044739800,6.34573974609375,1.615516796284914,-0.2771919705271721,0.004401669025048613
1782987805054814200,6.355814208984375,1.189786123150587,-0.3172060010075569,-0.07991071819141507
1782987805064888800,6.365888916015625,0.8396838147133588,-0.3405956444233656,-0.13474142872728406
1782987805074963200,6.375963134765625,0.5120312384933233,-0.42576077601164575,-0.14571063957437871
1782987805085037800,6.386037841796875,0.12754092276394366,-0.5239519779115915,-0.15701602357327937
1782987805095112200,6.3961123046875,-0.3390180198431015,-0.6062210957974196,-0.13435717865005134
1782987805105186800,6.406186767578125,-0.8160656232386827,-0.5631619985327124,-0.10803023967333138
1782987805115261200,6.41626123046875,-1.1927999180138111,-0.46832098384350535,-0.05347272005565464
1782987805125335800,6.426335693359375,-1.366290691047907,-0.3486798744186759,-0.0111659755282104
1782987805135410200,6.43641015625,-1.3119956217586994,-0.2822863710567355,0.03187536688409746
1782987805145484800,6.44648486328125,-1.1105512583941222,-0.2569762809723615,0.015846534559875725
1782987805155559200,6.45655908203125,-0.8059750218570232,-0.30215514687001704,-0.06877038856111467
1782987805165633800,6.4666337890625,-0.4191518792659044,-0.33407530274391173,-0.19659327007159588
1782987805175708200,6.476708251953125,-0.017918518528342246,-0.37331104232817885,-0.2807536815967411
1782987805185782800,6.48678271484375,0.3396966497570276,-0.4146200810551643,-0.24585012599788605
1782987805195857200,6.496857177734375,0.6314648426473141,-0.44350773736536503,-0.14723383055366576
1782987805205931800,6.506931884765625,0.8905927486956119,-0.469793102222681,0.023016499254480002
1782987805216006100,6.517006103515625,1.0140928716361521,-0.5184744232833385,0.2159082113943994
1782987805226080800,6.527080810546875,1.0769207914710044,-0.5853951653897762,0.36319362600482996
1782987805236155100,6.537155029296875,1.143494912096858,-0.6349105991870164,0.3872343537405133
1782987805246230000,6.54722998046875,1.1945534836828708,-0.668744479727745,0.3456022936042398
1782987805256304000,6.55730419921875,1.2040186466425657,-0.6316191564261913,0.2772072411615401
1782987805266379000,6.56737890625,1.119068911370635,-0.5537000504434109,0.22852409346997737
1782987805276453000,6.577453125,1.0672662434190512,-0.6111725807249546,0.40717392976768313
1782987805286528000,6.587528076171875,1.1908534601211547,-0.8886322622776031,0.92068831949085
1782987805296602000,6.59760205078125,1.5331769512504339,-1.0792495266795157,1.3741381896778941
1782987805306677000,6.607677001953125,1.94756965329051,-1.2858704158991574,1.5258507000155745
1782987805316751000,6.617751220703125,2.1341402726501224,-1.5121289025247096,1.4108011561647056
1782987805326826000,6.627825927734375,1.7107359966367481,-1.5444272440612314,1.0680666000165044
1782987805336900000,6.637900146484375,0.7372942843407392,-1.2223404852747917,0.6147238434657454
1782987805346975000,6.64797509765625,-0.601559533727169,-0.777854842787981,-0.056891077131777996
1782987805357049000,6.658049072265625,-1.9621260019093751,-0.15944821915626525,-0.8008869780030101
1782987805367124000,6.6681240234375,-2.913859155744314,0.5787555812448263,-1.4246053712420164
1782987805377198000,6.678197998046875,-3.1945956670105455,1.2091828975379466,-1.6820438628986476
1782987805387273000,6.68827294921875,-2.8474744202107187,1.4728846873730421,-1.3730917493648827
1782987805397347000,6.69834716796875,-2.0332570551872253,1.349137896195054,-0.40592710804436355
1782987805407422000,6.708421875,-1.072455044233799,1.1559656866133212,0.5663081876039505
1782987805417496000,6.71849609375,-0.0993541081994772,0.9707704472601413,1.354343063622713
1782987805427571000,6.728571044921875,0.7993710935473441,0.7515560339272022,1.9283761463902889
1782987805437645000,6.73864501953125,1.485359553542733,0.5020867675840854,2.2180602264828977
1782987805447719200,6.74871923828125,1.8244231660932302,0.23856734857857226,2.334367661440372
1782987805457794000,6.7587939453125,1.796030599823594,0.023706454280018805,2.2993536312043665
1782987805467868200,6.7688681640625,1.4482289695441721,-0.04030219977200031,2.0930977759048344
1782987805477943000,6.778943115234375,0.8820441160589456,0.07275602413117885,1.7431934742577373
1782987805488017200,6.78901708984375,0.08464987554252147,0.25718378624320026,1.3404771814860403
1782987805498092000,6.799092041015625,-0.7767050882309675,0.5007514273270964,0.9158594380296766
1782987805508166100,6.809166259765625,-1.6128630669057369,0.7393205294713378,0.5488006610292941
1782987805518241000,6.819240966796875,-2.248324285712838,0.9638380176484584,0.23607706613279877
1782987805528315100,6.829315185546875,-2.4785522604912518,1.1886959898263216,0.08127970498967915
1782987805538390000,6.83939013671875,-2.2665502627551555,1.3114470479652285,0.18942509547527878
1782987805548464000,6.849464111328125,-1.5849924786835907,1.2829130273982883,0.5098057079309597
1782987805558539000,6.8595390625,-0.5586982971221208,1.169371988414228,0.8664795402456075
1782987805568613000,6.869613037109375,0.5234674092650413,1.0239037792935968,1.0967103645682335
1782987805578688000,6.87968798828125,1.4935533813923596,0.8586366447255015,1.2358398721866308
1782987805588762000,6.88976220703125,2.3509353498816488,0.6453057364732027,1.3312903970763086
1782987805598837000,6.8998369140625,3.0802029796332118,0.48255672220587725,1.4273020629800854
1782987805608911000,6.9099111328125,3.5790947505682706,0.31393735460042954,1.5520917873397468
1782987805618986000,6.919986083984375,3.7618496110320088,0.16930033560693264,1.7289838932499288
1782987805629060000,6.93006005859375,3.5725627184510227,0.07546645213365555,1.7917958848632871
1782987805639135200,6.94013525390625,2.957597175183892,0.040276773069798946,1.7147319344051182
1782987805649209000,6.950208984375,2.1700100429326294,0.06048194123059511,1.5462186575226484
1782987805659284200,6.9602841796875,1.371508717957139,0.05215864178240299,1.2728750329867005
1782987805669358000,6.970358154296875,0.7303525023788213,-0.02423427754640579,0.9964362189143896
1782987805679433200,6.98043310546875,0.21633973467946052,-0.17248831799328326,0.7961801154863088
1782987805689507000,6.990507080078125,-0.14097908100783824,-0.34449206734001636,0.6536986670915037
1782987805699582200,7.000582275390625,-0.3991220676720142,-0.5149190688893198,0.5584441762305796
1782987805709656000,7.010656005859375,-0.4805681787371635,-0.7001821127817034,0.5073556478977203
1782987805719731200,7.020731201171875,-0.3892290346890688,-0.8334004966601729,0.5237650770373642
1782987805729805000,7.03080517578125,-0.225098795196414,-0.9558274374112486,0.5815369190590456
1782987805739880200,7.040880126953125,-0.12068506551980972,-1.0200380437761545,0.6986166170306504
1782987805749954000,7.0509541015625,-0.12357669530808925,-1.0747963466629384,0.7734820345312357
1782987805760029200,7.061029296875,-0.25416765329241753,-1.1244582031935453,0.7502239816058427
1782987805770103000,7.07110302734375,-0.48848669677674766,-1.102917987036705,0.6717563018295913
1782987805780178200,7.08117822265625,-0.7680968343615532,-1.1087658362820745,0.4834361353889107
1782987805790252000,7.091251953125,-1.0639309615164994,-1.1380837007030844,0.29000781388795
1782987805800327200,7.1013271484375,-1.3490163156419992,-1.1471528500825166,0.11599687117096036
1782987805810401000,7.111401123046875,-1.7286872483909128,-1.0793716917544602,-0.05207870841398835
1782987805820475100,7.12147509765625,-1.8922768051356076,-0.9621084173768758,-0.149681059309002
1782987805830550000,7.131550048828125,-1.7724334511369466,-0.8350523555204272,-0.17075879078693687
1782987805840624000,7.1416240234375,-1.4531319391548632,-0.7416352361544967,-0.14205699417134746
1782987805850699000,7.151698974609375,-1.036782842350006,-0.674960577763617,-0.07469139437424019
1782987805860773000,7.161773193359375,-0.6957844623446464,-0.5775874142482876,-0.0033719058522023258
1782987805870848000,7.171847900390625,-0.49778117934465405,-0.555176844997704,0.10184555968903004
1782987805880922000,7.181922119140625,-0.1369815358042717,-0.7115826277181506,0.24448968783225863
1782987805890997000,7.1919970703125,0.49380058527588844,-0.7678238626390695,0.3020166517147794
1782987805901071000,7.202071044921875,0.9859960734426975,-0.8254600590497255,0.3380432565268129
1782987805911146000,7.21214599609375,1.1063432853102684,-0.8865054793819784,0.31151199061702933
1782987805921220000,7.22222021484375,0.8918407029300928,-0.8604170984014868,0.08137545698173344
1782987805931295000,7.232294921875,0.5751122563064098,-0.7308508072897791,-0.24144626501575112
1782987805941369000,7.242369140625,0.2695347337722778,-0.5795327030971646,-0.5069131282946094
1782987805951444000,7.25244384765625,0.003619359540939331,-0.38851942511498927,-0.6788067317977547
1782987805961518000,7.26251806640625,-0.2717196765959263,-0.1719350680246949,-0.7430885767679661
1782987805971593000,7.272593017578125,-0.5443254883766174,0.0067132339030504225,-0.6294809022884815
1782987805981667000,7.2826669921875,-0.7089817975699901,0.09716302789598703,-0.3904234321054071
1782987805991742000,7.292741943359375,-0.8101444164961576,0.17668050898611545,-0.2016862092964351
1782987806001816000,7.302816162109375,-0.8335165242552757,0.3154226247221231,-0.09063282240964472
1782987806011891200,7.31289111328125,-0.7603489967137574,0.5015475461408495,-0.04863083298243582
1782987806021965000,7.322965087890625,-0.732248106867075,0.7289131172254681,0.02436389527544379
1782987806032039400,7.333039306640625,-0.8390694822072983,0.9153975196063519,0.14130239467807112
1782987806042113500,7.343113525390625,-0.9471680378764867,1.081317565125227,0.24611696024052798
1782987806052188400,7.3531884765625,-0.9583008417874574,1.200685118305683,0.35303302812688053
1782987806062262500,7.363262451171875,-0.9102443746268749,1.2290025735124945,0.4311812666904181
1782987806072337700,7.373337646484375,-0.8982663520634174,1.223229543069005,0.4386741797290742
1782987806082411500,7.38341162109375,-0.7939420542359351,1.2306395270645618,0.3976159739580005
1782987806092486700,7.393486572265625,-0.5907739358186721,1.1957014846742153,0.304761018519476
1782987806102560500,7.403560546875,-0.3313105142056942,1.0865174718558788,0.1577743676599115
1782987806112635600,7.4136357421875,0.0024912322938442227,0.9466463520899414,-0.024394948000833392
1782987806122709500,7.42370947265625,0.36034839264154434,0.8279176813349127,-0.1425335439082235
1782987806132784600,7.43378466796875,0.6504103661358356,0.7407029237404466,-0.20543818224109708
1782987806142858500,7.4438583984375,0.8492121060371398,0.662487465159595,-0.2554098353732377
1782987806152933600,7.45393359375,0.9473720360159873,0.5727057796865701,-0.32044454453736543
1782987806163007500,7.464007568359375,0.9943681804686784,0.4994961665689945,-0.3552838027283549
1782987806173082600,7.47408251953125,1.0709341182768344,0.45628743170052766,-0.3675521865405142
1782987806183156500,7.484156494140625,1.2032044076502322,0.4101119559809565,-0.3066661945536733
1782987806193230600,7.494230712890625,1.2920605027109384,0.3676107848599553,-0.2311342759683728
1782987806203305500,7.504305419921875,1.2897177389770746,0.34787557229846716,-0.11593114899098872
1782987806213379600,7.514379638671875,1.2499673278689383,0.34951574072092767,-0.007115092702209949
1782987806223454500,7.524454345703125,1.2538280949503182,0.3334095323115587,0.11219985350817441
1782987806233528600,7.534528564453125,1.2543500729978083,0.28345862970650193,0.178448906898126
1782987806243603500,7.544603515625,1.2328887672960758,0.23029957870990037,0.23620529562234877
1782987806253677600,7.554677490234375,1.2011772857367993,0.16676964808553457,0.205240613842383
1782987806263752400,7.56475244140625,1.127472582578659,0.12499766802191734,0.15091967945955692
1782987806273826600,7.57482666015625,1.0621353102713822,0.04208616057932377,0.06676504008807242
1782987806283901400,7.5849013671875,1.0203636224687098,-0.0714791360631585,-0.024117592364177105
1782987806293975600,7.5949755859375,0.9943348627209663,-0.17621581408381462,-0.07860409257225692
1782987806304050400,7.605050537109375,0.9817641349613666,-0.24047318219989536,-0.11408237931914626
1782987806314124500,7.61512451171875,0.9564689501851796,-0.27670915544629093,-0.0712461310248822
1782987806324199400,7.625199462890625,0.852013134932518,-0.3163040837317705,0.04929119658730924
1782987806334273500,7.6352734375,0.6695487818479537,-0.3069242609679699,0.1855765668209642
1782987806344348400,7.645348388671875,0.4798509703785181,-0.32773820867687464,0.229157496002689
1782987806354422500,7.655422607421875,0.29122341848909855,-0.3936033042505383,0.2387559299532324
1782987806364497400,7.665497314453125,0.15859598624110222,-0.46704234220981594,0.2139159415986389
1782987806374571500,7.675571533203125,0.056526773864030835,-0.5223644164592027,0.16249613548479974
1782987806384646400,7.685646484375,0.006838906109333038,-0.5655360341876745,0.11968889408931135
1782987806394720500,7.695720458984375,0.027143442991375923,-0.6557485122933984,0.0763978146996349
1782987806404795400,7.70579541015625,0.04592062417566776,-0.7552250778287649,0.057278688209876416
1782987806414869500,7.715869384765625,0.038215456625819204,-0.8734747328951954,0.09574753507487475
1782987806424944400,7.7259443359375,0.06951543477475643,-0.9681909521609544,0.22358561415448783
1782987806435018500,7.7360185546875,0.1242103170365095,-1.0655462877586483,0.3306269158557057
1782987806445093400,7.74609326171875,0.17017828748524189,-1.1559712395712733,0.36842765420079227
1782987806455167500,7.75616748046875,0.120419692581892,-1.224736440500617,0.3885635565176606
1782987806465242600,7.76624267578125,-0.07700432922542094,-1.1599474497258662,0.35376981796883045
1782987806475316500,7.77631640625,-0.3333370515972376,-1.003850879085064,0.24924451767653225
1782987806485391600,7.7863916015625,-0.4809299977868795,-0.9491302778601646,0.16524061188735067
1782987806495465500,7.796465576171875,-0.33574002108573914,-1.2381287137761712,0.42509222910031674
1782987806505540600,7.80654052734375,0.06677928780913353,-1.5606851359009741,0.8107346374742687
1782987806515614500,7.816614501953125,0.29218904865086076,-1.7383672231450675,0.8839739150777458
1782987806525689600,7.826689697265625,0.217538004553318,-1.7265259787037968,0.49802624014690516
1782987806535763500,7.836763427734375,-0.3976712843418121,-1.5380673536404967,-0.01017879112176597
1782987806545837300,7.84683740234375,-1.3895248516410588,-1.2244330736398696,-0.35480106071271
1782987806555912400,7.856912353515625,-2.5638784278601405,-0.8462959263294935,-0.615938406887278
1782987806565987600,7.866987548828125,-3.8491345112532374,-0.3530547285020351,-0.9241099645026027
1782987806576061400,7.8770615234375,-4.623980235353112,0.19857932932227848,-1.0831386430725454
1782987806586135600,7.887135498046875,-4.510357363304496,0.6391013288751244,-1.0530812853958458
1782987806596210400,7.89721044921875,-3.42489729154706,0.7826976066440343,-0.7864637542445212
1782987806606284500,7.907284423828125,-1.8659803343623875,0.6126131349220871,-0.4034687185741961
1782987806616359400,7.917359375,-0.42930619353353977,0.38264819499403235,-0.08779548009186983
1782987806626433500,7.92743359375,0.6283639540225266,0.24471125816106795,0.01800853489935398
1782987806636508400,7.93750830078125,1.3841472502559422,0.1805053279712796,-0.0325831498272717
1782987806646582500,7.94758251953125,1.7399422173768282,0.1949716602191329,-0.1477836464561522
1782987806656657400,7.957657470703125,1.8156646900981663,0.2999614362180233,-0.2481175594732165
1782987806666731500,7.9677314453125,1.6413877351224422,0.4788885550871491,-0.3250314339362085
1782987806676806400,7.977806396484375,1.2800474088340996,0.6615417087420821,-0.4218346886090934
1782987806686880500,7.987880615234375,0.8605997614920139,0.8346952126458287,-0.5350638851650059
1782987806696955400,7.997955322265625,0.5173398662954568,0.9709767834872007,-0.6393827761650085
1782987806707029500,8.008029541015626,0.2513309685617685,1.0339885354563594,-0.6483401357330382
1782987806717104400,8.0181044921875,0.024683190357685087,0.9977636681258678,-0.5759815864868462
1782987806727178500,8.028178466796875,-0.12614683805704116,0.9678823246031999,-0.43603740148469805
1782987806737253400,8.03825341796875,-0.13739245469272135,0.975319781127572,-0.28329788618683815
1782987806747327500,8.048327392578125,-0.05749065046012401,0.9695411977261305,-0.13435498669296503
1782987806757402400,8.05840234375,0.050149640047550195,0.9794605341941117,-0.06049523910358548
1782987806767476500,8.0684765625,0.18882395124435425,0.9977399949893355,-0.02349135022461414
1782987806777551400,8.07855126953125,0.3461439262002706,0.9933791694313288,-0.01177402442395687
1782987806787625500,8.08862548828125,0.4833224458813667,1.0121528434842824,-0.0025004385136067867
1782987806797700400,8.098700439453125,0.585721913126111,1.0107654807791113,-0.02274900742471218
1782987806807774500,8.1087744140625,0.6393336763262748,0.9319672538742423,-0.03946326472982764
1782987806817849300,8.118849365234375,0.7136392679870128,0.8100023776769638,-0.1353107530478388
1782987806827923500,8.12892333984375,0.7862894936561584,0.6411909946307539,-0.21946904568113385
1782987806837998600,8.13899853515625,0.9010323096454143,0.5178098218947649,-0.19379275263287127
1782987806848072400,8.149072509765626,1.0180167670816183,0.4397399092644453,-0.12330839976072311
1782987806858147600,8.159147705078125,1.0748299566715955,0.4055655447229743,-0.0041288434330374
1782987806868221400,8.169221435546875,1.0943009653389453,0.3779726043984294,0.05828611168675124
1782987806878296600,8.179296630859374,1.1264911703258753,0.3250166747584939,0.11870075983479618
1782987806888370400,8.189370361328125,1.171097204771638,0.24126491709947584,0.17206198233999312
1782987806898445600,8.199445556640624,1.2172720959693193,0.13854016342312098,0.24161248842813074
1782987806908519400,8.20951953125,1.2433569698184728,0.01575637205839157,0.22993023394085466
1782987806918594600,8.219594482421876,1.223154724267125,-0.08809095590710639,0.1413340319253504
1782987806928668400,8.22966845703125,1.2052110712975264,-0.22143471973091364,0.062322527595981954
1782987806938742300,8.2397421875,1.1518933226078747,-0.37504385747015473,0.019406418998539447
1782987806948817400,8.2498173828125,0.9794178640961646,-0.47398061704039574,-0.021417612690478562
1782987806958891300,8.259891357421875,0.5727864437073469,-0.4823939328595996,-0.08745316946022212
1782987806968966400,8.26996630859375,0.06915770737826823,-0.4661980003401637,-0.14400347033031283
1782987806979040500,8.28004052734375,-0.361669412112236,-0.4139814908906817,-0.1547601344052702
1782987806989115400,8.290115478515625,-0.7228530865341425,-0.39502690731287,-0.09818689105100929
1782987806999189500,8.300189453125,-1.0526631330490113,-0.36396979800909757,-0.03995930461846292
1782987807009264400,8.310264404296875,-1.33752636885643,-0.34690409691780805,-0.05996252046637237
1782987807019338500,8.32033837890625,-1.5073971978276968,-0.3221279675796628,-0.10576974739544093
1782987807029413400,8.330413330078125,-1.506535028040409,-0.3028840456664562,-0.1842822161614895
1782987807039487500,8.340487548828126,-1.3995055629074573,-0.2863543511480093,-0.27065599288716913
1782987807049562400,8.350562255859375,-1.2999649922251701,-0.26331658990979195,-0.3296938727892935
1782987807059636500,8.360636474609375,-1.2394967872589826,-0.1939537153482437,-0.36830936158336697
1782987807069711400,8.37071142578125,-1.203783084321022,-0.1473798879608512,-0.3308843977481127
1782987807079785500,8.380785400390625,-0.9916308644592762,-0.3066802230790257,-0.04199358692504465
1782987807089860400,8.3908603515625,-0.428071098780632,-0.5094084887742996,0.3726614923782646
1782987807099934500,8.4009345703125,0.05699906755089759,-0.6076210257232189,0.6114047089803963
1782987807110009600,8.411009521484376,0.24299977806806564,-0.6204881060808897,0.5977165214981883
1782987807120083500,8.42108349609375,0.05510521662831306,-0.483286497785151,0.37367483413927255
1782987807130158600,8.43115869140625,-0.44324294894933697,-0.3497323060810566,0.07111110646836459
1782987807140232400,8.441232421875,-0.8987222791373729,-0.2795563615709543,-0.14701229675747454
1782987807150307600,8.4513076171875,-1.2444640542775391,-0.1621820280343294,-0.3552991464279592
1782987807160381400,8.46138134765625,-1.4819383469223975,0.08833090214282274,-0.5287492221254855
1782987807170456600,8.47145654296875,-1.8095523446977138,0.3674985566571355,-0.679288231704384
1782987807180530400,8.481530517578125,-2.1422125199466944,0.6490364474341273,-0.7741616142932325
1782987807190605600,8.49160546875,-2.2899732239186763,0.8702844124212861,-0.7747481089442968
1782987807200679400,8.501679443359375,-1.9430314253389833,0.9323357949256896,-0.6318365255039184
1782987807210754600,8.511754638671874,-1.1154776088804006,0.8599854289859533,-0.3311886413916945
1782987807220828400,8.521828369140625,-0.16970482475459575,0.6949868822261691,0.0008272446043789386
1782987807230903600,8.531903564453126,0.6012456454724073,0.5878817215085029,0.28215039665214714
1782987807240977400,8.541977294921875,1.122244618797302,0.4882365214079618,0.390067823600769
1782987807251052500,8.552052490234376,1.3059352988064288,0.3802499016806483,0.294908317546919
1782987807261126400,8.56212646484375,1.158676114615798,0.30719635590761896,0.06354015975743532
1782987807271201500,8.572201416015625,0.8351385724991559,0.2805108858168125,-0.20309498011581598
1782987807281275400,8.582275390625,0.5042535902291536,0.30615123076885936,-0.410420583538711
1782987807291349800,8.592349853515625,0.20212299327850342,0.3387643373429775,-0.5173544062774628
1782987807301424400,8.60242431640625,0.0945481692224741,0.37627164569944144,-0.4157173017073422
1782987807311499500,8.61249951171875,0.1798240677088499,0.3821151110306382,-0.17219050409048794
1782987807321573400,8.622573486328125,0.5150035323023796,0.373881535692513,0.16029256102591752
1782987807331647700,8.632647705078124,0.9789876559853553,0.33667116445600986,0.49297187936678527
1782987807341722400,8.642722412109375,1.4304068971276283,0.2526344523757696,0.7313624100737274
1782987807351796700,8.652796630859376,1.7875076861500738,0.12586392946243286,0.898692176260054
1782987807361871400,8.662871337890625,1.9856313806593417,-0.04786942015588283,0.9928431628584862
1782987807371945700,8.67294580078125,2.025648918271065,-0.166356683370471,0.9857676715143024
1782987807382020400,8.683020263671875,1.8665543348580598,-0.21022709701806305,0.9273678703200071
1782987807392094700,8.6930947265625,1.4935715015709399,-0.13847440471053124,0.8853585743691772
1782987807402169300,8.70316943359375,1.0531675754398107,-0.0047153380841016765,0.9296183526605367
1782987807412243700,8.71324365234375,0.6656085197895765,0.0951686392083764,1.0256192049093544
1782987807422318300,8.723318359375,0.3554612051218748,0.12342208926826714,1.1030578338988124
1782987807432392700,8.733392822265625,0.0954670376330614,0.11991320436447858,1.0861526571314781
1782987807442467300,8.74346728515625,-0.10366203452646731,0.08742313964813947,0.9853604058876633
1782987807452541700,8.753541748046874,-0.2123275764286518,0.04667787228375673,0.8580627903603016
1782987807462616300,8.7636162109375,-0.12068097386658191,-0.023399288026988506,0.7294045540042221
1782987807472690700,8.773690673828124,0.11013386088907719,-0.08081278159767388,0.672060472407937
1782987807482765300,8.783765380859375,0.38238779049217697,-0.11183452732712029,0.663776701252535
1782987807492839700,8.793839599609376,0.615754063296318,-0.10638736783713101,0.6749140352081507
1782987807502914600,8.80391455078125,0.8088631445139646,-0.0626090163871646,0.692173066914454
1782987807512988700,8.81398876953125,0.9445908808648585,-0.05421791239976883,0.7439796073235571
1782987807523063600,8.8240634765625,0.9739151750266551,-0.059709495553374285,0.8408436522729694
1782987807533137700,8.8341376953125,0.9528069205462932,-0.0532712791994214,0.898269713064283
1782987807543212500,8.844212646484374,0.8504127139985561,0.011817863565683364,0.913839768770337
1782987807553286700,8.85428662109375,0.581876343613863,0.07130816341042519,0.9013133916091174
1782987807563361500,8.864361572265626,0.27462182777822014,0.1051180785536766,0.9396536436583847
1782987807573435600,8.874435546875,0.15194354261457918,0.0718611211180687,1.0034947591237724
1782987807583510500,8.884510498046875,0.24804770910739898,-0.022377836024761198,1.1026187848944216
1782987807593584600,8.894584716796874,0.42165597104132174,-0.08309212470650672,1.2690867466196416
1782987807603659500,8.904659423828125,0.6048632514476776,-0.20279285536408423,1.4258832822233438
1782987807613733600,8.914733642578126,0.6937719534784555,-0.3181803989976644,1.496085530218482
1782987807623808500,8.92480859375,0.6604506986349821,-0.40790976976156235,1.4617279180645941
1782987807633882600,8.934882568359376,0.47356969815194605,-0.4110077357769012,1.2710346658170222
1782987807643957500,8.94495751953125,0.21135902365744114,-0.33115561590492726,1.0005455539293586
1782987807654031600,8.955031494140625,-0.09268471343815327,-0.25170740065872665,0.7547704659290612
1782987807664105700,8.965105712890624,-0.5141974766165017,-0.288234758067131,0.793330644339323
1782987807674180600,8.9751806640625,-0.8128495838016271,-0.564861788187921,1.1884286441270262
1782987807684254700,8.985254638671876,-0.8687439049810171,-0.5604238057404756,1.4021033243156968
1782987807694329600,8.99532958984375,-1.1361188303709029,-0.14822218400388956,1.2718117876693606
1782987807704403700,9.00540380859375,-1.7941998772650956,0.2675976282298565,1.0609726962327957
1782987807714478600,9.015478515625,-2.5630244413793086,0.4537567441791296,0.9285964622668922
1782987807724552700,9.025552734375,-3.1102702011168,0.5450193158596753,1.005242406508699
1782987807734627600,9.035627685546874,-3.1446172918766737,0.7310574357777834,1.0813466450892388
1782987807744701700,9.04570166015625,-2.747124286711216,1.0777513970762491,1.0292268009472638
1782987807754776600,9.055776611328126,-2.0798124701350926,1.2886062706038355,1.0209165071111173
1782987807764850700,9.0658505859375,-1.1838631628423928,1.14622316801697,1.2137562698680906
1782987807774925600,9.075925537109375,-0.28880875856280325,0.818802939248085,1.5373155123598872
1782987807784999700,9.085999755859374,0.47810441897213457,0.5155956529766321,1.7921765547439454
1782987807795074600,9.096074462890625,1.1019430045247078,0.326913156029582,1.8733339119955896
1782987807805148700,9.106148681640626,1.4090075507462023,0.18478607403039932,1.780603313589096
1782987807815223600,9.1162236328125,1.370007081222534,0.034356443110108374,1.6311013189077377
1782987807825297700,9.126297607421876,0.9409177453100681,-0.03622837446182966,1.5259166048586368
1782987807835372500,9.13637255859375,0.3166203100740909,0.046946167831122876,1.3388472421966493
1782987807845446700,9.14644677734375,-0.2715226927191019,0.2452577861279249,1.0826214873306452
1782987807855521500,9.156521484375,-0.6875707607507705,0.49263650993257757,0.8142020943891256
1782987807865595600,9.166595703125,-0.8846633586466311,0.7144570141106844,0.6368374025311321
1782987807875670500,9.17667041015625,-0.9441706096261739,0.8641212136164307,0.511856831774488
1782987807885744600,9.18674462890625,-0.9226859230488538,0.9972375984251498,0.3453072561804205
1782987807895819800,9.19681982421875,-0.8151783190101385,1.1371288841962814,0.14896635343469677
1782987807905893600,9.2068935546875,-0.6501444086760282,1.2219748668327928,0.025062216270528733
1782987807915968800,9.21696875,-0.38785833085775373,1.2721636698469518,0.06763031514789909
1782987807926042600,9.227042724609374,0.030858664122223853,1.3167968845605849,0.24694519122559574
1782987807936117800,9.23711767578125,0.5801672016084194,1.3660782173410058,0.468143069993332
1782987807946191600,9.247191650390626,1.120389346319437,1.3297794079914689,0.6696247696936131
1782987807956266800,9.257266845703125,1.5428683241814374,1.2695923580542205,0.8168091350823641
1782987807966340600,9.267340576171875,1.847706426525116,1.1884499061107634,0.979110259451717
1782987807976415700,9.277415771484375,2.0971067192852497,1.09021720315665,1.2123255794778465
1782987807986489600,9.287489501953125,2.212853743880987,0.949735550276935,1.4823545265078544
1782987807996564700,9.297564697265624,2.1188439193189144,0.8296022734209895,1.7748820133328436
1782987808006638600,9.307638671875,1.836967590367794,0.7375108497008681,1.9676257683694363
1782987808016712700,9.317712646484376,1.468315479761362,0.6028618484973907,2.1115748050987717
1782987808026787600,9.32778759765625,1.106121751514077,0.4662734036639333,2.2195450582131744
1782987808036861400,9.337861328125,0.7321557524085044,0.32581922331303353,2.206419911441207
1782987808046936300,9.347936279296874,0.48768122561275956,0.1802306026831269,2.1373506129987536
1782987808057010400,9.358010498046875,0.3291477832138538,0.11099515389353036,1.9909036219738423
1782987808067085300,9.368085205078126,0.18453589866161346,0.006785130095481872,1.8423539595812557
1782987808077159400,9.378159423828125,-0.06588438479602336,-0.08196984267830848,1.6896441087692975
1782987808087234600,9.388234619140626,-0.4227496114969253,-0.09296528394520283,1.5338852456502616
1782987808097308400,9.398308349609374,-0.8183966965347528,-0.09964490783959627,1.4536217684984207
1782987808107383600,9.408383544921875,-1.1539765586227178,-0.040837037301063535,1.4052648570865391
1782987808117457400,9.41845751953125,-1.3517185603380202,0.06013473522812128,1.4068399974487722
1782987808127532500,9.428532470703125,-1.3954659321278333,0.13474077114015817,1.4848134639672934
1782987808137606400,9.4386064453125,-1.265184770745039,0.11948241173177956,1.599650095719844
1782987808147681500,9.448681640625,-0.997358594456315,0.061388534681499,1.6494199426695704
1782987808157755400,9.45875537109375,-0.6785463272958994,0.026181612221896647,1.586223920174688
1782987808167830500,9.46883056640625,-0.4465928438991308,0.04171294335275888,1.4112189431853592
1782987808177904400,9.478904296875,-0.33184009103775025,0.04267068246901035,1.2182675367474556
1782987808187979500,9.4889794921875,-0.32759003237783907,0.04464753549993038,0.9750415487080812
1782987808198053400,9.499053466796875,-0.37098610651195046,0.09186082983464001,0.7397523450173438
1782987808208128500,9.50912841796875,-0.41566929784715173,0.14413140755891798,0.6336836146753281
1782987808218202400,9.519202392578125,-0.3948708399683237,0.14711246919631957,0.7200060265399515
1782987808228277500,9.529277587890626,-0.1825824265062809,0.012362053444981574,1.04402068464905
1782987808238351400,9.539351318359374,0.10931962189674377,-0.12694471043646335,1.3044310317233203
1782987808248426500,9.549426513671875,0.22921382929980755,-0.05014525613337755,1.2836869343802333
1782987808258500400,9.559500244140626,0.024704233145713805,0.21105887166708706,0.9425319025084375
1782987808268575500,9.569575439453125,-0.4982078803241253,0.4558975556001067,0.5127138504626229
1782987808278649300,9.5796494140625,-1.02256376286149,0.6534510490059853,0.2554581680269912
1782987808288724500,9.589724365234375,-1.2631605714410543,0.8574798759058118,0.1973954167673364
1782987808298798300,9.59979833984375,-1.033724039301276,0.9136901311665773,0.45182533772513267
1782987808308873500,9.60987353515625,-0.31721593787968155,0.7248705638363957,1.0001920643165707
1782987808318947300,9.619947265625,0.4651888232976198,0.4027814669623971,1.5771891114562748
1782987808329022500,9.6300224609375,1.0266787969648838,0.18124942433685062,2.0188181954681874
1782987808339096300,9.640096435546875,1.195321545445919,0.030475802284479138,2.205395098438114
1782987808349171500,9.65017138671875,0.8656669817537069,0.15278525413572788,1.9542932624571023
1782987808359245300,9.660245361328125,0.03765957630872726,0.4872115622743964,1.2775424402758477
1782987808369319400,9.6703193359375,-0.9813830266892909,0.7174500584468245,0.5272701260162517
1782987808379394300,9.680394287109374,-1.98841312033236,0.8888485353767871,0.10353176834345795
1782987808389468400,9.690468505859375,-2.857259901165962,1.0473591814219951,-0.11530588409896007
1782987808399543300,9.700543212890626,-3.1483862890213725,1.2011363692045212,-0.020490999364852904
1782987808409617400,9.710617431640625,-2.715253230676055,1.258509823025763,0.3813888425827026
1782987808419692300,9.7206923828125,-1.7947627718448638,1.1962637947320938,0.8385625555984675
1782987808429767400,9.730767333984375,-0.8883855940401554,1.0620096380650996,1.2859075330391525
1782987808439841300,9.74084130859375,-0.15366028340458868,0.8990259382590651,1.527027780970931
1782987808449916400,9.75091650390625,0.35816871051490307,0.7538023515492678,1.5492442889541387
1782987808459990500,9.760990478515625,0.881597541335225,0.6220096165597438,1.4772561804555355
1782987808470065400,9.7710654296875,1.4003484434723854,0.4840419923275709,1.430195007942617
1782987808480139500,9.781139404296875,1.8275374987214803,0.2827563266560435,1.4650817585371434
1782987808490214400,9.79121435546875,2.0764269193500278,0.12937953636795282,1.554646440258622
1782987808500288500,9.80128857421875,2.1333476609677073,0.06653904931247234,1.6385186094269155
1782987808510363400,9.81136328125,1.990362500834465,0.051231882326304906,1.7285446250498293
1782987808520437500,9.8214375,1.6041145277827977,0.036440848168730736,1.7203759316414593
1782987808530512400,9.831512451171875,1.0889105044722556,0.0731675275415182,1.6366251968957484
1782987808540586500,9.84158642578125,0.6642214493453502,0.18804244547784327,1.6202756812497972
1782987808550661400,9.851661376953125,0.3401052305579185,0.32722003002166744,1.6747899462476372
1782987808560735500,9.861735595703125,-0.12269640534222126,0.4264104720920324,1.6684750640124082
1782987808570810400,9.871810302734374,-0.6183049168229102,0.5212471028670669,1.5710788118824361
1782987808580884500,9.881884521484375,-0.9564186813026666,0.5802832292035222,1.3450512114033102
1782987808590959400,9.89195947265625,-1.0425427210509777,0.5896472698763012,1.152998945762217
1782987808601033500,9.902033447265625,-0.9011562282860278,0.5110559637203812,1.102906223533675
1782987808611108400,9.9121083984375,-0.6464625052928924,0.45955549358576536,1.1738076327741145
1782987808621182500,9.922182373046875,-0.41707156586050986,0.4558651146352291,1.314474871353805
1782987808631257300,9.93225732421875,-0.2582505386918783,0.4252446431830525,1.4747211090199648
1782987808641331500,9.94233154296875,-0.35192484768927096,0.4810898645237088,1.545674029251933
1782987808651406300,9.95240625,-0.6448848807126283,0.5441033700585365,1.496193666768074
1782987808661480400,9.96248046875,-0.8121534182310104,0.506763234962523,1.468149475544691
1782987808671555300,9.972555419921875,-0.8375999941766261,0.38772973604202265,1.3654403578288852
1782987808681629400,9.98262939453125,-0.7143132217258215,0.28305910899490117,1.2850913943506777
1782987808691704300,9.992704345703125,-0.5551163469821214,0.23036446063965557,1.1703473362524062
1782987808701778400,10.0027783203125,-0.4615221174836158,0.18372429001778362,1.049522496935725
1782987808711853600,10.012853515625,-0.4961193836122751,0.17548633076548575,1.0029583872247487
1782987808721927400,10.022927490234375,-0.5219570047020912,0.15828239024728535,0.9656166446935385
1782987808732002600,10.03300244140625,-0.42724224674105643,0.1632055258631706,0.9176979055032134
1782987808742076400,10.043076416015625,-0.22648645016252994,0.11884031443595885,0.8742125456504524
1782987808752150300,10.053150390625,-0.004774959316849708,0.01523527079373598,0.9435632913827896
1782987808762225400,10.063225341796874,0.1801245119601488,-0.11093027196377515,1.010394163248688
1782987808772300500,10.073300537109375,0.2510626730144024,-0.19686258853226898,1.0601843223340808
1782987808782374400,10.08337451171875,0.23028759601116178,-0.20708470733910797,1.1000845171764493
1782987808792448300,10.0934482421875,0.15281623379588127,-0.20925152998417615,1.116259626103565
1782987808802523400,10.1035234375,-0.011437339815497398,-0.20369740298837422,1.0754840366661549
1782987808812597200,10.11359716796875,-0.2020627875238657,-0.1716454374283552,1.0194413930572568
1782987808822672400,10.12367236328125,-0.35335458823144433,-0.11280483366400003,0.9155728031080216
1782987808832746200,10.133746337890624,-0.509305028399825,-0.05593669901639223,0.814417417640239
1782987808842821400,10.1438212890625,-0.5906266363024711,-0.26363924599289895,1.062066921210289
1782987808852895500,10.1538955078125,-0.4891664957344532,-0.6480795851007104,1.58674239109084
1782987808862970400,10.163970458984375,-0.34437282487452026,-0.9244532249823212,1.8268419176727533
1782987808873044500,10.17404443359375,-0.3211374952375889,-0.9228408213496208,1.5696356273368
1782987808883119400,10.184119384765625,-0.6420353365004062,-0.7954255707919597,1.1873851994886995
1782987808893193500,10.194193359375,-1.2795944043695926,-0.6145747903838753,0.9584379852358251
1782987808903268400,10.204268310546874,-2.0311445930778977,-0.27479864564985035,0.8307490323033183
1782987808913342500,10.214342529296875,-2.668198634034395,0.09164163412600755,0.6801436064247042
1782987808923417300,10.224417236328126,-3.0325270362228154,0.5723816622987389,0.5138980552785098
1782987808933491500,10.234491455078125,-2.9150130019545553,1.0847869948014617,0.41425851773377503
1782987808943566300,10.24456640625,-2.50186766962707,1.3428706524938345,0.5301136423464864
1782987808953640400,10.254640380859374,-1.9433833075165747,1.2976932479009031,0.9075475367583334
1782987808963715300,10.26471533203125,-1.1827116547197103,0.9984268082097172,1.3350680159188806
1782987808973789400,10.27478955078125,-0.36907530445456505,0.7601634110137819,1.6440863265566528
1782987808983864300,10.2848642578125,0.2501262689471245,0.6209016553178429,1.810280951233208
1782987808993938400,10.2949384765625,0.7180407178163528,0.6449056312397122,1.869240359071642
1782987809004013300,10.305013427734375,0.9478080893456935,0.7407756967157125,1.87020935023427
1782987809014087400,10.31508740234375,0.8768091380149126,0.8421125031650066,1.790307692132145
1782987809024162300,10.325162353515625,0.5866437041461467,0.9719286773845552,1.5572060616135597
1782987809034237200,10.3352373046875,0.09014613487124443,1.1756693349927663,1.2933230699926614
1782987809044312300,10.345312255859374,-0.4633072473347187,1.4154007589146493,0.9850232098225503
1782987809054386400,10.355386474609375,-1.0252601623386144,1.6215473086208103,0.6379196448098867
1782987809064461300,10.36546142578125,-1.5297762028962374,1.7257438884153962,0.3459822328325361
1782987809074535400,10.375535400390625,-1.8548124591380357,1.7565078599914907,0.04440393600240349
1782987809084610300,10.3856103515625,-1.801594079169631,1.707176258328557,-0.1566373995192349
1782987809094684400,10.395684326171875,-1.3709241960674523,1.6843059626117347,-0.3760360103126615
1782987809104759300,10.40575927734375,-0.8053010681182146,1.7057012173399329,-0.5467036887500435
1782987809114833400,10.41583349609375,-0.3023573914438486,1.739194321618974,-0.4806193974677473
1782987809124907300,10.4259072265625,0.01835749446749687,1.7533613786593079,-0.18200784148871899
1782987809134982400,10.435982421875,0.19740297901928425,1.7038132116362452,0.1792258826199919
1782987809145056300,10.44605615234375,0.32432840023338794,1.654659596888721,0.4160915418472141
1782987809155131400,10.45613134765625,0.5532885470330715,1.6573425523623824,0.4720929035976529
1782987809165205200,10.466205322265624,0.8237345504313707,1.6296110803499817,0.3524592468269169
1782987809175280400,10.4762802734375,0.9470353514075278,1.5651882925391196,0.2905088404789567
1782987809185354200,10.486354248046876,0.8901619560629129,1.4935393528670071,0.30456483836025
1782987809195429400,10.496429443359375,0.7969622788399457,1.4207096789777278,0.3532972320210188
1782987809205503200,10.506503173828126,0.6634048722654581,1.2892927915632724,0.3902927183978259
1782987809215578400,10.516578369140625,0.5422025048732757,1.1101923619538545,0.4278806907750666
1782987809225652200,10.52665234375,0.40771453945040703,0.9374813411206007,0.4435110253009945
1782987809235727400,10.536727294921874,0.2852741546958685,0.7665016741245985,0.46072621786557133
1782987809245801200,10.54680126953125,0.1745434969574213,0.5603495714604855,0.505066075655818
1782987809255876400,10.55687646484375,-0.0003425298273563385,0.43284839618504045,0.5253909246735274
1782987809265950200,10.5669501953125,-0.18210428760051725,0.4227870208978653,0.5537536803267896
1782987809276025300,10.577025390625,-0.2884083610683679,0.4343628924012184,0.45977768496908245
1782987809286099200,10.58709912109375,-0.30263270125389097,0.40141222443580626,0.2794634225904941
1782987809296174300,10.59717431640625,-0.20451193424165248,0.3890384805530309,0.19277531921863555
1782987809306248200,10.607248291015624,-0.07536591436862945,0.4471972395330667,0.11866196219436824
1782987809316323300,10.6173232421875,0.04794774608910084,0.46548166876435276,0.06874328135848044
1782987809326397200,10.627397216796876,0.1652139430761337,0.5159083721876144,0.10345226423330604
1782987809336472300,10.637472412109375,0.2550274849921465,0.5959095451414584,0.2641447112970054
1782987809346546200,10.647546142578125,0.25344167710542675,0.5988707330346107,0.42632900435365734
1782987809356621300,10.657621337890625,0.22422376592755316,0.5536433518201113,0.6173194129168987
1782987809366695200,10.667695068359375,0.04479717310369014,0.5163216291636228,0.7791917904801666
1782987809376770300,10.677770263671874,-0.048670215144753455,0.6326987683564425,0.852092849105224
1782987809386844200,10.68784423828125,0.23920097030699253,0.41113399250507354,0.837392708101496
1782987809396919300,10.697919189453126,0.7883242143541574,0.25964170078933235,0.8675191854916512
1782987809406993200,10.7079931640625,0.9823492413729429,0.1703957296282053,0.758544212314114
1782987809417068300,10.718068359375,0.9140998810112476,-0.2562766082704067,0.37877719877958294
1782987809427142100,10.72814208984375,0.7821335430204868,-1.0418418793052435,0.08055011207349598
1782987809437217300,10.73821728515625,0.6739098996669054,-1.47391403042078,-0.03424019631929696
1782987809447291400,10.74829150390625,0.5304021769642829,-1.4806716879874466,0.02561900990307331
