time,seconds_elapsed,z,y,x
1782987798760778000,0.061778076171875,-0.8565673828125,-0.7298583984375,0.032501220703125
1782987798770852000,0.07185205078125,-0.8855133056640625,-0.6989593505859375,0.0050811767578125
1782987798780927000,0.081927001953125,-0.92706298828125,-0.6602325439453125,-0.0035858154296875
1782987798791001000,0.0920009765625,-0.9623565673828125,-0.6214752197265625,-0.00152587890625
1782987798801076000,0.102075927734375,-0.9687042236328125,-0.589141845703125,0.0063323974609375
1782987798811150000,0.112150146484375,-0.945892333984375,-0.5727691650390625,0.02459716796875
1782987798821225200,0.12222509765625,-0.906494140625,-0.5693359375,0.05120849609375
1782987798831299000,0.132299072265625,-0.8696136474609375,-0.56024169921875,0.0644378662109375
1782987798841373000,0.142373046875,-0.840240478515625,-0.54571533203125,0.0667266845703125
1782987798851448000,0.152447998046875,-0.8135986328125,-0.53564453125,0.0579833984375
1782987798861522000,0.16252197265625,-0.7930755615234375,-0.531402587890625,0.048614501953125
1782987798871597000,0.17259716796875,-0.78173828125,-0.5195465087890625,0.0407867431640625
1782987798881671000,0.1826708984375,-0.78485107421875,-0.504974365234375,0.0326385498046875
1782987798891746000,0.19274609375,-0.797088623046875,-0.4895477294921875,0.0313720703125
1782987798901820000,0.20281982421875,-0.8047027587890625,-0.4739532470703125,0.0278167724609375
1782987798911895000,0.21289501953125,-0.8036346435546875,-0.46148681640625,0.0205841064453125
1782987798921969000,0.222968994140625,-0.8035888671875,-0.4484710693359375,0.0196533203125
1782987798932044000,0.2330439453125,-0.81201171875,-0.4361724853515625,0.0212554931640625
1782987798942118100,0.2431181640625,-0.8126068115234375,-0.4278106689453125,0.014312744140625
1782987798952193000,0.253193115234375,-0.788299560546875,-0.42529296875,0.0119476318359375
1782987798962267100,0.26326708984375,-0.7445068359375,-0.433013916015625,0.009918212890625
1782987798972342000,0.273342041015625,-0.7006378173828125,-0.449066162109375,0.0137481689453125
1782987798982416100,0.283416015625,-0.6606903076171875,-0.4684295654296875,0.0214385986328125
1782987798992491000,0.293490966796875,-0.6342010498046875,-0.485870361328125,0.0381317138671875
1782987799002565000,0.303565185546875,-0.62884521484375,-0.4984893798828125,0.054595947265625
1782987799012640000,0.313639892578125,-0.6371612548828125,-0.5090179443359375,0.06732177734375
1782987799022714400,0.32371435546875,-0.6526947021484375,-0.5122833251953125,0.07244873046875
1782987799032789200,0.333789306640625,-0.65789794921875,-0.5087738037109375,0.0780792236328125
1782987799042863400,0.34386328125,-0.6626739501953125,-0.508636474609375,0.0899200439453125
1782987799052938200,0.353938232421875,-0.6658782958984375,-0.51300048828125,0.100250244140625
1782987799063012400,0.364012451171875,-0.66632080078125,-0.51910400390625,0.1094512939453125
1782987799073087200,0.374087158203125,-0.659576416015625,-0.529266357421875,0.1171722412109375
1782987799083161300,0.384161376953125,-0.650482177734375,-0.543670654296875,0.1258697509765625
1782987799093236200,0.394236328125,-0.6513671875,-0.5588531494140625,0.13140869140625
1782987799103310300,0.404310302734375,-0.6639862060546875,-0.5689849853515625,0.1262969970703125
1782987799113385200,0.41438525390625,-0.6796112060546875,-0.57183837890625,0.1141357421875
1782987799123459300,0.424459228515625,-0.70257568359375,-0.573944091796875,0.0946197509765625
1782987799133534200,0.4345341796875,-0.7264251708984375,-0.5782318115234375,0.076507568359375
1782987799143608300,0.4446083984375,-0.7486419677734375,-0.5868988037109375,0.054351806640625
1782987799153683200,0.45468310546875,-0.7609710693359375,-0.59716796875,0.03692626953125
1782987799163757300,0.46475732421875,-0.7672271728515625,-0.60626220703125,0.031890869140625
1782987799173832400,0.47483251953125,-0.780975341796875,-0.6111907958984375,0.0282745361328125
1782987799183906300,0.48490625,-0.8004302978515625,-0.61297607421875,0.0278778076171875
1782987799193981400,0.4949814453125,-0.8123321533203125,-0.6128387451171875,0.029510498046875
1782987799204055300,0.50505517578125,-0.8165130615234375,-0.618316650390625,0.0347747802734375
1782987799214130400,0.51513037109375,-0.8212738037109375,-0.6293487548828125,0.0596466064453125
1782987799224204300,0.525204345703125,-0.83282470703125,-0.6338043212890625,0.0897216796875
1782987799234279400,0.535279541015625,-0.8526611328125,-0.6257476806640625,0.11895751953125
1782987799244353300,0.545353271484375,-0.860321044921875,-0.61236572265625,0.1380615234375
1782987799254428400,0.555428466796875,-0.8590087890625,-0.611297607421875,0.149078369140625
1782987799264502300,0.565502197265625,-0.8501739501953125,-0.6155853271484375,0.16534423828125
1782987799274577400,0.575577392578125,-0.8289031982421875,-0.6295166015625,0.1830596923828125
1782987799284651300,0.5856513671875,-0.811065673828125,-0.6472930908203125,0.205596923828125
1782987799294726400,0.595726318359375,-0.7926025390625,-0.6685638427734375,0.2283477783203125
1782987799304800300,0.60580029296875,-0.774810791015625,-0.681365966796875,0.2462005615234375
1782987799314875400,0.61587548828125,-0.761749267578125,-0.6931610107421875,0.2593231201171875
1782987799324949200,0.62594921875,-0.759521484375,-0.703125,0.266143798828125
1782987799335024400,0.6360244140625,-0.760467529296875,-0.7149200439453125,0.270233154296875
1782987799345098200,0.64609814453125,-0.7624969482421875,-0.725250244140625,0.2668914794921875
1782987799355173400,0.65617333984375,-0.7738189697265625,-0.7313690185546875,0.2635650634765625
1782987799365247200,0.666247314453125,-0.796112060546875,-0.7301483154296875,0.2578887939453125
1782987799375322400,0.676322265625,-0.832550048828125,-0.7178192138671875,0.2523345947265625
1782987799385396200,0.686396240234375,-0.8642578125,-0.7032012939453125,0.2478485107421875
1782987799395471400,0.696471435546875,-0.884246826171875,-0.70318603515625,0.2602691650390625
1782987799405545200,0.706545166015625,-0.8673248291015625,-0.7254486083984375,0.2864990234375
1782987799415620400,0.716620361328125,-0.815277099609375,-0.734832763671875,0.3001861572265625
1782987799425694200,0.726694091796875,-0.7781524658203125,-0.7370758056640625,0.2915191650390625
1782987799435769300,0.736769287109375,-0.78509521484375,-0.727813720703125,0.2598724365234375
1782987799445843200,0.74684326171875,-0.825836181640625,-0.7035675048828125,0.233856201171875
1782987799455918300,0.75691845703125,-0.8937835693359375,-0.6799163818359375,0.21783447265625
1782987799465992200,0.7669921875,-0.963531494140625,-0.64422607421875,0.1981353759765625
1782987799476067300,0.7770673828125,-1.0090179443359375,-0.600006103515625,0.1760406494140625
1782987799486141200,0.78714111328125,-1.0340423583984375,-0.554779052734375,0.16009521484375
1782987799496216300,0.79721630859375,-1.03399658203125,-0.5178680419921875,0.1584930419921875
1782987799506290200,0.807290283203125,-1.0090179443359375,-0.494842529296875,0.1661529541015625
1782987799516365300,0.817365234375,-0.971099853515625,-0.482421875,0.1802520751953125
1782987799526439200,0.827439208984375,-0.9083404541015625,-0.4809722900390625,0.1963958740234375
1782987799536514300,0.837514404296875,-0.8325958251953125,-0.487762451171875,0.2178802490234375
1782987799546588400,0.84758837890625,-0.7608184814453125,-0.490692138671875,0.2335662841796875
1782987799556663300,0.857663330078125,-0.6987762451171875,-0.493133544921875,0.24432373046875
1782987799566737400,0.8677373046875,-0.654205322265625,-0.494873046875,0.25701904296875
1782987799576812300,0.877812255859375,-0.6381988525390625,-0.496673583984375,0.26361083984375
1782987799586886400,0.887886474609375,-0.6443023681640625,-0.4894561767578125,0.257476806640625
1782987799596961300,0.897961181640625,-0.67315673828125,-0.484039306640625,0.24127197265625
1782987799607035400,0.908035400390625,-0.7152557373046875,-0.48193359375,0.2148590087890625
1782987799617110300,0.9181103515625,-0.761993408203125,-0.479034423828125,0.187225341796875
1782987799627184400,0.928184326171875,-0.8091583251953125,-0.4728546142578125,0.16058349609375
1782987799637259300,0.93825927734375,-0.8469390869140625,-0.4675445556640625,0.1354217529296875
1782987799647333400,0.94833349609375,-0.8662872314453125,-0.472198486328125,0.121673583984375
1782987799657408300,0.958408203125,-0.872314453125,-0.47607421875,0.11822509765625
1782987799667482400,0.968482421875,-0.868804931640625,-0.475982666015625,0.1146087646484375
1782987799677557200,0.97855712890625,-0.853759765625,-0.47137451171875,0.1121368408203125
1782987799687631400,0.98863134765625,-0.8249359130859375,-0.470489501953125,0.11578369140625
1782987799697706200,0.998706298828125,-0.7914581298828125,-0.4765167236328125,0.1200408935546875
1782987799707780400,1.0087802734375,-0.7587432861328125,-0.4831695556640625,0.121978759765625
1782987799717855200,1.018855224609375,-0.7244720458984375,-0.483001708984375,0.1224822998046875
1782987799727929300,1.028929443359375,-0.6835784912109375,-0.4861602783203125,0.1263885498046875
1782987799738004200,1.039004150390625,-0.6605072021484375,-0.4951629638671875,0.125823974609375
1782987799748078300,1.049078369140625,-0.6594085693359375,-0.5001678466796875,0.1159210205078125
1782987799758153200,1.0591533203125,-0.654541015625,-0.5122528076171875,0.1043701171875
1782987799768227300,1.069227294921875,-0.655609130859375,-0.5268402099609375,0.098876953125
1782987799778301200,1.07930126953125,-0.66455078125,-0.5369720458984375,0.09344482421875
1782987799788376300,1.089376220703125,-0.6730194091796875,-0.5450592041015625,0.09661865234375
1782987799798451200,1.099451171875,-0.67694091796875,-0.5508270263671875,0.10357666015625
1782987799808525300,1.109525390625,-0.6725616455078125,-0.56109619140625,0.119110107421875
1782987799818599200,1.11959912109375,-0.662139892578125,-0.5722198486328125,0.13482666015625
1782987799828674300,1.12967431640625,-0.6564483642578125,-0.5817718505859375,0.1511077880859375
1782987799838748200,1.139748046875,-0.6600799560546875,-0.595672607421875,0.1665496826171875
1782987799848823300,1.1498232421875,-0.68096923828125,-0.6074371337890625,0.170379638671875
1782987799858898400,1.1598984375,-0.71514892578125,-0.6129608154296875,0.1606292724609375
1782987799868972300,1.16997216796875,-0.7508087158203125,-0.621490478515625,0.1465301513671875
1782987799879046100,1.180046142578125,-0.799102783203125,-0.6277313232421875,0.133941650390625
1782987799889121300,1.190121337890625,-0.85382080078125,-0.629180908203125,0.1190032958984375
1782987799899195100,1.200195068359375,-0.9068603515625,-0.6254730224609375,0.110626220703125
1782987799909270300,1.210270263671875,-0.9466552734375,-0.6246490478515625,0.1088714599609375
1782987799919344000,1.22034423828125,-0.9745635986328125,-0.6295928955078125,0.1234130859375
1782987799929419300,1.230419189453125,-0.9822235107421875,-0.6343994140625,0.140716552734375
1782987799939493400,1.240493408203125,-0.9668731689453125,-0.6329803466796875,0.15252685546875
1782987799949568300,1.250568359375,-0.9391326904296875,-0.6380157470703125,0.1516265869140625
1782987799959642400,1.260642333984375,-0.900390625,-0.6502227783203125,0.1499786376953125
1782987799969717200,1.27071728515625,-0.843414306640625,-0.659912109375,0.138763427734375
1782987799979791400,1.280791259765625,-0.7921905517578125,-0.6819915771484375,0.1358184814453125
1782987799989866200,1.2908662109375,-0.8072509765625,-0.6941680908203125,0.099456787109375
1782987799999940400,1.3009404296875,-0.849273681640625,-0.675445556640625,0.072540283203125
1782987800010015200,1.31101513671875,-0.8803253173828125,-0.6944580078125,0.07708740234375
1782987800020088600,1.321088623046875,-0.851531982421875,-0.7265625,0.0861663818359375
1782987800030163700,1.331163818359375,-0.82049560546875,-0.7281341552734375,0.099853515625
1782987800040237600,1.341237548828125,-0.83001708984375,-0.722564697265625,0.113128662109375
1782987800050312700,1.351312744140625,-0.8590087890625,-0.704071044921875,0.1097564697265625
1782987800060386600,1.361386474609375,-0.90594482421875,-0.6702423095703125,0.0892333984375
1782987800070461700,1.371461669921875,-0.9587554931640625,-0.639617919921875,0.0768585205078125
1782987800080535600,1.38153564453125,-0.9927520751953125,-0.6193695068359375,0.0697174072265625
1782987800090610700,1.391610595703125,-0.997528076171875,-0.592041015625,0.057952880859375
1782987800100684500,1.4016845703125,-0.998291015625,-0.5615081787109375,0.0520477294921875
1782987800110759700,1.411759765625,-1.00433349609375,-0.5355377197265625,0.04205322265625
1782987800120833800,1.421833740234375,-1.0020751953125,-0.519012451171875,0.0279998779296875
1782987800130908700,1.43190869140625,-0.97760009765625,-0.508026123046875,0.0143280029296875
1782987800140982800,1.441982666015625,-0.9315338134765625,-0.4997100830078125,0.006500244140625
1782987800151057700,1.4520576171875,-0.8767852783203125,-0.496429443359375,0.010833740234375
1782987800161131800,1.4621318359375,-0.8290252685546875,-0.49591064453125,0.0238494873046875
1782987800171206700,1.47220654296875,-0.7919921875,-0.492889404296875,0.0316162109375
1782987800181280800,1.48228076171875,-0.7624359130859375,-0.4942474365234375,0.0280303955078125
1782987800191355600,1.492355712890625,-0.73297119140625,-0.498687744140625,0.0201263427734375
1782987800201429800,1.5024296875,-0.71282958984375,-0.5075225830078125,0.016326904296875
1782987800211504600,1.512504638671875,-0.700408935546875,-0.51373291015625,0.011749267578125
1782987800221578800,1.522578857421875,-0.6903228759765625,-0.5157470703125,0.0082244873046875
1782987800231653600,1.532653564453125,-0.6914825439453125,-0.510162353515625,0.0073089599609375
1782987800241727700,1.542727783203125,-0.703765869140625,-0.5044708251953125,0.00921630859375
1782987800251802600,1.552802734375,-0.711517333984375,-0.50164794921875,0.0177001953125
1782987800261876700,1.562876708984375,-0.7091827392578125,-0.50286865234375,0.0311431884765625
1782987800271951600,1.57295166015625,-0.69403076171875,-0.511810302734375,0.04571533203125
1782987800282025700,1.583025634765625,-0.6705474853515625,-0.5160980224609375,0.065032958984375
1782987800292100600,1.5931005859375,-0.6452484130859375,-0.5219268798828125,0.08740234375
1782987800302174700,1.6031748046875,-0.629241943359375,-0.5260009765625,0.10955810546875
1782987800312249600,1.61324951171875,-0.6252288818359375,-0.529876708984375,0.1349334716796875
1782987800322323700,1.62332373046875,-0.6380615234375,-0.5325164794921875,0.1495208740234375
1782987800332398600,1.633398681640625,-0.6569976806640625,-0.53302001953125,0.1511383056640625
1782987800342472700,1.64347265625,-0.6846466064453125,-0.5369110107421875,0.14703369140625
1782987800352547600,1.653547607421875,-0.7349395751953125,-0.537200927734375,0.1379852294921875
1782987800362621700,1.66362158203125,-0.77587890625,-0.5380096435546875,0.125396728515625
1782987800372696800,1.67369677734375,-0.8009185791015625,-0.54248046875,0.117706298828125
1782987800382770700,1.683770751953125,-0.8037567138671875,-0.5560150146484375,0.108367919921875
1782987800392845800,1.693845703125,-0.7948760986328125,-0.572113037109375,0.107696533203125
1782987800402919700,1.703919677734375,-0.77294921875,-0.586151123046875,0.1076812744140625
1782987800412994800,1.713994873046875,-0.749847412109375,-0.5968780517578125,0.0991973876953125
1782987800423068700,1.724068603515625,-0.734344482421875,-0.6099395751953125,0.092987060546875
1782987800433143800,1.734143798828125,-0.72259521484375,-0.6206512451171875,0.0916290283203125
1782987800443217700,1.7442177734375,-0.71337890625,-0.63092041015625,0.10076904296875
1782987800453292800,1.754292724609375,-0.7081146240234375,-0.63897705078125,0.1168975830078125
1782987800463366700,1.76436669921875,-0.7042999267578125,-0.6424102783203125,0.1334991455078125
1782987800473441800,1.77444189453125,-0.7065887451171875,-0.6499481201171875,0.1484222412109375
1782987800483515600,1.784515625,-0.7190399169921875,-0.6562042236328125,0.1514892578125
1782987800493590800,1.7945908203125,-0.7412261962890625,-0.659454345703125,0.155914306640625
1782987800503664600,1.80466455078125,-0.7610626220703125,-0.6641693115234375,0.16302490234375
1782987800513739800,1.81473974609375,-0.7883758544921875,-0.66827392578125,0.169464111328125
1782987800523813600,1.824813720703125,-0.8226776123046875,-0.667755126953125,0.1701812744140625
1782987800533888800,1.834888671875,-0.8596649169921875,-0.6707000732421875,0.172576904296875
1782987800543962600,1.844962646484375,-0.88623046875,-0.67205810546875,0.1798095703125
1782987800554037800,1.855037841796875,-0.9000701904296875,-0.673553466796875,0.1845245361328125
1782987800564111600,1.865111572265625,-0.9065093994140625,-0.67193603515625,0.19439697265625
1782987800574186800,1.875186767578125,-0.9146881103515625,-0.668792724609375,0.20257568359375
1782987800584260600,1.885260498046875,-0.9292144775390625,-0.6645355224609375,0.2027587890625
1782987800594334700,1.895334716796875,-0.930938720703125,-0.65386962890625,0.2015380859375
1782987800604409600,1.90540966796875,-0.926361083984375,-0.6413116455078125,0.19940185546875
1782987800614484700,1.915484619140625,-0.908447265625,-0.6463775634765625,0.2149200439453125
1782987800624558600,1.92555859375,-0.8736572265625,-0.6764373779296875,0.2557525634765625
1782987800634632700,1.9356328125,-0.84161376953125,-0.6952362060546875,0.2780914306640625
1782987800644707600,1.94570751953125,-0.82354736328125,-0.6923828125,0.2599334716796875
1782987800654781700,1.95578173828125,-0.8409576416015625,-0.6688079833984375,0.2139129638671875
1782987800664856600,1.965856689453125,-0.894256591796875,-0.6556854248046875,0.173828125
1782987800674930700,1.9759306640625,-0.9468994140625,-0.6628570556640625,0.168914794921875
1782987800685005600,1.986005615234375,-0.9799652099609375,-0.6551971435546875,0.1656036376953125
1782987800695079700,1.99607958984375,-0.9915313720703125,-0.6164398193359375,0.1496124267578125
1782987800705154600,2.006154541015625,-0.9989166259765625,-0.56500244140625,0.1347503662109375
1782987800715228700,2.016228759765625,-0.9986572265625,-0.5254364013671875,0.1310577392578125
1782987800725303600,2.026303466796875,-0.982025146484375,-0.50213623046875,0.1392822265625
1782987800735377700,2.036377685546875,-0.929931640625,-0.494964599609375,0.154632568359375
1782987800745452500,2.04645263671875,-0.854248046875,-0.496551513671875,0.17132568359375
1782987800755526700,2.056526611328125,-0.77801513671875,-0.4952850341796875,0.1926116943359375
1782987800765601800,2.066601806640625,-0.7185516357421875,-0.4872894287109375,0.2108917236328125
1782987800775675600,2.076675537109375,-0.6754608154296875,-0.481353759765625,0.2231903076171875
1782987800785750800,2.086750732421875,-0.65533447265625,-0.4782867431640625,0.2274169921875
1782987800795824600,2.09682470703125,-0.6602935791015625,-0.477569580078125,0.225830078125
1782987800805899800,2.106899658203125,-0.67706298828125,-0.466949462890625,0.2121429443359375
1782987800815973600,2.1169736328125,-0.707550048828125,-0.4554595947265625,0.1913909912109375
1782987800826048800,2.127048828125,-0.7623443603515625,-0.44903564453125,0.16070556640625
1782987800836122600,2.13712255859375,-0.82232666015625,-0.437652587890625,0.1356353759765625
1782987800846197800,2.14719775390625,-0.8645477294921875,-0.425537109375,0.1188812255859375
1782987800856271600,2.157271728515625,-0.8721160888671875,-0.421844482421875,0.114105224609375
1782987800866346800,2.1673466796875,-0.85174560546875,-0.4263458251953125,0.1195068359375
1782987800876420900,2.1774208984375,-0.8143463134765625,-0.4384002685546875,0.13232421875
1782987800886495700,2.187495849609375,-0.779541015625,-0.4429168701171875,0.1453704833984375
1782987800896569900,2.19756982421875,-0.7469635009765625,-0.4379425048828125,0.155303955078125
1782987800906644700,2.207644775390625,-0.721343994140625,-0.4366607666015625,0.1601715087890625
1782987800916718800,2.21771875,-0.696136474609375,-0.4440155029296875,0.164764404296875
1782987800926793700,2.227793701171875,-0.68304443359375,-0.4574127197265625,0.1674041748046875
1782987800936867800,2.237867919921875,-0.6739349365234375,-0.4680328369140625,0.1717987060546875
1782987800946942700,2.247942626953125,-0.672088623046875,-0.4784393310546875,0.17242431640625
1782987800957016800,2.258016845703125,-0.6685638427734375,-0.48687744140625,0.1730804443359375
1782987800967091700,2.268091796875,-0.668426513671875,-0.5003814697265625,0.1731109619140625
1782987800977165800,2.278165771484375,-0.6732635498046875,-0.5161895751953125,0.1714935302734375
1782987800987240700,2.28824072265625,-0.6893157958984375,-0.5227813720703125,0.16595458984375
1782987800997314800,2.298314697265625,-0.7071380615234375,-0.5280914306640625,0.1606292724609375
1782987801007389700,2.3083896484375,-0.7152557373046875,-0.54296875,0.1513519287109375
1782987801017463800,2.3184638671875,-0.715179443359375,-0.562469482421875,0.14422607421875
1782987801027539000,2.3285390625,-0.7158050537109375,-0.5869598388671875,0.1380157470703125
1782987801037613000,2.338613037109375,-0.7220611572265625,-0.60614013671875,0.1329498291015625
1782987801047688000,2.34868798828125,-0.731475830078125,-0.6251220703125,0.1247711181640625
1782987801057762000,2.358761962890625,-0.742034912109375,-0.635040283203125,0.118377685546875
1782987801067837000,2.3688369140625,-0.7545013427734375,-0.647430419921875,0.1093597412109375
1782987801077911000,2.3789111328125,-0.7779693603515625,-0.6559906005859375,0.1028594970703125
1782987801087986000,2.38898583984375,-0.813934326171875,-0.65667724609375,0.09552001953125
1782987801098060000,2.39906005859375,-0.8546905517578125,-0.64837646484375,0.0865478515625
1782987801108135000,2.409135009765625,-0.88519287109375,-0.637451171875,0.0881195068359375
1782987801118209000,2.419208984375,-0.9105224609375,-0.6327667236328125,0.0995330810546875
1782987801128284000,2.429283935546875,-0.9210968017578125,-0.63946533203125,0.11376953125
1782987801138358000,2.43935791015625,-0.9172821044921875,-0.648162841796875,0.12384033203125
1782987801148433000,2.449432861328125,-0.9102325439453125,-0.6547088623046875,0.1236724853515625
1782987801158507000,2.459507080078125,-0.9009246826171875,-0.656463623046875,0.1158599853515625
1782987801168582000,2.469581787109375,-0.895721435546875,-0.6528167724609375,0.108123779296875
1782987801178656000,2.479656005859375,-0.9042510986328125,-0.6494140625,0.101531982421875
1782987801188731000,2.48973095703125,-0.9199066162109375,-0.640045166015625,0.096771240234375
1782987801198805000,2.499804931640625,-0.9345550537109375,-0.6274871826171875,0.0997161865234375
1782987801208879900,2.5098798828125,-0.9434814453125,-0.6265869140625,0.12310791015625
1782987801218954000,2.5199541015625,-0.92596435546875,-0.655670166015625,0.16986083984375
1782987801229028000,2.530028076171875,-0.8757476806640625,-0.6708831787109375,0.1920318603515625
1782987801239103000,2.54010302734375,-0.8301849365234375,-0.6710357666015625,0.1914825439453125
1782987801249177000,2.550177001953125,-0.811614990234375,-0.668548583984375,0.1658172607421875
1782987801259252000,2.560251953125,-0.826934814453125,-0.651580810546875,0.1166534423828125
1782987801269326000,2.570326171875,-0.8758087158203125,-0.635467529296875,0.0673980712890625
1782987801279401000,2.58040087890625,-0.9226837158203125,-0.61956787109375,0.0319061279296875
1782987801289475000,2.59047509765625,-0.954132080078125,-0.5897216796875,0.0115966796875
1782987801299550000,2.600550048828125,-0.970916748046875,-0.5568084716796875,0.005462646484375
1782987801309624000,2.6106240234375,-0.9654388427734375,-0.53448486328125,0.0175323486328125
1782987801319699000,2.620698974609375,-0.936859130859375,-0.523956298828125,0.044708251953125
1782987801329773000,2.63077294921875,-0.8930511474609375,-0.5248260498046875,0.0761566162109375
1782987801339848000,2.640847900390625,-0.841064453125,-0.5267181396484375,0.098236083984375
1782987801349922000,2.650922119140625,-0.8065338134765625,-0.5269927978515625,0.1019439697265625
1782987801359997000,2.660996826171875,-0.7886505126953125,-0.5261077880859375,0.0947265625
1782987801370071000,2.671071044921875,-0.7916259765625,-0.5233612060546875,0.084686279296875
1782987801380146000,2.68114599609375,-0.801910400390625,-0.5159759521484375,0.07159423828125
1782987801390220300,2.69122021484375,-0.8039703369140625,-0.5085296630859375,0.059234619140625
1782987801400295000,2.701294921875,-0.7968292236328125,-0.5058135986328125,0.0503082275390625
1782987801410369300,2.711369384765625,-0.7877349853515625,-0.5021820068359375,0.048004150390625
1782987801420444000,2.72144384765625,-0.7795867919921875,-0.4977874755859375,0.04595947265625
1782987801430518300,2.731518310546875,-0.7786865234375,-0.48907470703125,0.052734375
1782987801440593000,2.741593017578125,-0.77935791015625,-0.4832305908203125,0.0703125
1782987801450667300,2.751667236328125,-0.774871826171875,-0.4721527099609375,0.092010498046875
1782987801460742000,2.761741943359375,-0.748077392578125,-0.463714599609375,0.11334228515625
1782987801470816300,2.771816162109375,-0.705474853515625,-0.468475341796875,0.1385650634765625
1782987801480891000,2.781890869140625,-0.6675567626953125,-0.4822845458984375,0.1653289794921875
1782987801490965200,2.79196533203125,-0.6436614990234375,-0.4998931884765625,0.181884765625
1782987801501039900,2.802039794921875,-0.63226318359375,-0.5150146484375,0.1823272705078125
1782987801511114200,2.8121142578125,-0.6351776123046875,-0.5224761962890625,0.17138671875
1782987801521188900,2.82218896484375,-0.64678955078125,-0.52813720703125,0.1565704345703125
1782987801531263200,2.83226318359375,-0.6598358154296875,-0.53216552734375,0.142364501953125
1782987801541337900,2.842337890625,-0.6761627197265625,-0.533447265625,0.1290435791015625
1782987801551412200,2.852412109375,-0.6960296630859375,-0.53314208984375,0.1198272705078125
1782987801561486800,2.86248681640625,-0.71588134765625,-0.53472900390625,0.1103668212890625
1782987801571561200,2.872561279296875,-0.7322540283203125,-0.53369140625,0.102264404296875
1782987801581635800,2.8826357421875,-0.7389068603515625,-0.5308380126953125,0.0973052978515625
1782987801591710200,2.892710205078125,-0.7399139404296875,-0.53173828125,0.096923828125
1782987801601784800,2.902784912109375,-0.7325286865234375,-0.539093017578125,0.105072021484375
1782987801611859200,2.912859130859375,-0.7191619873046875,-0.5448455810546875,0.10906982421875
1782987801621933800,2.922933837890625,-0.7078399658203125,-0.5533599853515625,0.115234375
1782987801632008200,2.93300830078125,-0.6950836181640625,-0.5668182373046875,0.116546630859375
1782987801642083000,2.9430830078125,-0.682464599609375,-0.578887939453125,0.11322021484375
1782987801652157200,2.9531572265625,-0.683868408203125,-0.5925140380859375,0.1087646484375
1782987801662232000,2.963232177734375,-0.70123291015625,-0.60687255859375,0.111083984375
1782987801672306200,2.97330615234375,-0.7260284423828125,-0.6181793212890625,0.1178131103515625
1782987801682381000,2.983381103515625,-0.752960205078125,-0.62530517578125,0.1315765380859375
1782987801692455200,2.993455078125,-0.7795867919921875,-0.6281280517578125,0.1513824462890625
1782987801702530000,3.003530029296875,-0.805694580078125,-0.632354736328125,0.1712646484375
1782987801712604200,3.013604248046875,-0.83282470703125,-0.6417388916015625,0.1866455078125
1782987801722679000,3.023678955078125,-0.858428955078125,-0.647552490234375,0.2029876708984375
1782987801732753200,3.033753173828125,-0.884918212890625,-0.6536407470703125,0.2145233154296875
1782987801742827000,3.043826904296875,-0.912689208984375,-0.6545257568359375,0.22509765625
1782987801752902100,3.053902099609375,-0.936370849609375,-0.6488037109375,0.2330322265625
1782987801762976300,3.063976318359375,-0.950592041015625,-0.6396484375,0.234375
1782987801773051100,3.074051025390625,-0.9525299072265625,-0.6368408203125,0.2391510009765625
1782987801783125200,3.084125244140625,-0.930206298828125,-0.6537933349609375,0.26507568359375
1782987801793200000,3.0942001953125,-0.880645751953125,-0.68963623046875,0.3063812255859375
1782987801803274200,3.104274169921875,-0.8358001708984375,-0.7122802734375,0.325164794921875
1782987801813349000,3.11434912109375,-0.822113037109375,-0.715240478515625,0.30072021484375
1782987801823423200,3.12442333984375,-0.847015380859375,-0.706329345703125,0.251495361328125
1782987801833498000,3.134498046875,-0.92523193359375,-0.69537353515625,0.209808349609375
1782987801843572200,3.144572265625,-1.0317535400390625,-0.6771240234375,0.18023681640625
1782987801853647000,3.154647216796875,-1.138153076171875,-0.6444854736328125,0.144500732421875
1782987801863721200,3.16472119140625,-1.2227630615234375,-0.5903778076171875,0.097503662109375
1782987801873796000,3.174796142578125,-1.2575225830078125,-0.531341552734375,0.06964111328125
1782987801883870200,3.1848701171875,-1.22320556640625,-0.4838409423828125,0.0625
1782987801893945000,3.194945068359375,-1.12640380859375,-0.4606170654296875,0.0796051025390625
1782987801904019200,3.205019287109375,-0.992401123046875,-0.4596099853515625,0.11956787109375
1782987801914094000,3.215093994140625,-0.850677490234375,-0.465667724609375,0.161376953125
1782987801924168200,3.225168212890625,-0.7116546630859375,-0.466644287109375,0.1909027099609375
1782987801934243000,3.2352431640625,-0.596923828125,-0.4749908447265625,0.215423583984375
1782987801944317200,3.245317138671875,-0.51971435546875,-0.4927215576171875,0.24005126953125
1782987801954392000,3.25539208984375,-0.48638916015625,-0.51055908203125,0.2599029541015625
1782987801964466200,3.265466064453125,-0.491729736328125,-0.515899658203125,0.2583465576171875
1782987801974541000,3.275541015625,-0.5334320068359375,-0.5049285888671875,0.2401885986328125
1782987801984615200,3.285615234375,-0.6010894775390625,-0.480804443359375,0.217071533203125
1782987801994690000,3.29568994140625,-0.681915283203125,-0.46124267578125,0.194610595703125
1782987802004764200,3.30576416015625,-0.75885009765625,-0.44866943359375,0.1727752685546875
1782987802014839000,3.315839111328125,-0.819976806640625,-0.4367523193359375,0.14703369140625
1782987802024912400,3.325912353515625,-0.8726654052734375,-0.4302520751953125,0.1258087158203125
1782987802034987300,3.3359873046875,-0.9113006591796875,-0.431304931640625,0.1003570556640625
1782987802045061400,3.346061279296875,-0.9288330078125,-0.4339752197265625,0.07879638671875
1782987802055136300,3.35613623046875,-0.9314727783203125,-0.4389801025390625,0.0634613037109375
1782987802065210400,3.36621044921875,-0.921875,-0.4423828125,0.0527191162109375
1782987802075285200,3.37628515625,-0.8958282470703125,-0.440093994140625,0.05096435546875
1782987802085359400,3.386359375,-0.8550262451171875,-0.4376983642578125,0.0570831298828125
1782987802095434200,3.396434326171875,-0.804046630859375,-0.4435882568359375,0.0747222900390625
1782987802105508400,3.40650830078125,-0.7539825439453125,-0.4552154541015625,0.09881591796875
1782987802115583500,3.41658349609375,-0.7127532958984375,-0.47076416015625,0.1182098388671875
1782987802125657300,3.4266572265625,-0.68707275390625,-0.4844512939453125,0.1306304931640625
1782987802135732500,3.436732421875,-0.6851806640625,-0.4987335205078125,0.139862060546875
1782987802145806300,3.446806396484375,-0.6889801025390625,-0.5118865966796875,0.1416015625
1782987802155881500,3.456881591796875,-0.6834259033203125,-0.523712158203125,0.1404266357421875
1782987802165955300,3.466955322265625,-0.678955078125,-0.53900146484375,0.1381988525390625
1782987802176030500,3.477030517578125,-0.6877288818359375,-0.549407958984375,0.13995361328125
1782987802186104300,3.487104248046875,-0.7012786865234375,-0.5525360107421875,0.151458740234375
1782987802196179500,3.497179443359375,-0.7085418701171875,-0.555694580078125,0.1695404052734375
1782987802206253300,3.50725341796875,-0.713592529296875,-0.56158447265625,0.1914825439453125
1782987802216328400,3.517328369140625,-0.7200927734375,-0.565032958984375,0.214111328125
1782987802226402300,3.52740234375,-0.7377471923828125,-0.5652313232421875,0.2255401611328125
1782987802236476200,3.53747607421875,-0.7589569091796875,-0.5650787353515625,0.2265777587890625
1782987802246551300,3.54755126953125,-0.7751007080078125,-0.569549560546875,0.2222137451171875
1782987802256625400,3.55762548828125,-0.7926177978515625,-0.575592041015625,0.2173004150390625
1782987802266700300,3.5677001953125,-0.8061676025390625,-0.5770416259765625,0.2192535400390625
1782987802276774400,3.5777744140625,-0.819793701171875,-0.5728302001953125,0.2212066650390625
1782987802286849300,3.587849365234375,-0.825164794921875,-0.569488525390625,0.224456787109375
1782987802296923400,3.59792333984375,-0.8238677978515625,-0.5706634521484375,0.2266998291015625
1782987802306998300,3.607998291015625,-0.8240966796875,-0.57806396484375,0.224090576171875
1782987802317072400,3.618072265625,-0.828125,-0.588775634765625,0.2153167724609375
1782987802327147300,3.628147216796875,-0.844482421875,-0.6011505126953125,0.1976776123046875
1782987802337221400,3.638221435546875,-0.8782958984375,-0.608612060546875,0.178009033203125
1782987802347296300,3.648296142578125,-0.9222564697265625,-0.603973388671875,0.1511688232421875
1782987802357370400,3.658370361328125,-0.9672393798828125,-0.5951080322265625,0.115936279296875
1782987802367445200,3.6684453125,-0.99859619140625,-0.5869598388671875,0.0803985595703125
1782987802377519400,3.678519287109375,-1.0061798095703125,-0.582855224609375,0.0460205078125
1782987802387594200,3.68859423828125,-1.0007781982421875,-0.5817108154296875,0.019317626953125
1782987802397668400,3.69866845703125,-1.00152587890625,-0.58331298828125,-0.00103759765625
1782987802407743200,3.7087431640625,-0.983612060546875,-0.6001434326171875,0.0054931640625
1782987802417817300,3.7188173828125,-0.9182281494140625,-0.6313018798828125,0.0345916748046875
1782987802427892200,3.728892333984375,-0.84674072265625,-0.670135498046875,0.0711822509765625
1782987802437966300,3.73896630859375,-0.8012237548828125,-0.7045135498046875,0.0783538818359375
1782987802448041200,3.749041259765625,-0.8036651611328125,-0.7068328857421875,0.031494140625
1782987802458115300,3.759115234375,-0.877044677734375,-0.676300048828125,-0.0353240966796875
1782987802468190200,3.769190185546875,-0.9854888916015625,-0.6389617919921875,-0.087005615234375
1782987802478264300,3.779264404296875,-1.0863189697265625,-0.5855255126953125,-0.1181640625
1782987802488339200,3.789339111328125,-1.1651611328125,-0.5090179443359375,-0.1380157470703125
1782987802498413300,3.799413330078125,-1.214324951171875,-0.4441680908203125,-0.1278839111328125
1782987802508488400,3.809488525390625,-1.2166595458984375,-0.413177490234375,-0.0921478271484375
1782987802518562300,3.819562255859375,-1.171112060546875,-0.400970458984375,-0.051788330078125
1782987802528637400,3.829637451171875,-1.086151123046875,-0.3973541259765625,-0.0223236083984375
1782987802538711300,3.839711181640625,-0.98321533203125,-0.3979034423828125,-0.0052947998046875
1782987802548786400,3.849786376953125,-0.888641357421875,-0.40447998046875,0.0066375732421875
1782987802558860300,3.8598603515625,-0.8168182373046875,-0.4193878173828125,0.0225982666015625
1782987802568935400,3.869935302734375,-0.77752685546875,-0.4347381591796875,0.0309906005859375
1782987802579009300,3.88000927734375,-0.759033203125,-0.4410858154296875,0.02947998046875
1782987802589084400,3.89008447265625,-0.754302978515625,-0.4408721923828125,0.011810302734375
1782987802599158300,3.900158203125,-0.75579833984375,-0.44482421875,-0.00506591796875
1782987802609233400,3.9102333984375,-0.762054443359375,-0.452301025390625,-0.0151519775390625
1782987802619307300,3.920307373046875,-0.768646240234375,-0.4616241455078125,-0.0322418212890625
1782987802629382400,3.93038232421875,-0.7861480712890625,-0.46917724609375,-0.048004150390625
1782987802639456300,3.940456298828125,-0.80902099609375,-0.4763031005859375,-0.0668182373046875
1782987802649531400,3.950531494140625,-0.814697265625,-0.4790496826171875,-0.0711212158203125
1782987802659605200,3.960605224609375,-0.7958984375,-0.4837188720703125,-0.0555419921875
1782987802669680400,3.970680419921875,-0.753387451171875,-0.488311767578125,-0.0200042724609375
1782987802679754200,3.980754150390625,-0.709716796875,-0.4900054931640625,0.02227783203125
1782987802689828400,3.990828369140625,-0.6766204833984375,-0.4924468994140625,0.0572052001953125
1782987802699903200,4.0009033203125,-0.6648406982421875,-0.4954071044921875,0.093017578125
1782987802709977300,4.010977294921875,-0.6730194091796875,-0.5040130615234375,0.119049072265625
1782987802720052200,4.02105224609375,-0.6857757568359375,-0.5084381103515625,0.125030517578125
1782987802730126300,4.031126220703125,-0.6976318359375,-0.51007080078125,0.1209259033203125
1782987802740201200,4.041201171875,-0.712158203125,-0.5158233642578125,0.115478515625
1782987802750275300,4.051275390625,-0.7239227294921875,-0.52520751953125,0.113494873046875
1782987802760350200,4.06135009765625,-0.73199462890625,-0.53662109375,0.1138763427734375
1782987802770424300,4.07142431640625,-0.74432373046875,-0.54766845703125,0.109771728515625
1782987802780499200,4.081499267578125,-0.7512664794921875,-0.5630035400390625,0.0953216552734375
1782987802790573300,4.0915732421875,-0.75238037109375,-0.5731353759765625,0.0745697021484375
1782987802800648200,4.101648193359375,-0.7505035400390625,-0.585968017578125,0.05474853515625
1782987802810722300,4.111722412109375,-0.7335052490234375,-0.590057373046875,0.0335540771484375
1782987802820797200,4.121797119140625,-0.7347412109375,-0.5883026123046875,0.028076171875
1782987802830871300,4.131871337890625,-0.77667236328125,-0.5886993408203125,0.02703857421875
1782987802840946200,4.1419462890625,-0.826934814453125,-0.589111328125,0.01971435546875
1782987802851020300,4.152020263671875,-0.86199951171875,-0.579559326171875,0.0099029541015625
1782987802861095200,4.16209521484375,-0.877716064453125,-0.56951904296875,0.007720947265625
1782987802871169300,4.172169189453125,-0.87371826171875,-0.5702972412109375,0.01629638671875
1782987802881244400,4.182244384765625,-0.854888916015625,-0.5821533203125,0.0330657958984375
1782987802891318300,4.192318359375,-0.82232666015625,-0.598968505859375,0.05157470703125
1782987802901393400,4.202393310546875,-0.7903289794921875,-0.60888671875,0.0709381103515625
1782987802911467300,4.21246728515625,-0.7675628662109375,-0.6133270263671875,0.091796875
1782987802921542400,4.22254248046875,-0.7598114013671875,-0.611083984375,0.1158447265625
1782987802931616300,4.2326162109375,-0.767120361328125,-0.6094818115234375,0.134124755859375
1782987802941691400,4.24269140625,-0.7894287109375,-0.6034088134765625,0.144805908203125
1782987802951765200,4.25276513671875,-0.816131591796875,-0.5930328369140625,0.1523590087890625
1782987802961840400,4.26284033203125,-0.8552093505859375,-0.5828857421875,0.1556549072265625
1782987802971914200,4.272914306640625,-0.8973846435546875,-0.5701904296875,0.1484222412109375
1782987802981989400,4.2829892578125,-0.9266204833984375,-0.5638275146484375,0.146240234375
1782987802992063200,4.293063232421875,-0.933013916015625,-0.583984375,0.1629486083984375
1782987803002138400,4.303138427734375,-0.8973236083984375,-0.6162567138671875,0.2044219970703125
1782987803012212200,4.313212158203125,-0.8458099365234375,-0.63922119140625,0.2341766357421875
1782987803022288400,4.323288330078125,-0.8002777099609375,-0.6514892578125,0.2373809814453125
1782987803032362200,4.3333623046875,-0.7824249267578125,-0.6523284912109375,0.2000579833984375
1782987803042437400,4.343437255859375,-0.8158721923828125,-0.6459808349609375,0.133758544921875
1782987803052511200,4.35351123046875,-0.898040771484375,-0.634246826171875,0.0802459716796875
1782987803062586400,4.36358642578125,-1.010711669921875,-0.6077728271484375,0.0399932861328125
1782987803072660200,4.37366015625,-1.12841796875,-0.55230712890625,0.009002685546875
1782987803082735400,4.3837353515625,-1.22552490234375,-0.479644775390625,-0.01043701171875
1782987803092809200,4.393809326171875,-1.279510498046875,-0.4223785400390625,-0.0098724365234375
1782987803102884400,4.40388427734375,-1.249969482421875,-0.3890228271484375,0.018280029296875
1782987803112958200,4.413958251953125,-1.147216796875,-0.396514892578125,0.06854248046875
1782987803123032300,4.4240322265625,-1.016693115234375,-0.4236297607421875,0.12109375
1782987803133107200,4.434107177734375,-0.885894775390625,-0.447784423828125,0.15008544921875
1782987803143181300,4.444181396484375,-0.7827911376953125,-0.4652557373046875,0.17120361328125
1782987803153256200,4.454256103515625,-0.7120513916015625,-0.472442626953125,0.1826934814453125
1782987803163330300,4.464330322265625,-0.684051513671875,-0.46966552734375,0.1808624267578125
1782987803173405200,4.4744052734375,-0.6920318603515625,-0.4596405029296875,0.16595458984375
1782987803183479300,4.484479248046875,-0.7184600830078125,-0.443878173828125,0.1408538818359375
1782987803193554200,4.49455419921875,-0.762908935546875,-0.4224700927734375,0.117584228515625
1782987803203628300,4.504628173828125,-0.8193511962890625,-0.4056243896484375,0.0974578857421875
1782987803213703200,4.514703125,-0.8795166015625,-0.39007568359375,0.0806732177734375
1782987803223777300,4.52477734375,-0.9340362548828125,-0.37554931640625,0.066162109375
1782987803233852200,4.53485205078125,-0.9718170166015625,-0.3681640625,0.06036376953125
1782987803243926300,4.54492626953125,-0.98345947265625,-0.366973876953125,0.06378173828125
1782987803254001400,4.55500146484375,-0.961334228515625,-0.368560791015625,0.077056884765625
1782987803264075300,4.5650751953125,-0.9111785888671875,-0.3737030029296875,0.0941925048828125
1782987803274150400,4.575150390625,-0.851531982421875,-0.378326416015625,0.11199951171875
1782987803284224300,4.585224365234375,-0.795867919921875,-0.3833770751953125,0.1278533935546875
1782987803294299400,4.59529931640625,-0.7486572265625,-0.3868560791015625,0.1382904052734375
1782987803304373200,4.605373291015625,-0.7145843505859375,-0.3906707763671875,0.1419525146484375
1782987803314448400,4.615448486328125,-0.688201904296875,-0.3963165283203125,0.149261474609375
1782987803324522200,4.625522216796875,-0.6685028076171875,-0.405059814453125,0.15625
1782987803334597400,4.635597412109375,-0.666717529296875,-0.417022705078125,0.163055419921875
1782987803344671200,4.645671142578125,-0.67730712890625,-0.4282073974609375,0.160400390625
1782987803354746400,4.655746337890625,-0.69488525390625,-0.4345550537109375,0.143096923828125
1782987803364820200,4.6658203125,-0.717864990234375,-0.4373626708984375,0.129852294921875
1782987803374895400,4.675895263671875,-0.7375335693359375,-0.4412994384765625,0.1185455322265625
1782987803384969200,4.68596923828125,-0.751190185546875,-0.4495697021484375,0.1119384765625
1782987803395044400,4.69604443359375,-0.763946533203125,-0.4568328857421875,0.1077423095703125
1782987803405118200,4.7061181640625,-0.7792816162109375,-0.462158203125,0.1079559326171875
1782987803415193300,4.716193359375,-0.7944793701171875,-0.46722412109375,0.11212158203125
1782987803425267200,4.72626708984375,-0.802886962890625,-0.46942138671875,0.1192474365234375
1782987803435342300,4.73634228515625,-0.8060150146484375,-0.471221923828125,0.1212921142578125
1782987803445416200,4.746416259765625,-0.805816650390625,-0.4742279052734375,0.11810302734375
1782987803455491300,4.7564912109375,-0.818267822265625,-0.483551025390625,0.1163482666015625
1782987803465565200,4.766565185546875,-0.84588623046875,-0.494476318359375,0.106719970703125
1782987803475640300,4.776640380859375,-0.8643035888671875,-0.50006103515625,0.0983123779296875
1782987803485714200,4.786714111328125,-0.872283935546875,-0.5166015625,0.099151611328125
1782987803495789300,4.796789306640625,-0.86846923828125,-0.536773681640625,0.1086273193359375
1782987803505863200,4.80686328125,-0.8716583251953125,-0.558868408203125,0.1201019287109375
1782987803515937300,4.816937255859375,-0.8828277587890625,-0.5774993896484375,0.1255340576171875
1782987803526012200,4.82701220703125,-0.8995819091796875,-0.5929412841796875,0.1189727783203125
1782987803536086300,4.837086181640625,-0.92529296875,-0.5952911376953125,0.1008453369140625
1782987803546161200,4.8471611328125,-0.95782470703125,-0.5839996337890625,0.07421875
1782987803556235300,4.8572353515625,-0.99005126953125,-0.5670928955078125,0.0496368408203125
1782987803566310100,4.86731005859375,-1.0207977294921875,-0.5516204833984375,0.0340118408203125
1782987803576384300,4.87738427734375,-1.052215576171875,-0.535003662109375,0.026336669921875
1782987803586459100,4.887459228515625,-1.0653076171875,-0.53009033203125,0.03533935546875
1782987803596533200,4.897533203125,-1.036224365234375,-0.54541015625,0.06622314453125
1782987803606608100,4.907608154296875,-0.9807586669921875,-0.5612945556640625,0.0875091552734375
1782987803616682200,4.91768212890625,-0.941314697265625,-0.5701141357421875,0.080108642578125
1782987803626757000,4.927757080078125,-0.9265899658203125,-0.5636138916015625,0.046661376953125
1782987803636831200,4.937831298828125,-0.9375,-0.542236328125,-0.0026702880859375
1782987803646906400,4.94790625,-0.963836669921875,-0.519683837890625,-0.0462188720703125
1782987803656980200,4.957980224609375,-0.990936279296875,-0.5023651123046875,-0.08795166015625
1782987803667055400,4.968055419921875,-1.016510009765625,-0.466094970703125,-0.136474609375
1782987803677129200,4.978129150390625,-1.0478973388671875,-0.4159393310546875,-0.1681060791015625
1782987803687204400,4.988204345703125,-1.082305908203125,-0.375274658203125,-0.1524200439453125
1782987803697278200,4.9982783203125,-1.097869873046875,-0.3438568115234375,-0.0930938720703125
1782987803707353300,5.008353271484375,-1.0732269287109375,-0.3283233642578125,-0.01519775390625
1782987803717427200,5.01842724609375,-1.0133819580078125,-0.3241119384765625,0.0486602783203125
1782987803727502300,5.02850244140625,-0.9395751953125,-0.3309173583984375,0.0894317626953125
1782987803737576200,5.038576171875,-0.8790435791015625,-0.3500213623046875,0.1163177490234375
1782987803747651300,5.0486513671875,-0.845458984375,-0.3733673095703125,0.122650146484375
1782987803757725200,5.05872509765625,-0.8380584716796875,-0.3839263916015625,0.09368896484375
1782987803767800300,5.06880029296875,-0.8371429443359375,-0.3851776123046875,0.040802001953125
1782987803777874200,5.078874267578125,-0.8396759033203125,-0.3927459716796875,-0.0061492919921875
1782987803787949300,5.08894921875,-0.846221923828125,-0.4058685302734375,-0.041900634765625
1782987803798023200,5.099023193359375,-0.8553619384765625,-0.4145965576171875,-0.065673828125
1782987803808098300,5.109098388671875,-0.865936279296875,-0.42120361328125,-0.0713653564453125
1782987803818172200,5.119172119140625,-0.86724853515625,-0.4279632568359375,-0.0555419921875
1782987803828247300,5.129247314453125,-0.8582763671875,-0.4330291748046875,-0.025665283203125
1782987803838321200,5.139321044921875,-0.8370361328125,-0.436553955078125,0.0078582763671875
1782987803848396300,5.149396240234375,-0.8169097900390625,-0.4334716796875,0.038726806640625
1782987803858470100,5.15947021484375,-0.792327880859375,-0.4288330078125,0.0615692138671875
1782987803868545300,5.169545166015625,-0.767364501953125,-0.4234771728515625,0.0749969482421875
1782987803878619100,5.179619140625,-0.7505035400390625,-0.421234130859375,0.076690673828125
1782987803888693200,5.189693359375,-0.74786376953125,-0.4182586669921875,0.0749053955078125
1782987803898768100,5.19976806640625,-0.7715911865234375,-0.4145965576171875,0.068267822265625
1782987803908842200,5.20984228515625,-0.8120269775390625,-0.416534423828125,0.0501251220703125
1782987803918917000,5.219917236328125,-0.8403472900390625,-0.4222564697265625,0.03216552734375
1782987803928991200,5.2299912109375,-0.8529052734375,-0.4353179931640625,0.020050048828125
1782987803939066000,5.240066162109375,-0.859832763671875,-0.4483184814453125,0.0243682861328125
1782987803949140200,5.25014013671875,-0.843475341796875,-0.4524993896484375,0.040924072265625
1782987803959215000,5.260215087890625,-0.8203125,-0.46044921875,0.051666259765625
1782987803969289200,5.270289306640625,-0.805145263671875,-0.4767303466796875,0.069671630859375
1782987803979364000,5.280364013671875,-0.800872802734375,-0.492706298828125,0.07708740234375
1782987803989438200,5.290438232421875,-0.804473876953125,-0.5023193359375,0.075592041015625
1782987803999513000,5.30051318359375,-0.807830810546875,-0.508148193359375,0.0715789794921875
1782987804009587200,5.310587158203125,-0.8103790283203125,-0.5121917724609375,0.0687713623046875
1782987804019662000,5.320662109375,-0.812957763671875,-0.519256591796875,0.071685791015625
1782987804029735700,5.330735595703125,-0.8207855224609375,-0.5269622802734375,0.084716796875
1782987804039810600,5.340810546875,-0.836944580078125,-0.53338623046875,0.1012420654296875
1782987804049884700,5.350884765625,-0.856689453125,-0.5326080322265625,0.1198577880859375
1782987804059959600,5.36095947265625,-0.872161865234375,-0.532318115234375,0.143524169921875
1782987804070033000,5.371032958984375,-0.8877105712890625,-0.5384368896484375,0.1629638671875
1782987804080107800,5.381107666015625,-0.8912506103515625,-0.5518341064453125,0.1745147705078125
1782987804090182000,5.391181884765625,-0.8823699951171875,-0.573577880859375,0.17333984375
1782987804100256800,5.4012568359375,-0.8732452392578125,-0.5924530029296875,0.15692138671875
1782987804110331000,5.411330810546875,-0.8641357421875,-0.5976715087890625,0.1267547607421875
1782987804120405800,5.42140576171875,-0.8529510498046875,-0.5942230224609375,0.0880126953125
1782987804130479900,5.43147998046875,-0.8453216552734375,-0.584320068359375,0.0596466064453125
1782987804140554800,5.4415546875,-0.844085693359375,-0.5886077880859375,0.05767822265625
1782987804150628900,5.45162890625,-0.826934814453125,-0.614105224609375,0.0921630859375
1782987804160703700,5.461703857421875,-0.7915191650390625,-0.630706787109375,0.12451171875
1782987804170777900,5.47177783203125,-0.7769927978515625,-0.62701416015625,0.1219482421875
1782987804180852700,5.481852783203125,-0.800140380859375,-0.613006591796875,0.080413818359375
1782987804190926800,5.4919267578125,-0.883392333984375,-0.5897216796875,0.0344390869140625
1782987804201001700,5.502001708984375,-1.0142974853515625,-0.5631103515625,-0.0006103515625
1782987804211075800,5.512075927734375,-1.1443023681640625,-0.527984619140625,-0.0230865478515625
1782987804221151000,5.52215087890625,-1.252532958984375,-0.48223876953125,-0.0431365966796875
1782987804231224800,5.532224853515625,-1.290802001953125,-0.4266204833984375,-0.0521392822265625
1782987804241300000,5.542300048828125,-1.2398834228515625,-0.3824920654296875,-0.0357208251953125
1782987804251373800,5.552373779296875,-1.118133544921875,-0.37457275390625,0.0101776123046875
1782987804261449000,5.562448974609375,-0.973175048828125,-0.40460205078125,0.0758056640625
1782987804271522800,5.572522705078125,-0.8504486083984375,-0.4427490234375,0.1304931640625
1782987804281598000,5.582597900390625,-0.7631988525390625,-0.4707183837890625,0.158966064453125
1782987804291671800,5.592671875,-0.711181640625,-0.484161376953125,0.1618194580078125
1782987804301747000,5.602746826171875,-0.690338134765625,-0.4845428466796875,0.146209716796875
1782987804311820800,5.61282080078125,-0.701904296875,-0.476470947265625,0.1175537109375
1782987804321896000,5.62289599609375,-0.74188232421875,-0.4578094482421875,0.08709716796875
1782987804331969800,5.6329697265625,-0.7933197021484375,-0.437042236328125,0.0626983642578125
1782987804342044000,5.6430439453125,-0.856231689453125,-0.4207763671875,0.0491180419921875
1782987804352118800,5.653118896484375,-0.9068756103515625,-0.4058990478515625,0.0454864501953125
1782987804362193000,5.66319287109375,-0.9330291748046875,-0.3931427001953125,0.0438232421875
1782987804372267800,5.673267822265625,-0.9408111572265625,-0.3854217529296875,0.05584716796875
1782987804382342000,5.683341796875,-0.9451141357421875,-0.38165283203125,0.0705413818359375
1782987804392416800,5.693416748046875,-0.93682861328125,-0.372222900390625,0.0838165283203125
1782987804402491000,5.703490966796875,-0.918365478515625,-0.36358642578125,0.090240478515625
1782987804412565800,5.713565673828125,-0.8940887451171875,-0.353668212890625,0.10260009765625
1782987804422639900,5.723639892578125,-0.8672943115234375,-0.3455047607421875,0.11480712890625
1782987804432714800,5.73371484375,-0.8392791748046875,-0.3346405029296875,0.1280670166015625
1782987804442788900,5.743788818359375,-0.812530517578125,-0.327972412109375,0.14642333984375
1782987804452863700,5.75386376953125,-0.7926483154296875,-0.3317413330078125,0.1635894775390625
1782987804462939000,5.76393896484375,-0.7749176025390625,-0.3376617431640625,0.172882080078125
1782987804473012700,5.7740126953125,-0.7573089599609375,-0.3497314453125,0.172149658203125
1782987804483088000,5.784087890625,-0.745697021484375,-0.364959716796875,0.172088623046875
1782987804493161700,5.79416162109375,-0.7639312744140625,-0.380462646484375,0.171875
1782987804503236900,5.80423681640625,-0.8077239990234375,-0.3861083984375,0.1613616943359375
1782987804513310700,5.814310791015625,-0.852508544921875,-0.3846435546875,0.1435089111328125
1782987804523385900,5.8243857421875,-0.8883056640625,-0.3833465576171875,0.1233062744140625
1782987804533459700,5.834459716796875,-0.90814208984375,-0.3841400146484375,0.1113433837890625
1782987804543534800,5.844534912109375,-0.9210968017578125,-0.3968963623046875,0.1079864501953125
1782987804553608700,5.854608642578125,-0.91815185546875,-0.4130401611328125,0.1036376953125
1782987804563683800,5.864683837890625,-0.894317626953125,-0.422027587890625,0.1015625
1782987804573757700,5.8747578125,-0.863983154296875,-0.435546875,0.1089630126953125
1782987804583832800,5.884832763671875,-0.8369140625,-0.450592041015625,0.121246337890625
1782987804593907000,5.894906982421875,-0.8104095458984375,-0.4632110595703125,0.1255645751953125
1782987804603981800,5.90498193359375,-0.798126220703125,-0.477081298828125,0.1296234130859375
1782987804614056000,5.915055908203125,-0.810577392578125,-0.488037109375,0.1315460205078125
1782987804624130800,5.925130859375,-0.840240478515625,-0.492584228515625,0.1300811767578125
1782987804634205000,5.935204833984375,-0.8725738525390625,-0.4909210205078125,0.132720947265625
1782987804644279800,5.94527978515625,-0.9045562744140625,-0.49127197265625,0.1405181884765625
1782987804654354000,5.95535400390625,-0.934051513671875,-0.4906463623046875,0.145416259765625
1782987804664428800,5.9654287109375,-0.9622955322265625,-0.481781005859375,0.1431427001953125
1782987804674503000,5.9755029296875,-0.9857940673828125,-0.4686126708984375,0.133331298828125
1782987804684577800,5.985577880859375,-1.001953125,-0.4569091796875,0.1200714111328125
1782987804694652000,5.99565185546875,-1.01629638671875,-0.4466094970703125,0.108551025390625
1782987804704726800,6.005726806640625,-1.0167388916015625,-0.4407501220703125,0.099945068359375
1782987804714801000,6.01580078125,-1.0039215087890625,-0.4425811767578125,0.1084136962890625
1782987804724875800,6.025875732421875,-0.9763946533203125,-0.4673004150390625,0.14495849609375
1782987804734950000,6.035949951171875,-0.9276123046875,-0.497222900390625,0.1883087158203125
1782987804745024800,6.046024658203125,-0.8901519775390625,-0.51116943359375,0.1955718994140625
1782987804755099000,6.056098876953125,-0.8932037353515625,-0.5016632080078125,0.149261474609375
1782987804765173800,6.066173828125,-0.9480133056640625,-0.47076416015625,0.070404052734375
1782987804775248000,6.076247802734375,-1.02978515625,-0.4388275146484375,-0.0019073486328125
1782987804785322800,6.08632275390625,-1.104156494140625,-0.38958740234375,-0.063323974609375
1782987804795396900,6.09639697265625,-1.1589508056640625,-0.34368896484375,-0.0989837646484375
1782987804805471700,6.1064716796875,-1.1713409423828125,-0.3236846923828125,-0.096282958984375
1782987804815545900,6.1165458984375,-1.12982177734375,-0.3282318115234375,-0.057952880859375
1782987804825619700,6.12661962890625,-1.0410614013671875,-0.3568572998046875,0.0030517578125
1782987804835694800,6.13669482421875,-0.944061279296875,-0.393157958984375,0.0575714111328125
1782987804845768700,6.146768798828125,-0.869964599609375,-0.4343109130859375,0.10931396484375
1782987804855843800,6.15684375,-0.822723388671875,-0.46173095703125,0.1335906982421875
1782987804865917700,6.166917724609375,-0.8169403076171875,-0.461944580078125,0.1116943359375
1782987804875992800,6.176992919921875,-0.8498687744140625,-0.4451751708984375,0.049468994140625
1782987804886066700,6.187066650390625,-0.897308349609375,-0.426300048828125,-0.0081787109375
1782987804896141800,6.197141845703125,-0.9438629150390625,-0.4132537841796875,-0.048797607421875
1782987804906215700,6.207215576171875,-0.98236083984375,-0.40478515625,-0.0723876953125
1782987804916290800,6.217290771484375,-0.99859619140625,-0.3999481201171875,-0.0746612548828125
1782987804926364700,6.22736474609375,-0.9844818115234375,-0.4095916748046875,-0.055389404296875
1782987804936439800,6.237439697265625,-0.935821533203125,-0.42279052734375,-0.0158843994140625
1782987804946513700,6.247513671875,-0.87322998046875,-0.439971923828125,0.0196990966796875
1782987804956588800,6.2575888671875,-0.800933837890625,-0.448272705078125,0.0496826171875
1782987804966662700,6.26766259765625,-0.734130859375,-0.455230712890625,0.07733154296875
1782987804976737800,6.27773779296875,-0.6800537109375,-0.463592529296875,0.099853515625
1782987804986812000,6.28781201171875,-0.6378326416015625,-0.471435546875,0.1147918701171875
1782987804996886800,6.29788671875,-0.6110687255859375,-0.48004150390625,0.12542724609375
1782987805006961000,6.3079609375,-0.6022796630859375,-0.4907073974609375,0.125457763671875
1782987805017035800,6.318035888671875,-0.61383056640625,-0.5009002685546875,0.117889404296875
1782987805027110100,6.328110107421875,-0.6453704833984375,-0.50909423828125,0.10546875
1782987805037185000,6.33818505859375,-0.6955718994140625,-0.518280029296875,0.0922393798828125
1782987805047259100,6.348259033203125,-0.741790771484375,-0.521484375,0.0826416015625
1782987805057334000,6.358333984375,-0.780609130859375,-0.5193328857421875,0.07476806640625
1782987805067408100,6.368408203125,-0.8149566650390625,-0.523681640625,0.071929931640625
1782987805077483000,6.37848291015625,-0.855621337890625,-0.5298919677734375,0.069122314453125
1782987805087557000,6.38855712890625,-0.90447998046875,-0.5352325439453125,0.0687255859375
1782987805097632000,6.398632080078125,-0.956298828125,-0.530120849609375,0.069122314453125
1782987805107706000,6.4087060546875,-0.99652099609375,-0.5188446044921875,0.0731201171875
1782987805117781000,6.418781005859375,-1.0190887451171875,-0.505767822265625,0.077239990234375
1782987805127855000,6.428855224609375,-1.015625,-0.497955322265625,0.0816192626953125
1782987805137930000,6.438929931640625,-0.9958648681640625,-0.494598388671875,0.0812835693359375
1782987805148004000,6.449004150390625,-0.965576171875,-0.500274658203125,0.07342529296875
1782987805158079000,6.459078857421875,-0.9259796142578125,-0.504852294921875,0.0622406005859375
1782987805168153000,6.469153076171875,-0.883148193359375,-0.5110321044921875,0.0533599853515625
1782987805178228000,6.47922802734375,-0.845123291015625,-0.517913818359375,0.0591583251953125
1782987805188302000,6.489302001953125,-0.813140869140625,-0.5230712890625,0.069549560546875
1782987805198377000,6.499376953125,-0.7848968505859375,-0.5276641845703125,0.0883026123046875
1782987805208451000,6.509451171875,-0.767608642578125,-0.53619384765625,0.1087493896484375
1782987805218526200,6.519526123046875,-0.7599334716796875,-0.5457611083984375,0.126068115234375
1782987805228600000,6.52960009765625,-0.7511444091796875,-0.5548095703125,0.12982177734375
1782987805238674000,6.539673828125,-0.7429351806640625,-0.5631866455078125,0.1259307861328125
1782987805248749000,6.5497490234375,-0.737548828125,-0.5660552978515625,0.1178741455078125
1782987805258823000,6.559822998046875,-0.743133544921875,-0.5623626708984375,0.1113433837890625
1782987805268898000,6.56989794921875,-0.746551513671875,-0.56988525390625,0.125
1782987805278972000,6.579971923828125,-0.7340087890625,-0.6030426025390625,0.174468994140625
1782987805289047000,6.590047119140625,-0.6976470947265625,-0.6288299560546875,0.22369384765625
1782987805299121000,6.600120849609375,-0.6540374755859375,-0.6525726318359375,0.237640380859375
1782987805309196000,6.610196044921875,-0.6287384033203125,-0.67755126953125,0.2201385498046875
1782987805319270000,6.620269775390625,-0.666961669921875,-0.6821136474609375,0.17633056640625
1782987805329345000,6.630344970703125,-0.761932373046875,-0.648712158203125,0.118896484375
1782987805339419100,6.640419189453125,-0.8999481201171875,-0.5995635986328125,0.0421295166015625
1782987805349494000,6.650493896484375,-1.044281005859375,-0.534393310546875,-0.039764404296875
1782987805359568100,6.660568115234375,-1.152099609375,-0.4540863037109375,-0.108795166015625
1782987805369643000,6.67064306640625,-1.1908416748046875,-0.3842315673828125,-0.13897705078125
1782987805379717000,6.680717041015625,-1.1626434326171875,-0.351776123046875,-0.1115875244140625
1782987805389792000,6.6907919921875,-1.08294677734375,-0.3630828857421875,-0.0128936767578125
1782987805399866000,6.7008662109375,-0.983367919921875,-0.3857879638671875,0.095184326171875
1782987805409941000,6.71094091796875,-0.881134033203125,-0.40802001953125,0.181640625
1782987805420015000,6.72101513671875,-0.7850341796875,-0.43426513671875,0.245330810546875
1782987805430090000,6.731090087890625,-0.7101898193359375,-0.462493896484375,0.2775726318359375
1782987805440164000,6.7411640625,-0.6692657470703125,-0.4910430908203125,0.29010009765625
1782987805450239000,6.751239013671875,-0.6688232421875,-0.513580322265625,0.284881591796875
1782987805460313000,6.76131298828125,-0.70208740234375,-0.5194549560546875,0.2633209228515625
1782987805470388000,6.771387939453125,-0.759857177734375,-0.5046539306640625,0.2237548828125
1782987805480462000,6.781462158203125,-0.8425140380859375,-0.48187255859375,0.1792449951171875
1782987805490537000,6.791536865234375,-0.9338226318359375,-0.452880859375,0.1318359375
1782987805500611000,6.801611083984375,-1.0231475830078125,-0.422821044921875,0.0908050537109375
1782987805510686000,6.81168603515625,-1.0938568115234375,-0.395660400390625,0.0565185546875
1782987805520760000,6.821760009765625,-1.123687744140625,-0.3700714111328125,0.0380859375
1782987805530835000,6.8318349609375,-1.1086578369140625,-0.3548431396484375,0.048309326171875
1782987805540909000,6.841908935546875,-1.0450897216796875,-0.3571014404296875,0.0838623046875
1782987805550984000,6.85198388671875,-0.9403228759765625,-0.3696441650390625,0.1267547607421875
1782987805561058000,6.86205810546875,-0.828277587890625,-0.38677978515625,0.1576690673828125
1782987805571133000,6.8721328125,-0.725494384765625,-0.40692138671875,0.179290771484375
1782987805581207000,6.88220703125,-0.634124755859375,-0.431640625,0.19525146484375
1782987805591282200,6.8922822265625,-0.5576324462890625,-0.450775146484375,0.20794677734375
1782987805601356000,6.90235595703125,-0.50140380859375,-0.4685211181640625,0.2225341796875
1782987805611430000,6.912429931640625,-0.480010986328125,-0.4822235107421875,0.239776611328125
1782987805621505000,6.922505126953125,-0.4951324462890625,-0.4903411865234375,0.2454833984375
1782987805631579000,6.932578857421875,-0.556304931640625,-0.490478515625,0.2368316650390625
1782987805641654000,6.942654052734375,-0.638885498046875,-0.484588623046875,0.216552734375
1782987805651728000,6.952727783203125,-0.7233428955078125,-0.4796142578125,0.186248779296875
1782987805661803000,6.962802978515625,-0.7944793701171875,-0.48187255859375,0.1539306640625
1782987805671876900,6.972876953125,-0.850250244140625,-0.4925079345703125,0.1292877197265625
1782987805681952000,6.982951904296875,-0.8896484375,-0.5064544677734375,0.1115875244140625
1782987805692025900,6.99302587890625,-0.919219970703125,-0.5225677490234375,0.0990142822265625
1782987805702101000,7.00310107421875,-0.9296417236328125,-0.539886474609375,0.091644287109375
1782987805712174800,7.0131748046875,-0.9228973388671875,-0.5549163818359375,0.0897674560546875
1782987805722250000,7.02325,-0.9062652587890625,-0.5670928955078125,0.0931549072265625
1782987805732324000,7.033323974609375,-0.894744873046875,-0.57464599609375,0.1010894775390625
1782987805742399000,7.04339892578125,-0.8944091796875,-0.5796661376953125,0.1072845458984375
1782987805752473000,7.05347314453125,-0.905792236328125,-0.5844879150390625,0.102996826171875
1782987805762548000,7.0635478515625,-0.9297027587890625,-0.5815582275390625,0.0925445556640625
1782987805772622000,7.0736220703125,-0.95867919921875,-0.5791168212890625,0.0724639892578125
1782987805782697000,7.083697021484375,-0.9903411865234375,-0.5807952880859375,0.0503387451171875
1782987805792771000,7.09377099609375,-1.019744873046875,-0.5807037353515625,0.03033447265625
1782987805802846000,7.103845947265625,-1.058319091796875,-0.5750274658203125,0.01361083984375
1782987805812920000,7.113920166015625,-1.078460693359375,-0.5637969970703125,0.0037841796875
1782987805822995000,7.123994873046875,-1.0684814453125,-0.552276611328125,0.00146484375
1782987805833069000,7.134069091796875,-1.0361175537109375,-0.5444183349609375,0.0065460205078125
1782987805843144000,7.14414404296875,-0.992340087890625,-0.540863037109375,0.0151519775390625
1782987805853218000,7.154218017578125,-0.954498291015625,-0.535369873046875,0.0264129638671875
1782987805863293000,7.16429296875,-0.9307403564453125,-0.5341033935546875,0.04052734375
1782987805873367000,7.174366943359375,-0.895233154296875,-0.553436279296875,0.0608062744140625
1782987805883442000,7.18444189453125,-0.829620361328125,-0.5650177001953125,0.0712127685546875
1782987805893516000,7.19451611328125,-0.774810791015625,-0.57293701171875,0.07757568359375
1782987805903591000,7.2045908203125,-0.7569122314453125,-0.5807342529296875,0.0771331787109375
1782987805913665000,7.2146650390625,-0.7747344970703125,-0.58099365234375,0.0562744140625
1782987805923740000,7.224739990234375,-0.8070068359375,-0.5682373046875,0.024932861328125
1782987805933814000,7.23481396484375,-0.839019775390625,-0.550689697265625,-0.00048828125
1782987805943889000,7.244888916015625,-0.86798095703125,-0.5294189453125,-0.015625
1782987805953963000,7.254962890625,-0.8980560302734375,-0.503692626953125,-0.018951416015625
1782987805964038000,7.265037841796875,-0.9266815185546875,-0.481475830078125,-0.0048980712890625
1782987805974112000,7.275112060546875,-0.9462890625,-0.4694366455078125,0.0236053466796875
1782987805984187100,7.285187255859375,-0.9589080810546875,-0.458892822265625,0.0495758056640625
1782987805994261000,7.295260986328125,-0.9623565673828125,-0.4448089599609375,0.06494140625
1782987806004336000,7.305336181640625,-0.9564361572265625,-0.425750732421875,0.0733642578125
1782987806014410000,7.315409912109375,-0.9521026611328125,-0.4017791748046875,0.0823516845703125
1782987806024483300,7.3254833984375,-0.9616241455078125,-0.3804168701171875,0.0965728759765625
1782987806034558500,7.335558349609375,-0.9735870361328125,-0.3638763427734375,0.1095733642578125
1782987806044632300,7.34563232421875,-0.975616455078125,-0.349884033203125,0.123321533203125
1782987806054707500,7.35570751953125,-0.9710693359375,-0.346954345703125,0.1326446533203125
1782987806064781300,7.36578125,-0.968017578125,-0.3484649658203125,0.1358489990234375
1782987806074856400,7.3758564453125,-0.9587249755859375,-0.349151611328125,0.1315765380859375
1782987806084930300,7.385930419921875,-0.9373779296875,-0.3548583984375,0.1218109130859375
1782987806095005400,7.39600537109375,-0.910064697265625,-0.3672637939453125,0.107147216796875
1782987806105079300,7.406079345703125,-0.8753814697265625,-0.3853607177734375,0.0876922607421875
1782987806115154400,7.416154541015625,-0.8365631103515625,-0.400115966796875,0.0735015869140625
1782987806125228300,7.426228271484375,-0.8059234619140625,-0.4106903076171875,0.0646209716796875
1782987806135303400,7.436303466796875,-0.7833251953125,-0.4211578369140625,0.0584564208984375
1782987806145377300,7.446377197265625,-0.7714385986328125,-0.4302825927734375,0.0521697998046875
1782987806155452400,7.456452392578125,-0.767059326171875,-0.4391632080078125,0.0485992431640625
1782987806165526500,7.466526611328125,-0.759368896484375,-0.443603515625,0.0476837158203125
1782987806175601400,7.476601318359375,-0.7466278076171875,-0.446990966796875,0.05413818359375
1782987806185675500,7.486675537109375,-0.736663818359375,-0.45098876953125,0.0625152587890625
1782987806195750400,7.49675048828125,-0.7359161376953125,-0.4534912109375,0.075042724609375
1782987806205824500,7.506824462890625,-0.740386962890625,-0.452362060546875,0.08721923828125
1782987806215899400,7.5168994140625,-0.741241455078125,-0.4531097412109375,0.1005706787109375
1782987806225973500,7.526973388671875,-0.74169921875,-0.4565887451171875,0.1079254150390625
1782987806236048400,7.53704833984375,-0.7430267333984375,-0.4606781005859375,0.1139068603515625
1782987806246122500,7.54712255859375,-0.74652099609375,-0.4671478271484375,0.1134796142578125
1782987806256197400,7.557197265625,-0.75482177734375,-0.4708251953125,0.1075439453125
1782987806266271500,7.567271484375,-0.762176513671875,-0.4780120849609375,0.0987091064453125
1782987806276346400,7.577346435546875,-0.766693115234375,-0.48785400390625,0.089752197265625
1782987806286420500,7.58742041015625,-0.770233154296875,-0.4968719482421875,0.0847930908203125
1782987806296495400,7.597495361328125,-0.773040771484375,-0.503692626953125,0.0816192626953125
1782987806306569500,7.607569580078125,-0.775421142578125,-0.5052642822265625,0.085845947265625
1782987806316644400,7.617644287109375,-0.7850799560546875,-0.5074462890625,0.099029541015625
1782987806326718500,7.627718505859375,-0.80413818359375,-0.5045318603515625,0.115203857421875
1782987806336793300,7.63779345703125,-0.824554443359375,-0.5052490234375,0.1207427978515625
1782987806346867500,7.647867431640625,-0.8448333740234375,-0.5101776123046875,0.1226043701171875
1782987806356942300,7.6579423828125,-0.85986328125,-0.517333984375,0.1208038330078125
1782987806367016400,7.668016357421875,-0.8696441650390625,-0.5230712890625,0.1160888671875
1782987806377090600,7.678090576171875,-0.87646484375,-0.52813720703125,0.1128082275390625
1782987806387165400,7.68816552734375,-0.8741302490234375,-0.536102294921875,0.10906982421875
1782987806397239600,7.698239501953125,-0.8724212646484375,-0.54583740234375,0.1090087890625
1782987806407314400,7.708314453125,-0.8718109130859375,-0.5583038330078125,0.115570068359375
1782987806417388500,7.718388427734375,-0.8687744140625,-0.568939208984375,0.1291351318359375
1782987806427463400,7.72846337890625,-0.863189697265625,-0.578582763671875,0.1439666748046875
1782987806437537500,7.73853759765625,-0.856842041015625,-0.58795166015625,0.150177001953125
1782987806447612400,7.7486123046875,-0.861083984375,-0.5968017578125,0.153289794921875
1782987806457686500,7.7586865234375,-0.8791961669921875,-0.5924835205078125,0.1520538330078125
1782987806467761400,7.768761474609375,-0.9045562744140625,-0.5771636962890625,0.1441192626953125
1782987806477835500,7.77883544921875,-0.9202728271484375,-0.569244384765625,0.13604736328125
1782987806487910400,7.788910400390625,-0.909576416015625,-0.5953826904296875,0.16058349609375
1782987806497984500,7.798984619140625,-0.870147705078125,-0.6305389404296875,0.2027587890625
1782987806508059400,7.809059326171875,-0.843719482421875,-0.6489410400390625,0.2159271240234375
1782987806518133500,7.819133544921875,-0.849151611328125,-0.64788818359375,0.178680419921875
1782987806528208400,7.82920849609375,-0.9064178466796875,-0.6263275146484375,0.12042236328125
1782987806538282500,7.839282470703125,-1.00970458984375,-0.5888519287109375,0.0781097412109375
1782987806548357400,7.849357421875,-1.12921142578125,-0.54559326171875,0.046112060546875
1782987806558431700,7.859431640625,-1.264923095703125,-0.49249267578125,0.0138397216796875
1782987806568506400,7.86950634765625,-1.3543853759765625,-0.432647705078125,-0.0040740966796875
1782987806578580700,7.879580810546875,-1.3547821044921875,-0.3853912353515625,0.00335693359375
1782987806588655400,7.8896552734375,-1.2519073486328125,-0.37017822265625,0.0350494384765625
1782987806598729700,7.899729736328125,-1.09228515625,-0.388702392578125,0.0813751220703125
1782987806608804400,7.909804443359375,-0.9382781982421875,-0.417510986328125,0.121124267578125
1782987806618878700,7.919878662109375,-0.822540283203125,-0.4380035400390625,0.13714599609375
1782987806628953300,7.929953369140625,-0.7400360107421875,-0.4500274658203125,0.1332550048828125
1782987806639027700,7.94002783203125,-0.6972808837890625,-0.4527587890625,0.121246337890625
1782987806649102300,7.950102294921875,-0.6851806640625,-0.4449920654296875,0.1077880859375
1782987806659176700,7.9601767578125,-0.6995391845703125,-0.42852783203125,0.098175048828125
1782987806669251300,7.970251220703125,-0.7355804443359375,-0.4087371826171875,0.0858001708984375
1782987806679325700,7.98032568359375,-0.7793426513671875,-0.3901824951171875,0.0743255615234375
1782987806689400300,7.990400390625,-0.816802978515625,-0.3737945556640625,0.0626220703125
1782987806699474700,8.000474609375,-0.844757080078125,-0.364471435546875,0.061248779296875
1782987806709549300,8.01054931640625,-0.869384765625,-0.3644866943359375,0.0682220458984375
1782987806719623700,8.020623779296875,-0.8869476318359375,-0.36663818359375,0.0827178955078125
1782987806729698300,8.0306982421875,-0.89056396484375,-0.3666534423828125,0.1001129150390625
1782987806739772700,8.040772705078124,-0.882476806640625,-0.3660736083984375,0.11566162109375
1782987806749847300,8.050847412109375,-0.8707427978515625,-0.3669891357421875,0.123870849609375
1782987806759921700,8.060921630859376,-0.8578338623046875,-0.36614990234375,0.12701416015625
1782987806769995500,8.07099560546875,-0.8406829833984375,-0.3677215576171875,0.1270599365234375
1782987806780070700,8.081070556640626,-0.826385498046875,-0.3675537109375,0.125701904296875
1782987806790144500,8.09114453125,-0.8141937255859375,-0.3678131103515625,0.121917724609375
1782987806800219600,8.1012197265625,-0.8073883056640625,-0.3774261474609375,0.1186981201171875
1782987806810293500,8.11129345703125,-0.799774169921875,-0.3896026611328125,0.1094970703125
1782987806820368600,8.12136865234375,-0.7927398681640625,-0.4074249267578125,0.100006103515625
1782987806830442500,8.1314423828125,-0.7807769775390625,-0.421905517578125,0.1016845703125
1782987806840517600,8.141517578125,-0.7681884765625,-0.431396484375,0.10809326171875
1782987806850591500,8.151591552734375,-0.7615814208984375,-0.4361114501953125,0.12017822265625
1782987806860666600,8.16166650390625,-0.7587738037109375,-0.4390411376953125,0.1266937255859375
1782987806870740500,8.171740478515625,-0.7545318603515625,-0.4463653564453125,0.1333465576171875
1782987806880815600,8.181815673828124,-0.74871826171875,-0.4554595947265625,0.136871337890625
1782987806890889500,8.191889404296875,-0.74383544921875,-0.4676055908203125,0.1432037353515625
1782987806900964600,8.201964599609376,-0.7406768798828125,-0.4809722900390625,0.1425323486328125
1782987806911038500,8.21203857421875,-0.742218017578125,-0.49212646484375,0.1324615478515625
1782987806921113600,8.222113525390625,-0.7447662353515625,-0.505401611328125,0.1226959228515625
1782987806931187500,8.2321875,-0.7488555908203125,-0.5209197998046875,0.1161346435546875
1782987806941262600,8.2422626953125,-0.76513671875,-0.52947998046875,0.1103057861328125
1782987806951336700,8.252336669921876,-0.8041534423828125,-0.5309906005859375,0.101898193359375
1782987806961411600,8.26241162109375,-0.8576202392578125,-0.5281524658203125,0.0938720703125
1782987806971485700,8.272485595703126,-0.9030914306640625,-0.5211181640625,0.0914459228515625
1782987806981560600,8.282560546875,-0.9420623779296875,-0.5174407958984375,0.0940399169921875
1782987806991634700,8.292634765625,-0.9759674072265625,-0.5146484375,0.099395751953125
1782987807001709600,8.30270947265625,-1.0066070556640625,-0.51226806640625,0.0964813232421875
1782987807011783700,8.31278369140625,-1.0251007080078125,-0.511016845703125,0.0905914306640625
1782987807021858600,8.322858642578124,-1.0266571044921875,-0.5105133056640625,0.080810546875
1782987807031932700,8.3329326171875,-1.016265869140625,-0.50994873046875,0.0709991455078125
1782987807042007600,8.343007568359376,-1.0041046142578125,-0.5088348388671875,0.063629150390625
1782987807052081700,8.35308154296875,-0.9970855712890625,-0.5041656494140625,0.0593414306640625
1782987807062156500,8.363156494140625,-0.9927215576171875,-0.4996185302734375,0.0620574951171875
1782987807072230700,8.373230712890624,-0.97479248046875,-0.5141754150390625,0.0893096923828125
1782987807082305800,8.383305908203125,-0.9192047119140625,-0.5368499755859375,0.133636474609375
1782987807092379600,8.393379638671876,-0.866119384765625,-0.5485382080078125,0.1601409912109375
1782987807102454800,8.403454833984375,-0.8441619873046875,-0.54937744140625,0.15960693359375
1782987807112528600,8.413528564453125,-0.858795166015625,-0.53594970703125,0.1338348388671875
1782987807122602500,8.4236025390625,-0.9102630615234375,-0.51837158203125,0.09954833984375
1782987807132677600,8.433677734375,-0.96038818359375,-0.508087158203125,0.072723388671875
1782987807142751500,8.44375146484375,-0.9991455078125,-0.49322509765625,0.0494232177734375
1782987807152826600,8.45382666015625,-1.0265045166015625,-0.4649200439453125,0.027862548828125
1782987807162900500,8.463900390625,-1.06097412109375,-0.4334259033203125,0.0112152099609375
1782987807172975600,8.4739755859375,-1.097320556640625,-0.402587890625,0.0009307861328125
1782987807183049500,8.484049560546875,-1.115631103515625,-0.377777099609375,0.0010986328125
1782987807193124600,8.49412451171875,-1.0870819091796875,-0.37030029296875,0.0170440673828125
1782987807203198500,8.504198486328125,-1.0051727294921875,-0.3790740966796875,0.0484466552734375
1782987807213273600,8.514273681640624,-0.905731201171875,-0.3993377685546875,0.084808349609375
1782987807223347700,8.52434765625,-0.822174072265625,-0.4152984619140625,0.114532470703125
1782987807233422600,8.534422607421876,-0.763671875,-0.428253173828125,0.125
1782987807243496700,8.54449658203125,-0.7396392822265625,-0.4419708251953125,0.11492919921875
1782987807253571600,8.554571533203125,-0.7504119873046875,-0.4510955810546875,0.0881805419921875
1782987807263645700,8.564645751953124,-0.78326416015625,-0.453765869140625,0.05859375
1782987807273720600,8.574720458984375,-0.81781005859375,-0.452484130859375,0.0337982177734375
1782987807283794700,8.584794677734376,-0.8487548828125,-0.448516845703125,0.021240234375
1782987807293869600,8.59486962890625,-0.8624267578125,-0.4442596435546875,0.0301666259765625
1782987807303943700,8.604943603515625,-0.8561859130859375,-0.44415283203125,0.0558624267578125
1782987807314018600,8.6150185546875,-0.823394775390625,-0.4456787109375,0.0916900634765625
1782987807324092700,8.6250927734375,-0.7763214111328125,-0.451019287109375,0.128265380859375
1782987807334167600,8.63516748046875,-0.728759765625,-0.4602813720703125,0.15618896484375
1782987807344241700,8.64524169921875,-0.6902618408203125,-0.47491455078125,0.17315673828125
1782987807354316500,8.655316650390626,-0.66619873046875,-0.492584228515625,0.1837921142578125
1782987807364390700,8.665390625,-0.6613311767578125,-0.50537109375,0.1827239990234375
1782987807374465500,8.675465576171876,-0.6751861572265625,-0.5103912353515625,0.1760406494140625
1782987807384539600,8.68553955078125,-0.7114410400390625,-0.50323486328125,0.1696319580078125
1782987807394614500,8.695614501953125,-0.756683349609375,-0.4886932373046875,0.1725921630859375
1782987807404688600,8.705688720703124,-0.7998046875,-0.4755401611328125,0.1798858642578125
1782987807414763500,8.715763427734375,-0.8314361572265625,-0.4702911376953125,0.1887969970703125
1782987807424837600,8.725837646484376,-0.8601837158203125,-0.4694976806640625,0.1870269775390625
1782987807434912500,8.73591259765625,-0.880950927734375,-0.4720611572265625,0.177825927734375
1782987807444986600,8.745986572265625,-0.894287109375,-0.4769744873046875,0.1632537841796875
1782987807455061500,8.7560615234375,-0.8864288330078125,-0.48614501953125,0.15093994140625
1782987807465135600,8.766135498046875,-0.862213134765625,-0.4940032958984375,0.14410400390625
1782987807475210800,8.776210693359374,-0.833251953125,-0.4993133544921875,0.143157958984375
1782987807485284600,8.78628466796875,-0.8073577880859375,-0.5017852783203125,0.1443634033203125
1782987807495358500,8.7963583984375,-0.7860870361328125,-0.499908447265625,0.1476898193359375
1782987807505433600,8.80643359375,-0.7704010009765625,-0.500732421875,0.1533203125
1782987807515507500,8.816507568359375,-0.7653350830078125,-0.5028839111328125,0.1642303466796875
1782987807525582600,8.82658251953125,-0.76629638671875,-0.5030975341796875,0.170623779296875
1782987807535656400,8.836656494140625,-0.7740478515625,-0.4993896484375,0.1729888916015625
1782987807545731600,8.846731689453126,-0.798431396484375,-0.493499755859375,0.1720733642578125
1782987807555805400,8.856805419921875,-0.83013916015625,-0.4914093017578125,0.1753997802734375
1782987807565880600,8.866880615234376,-0.84381103515625,-0.49609375,0.1834869384765625
1782987807575954400,8.876954345703124,-0.8353729248046875,-0.507049560546875,0.1947784423828125
1782987807586029600,8.887029541015625,-0.8160858154296875,-0.5160064697265625,0.2113800048828125
1782987807596103700,8.897103759765624,-0.7961578369140625,-0.527801513671875,0.2281494140625
1782987807606178600,8.907178466796875,-0.78570556640625,-0.5411376953125,0.235595703125
1782987807616252700,8.917252685546876,-0.7867431640625,-0.551177978515625,0.2325592041015625
1782987807626327600,8.92732763671875,-0.80462646484375,-0.5529022216796875,0.2123565673828125
1782987807636401700,8.937401611328125,-0.83099365234375,-0.5445709228515625,0.18341064453125
1782987807646476500,8.9474765625,-0.8631134033203125,-0.534698486328125,0.15460205078125
1782987807656550700,8.957550537109375,-0.90765380859375,-0.532318115234375,0.153839111328125
1782987807666625500,8.96762548828125,-0.94305419921875,-0.554229736328125,0.19207763671875
1782987807676699600,8.97769970703125,-0.952728271484375,-0.5551910400390625,0.2201690673828125
1782987807686774500,8.9877744140625,-0.9783172607421875,-0.5115509033203125,0.2077789306640625
1782987807696848600,8.9978486328125,-1.0442962646484375,-0.4615478515625,0.1842041015625
1782987807706923500,9.007923583984375,-1.12579345703125,-0.435638427734375,0.1685333251953125
1782987807716997600,9.01799755859375,-1.1886138916015625,-0.4234619140625,0.17437744140625
1782987807727072500,9.028072509765625,-1.19891357421875,-0.4059295654296875,0.18609619140625
1782987807737146600,9.038146728515626,-1.1630096435546875,-0.372100830078125,0.1851654052734375
1782987807747221500,9.048221435546875,-1.0960235595703125,-0.3477630615234375,0.184844970703125
1782987807757295600,9.058295654296876,-1.005889892578125,-0.361480712890625,0.2060394287109375
1782987807767370500,9.06837060546875,-0.9102783203125,-0.39617919921875,0.2398223876953125
1782987807777444600,9.078444580078125,-0.828460693359375,-0.431549072265625,0.2697601318359375
1782987807787519500,9.08851953125,-0.7621002197265625,-0.4549713134765625,0.2793731689453125
1782987807797593600,9.098593505859375,-0.72515869140625,-0.4718475341796875,0.26824951171875
1782987807807668500,9.10866845703125,-0.7243194580078125,-0.486846923828125,0.249603271484375
1782987807817742600,9.11874267578125,-0.7646942138671875,-0.4952850341796875,0.233245849609375
1782987807827817500,9.1288173828125,-0.828125,-0.4873504638671875,0.2110748291015625
1782987807837891600,9.1388916015625,-0.890594482421875,-0.4664154052734375,0.181976318359375
1782987807847965400,9.14896533203125,-0.9372711181640625,-0.4403839111328125,0.1510772705078125
1782987807858040600,9.15904052734375,-0.9602203369140625,-0.415618896484375,0.130126953125
1782987807868114400,9.169114501953125,-0.967559814453125,-0.399017333984375,0.1154022216796875
1782987807878189600,9.179189453125,-0.96734619140625,-0.385650634765625,0.0991973876953125
1782987807888263400,9.189263427734375,-0.9566802978515625,-0.3714599609375,0.07733154296875
1782987807898338600,9.199338623046875,-0.9403533935546875,-0.362579345703125,0.0630035400390625
1782987807908412400,9.209412353515624,-0.9152069091796875,-0.3590240478515625,0.065032958984375
1782987807918487600,9.219487548828125,-0.872161865234375,-0.3568572998046875,0.0835723876953125
1782987807928561400,9.2295615234375,-0.81573486328125,-0.3535308837890625,0.1083831787109375
1782987807938636500,9.239636474609375,-0.758514404296875,-0.35797119140625,0.1320953369140625
1782987807948710400,9.24971044921875,-0.712921142578125,-0.36572265625,0.15008544921875
1782987807958785500,9.25978564453125,-0.6800994873046875,-0.3735504150390625,0.1687164306640625
1782987807968859400,9.269859375,-0.654388427734375,-0.38385009765625,0.19305419921875
1782987807978934500,9.2799345703125,-0.6398468017578125,-0.3966064453125,0.222198486328125
1782987807989008600,9.290008544921875,-0.6473236083984375,-0.408782958984375,0.2529296875
1782987807999083500,9.30008349609375,-0.675018310546875,-0.4175872802734375,0.2717437744140625
1782987808009157600,9.31015771484375,-0.712493896484375,-0.428741455078125,0.2847900390625
1782987808019232500,9.320232421875,-0.749969482421875,-0.44281005859375,0.293731689453125
1782987808029306400,9.330306396484374,-0.7901458740234375,-0.4569244384765625,0.2897796630859375
1782987808039381500,9.340381591796875,-0.816680908203125,-0.4703521728515625,0.2795562744140625
1782987808049455400,9.350455322265624,-0.8349761962890625,-0.477142333984375,0.261871337890625
1782987808059530500,9.360530517578125,-0.8502044677734375,-0.4867095947265625,0.242401123046875
1782987808069604400,9.370604248046876,-0.8751068115234375,-0.493988037109375,0.22308349609375
1782987808079678200,9.38067822265625,-0.9109649658203125,-0.4947509765625,0.204559326171875
1782987808089752300,9.39075244140625,-0.953521728515625,-0.493560791015625,0.191925048828125
1782987808099827200,9.4008271484375,-0.9886474609375,-0.4874420166015625,0.185882568359375
1782987808109901300,9.4109013671875,-1.011077880859375,-0.4768218994140625,0.1840362548828125
1782987808119976200,9.42097607421875,-1.0179290771484375,-0.4697723388671875,0.1909027099609375
1782987808130050300,9.43105029296875,-1.005615234375,-0.470672607421875,0.201202392578125
1782987808140125200,9.441125244140625,-0.9789581298828125,-0.4781494140625,0.206268310546875
1782987808150199300,9.45119921875,-0.9463653564453125,-0.4850616455078125,0.1985626220703125
1782987808160274200,9.461274169921875,-0.9190521240234375,-0.485809326171875,0.178375244140625
1782987808170348300,9.471348388671874,-0.9051361083984375,-0.487518310546875,0.1546783447265625
1782987808180423400,9.48142333984375,-0.902008056640625,-0.4891815185546875,0.12762451171875
1782987808190497300,9.491497314453126,-0.9051361083984375,-0.4871978759765625,0.0984954833984375
1782987808200572400,9.501572509765625,-0.9097900390625,-0.4822845458984375,0.084075927734375
1782987808210646300,9.511646240234375,-0.9084320068359375,-0.482574462890625,0.0869598388671875
1782987808220721400,9.521721435546874,-0.8886260986328125,-0.4957733154296875,0.117156982421875
1782987808230795300,9.531795166015625,-0.85919189453125,-0.5107269287109375,0.14569091796875
1782987808240870400,9.541870361328124,-0.8440399169921875,-0.5046234130859375,0.1454010009765625
1782987808250944300,9.5519443359375,-0.8609161376953125,-0.4781036376953125,0.110626220703125
1782987808261019400,9.562019287109376,-0.9131011962890625,-0.449188232421875,0.0641937255859375
1782987808271093200,9.57209326171875,-0.969757080078125,-0.4271240234375,0.035247802734375
1782987808281168400,9.58216845703125,-0.999908447265625,-0.40533447265625,0.0287017822265625
1782987808291242200,9.5922421875,-0.9832763671875,-0.396270751953125,0.053375244140625
1782987808301317400,9.6023173828125,-0.9138641357421875,-0.413482666015625,0.1104736328125
1782987808311391200,9.61239111328125,-0.8319244384765625,-0.4465484619140625,0.172637939453125
1782987808321466400,9.62246630859375,-0.7719573974609375,-0.4706268310546875,0.2190093994140625
1782987808331540200,9.632540283203125,-0.748565673828125,-0.4861602783203125,0.2381591796875
1782987808341615400,9.642615478515625,-0.777130126953125,-0.4773101806640625,0.211456298828125
1782987808351689200,9.652689208984375,-0.857025146484375,-0.43988037109375,0.137725830078125
1782987808361764400,9.662764404296874,-0.9628143310546875,-0.4102783203125,0.0523834228515625
1782987808371838200,9.672838134765625,-1.0692291259765625,-0.3880157470703125,-0.0006866455078125
1782987808381913300,9.682913330078126,-1.1647186279296875,-0.3677520751953125,-0.0261993408203125
1782987808391987200,9.6929873046875,-1.2035675048828125,-0.349517822265625,-0.0186920166015625
1782987808402062300,9.703062255859376,-1.17022705078125,-0.3404541015625,0.0250091552734375
1782987808412136200,9.71313623046875,-1.079010009765625,-0.34405517578125,0.0758514404296875
1782987808422210600,9.72321044921875,-0.98492431640625,-0.3569183349609375,0.1278076171875
1782987808432285200,9.73328515625,-0.9077606201171875,-0.3745269775390625,0.159393310546875
1782987808442359600,9.743359619140625,-0.85125732421875,-0.391021728515625,0.1662445068359375
1782987808452434200,9.75343408203125,-0.799285888671875,-0.406036376953125,0.1634521484375
1782987808462508500,9.763508544921875,-0.744659423828125,-0.4208984375,0.161224365234375
1782987808472583200,9.773583251953125,-0.6997833251953125,-0.4407501220703125,0.1662139892578125
1782987808482657500,9.783657470703124,-0.6714324951171875,-0.4575653076171875,0.1769256591796875
1782987808492732200,9.793732177734375,-0.6641082763671875,-0.4623260498046875,0.187286376953125
1782987808502806500,9.803806640625,-0.677459716796875,-0.46197509765625,0.1967010498046875
1782987808512881200,9.813881103515625,-0.7156982421875,-0.4607696533203125,0.1981048583984375
1782987808522955500,9.82395556640625,-0.769775390625,-0.454315185546875,0.1889190673828125
1782987808533030100,9.834030029296875,-0.8175506591796875,-0.4395751953125,0.18475341796875
1782987808543104500,9.8441044921875,-0.851959228515625,-0.4214630126953125,0.1877288818359375
1782987808553179400,9.854179443359374,-0.89935302734375,-0.40667724609375,0.1853790283203125
1782987808563253500,9.86425341796875,-0.9509735107421875,-0.3946380615234375,0.1742706298828125
1782987808573328400,9.874328369140626,-0.99066162109375,-0.386322021484375,0.150115966796875
1782987808583402500,9.884402587890625,-1.0023651123046875,-0.3830108642578125,0.127777099609375
1782987808593477400,9.894477294921876,-0.99188232421875,-0.3881072998046875,0.11981201171875
1782987808603551500,9.904551513671874,-0.9668426513671875,-0.3923187255859375,0.12530517578125
1782987808613626400,9.91462646484375,-0.94415283203125,-0.3919219970703125,0.1367340087890625
1782987808623700500,9.924700439453124,-0.9284210205078125,-0.3920440673828125,0.152313232421875
1782987808633775400,9.934775390625,-0.9338836669921875,-0.3862457275390625,0.15869140625
1782987808643849500,9.944849365234376,-0.964141845703125,-0.377655029296875,0.1529541015625
1782987808653924400,9.95492431640625,-0.984100341796875,-0.379119873046875,0.149261474609375
1782987808663998500,9.96499853515625,-0.9884033203125,-0.3909454345703125,0.1396484375
1782987808674073300,9.9750732421875,-0.977874755859375,-0.4019622802734375,0.132781982421875
1782987808684147500,9.9851474609375,-0.9607391357421875,-0.407623291015625,0.12261962890625
1782987808694222300,9.995222412109374,-0.9499969482421875,-0.4131317138671875,0.1102447509765625
1782987808704296400,10.00529638671875,-0.950653076171875,-0.41510009765625,0.1053314208984375
1782987808714371300,10.015371337890626,-0.95361328125,-0.4184722900390625,0.10174560546875
1782987808724445400,10.025445556640625,-0.94580078125,-0.420074462890625,0.098297119140625
1782987808734520300,10.035520263671875,-0.9246673583984375,-0.4271240234375,0.0942230224609375
1782987808744594400,10.045594482421874,-0.9000701904296875,-0.43890380859375,0.1026458740234375
1782987808754668500,10.05566845703125,-0.87939453125,-0.45361328125,0.11187744140625
1782987808764743400,10.065743408203126,-0.87005615234375,-0.4644317626953125,0.118011474609375
1782987808774818300,10.075818359375,-0.8700714111328125,-0.4682464599609375,0.1240997314453125
1782987808784892400,10.085892333984376,-0.8769683837890625,-0.4688568115234375,0.128753662109375
1782987808794966500,10.095966552734374,-0.8916473388671875,-0.4703826904296875,0.1270599365234375
1782987808805041400,10.10604150390625,-0.9112091064453125,-0.468292236328125,0.1237640380859375
1782987808815115500,10.116115478515624,-0.926239013671875,-0.4642181396484375,0.1164703369140625
1782987808825190400,10.1261904296875,-0.942108154296875,-0.457611083984375,0.1073150634765625
1782987808835264500,10.136264404296876,-0.9518280029296875,-0.4753875732421875,0.13092041015625
1782987808845339400,10.14633935546875,-0.942413330078125,-0.5152740478515625,0.1864013671875
1782987808855413500,10.15641357421875,-0.92742919921875,-0.54595947265625,0.2198638916015625
1782987808865488400,10.16648828125,-0.9228973388671875,-0.5479583740234375,0.1986846923828125
1782987808875562500,10.1765625,-0.9514923095703125,-0.533416748046875,0.1561126708984375
1782987808885637400,10.186637451171874,-1.0151519775390625,-0.51251220703125,0.1278076171875
1782987808895711500,10.19671142578125,-1.094390869140625,-0.4754638671875,0.1127166748046875
1782987808905786400,10.206786376953126,-1.1631927490234375,-0.4351806640625,0.0972442626953125
1782987808915860500,10.216860595703125,-1.2055816650390625,-0.3846282958984375,0.0843505859375
1782987808925935400,10.226935302734375,-1.2013702392578125,-0.3304901123046875,0.08026123046875
1782987808936009500,10.237009521484374,-1.160125732421875,-0.2995147705078125,0.099456787109375
1782987808946084600,10.247084716796875,-1.1031341552734375,-0.302001953125,0.1464385986328125
1782987808956158500,10.257158447265626,-1.0266876220703125,-0.3354644775390625,0.202667236328125
1782987808966233600,10.267233642578125,-0.9389495849609375,-0.365478515625,0.245849609375
1782987808976307500,10.277307373046876,-0.870330810546875,-0.3864593505859375,0.2703399658203125
1782987808986382600,10.287382568359375,-0.817413330078125,-0.3898468017578125,0.2825469970703125
1782987808996456400,10.29745654296875,-0.7886505126953125,-0.3841094970703125,0.2852935791015625
1782987809006531600,10.307531494140624,-0.79132080078125,-0.3769073486328125,0.2778472900390625
1782987809016605400,10.31760546875,-0.81768798828125,-0.3658294677734375,0.2528076171875
1782987809026680600,10.3276806640625,-0.8665313720703125,-0.34521484375,0.2222747802734375
1782987809036755200,10.337755126953125,-0.9221954345703125,-0.32147216796875,0.1881256103515625
1782987809046830000,10.347830078125,-0.98046875,-0.2984771728515625,0.1478118896484375
1782987809056904200,10.357904296875,-1.034637451171875,-0.2856597900390625,0.1144561767578125
1782987809066979000,10.36797900390625,-1.07098388671875,-0.282501220703125,0.0817718505859375
1782987809077053200,10.37805322265625,-1.0702667236328125,-0.2873077392578125,0.060394287109375
1782987809087128000,10.388128173828125,-1.0288543701171875,-0.2931060791015625,0.0405731201171875
1782987809097202200,10.3982021484375,-0.96942138671875,-0.2933197021484375,0.02545166015625
1782987809107277000,10.408277099609375,-0.914215087890625,-0.29571533203125,0.02978515625
1782987809117351200,10.41835107421875,-0.876922607421875,-0.2977447509765625,0.05926513671875
1782987809127425300,10.42842529296875,-0.853271484375,-0.3084716796875,0.094879150390625
1782987809137500200,10.438500244140625,-0.8385009765625,-0.3191680908203125,0.119903564453125
1782987809147574300,10.44857421875,-0.812957763671875,-0.324920654296875,0.1262359619140625
1782987809157649200,10.458649169921875,-0.782867431640625,-0.33172607421875,0.1142425537109375
1782987809167723300,10.46872314453125,-0.7652130126953125,-0.3415679931640625,0.1075439453125
1782987809177798100,10.478798095703125,-0.76739501953125,-0.35308837890625,0.1082000732421875
1782987809187872300,10.488872314453126,-0.7750701904296875,-0.36090087890625,0.1146087646484375
1782987809197947100,10.498947021484375,-0.7884979248046875,-0.3754730224609375,0.1197052001953125
1782987809208021200,10.509021240234375,-0.799560546875,-0.392913818359375,0.1257476806640625
1782987809218096400,10.519096435546874,-0.8130340576171875,-0.4111785888671875,0.129974365234375
1782987809228170200,10.529170166015625,-0.8253173828125,-0.4290618896484375,0.1324310302734375
1782987809238245400,10.539245361328126,-0.8364715576171875,-0.44989013671875,0.13690185546875
1782987809248319200,10.5493193359375,-0.8533477783203125,-0.4665985107421875,0.1392974853515625
1782987809258394400,10.559394287109376,-0.8708648681640625,-0.47015380859375,0.142120361328125
1782987809268468200,10.56946826171875,-0.881378173828125,-0.470123291015625,0.13531494140625
1782987809278543400,10.57954345703125,-0.882049560546875,-0.4763641357421875,0.1166534423828125
1782987809288617500,10.589617431640624,-0.8722076416015625,-0.481597900390625,0.107574462890625
1782987809298692400,10.5996923828125,-0.85638427734375,-0.47991943359375,0.1013946533203125
1782987809308766500,10.609766357421876,-0.841400146484375,-0.4796905517578125,0.0971221923828125
1782987809318841300,10.61984130859375,-0.8271636962890625,-0.4789886474609375,0.0996856689453125
1782987809328915500,10.62991552734375,-0.816192626953125,-0.472564697265625,0.117095947265625
1782987809338990300,10.639990234375,-0.8129425048828125,-0.47430419921875,0.134857177734375
1782987809349064400,10.650064453125,-0.8124542236328125,-0.4824066162109375,0.154388427734375
1782987809359139300,10.660139404296874,-0.8260345458984375,-0.491180419921875,0.1715850830078125
1782987809369213400,10.67021337890625,-0.8351287841796875,-0.4863739013671875,0.180694580078125
1782987809379288300,10.680288330078126,-0.8089752197265625,-0.5101470947265625,0.17852783203125
1782987809389362400,10.690362548828125,-0.7479705810546875,-0.535369873046875,0.178375244140625
1782987809399437300,10.700437255859375,-0.7199859619140625,-0.546173095703125,0.1671142578125
1782987809409511400,10.710511474609374,-0.7243194580078125,-0.5858917236328125,0.129791259765625
1782987809419586300,10.72058642578125,-0.736846923828125,-0.6643524169921875,0.1011199951171875
1782987809429660400,10.730660400390626,-0.7485198974609375,-0.715301513671875,0.0926971435546875
1782987809439735300,10.7407353515625,-0.763214111328125,-0.716705322265625,0.1051177978515625
1782987809449809400,10.750809326171876,-0.7841949462890625,-0.681915283203125,0.1150970458984375
