time,seconds_elapsed,z,y,x
1782987798768333000,0.0693330078125,-0.1731034219264984,-0.42634284496307373,-0.17811846733093262
1782987798778407200,0.0794072265625,-0.23983833193778992,-0.31274521350860596,-0.20458205044269562
1782987798788482000,0.08948193359375,-0.27426740527153015,-0.11260387301445007,-0.16141380369663239
1782987798798556200,0.09955615234375,-0.2859247624874115,0.06338943541049957,-0.0621916763484478
1782987798808631000,0.109631103515625,-0.2931840121746063,0.11174444854259491,0.06351219117641449
1782987798818705200,0.119705078125,-0.2973686754703522,0.051311325281858444,0.1899518072605133
1782987798828780000,0.129780029296875,-0.3032667636871338,-0.04524317756295204,0.3029361367225647
1782987798838854100,0.139854248046875,-0.31389620900154114,-0.12706778943538666,0.38786405324935913
1782987798848929300,0.14992919921875,-0.32544073462486267,-0.18707892298698425,0.4235285818576813
1782987798859003100,0.160003173828125,-0.3426348567008972,-0.21817560493946075,0.4081595242023468
1782987798869078300,0.170078369140625,-0.350237637758255,-0.19540877640247345,0.3685103952884674
1782987798879152000,0.180152099609375,-0.3526637554168701,-0.15437527000904083,0.33371636271476746
1782987798889227300,0.190227294921875,-0.3494147062301636,-0.12022022902965546,0.31534242630004883
1782987798899301000,0.200301025390625,-0.33526232838630676,-0.10139749199151993,0.318002849817276
1782987798909376300,0.210376220703125,-0.3195994794368744,-0.11001335084438324,0.33442044258117676
1782987798919450000,0.2204501953125,-0.30022481083869934,-0.14237771928310394,0.3703368604183197
1782987798929525200,0.230525146484375,-0.2763223946094513,-0.15676358342170715,0.4289964437484741
1782987798939599000,0.24059912109375,-0.250127375125885,-0.12426508963108063,0.49170970916748047
1782987798949674200,0.25067431640625,-0.24542716145515442,-0.057741984724998474,0.4958826005458832
1782987798959748000,0.260748046875,-0.23931369185447693,0.03116859868168831,0.42226606607437134
1782987798969823200,0.2708232421875,-0.22667913138866425,0.13303956389427185,0.291049987077713
1782987798979897000,0.28089697265625,-0.21510155498981476,0.2283298671245575,0.11446898430585861
1782987798989972200,0.29097216796875,-0.19727516174316406,0.23274458944797516,-0.0654808059334755
1782987799000046000,0.301046142578125,-0.1844327747821808,0.18248853087425232,-0.22712649405002594
1782987799010121200,0.311121337890625,-0.18342450261116028,0.12885406613349915,-0.33757391571998596
1782987799020195300,0.3211953125,-0.18783193826675415,0.097171351313591,-0.40784457325935364
1782987799030270500,0.3312705078125,-0.17974445223808289,0.08463345468044281,-0.45346105098724365
1782987799040344300,0.34134423828125,-0.14499235153198242,0.0667552500963211,-0.48195794224739075
1782987799050419500,0.35141943359375,-0.0941145122051239,0.06516534090042114,-0.49578505754470825
1782987799060493300,0.361493408203125,-0.03654104098677635,0.10212451964616776,-0.5031033158302307
1782987799070568400,0.371568359375,0.020254598930478096,0.125931054353714,-0.5078421235084534
1782987799080642300,0.381642333984375,0.07014092057943344,0.0993681475520134,-0.5278963446617126
1782987799090717400,0.391717529296875,0.11774758249521255,0.019967325031757355,-0.5470932126045227
1782987799100791300,0.401791259765625,0.15285560488700867,-0.05642133951187134,-0.551188588142395
1782987799110866400,0.411866455078125,0.17310628294944763,-0.12050285935401917,-0.5345547795295715
1782987799120940300,0.421940185546875,0.1823253482580185,-0.16666994988918304,-0.49632635712623596
1782987799131015400,0.432015380859375,0.16967692971229553,-0.18005606532096863,-0.43858689069747925
1782987799141089300,0.44208935546875,0.13174623250961304,-0.14324548840522766,-0.3649151623249054
1782987799151164400,0.452164306640625,0.07248876988887787,-0.08500722050666809,-0.2962873578071594
1782987799161238300,0.46223828125,0.0035701515153050423,-0.054436132311820984,-0.24593746662139893
1782987799171313400,0.4723134765625,-0.06431356072425842,-0.026773080229759216,-0.18805526196956635
1782987799181387300,0.48238720703125,-0.13196824491024017,0.03294610604643822,-0.1083388403058052
1782987799191462400,0.49246240234375,-0.20874372124671936,0.06558873504400253,-0.020360779017210007
1782987799201536500,0.50253662109375,-0.3059832751750946,0.048547931015491486,0.053570572286844254
1782987799211611400,0.512611328125,-0.40581318736076355,0.01535855047404766,0.11058912426233292
1782987799221685500,0.522685546875,-0.4821472764015198,-0.00032676011323928833,0.1795572191476822
1782987799231760400,0.532760498046875,-0.5150666236877441,0.019650941714644432,0.26726600527763367
1782987799241834500,0.54283447265625,-0.505349338054657,0.08546780049800873,0.3556738793849945
1782987799251909400,0.552909423828125,-0.47119778394699097,0.1640358418226242,0.42538613080978394
1782987799261983500,0.5629833984375,-0.4309770464897156,0.23557192087173462,0.46253466606140137
1782987799272057300,0.573057373046875,-0.39177823066711426,0.29246875643730164,0.4692482352256775
1782987799282132500,0.583132568359375,-0.3550422489643097,0.324339896440506,0.46238115429878235
1782987799292207400,0.593207275390625,-0.3173976540565491,0.31962263584136963,0.42714086174964905
1782987799302281500,0.603281494140625,-0.2684885263442993,0.29473838210105896,0.3712160289287567
1782987799312355300,0.613355224609375,-0.20852026343345642,0.2741031348705292,0.29895275831222534
1782987799322430500,0.623430419921875,-0.14176973700523376,0.28312405943870544,0.22363705933094025
1782987799332504300,0.63350439453125,-0.08219269663095474,0.27912506461143494,0.15417861938476562
1782987799342579500,0.643579345703125,-0.037269774824380875,0.25857338309288025,0.10066057741641998
1782987799352653300,0.6536533203125,-0.013037404976785183,0.21943452954292297,0.06326846778392792
1782987799362728400,0.663728515625,0.005980580113828182,0.19042707979679108,0.054244913160800934
1782987799372802300,0.67380224609375,0.03330834209918976,0.1837579905986786,0.08338788151741028
1782987799382877400,0.68387744140625,0.0736674815416336,0.23260895907878876,0.14101238548755646
1782987799392951300,0.693951416015625,0.11454753577709198,0.3812897801399231,0.22113358974456787
1782987799403026400,0.7040263671875,0.1472739726305008,0.45550864934921265,0.27661386132240295
1782987799413100300,0.714100341796875,0.16955797374248505,0.3211473822593689,0.26788055896759033
1782987799423175400,0.724175537109375,0.16847343742847443,0.08973865956068039,0.18047113716602325
1782987799433249300,0.734249267578125,0.15889884531497955,-0.15752705931663513,0.046664878726005554
1782987799443324400,0.744324462890625,0.15543673932552338,-0.32279765605926514,-0.09949507564306259
1782987799453398300,0.754398193359375,0.1687360256910324,-0.34301796555519104,-0.2206912785768509
1782987799463473400,0.764473388671875,0.18857967853546143,-0.2559135854244232,-0.28244051337242126
1782987799473547300,0.77454736328125,0.20500126481056213,-0.10942588746547699,-0.2923695743083954
1782987799483622400,0.784622314453125,0.23578155040740967,0.061987414956092834,-0.23089618980884552
1782987799493696300,0.7946962890625,0.2682185769081116,0.24585817754268646,-0.10324501991271973
1782987799503771400,0.804771484375,0.29956674575805664,0.40541699528694153,0.06012555956840515
1782987799513845200,0.81484521484375,0.33243894577026367,0.5083228945732117,0.24950000643730164
1782987799523920400,0.82492041015625,0.3492299020290375,0.5247160196304321,0.4230748116970062
1782987799533994200,0.834994140625,0.3520680367946625,0.43791213631629944,0.5496866106987
1782987799544069400,0.8450693359375,0.35004323720932007,0.29189568758010864,0.6138094067573547
1782987799554143200,0.855143310546875,0.3504461646080017,0.12454292178153992,0.5980626940727234
1782987799564218400,0.86521826171875,0.3738168179988861,-0.03336484357714653,0.500708818435669
1782987799574292200,0.875292236328125,0.4190484881401062,-0.13236573338508606,0.34187978506088257
1782987799584367400,0.885367431640625,0.47920334339141846,-0.17156310379505157,0.15550115704536438
1782987799594441500,0.89544140625,0.5278289914131165,-0.16135254502296448,-0.024714414030313492
1782987799604516400,0.905516357421875,0.5625321269035339,-0.1260674148797989,-0.16471204161643982
1782987799614590500,0.915590576171875,0.577541708946228,-0.07523753494024277,-0.25448185205459595
1782987799624665300,0.925665283203125,0.5701686143875122,-0.0020739238243550062,-0.27951228618621826
1782987799634739500,0.935739501953125,0.549044668674469,0.05520108342170715,-0.24442780017852783
1782987799644814300,0.945814453125,0.5153288841247559,0.08610464632511139,-0.16846786439418793
1782987799654888400,0.955888427734375,0.4788565933704376,0.08374349027872086,-0.059999432414770126
1782987799664963300,0.96596337890625,0.4404512643814087,0.06452716141939163,0.05461426451802254
1782987799675037400,0.976037353515625,0.4090813398361206,0.043478336185216904,0.1541919857263565
1782987799685112300,0.9861123046875,0.38865524530410767,0.028532985597848892,0.21543194353580475
1782987799695186400,0.9961865234375,0.3680908679962158,0.02930184081196785,0.2308303415775299
1782987799705261300,1.00626123046875,0.3597407042980194,0.06289051473140717,0.21146798133850098
1782987799715335400,1.01633544921875,0.3507637083530426,0.10237453877925873,0.17246012389659882
1782987799725410300,1.026410400390625,0.3472151458263397,0.11708196252584457,0.11017093807458878
1782987799735484400,1.036484375,0.34906336665153503,0.10000070929527283,0.05768829211592674
1782987799745559300,1.046559326171875,0.3375801742076874,0.09408746659755707,0.025933949276804924
1782987799755633400,1.05663330078125,0.29606470465660095,0.07029718160629272,0.011684173718094826
1782987799765708300,1.066708251953125,0.2303854376077652,0.031569451093673706,-0.004140622913837433
1782987799775782400,1.076782470703125,0.1578262895345688,0.029645320028066635,-0.012373518198728561
1782987799785857300,1.086857177734375,0.08922646194696426,0.04348516836762428,-0.02973582223057747
1782987799795931400,1.096931396484375,0.03047766536474228,0.07043556123971939,-0.05927800387144089
1782987799806006300,1.10700634765625,-0.01283243577927351,0.09900946170091629,-0.09860647469758987
1782987799816080400,1.117080322265625,-0.04673394560813904,0.09723126888275146,-0.15618400275707245
1782987799826155300,1.1271552734375,-0.06310456991195679,0.04101091995835304,-0.21835096180438995
1782987799836229400,1.1372294921875,-0.0775383710861206,-0.0407412014901638,-0.278403103351593
1782987799846304500,1.147304443359375,-0.08716382831335068,-0.12391524761915207,-0.3304749131202698
1782987799856378400,1.15737841796875,-0.09467554092407227,-0.20814305543899536,-0.3689559996128082
1782987799866453500,1.16745361328125,-0.12241548299789429,-0.27459093928337097,-0.3988553583621979
1782987799876527400,1.17752734375,-0.15804511308670044,-0.2786512076854706,-0.408634215593338
1782987799886602500,1.1876025390625,-0.18399061262607574,-0.217533677816391,-0.3943270742893219
1782987799896676400,1.19767626953125,-0.20356696844100952,-0.11539691686630249,-0.34386786818504333
1782987799906751500,1.20775146484375,-0.21407829225063324,-0.018142107874155045,-0.2539251744747162
1782987799916825300,1.217825439453125,-0.20934665203094482,0.04175052046775818,-0.12950468063354492
1782987799926900500,1.227900390625,-0.1914459466934204,0.06977643072605133,0.01346118189394474
1782987799936974300,1.237974365234375,-0.1549108326435089,0.07245264202356339,0.15629157423973083
1782987799947049500,1.248049560546875,-0.1204918771982193,0.03439260274171829,0.2554202675819397
1782987799957123300,1.258123291015625,-0.10620881617069244,-0.06146947667002678,0.3084041178226471
1782987799967198500,1.268198486328125,-0.13465775549411774,-0.18841896951198578,0.34499692916870117
1782987799977272300,1.278272216796875,-0.21336615085601807,-0.4822029173374176,0.3069033622741699
1782987799987347500,1.288347412109375,-0.30542221665382385,-0.6460067629814148,0.2475844770669937
1782987799997421300,1.29842138671875,-0.37050798535346985,-0.5563200116157532,0.21611736714839935
1782987800007496400,1.308496337890625,-0.4502968490123749,-0.2611906826496124,0.19520436227321625
1782987800017570300,1.3185703125,-0.5487502217292786,-0.16504409909248352,0.10614242404699326
1782987800027645000,1.32864501953125,-0.6209766864776611,-0.2680957615375519,-0.053556714206933975
1782987800037718800,1.33871875,-0.6422891616821289,-0.35609087347984314,-0.212266206741333
1782987800047794000,1.3487939453125,-0.6264873147010803,-0.42124971747398376,-0.3567458987236023
1782987800057867800,1.35886767578125,-0.6175412535667419,-0.429972380399704,-0.4712812602519989
1782987800067943000,1.36894287109375,-0.6130178570747375,-0.3830842077732086,-0.5153868794441223
1782987800078016800,1.379016845703125,-0.6062830090522766,-0.3243981599807739,-0.5010671615600586
1782987800088092000,1.389091796875,-0.596252977848053,-0.30156806111335754,-0.454801082611084
1782987800098165800,1.399165771484375,-0.5663217306137085,-0.2873968482017517,-0.3685910999774933
1782987800108241000,1.409240966796875,-0.5321800112724304,-0.23062117397785187,-0.22405600547790527
1782987800118314800,1.419314697265625,-0.49553632736206055,-0.18606632947921753,-0.054540861397981644
1782987800128390000,1.429389892578125,-0.4689618945121765,-0.15993522107601166,0.12617400288581848
1782987800138463700,1.439463623046875,-0.45856916904449463,-0.19824665784835815,0.28133004903793335
1782987800148539000,1.449538818359375,-0.4541361629962921,-0.2891218662261963,0.390654981136322
1782987800158612700,1.45961279296875,-0.4337994456291199,-0.36606645584106445,0.44350725412368774
1782987800168687900,1.46968798828125,-0.3964240252971649,-0.40023332834243774,0.44817468523979187
1782987800178761700,1.47976171875,-0.3663974106311798,-0.3844572901725769,0.41754648089408875
1782987800188836900,1.4898369140625,-0.3475853204727173,-0.36623674631118774,0.358424574136734
1782987800198910700,1.49991064453125,-0.3497190475463867,-0.36140552163124084,0.28927215933799744
1782987800208985900,1.50998583984375,-0.369706928730011,-0.36853381991386414,0.22161085903644562
1782987800219059700,1.520059814453125,-0.4049496054649353,-0.3927544951438904,0.167169451713562
1782987800229134800,1.530134765625,-0.4424287974834442,-0.4230524003505707,0.12597045302391052
1782987800239208700,1.540208740234375,-0.47729676961898804,-0.38707098364830017,0.10504891723394394
1782987800249282800,1.55028271484375,-0.5079109072685242,-0.31195518374443054,0.10968228429555893
1782987800259357700,1.560357666015625,-0.5421308875083923,-0.24306240677833557,0.1244037076830864
1782987800269431800,1.570431884765625,-0.5751451253890991,-0.1984647512435913,0.12551307678222656
1782987800279506700,1.580506591796875,-0.5910125374794006,-0.19247503578662872,0.11753050982952118
1782987800289580800,1.590580810546875,-0.6012778282165527,-0.22649745643138885,0.08341658860445023
1782987800299655700,1.60065576171875,-0.5986229181289673,-0.28890755772590637,0.020817650482058525
1782987800309729800,1.610729736328125,-0.5762531757354736,-0.33750367164611816,-0.05252926051616669
1782987800319804700,1.6208046875,-0.5369592905044556,-0.3684261739253998,-0.11730372905731201
1782987800329878800,1.630878662109375,-0.49554723501205444,-0.3902716338634491,-0.17397858202457428
1782987800339953700,1.64095361328125,-0.45529356598854065,-0.3996361196041107,-0.21300508081912994
1782987800350027800,1.65102783203125,-0.4048050045967102,-0.34523436427116394,-0.20750178396701813
1782987800360102700,1.6611025390625,-0.3643406629562378,-0.23922698199748993,-0.1601068377494812
1782987800370176800,1.6711767578125,-0.32613423466682434,-0.16505032777786255,-0.08537840098142624
1782987800380251600,1.681251708984375,-0.30499914288520813,-0.1303112506866455,0.001434530597180128
1782987800390325800,1.69132568359375,-0.2948428988456726,-0.1239844560623169,0.07807089388370514
1782987800400401000,1.70140087890625,-0.28885531425476074,-0.12512774765491486,0.13344040513038635
1782987800410474800,1.711474853515625,-0.2933117747306824,-0.12418607622385025,0.14503975212574005
1782987800420550000,1.7215498046875,-0.3017641007900238,-0.09461406618356705,0.13907772302627563
1782987800430623700,1.731623779296875,-0.32047441601753235,-0.06318430602550507,0.12295698374509811
1782987800440699000,1.741698974609375,-0.3396313190460205,-0.04829057678580284,0.09704122692346573
1782987800450772700,1.751772705078125,-0.34286582469940186,-0.03666825592517853,0.06598298251628876
1782987800460847900,1.761847900390625,-0.3321780264377594,-0.039481885731220245,0.029021233320236206
1782987800470921700,1.771921630859375,-0.3119997978210449,-0.053549833595752716,-0.03158894181251526
1782987800480996900,1.781996826171875,-0.2902524173259735,-0.05782580375671387,-0.09061124920845032
1782987800491070700,1.79207080078125,-0.26511022448539734,-0.04537415876984596,-0.1414644420146942
1782987800501145900,1.802145751953125,-0.24127626419067383,-0.025289129465818405,-0.18678638339042664
1782987800511219700,1.8122197265625,-0.2154417186975479,-0.01942417211830616,-0.21105234324932098
1782987800521294800,1.822294921875,-0.19018617272377014,-0.004361599683761597,-0.2110009342432022
1782987800531368700,1.83236865234375,-0.1695559173822403,0.015217071399092674,-0.1758994609117508
1782987800541443800,1.84244384765625,-0.15443316102027893,0.03482113406062126,-0.1235307902097702
1782987800551517700,1.852517578125,-0.1373680680990219,0.03644996136426926,-0.07254950702190399
1782987800561592800,1.8625927734375,-0.11636850982904434,0.03260675445199013,-0.036716144531965256
1782987800571666700,1.872666748046875,-0.08988958597183228,0.04259016364812851,-0.009151562117040157
1782987800581741800,1.882741943359375,-0.054519347846508026,0.11511602997779846,0.026352103799581528
1782987800591815700,1.892815673828125,-0.022721458226442337,0.2065976858139038,0.05717773362994194
1782987800601890800,1.902890869140625,0.01501952763646841,0.31806695461273193,0.07909262180328369
1782987800611964700,1.912964599609375,0.06410681456327438,0.48445066809654236,0.09561848640441895
1782987800622039800,1.923039794921875,0.12671907246112823,0.5178789496421814,0.10223405063152313
1782987800632113700,1.93311376953125,0.1806877702474594,0.4030575454235077,0.08200467377901077
1782987800642188800,1.943188720703125,0.20474302768707275,0.21462400257587433,0.0360153466463089
1782987800652262700,1.9532626953125,0.2135137915611267,-0.027641139924526215,-0.033342983573675156
1782987800662337800,1.963337890625,0.20450137555599213,-0.10620785504579544,-0.0818822830915451
1782987800672411600,1.97341162109375,0.17693856358528137,-0.02164665050804615,-0.09701123833656311
1782987800682486800,1.98348681640625,0.14760011434555054,0.03559666499495506,-0.10339882969856262
1782987800692560600,1.993560546875,0.1212320625782013,0.06977708637714386,-0.08902959525585175
1782987800702635800,2.0036357421875,0.10994531959295273,0.12783479690551758,-0.03253914788365364
1782987800712709600,2.013709716796875,0.11726413667201996,0.22762732207775116,0.0505036860704422
1782987800722784800,2.02378466796875,0.13431768119335175,0.3696520924568176,0.16229547560214996
1782987800732858600,2.033858642578125,0.14497371017932892,0.46814921498298645,0.2749427258968353
1782987800742933800,2.043933837890625,0.13805614411830902,0.45292922854423523,0.34970271587371826
1782987800753007600,2.054007568359375,0.12350019812583923,0.3435547351837158,0.395908385515213
1782987800763082800,2.064082763671875,0.12082266062498093,0.19800738990306854,0.4010794460773468
1782987800773156600,2.074156494140625,0.13016803562641144,0.04134085774421692,0.3474065065383911
1782987800783231700,2.084231689453125,0.15036091208457947,-0.08426953107118607,0.2417953759431839
1782987800793305900,2.094305908203125,0.16931703686714172,-0.15775220096111298,0.10964222252368927
1782987800803380700,2.104380615234375,0.1915949136018753,-0.2086622565984726,-0.02236773818731308
1782987800813454800,2.114454833984375,0.19609777629375458,-0.24948273599147797,-0.13793118298053741
1782987800823529700,2.12452978515625,0.18764570355415344,-0.22141620516777039,-0.20720985531806946
1782987800833603800,2.134603759765625,0.1841244101524353,-0.13369178771972656,-0.20685799419879913
1782987800843678700,2.1446787109375,0.17512771487236023,-0.015491904690861702,-0.14479568600654602
1782987800853752800,2.1547529296875,0.15905730426311493,0.08003336936235428,-0.06276431679725647
1782987800863827700,2.16482763671875,0.13987109065055847,0.10681997984647751,0.014982407912611961
1782987800873901800,2.17490185546875,0.12466089427471161,0.08486230671405792,0.06840494275093079
1782987800883976700,2.184976806640625,0.13035845756530762,0.059656549245119095,0.0992608591914177
1782987800894050800,2.19505078125,0.1514165997505188,0.03389459103345871,0.10733601450920105
1782987800904125700,2.205125732421875,0.17587614059448242,0.017811764031648636,0.09179620444774628
1782987800914199800,2.21519970703125,0.2061179280281067,0.02205577678978443,0.06619230657815933
1782987800924273700,2.225273681640625,0.22609271109104156,0.027974119409918785,0.0220062006264925
1782987800934348800,2.235348876953125,0.2429600954055786,0.03073781728744507,-0.01708998717367649
1782987800944422700,2.245422607421875,0.255141943693161,0.028195030987262726,-0.03627033904194832
1782987800954497800,2.255497802734375,0.26175084710121155,-0.005461068358272314,-0.04056743532419205
1782987800964571600,2.265571533203125,0.2526015341281891,-0.0608697310090065,-0.04758220165967941
1782987800974646800,2.275646728515625,0.2503351867198944,-0.13334153592586517,-0.051675744354724884
1782987800984720600,2.285720703125,0.2579321265220642,-0.1795644313097,-0.04189262166619301
1782987800994795800,2.295795654296875,0.26188984513282776,-0.20569802820682526,-0.0205286405980587
1782987801004869600,2.30586962890625,0.25376373529434204,-0.21650007367134094,-0.004521711263805628
1782987801014944800,2.31594482421875,0.24033066630363464,-0.21733854711055756,-0.005031027365475893
1782987801025019100,2.32601904296875,0.20829950273036957,-0.2305547446012497,-0.025369055569171906
1782987801035094000,2.336093994140625,0.1739051342010498,-0.24970197677612305,-0.0583842471241951
1782987801045168000,2.346168212890625,0.12387792021036148,-0.2646723687648773,-0.09164872020483017
1782987801055243000,2.356242919921875,0.0686505138874054,-0.2870635688304901,-0.12982116639614105
1782987801065317000,2.366317138671875,0.005706439726054668,-0.3202263414859772,-0.17892347276210785
1782987801075392000,2.37639208984375,-0.05752810090780258,-0.332141250371933,-0.23057198524475098
1782987801085466000,2.386466064453125,-0.12375878542661667,-0.29339146614074707,-0.254999041557312
1782987801095541000,2.396541015625,-0.1827932596206665,-0.21734245121479034,-0.24498657882213593
1782987801105615000,2.406614990234375,-0.22735247015953064,-0.15759310126304626,-0.19670133292675018
1782987801115690000,2.41668994140625,-0.2513854503631592,-0.1290290802717209,-0.12124816328287125
1782987801125764000,2.42676416015625,-0.265968382358551,-0.1371176391839981,-0.038016390055418015
1782987801135839000,2.4368388671875,-0.2794080078601837,-0.17807285487651825,0.03073808178305626
1782987801145913000,2.4469130859375,-0.2957795262336731,-0.21455922722816467,0.06912461668252945
1782987801155988000,2.456988037109375,-0.31523045897483826,-0.21269987523555756,0.07907915860414505
1782987801166062000,2.46706201171875,-0.34081733226776123,-0.2024136781692505,0.06557240337133408
1782987801176137000,2.477136962890625,-0.36132970452308655,-0.17373518645763397,0.047285046428442
1782987801186211000,2.487211181640625,-0.38203445076942444,-0.1289626508951187,0.05143824592232704
1782987801196286000,2.497285888671875,-0.3850032389163971,-0.08234064280986786,0.08482534438371658
1782987801206360000,2.507360107421875,-0.3703731596469879,0.029172034934163094,0.15908518433570862
1782987801216435000,2.51743505859375,-0.35039663314819336,0.08855894953012466,0.25444477796554565
1782987801226509000,2.527509033203125,-0.32699090242385864,-0.055318593978881836,0.3033795654773712
1782987801236584000,2.537583984375,-0.30538102984428406,-0.2884114682674408,0.2930699288845062
1782987801246658000,2.547657958984375,-0.29202261567115784,-0.5166611671447754,0.22894074022769928
1782987801256733000,2.55773291015625,-0.3021071255207062,-0.6635185480117798,0.11871518939733505
1782987801266807000,2.56780712890625,-0.331414133310318,-0.6493350863456726,0.010422277264297009
1782987801276882000,2.5778818359375,-0.3732812702655792,-0.5264560580253601,-0.08073492348194122
1782987801286956000,2.5879560546875,-0.40484583377838135,-0.37831026315689087,-0.13271211087703705
1782987801297031200,2.59803125,-0.42867934703826904,-0.1980607807636261,-0.1390228420495987
1782987801307105000,2.60810498046875,-0.43148499727249146,-0.02032567746937275,-0.09038526564836502
1782987801317180200,2.61818017578125,-0.41923728585243225,0.07808475941419601,-0.004902286920696497
1782987801327254000,2.62825390625,-0.3862476348876953,0.06561450660228729,0.09368767589330673
1782987801337329200,2.6383291015625,-0.3554140329360962,-0.07902132719755173,0.18407653272151947
1782987801347403000,2.648403076171875,-0.3302282392978668,-0.3013598620891571,0.24469833076000214
1782987801357478100,2.65847802734375,-0.31771039962768555,-0.48298150300979614,0.2698909342288971
1782987801367552000,2.668552001953125,-0.3126152455806732,-0.5465967059135437,0.25756049156188965
1782987801377627100,2.678627197265625,-0.3067193925380707,-0.4914245009422302,0.2016373723745346
1782987801387701000,2.688700927734375,-0.30027106404304504,-0.38411667943000793,0.12490876764059067
1782987801397776100,2.698776123046875,-0.30311140418052673,-0.28262025117874146,0.03561409190297127
1782987801407850000,2.70885009765625,-0.3180416226387024,-0.20723256468772888,-0.04848720505833626
1782987801417925000,2.718925048828125,-0.3448653221130371,-0.14860683679580688,-0.11316049844026566
1782987801427999000,2.7289990234375,-0.37140345573425293,-0.10146249830722809,-0.1322050392627716
1782987801438074000,2.73907421875,-0.3851582407951355,-0.03293588012456894,-0.09607625752687454
1782987801448148000,2.74914794921875,-0.38565120100975037,0.05359315127134323,-0.0063365185633301735
1782987801458223000,2.75922314453125,-0.3704737424850464,0.09471806138753891,0.09577132761478424
1782987801468297000,2.769296875,-0.34771808981895447,0.06889578700065613,0.17849843204021454
1782987801478371000,2.77937109375,-0.3133930563926697,-0.02074490301311016,0.23155972361564636
1782987801488446000,2.789446044921875,-0.2753410339355469,-0.11550523340702057,0.2494487166404724
1782987801498520000,2.79952001953125,-0.254176527261734,-0.18471843004226685,0.23557713627815247
1782987801508595000,2.809594970703125,-0.24591274559497833,-0.22526158392429352,0.1920890510082245
1782987801518669000,2.8196689453125,-0.2442871332168579,-0.21829621493816376,0.12513741850852966
1782987801528744000,2.829743896484375,-0.24383226037025452,-0.19588437676429749,0.054945025593042374
1782987801538818000,2.839818115234375,-0.23770824074745178,-0.17142102122306824,-0.006059788633137941
1782987801548893000,2.849892822265625,-0.2349896878004074,-0.13066399097442627,-0.05683615058660507
1782987801558967000,2.859967041015625,-0.23407410085201263,-0.0737055093050003,-0.08094210177659988
1782987801569042000,2.8700419921875,-0.2300969362258911,-0.012180628255009651,-0.0756397545337677
1782987801579116000,2.880115966796875,-0.22166909277439117,0.04303163290023804,-0.04912284016609192
1782987801589191000,2.89019091796875,-0.20927420258522034,0.0667891651391983,-0.0006562346825376153
1782987801599265000,2.90026513671875,-0.1995326429605484,0.06090423837304115,0.05441945046186447
1782987801609340000,2.91033984375,-0.18370521068572998,0.011437615379691124,0.10537530481815338
1782987801619414000,2.9204140625,-0.17874905467033386,-0.04056580364704132,0.12863367795944214
1782987801629489000,2.930489013671875,-0.17714397609233856,-0.06072699651122093,0.13256637752056122
1782987801639563000,2.94056298828125,-0.18598149716854095,-0.06587878614664078,0.10292011499404907
1782987801649638000,2.950637939453125,-0.1926196962594986,-0.056668512523174286,0.05122922360897064
1782987801659712000,2.9607119140625,-0.21489009261131287,-0.04020271077752113,-0.009071867913007736
1782987801669787100,2.970787109375,-0.23853950202465057,-0.021753394976258278,-0.06371726840734482
1782987801679861000,2.980861083984375,-0.25124847888946533,0.015221012756228447,-0.1214289516210556
1782987801689936100,2.99093603515625,-0.24311944842338562,0.05419158190488815,-0.17417125403881073
1782987801700010000,3.001010009765625,-0.21592102944850922,0.09585750102996826,-0.21801990270614624
1782987801710085000,3.011085205078125,-0.18480785191059113,0.1367519497871399,-0.2554389238357544
1782987801720159000,3.021158935546875,-0.15119172632694244,0.151114359498024,-0.27526819705963135
1782987801730234000,3.031234130859375,-0.11582574993371964,0.15348351001739502,-0.27806609869003296
1782987801740308000,3.041307861328125,-0.070401631295681,0.16255386173725128,-0.2606286406517029
1782987801750383000,3.051383056640625,-0.0215400829911232,0.19148431718349457,-0.22338087856769562
1782987801760457000,3.06145703125,0.02479536458849907,0.2366400957107544,-0.16826801002025604
1782987801770532000,3.071531982421875,0.07182465493679047,0.33664923906326294,-0.11266574263572693
1782987801780606000,3.08160595703125,0.11818131804466248,0.460484117269516,-0.06301896274089813
1782987801790681000,3.09168115234375,0.1737564355134964,0.4201907813549042,-0.047026414424180984
1782987801800755000,3.1017548828125,0.22059141099452972,0.2386152446269989,-0.10024487227201462
1782987801810830000,3.111830078125,0.25840243697166443,-0.012814855203032494,-0.222610205411911
1782987801820904000,3.121904052734375,0.2714589536190033,-0.29439258575439453,-0.39999088644981384
1782987801830979000,3.13197900390625,0.2732488512992859,-0.46132776141166687,-0.5674847960472107
1782987801841053000,3.142052978515625,0.2647278904914856,-0.4612747132778168,-0.6615915894508362
1782987801851128000,3.152128173828125,0.2450026571750641,-0.3102415204048157,-0.661461353302002
1782987801861202000,3.162201904296875,0.2206776887178421,-0.040192365646362305,-0.5532225370407104
1782987801871277000,3.172277099609375,0.20857228338718414,0.2746864855289459,-0.34429141879081726
1782987801881351000,3.182350830078125,0.20406943559646606,0.5811392068862915,-0.07204102724790573
1782987801891426000,3.192426025390625,0.19487033784389496,0.8089598417282104,0.1944391280412674
1782987801901500000,3.2025,0.20134110748767853,0.9006174206733704,0.4231414198875427
1782987801911575000,3.212574951171875,0.2220466434955597,0.87509685754776,0.5892432928085327
1782987801921649000,3.22264892578125,0.2479887455701828,0.7471992373466492,0.6804751753807068
1782987801931724000,3.23272412109375,0.2697286605834961,0.5178778767585754,0.6848368644714355
1782987801941798000,3.2427978515625,0.29217728972435,0.23333197832107544,0.6088927984237671
1782987801951873000,3.252873046875,0.3130921423435211,-0.04050170257687569,0.4577038288116455
1782987801961947000,3.26294677734375,0.3328874111175537,-0.2587909698486328,0.25101953744888306
1782987801972022000,3.27302197265625,0.36048761010169983,-0.3854770064353943,0.027069522067904472
1782987801982096000,3.283095947265625,0.39745280146598816,-0.40392157435417175,-0.17935848236083984
1782987801992170000,3.293169921875,0.43809717893600464,-0.34914329648017883,-0.3333139419555664
1782987802002244900,3.303244873046875,0.48006248474121094,-0.2722970247268677,-0.41067513823509216
1782987802012319000,3.313319091796875,0.5057872533798218,-0.21023128926753998,-0.41857486963272095
1782987802022393300,3.323393310546875,0.5072622299194336,-0.2078327238559723,-0.3492615818977356
1782987802032467500,3.333467529296875,0.4891045391559601,-0.2209932655096054,-0.22481444478034973
1782987802042542300,3.343542236328125,0.44229504466056824,-0.22856272757053375,-0.08605404198169708
1782987802052616400,3.353616455078125,0.3821438252925873,-0.22286808490753174,0.031228112056851387
1782987802062691300,3.36369140625,0.3221309185028076,-0.16790060698986053,0.11636470258235931
1782987802072765400,3.373765380859375,0.2698330879211426,-0.057733356952667236,0.1606152504682541
1782987802082840300,3.38384033203125,0.23001696169376373,0.07240153849124908,0.17584462463855743
1782987802092914400,3.39391455078125,0.19958794116973877,0.16171011328697205,0.16238634288311005
1782987802102989300,3.4039892578125,0.16928799450397491,0.18457657098770142,0.13020625710487366
1782987802113063400,3.4140634765625,0.14659947156906128,0.15141035616397858,0.1041640192270279
1782987802123138300,3.42413818359375,0.11906877160072327,0.05991886556148529,0.07966887950897217
1782987802133212400,3.43421240234375,0.08795959502458572,-0.0343242771923542,0.07189271599054337
1782987802143287300,3.444287353515625,0.04850761219859123,-0.08583689481019974,0.07277993857860565
1782987802153361400,3.454361328125,-0.007745005656033754,-0.1250671148300171,0.05842656269669533
1782987802163436300,3.464436279296875,-0.08180858194828033,-0.1643873006105423,0.017911452800035477
1782987802173510400,3.474510498046875,-0.15935876965522766,-0.16214625537395477,-0.03777630999684334
1782987802183585300,3.484585205078125,-0.22212176024913788,-0.11497574299573898,-0.09528186172246933
1782987802193659400,3.494659423828125,-0.2701862156391144,-0.0972452163696289,-0.15593720972537994
1782987802203734300,3.504734375,-0.304645299911499,-0.10610911250114441,-0.22285452485084534
1782987802213808400,3.514808349609375,-0.3180335462093353,-0.10397166013717651,-0.28813469409942627
1782987802223883300,3.52488330078125,-0.31250572204589844,-0.10245755314826965,-0.33788198232650757
1782987802233957400,3.534957275390625,-0.3050568699836731,-0.11025795340538025,-0.37008440494537354
1782987802244032300,3.5450322265625,-0.3140202462673187,-0.11141136288642883,-0.3837829828262329
1782987802254106400,3.5551064453125,-0.32807639241218567,-0.09212235361337662,-0.38745415210723877
1782987802264181200,3.56518115234375,-0.334799200296402,-0.06924454867839813,-0.3678329586982727
1782987802274255400,3.57525537109375,-0.32690906524658203,-0.04480951279401779,-0.32457229495048523
1782987802284330500,3.58533056640625,-0.3075256049633026,-0.04607782140374184,-0.25657498836517334
1782987802294404400,3.595404296875,-0.2822553813457489,-0.09853703528642654,-0.18740230798721313
1782987802304479500,3.6054794921875,-0.24910861253738403,-0.17350250482559204,-0.10822954028844833
1782987802314553300,3.61555322265625,-0.2253798544406891,-0.25228679180145264,-0.05662866309285164
1782987802324628500,3.62562841796875,-0.21981847286224365,-0.3389318585395813,-0.01708269491791725
1782987802334702300,3.635702392578125,-0.2182626575231552,-0.38994523882865906,0.024429595097899437
1782987802344777500,3.645777587890625,-0.21481011807918549,-0.3930712640285492,0.08345046639442444
1782987802354851300,3.655851318359375,-0.21395178139209747,-0.34454581141471863,0.15580137073993683
1782987802364926500,3.665926513671875,-0.22976644337177277,-0.2790224254131317,0.24398939311504364
1782987802375000300,3.676000244140625,-0.25991901755332947,-0.24644266068935394,0.31769344210624695
1782987802385075500,3.686075439453125,-0.3033442497253418,-0.2607283890247345,0.3867533504962921
1782987802395149300,3.6961494140625,-0.3476608395576477,-0.18677985668182373,0.4453602135181427
1782987802405224400,3.706224365234375,-0.38388746976852417,0.0003358148969709873,0.5040193796157837
1782987802415298300,3.71629833984375,-0.4190233647823334,0.0304897241294384,0.5058809518814087
1782987802425373400,3.72637353515625,-0.45344436168670654,-0.16220992803573608,0.4153288006782532
1782987802435447300,3.736447265625,-0.510338544845581,-0.4714854657649994,0.227243572473526
1782987802445521400,3.746521484375,-0.6055357456207275,-0.8384718894958496,-0.02709347940981388
1782987802455596300,3.75659619140625,-0.7272083759307861,-1.0612879991531372,-0.28247731924057007
1782987802465671400,3.76667138671875,-0.8461595773696899,-1.0211474895477295,-0.47004565596580505
1782987802475745300,3.776745361328125,-0.9502148628234863,-0.8115193843841553,-0.5698513388633728
1782987802485819400,3.7868193359375,-1.0141829252243042,-0.5673804879188538,-0.5579763054847717
1782987802495894300,3.796894287109375,-1.0340642929077148,-0.29203224182128906,-0.42887821793556213
1782987802505968400,3.806968505859375,-1.0170687437057495,-0.061054959893226624,-0.20510612428188324
1782987802516043300,3.817043212890625,-0.9806681275367737,0.0692971870303154,0.05019115284085274
1782987802526117400,3.827117431640625,-0.9462490081787109,0.07437000423669815,0.2779342532157898
1782987802536192500,3.837192626953125,-0.9098289608955383,-0.02889113686978817,0.431465208530426
1782987802546266400,3.847266357421875,-0.8821423053741455,-0.19410690665245056,0.4942113161087036
1782987802556341500,3.857341552734375,-0.8505635857582092,-0.3562965989112854,0.473257839679718
1782987802566415400,3.867415283203125,-0.8126663565635681,-0.4502246081829071,0.40679633617401123
1782987802576490500,3.877490478515625,-0.783532977104187,-0.4828203618526459,0.30624067783355713
1782987802586564400,3.887564453125,-0.7656646966934204,-0.4715523421764374,0.21713897585868835
1782987802596639500,3.897639404296875,-0.7512702941894531,-0.4623814821243286,0.1385941058397293
1782987802606713300,3.90771337890625,-0.7514651417732239,-0.4464339315891266,0.08577325940132141
1782987802616788500,3.91778857421875,-0.7655948400497437,-0.4521871507167816,0.05765480548143387
1782987802626862300,3.9278623046875,-0.803709089756012,-0.4610530138015747,0.0665615126490593
1782987802636937500,3.9379375,-0.8729603290557861,-0.39539119601249695,0.11516126990318298
1782987802647011300,3.94801123046875,-0.9581751227378845,-0.2803120017051697,0.1825120747089386
1782987802657086500,3.95808642578125,-1.0341410636901855,-0.19017954170703888,0.2359330654144287
1782987802667160300,3.968160400390625,-1.0797507762908936,-0.1545390486717224,0.25196558237075806
1782987802677235500,3.9782353515625,-1.087785005569458,-0.16109628975391388,0.23296497762203217
1782987802687309300,3.988309326171875,-1.0727767944335938,-0.20108948647975922,0.17952409386634827
1782987802697384400,3.998384521484375,-1.0190483331680298,-0.26307642459869385,0.11752144992351532
1782987802707458300,4.008458251953125,-0.9528296589851379,-0.30381879210472107,0.06518373638391495
1782987802717533400,4.018533447265625,-0.8835238218307495,-0.3107059895992279,0.03066277876496315
1782987802727607300,4.028607177734375,-0.8200836777687073,-0.3106069564819336,0.00940992683172226
1782987802737682400,4.038682373046875,-0.7577529549598694,-0.307586133480072,-0.0021657696925103664
1782987802747756300,4.04875634765625,-0.7006805539131165,-0.30906543135643005,0.0057498998939991
1782987802757831400,4.05883154296875,-0.6453208923339844,-0.3312183916568756,0.024812806397676468
1782987802767905300,4.0689052734375,-0.5892641544342041,-0.3643830120563507,0.05851973593235016
1782987802777980400,4.07898046875,-0.5543628931045532,-0.3965529203414917,0.08292601257562637
1782987802788054300,4.08905419921875,-0.5521991848945618,-0.43230998516082764,0.09226276725530624
1782987802798129400,4.09912939453125,-0.5704711079597473,-0.440093070268631,0.07852085679769516
1782987802808203300,4.109203369140625,-0.5968350768089294,-0.4623468816280365,0.03630085662007332
1782987802818278400,4.1192783203125,-0.6174599528312683,-0.5632719397544861,-0.009878356009721756
1782987802828352300,4.129352294921875,-0.6239259839057922,-0.5735809803009033,-0.01572280190885067
1782987802838427400,4.139427490234375,-0.6253475546836853,-0.4959697723388672,0.017396003007888794
1782987802848501200,4.149501220703125,-0.6339723467826843,-0.38962236046791077,0.07908996194601059
1782987802858576400,4.159576416015625,-0.6459930539131165,-0.2827126979827881,0.15307337045669556
1782987802868650200,4.169650146484375,-0.6554468870162964,-0.18654930591583252,0.23060673475265503
1782987802878724400,4.179724365234375,-0.6860538125038147,-0.12747374176979065,0.2942619025707245
1782987802888799200,4.18979931640625,-0.7319364547729492,-0.09288191050291061,0.30403804779052734
1782987802898873300,4.199873291015625,-0.7646338939666748,-0.06864741444587708,0.2591874897480011
1782987802908948200,4.2099482421875,-0.7692596316337585,-0.09032358229160309,0.16849464178085327
1782987802919022300,4.220022216796875,-0.746210515499115,-0.14194948971271515,0.05111769214272499
1782987802929097500,4.230097412109375,-0.7147938013076782,-0.16098465025424957,-0.06028277799487114
1782987802939171300,4.24017138671875,-0.6750301122665405,-0.14152492582798004,-0.14847655594348907
1782987802949246500,4.25024658203125,-0.6240779757499695,-0.127482071518898,-0.21004696190357208
1782987802959320300,4.2603203125,-0.5574108362197876,-0.11384402960538864,-0.21238867938518524
1782987802969395500,4.2703955078125,-0.49243178963661194,-0.08245960623025894,-0.141784206032753
1782987802979469300,4.28046923828125,-0.4461548328399658,-0.030239276587963104,-0.022938784211874008
1782987802989544400,4.29054443359375,-0.41518279910087585,0.060751743614673615,0.1131041944026947
1782987802999618300,4.300618408203125,-0.3810751736164093,0.028193801641464233,0.21894806623458862
1782987803009693400,4.310693359375,-0.32947927713394165,-0.16818244755268097,0.264480322599411
1782987803019767300,4.320767333984375,-0.2738572955131531,-0.48501768708229065,0.22051553428173065
1782987803029843500,4.330843505859375,-0.25050365924835205,-0.8791207671165466,0.05481759458780289
1782987803039917300,4.340917236328125,-0.26251929998397827,-1.2217586040496826,-0.2005358785390854
1782987803049992400,4.350992431640625,-0.2986833453178406,-1.3109065294265747,-0.45292726159095764
1782987803060066300,4.36106640625,-0.3505502939224243,-1.195961833000183,-0.635537326335907
1782987803070141400,4.371141357421875,-0.3881634473800659,-0.9684466123580933,-0.6847895979881287
1782987803080215300,4.38121533203125,-0.4037272036075592,-0.6293761730194092,-0.5555538535118103
1782987803090290400,4.39129052734375,-0.3974364101886749,-0.23422110080718994,-0.25756701827049255
1782987803100364300,4.4013642578125,-0.3885699510574341,0.09781915694475174,0.11994246393442154
1782987803110439400,4.411439453125,-0.38671502470970154,0.21931132674217224,0.464907169342041
1782987803120513300,4.42151318359375,-0.379201740026474,0.13872459530830383,0.706613302230835
1782987803130588400,4.43158837890625,-0.38051387667655945,-0.06041346862912178,0.8232496976852417
1782987803140662300,4.441662353515625,-0.38956061005592346,-0.3239279091358185,0.8121888041496277
1782987803150737400,4.4517373046875,-0.40056392550468445,-0.5653189420700073,0.6937711238861084
1782987803160811300,4.461811279296875,-0.40565136075019836,-0.7185617089271545,0.4971259832382202
1782987803170886400,4.471886474609375,-0.4077092707157135,-0.7442260980606079,0.2531288266181946
1782987803180960300,4.481960205078125,-0.4034135937690735,-0.6855265498161316,0.0028577237389981747
1782987803191035400,4.492035400390625,-0.39935216307640076,-0.6087563037872314,-0.21296446025371552
1782987803201109200,4.502109130859375,-0.39979612827301025,-0.5126054883003235,-0.3431379199028015
1782987803211184400,4.512184326171875,-0.41185829043388367,-0.41897305846214294,-0.38594454526901245
1782987803221258200,4.52225830078125,-0.4325571656227112,-0.3271941542625427,-0.3300631642341614
1782987803231333400,4.53233349609375,-0.46816888451576233,-0.2318306267261505,-0.19364815950393677
1782987803241407200,4.5424072265625,-0.5100476741790771,-0.14224934577941895,0.003630297491326928
1782987803251482400,4.552482421875,-0.5541980862617493,-0.08125976473093033,0.21233034133911133
1782987803261556200,4.56255615234375,-0.5922724604606628,-0.09595002979040146,0.37398821115493774
1782987803271631400,4.57263134765625,-0.6076058149337769,-0.1686718612909317,0.46624013781547546
1782987803281705500,4.58270556640625,-0.6086412668228149,-0.24014897644519806,0.4880746006965637
1782987803291780400,4.5927802734375,-0.6029168367385864,-0.28689056634902954,0.45911717414855957
1782987803301854500,4.6028544921875,-0.5922032594680786,-0.3045175075531006,0.376973032951355
1782987803311928300,4.61292822265625,-0.5712361931800842,-0.30082353949546814,0.2611556649208069
1782987803322003500,4.62300341796875,-0.5462386608123779,-0.31275397539138794,0.13819140195846558
1782987803332077300,4.633077392578125,-0.5169048309326172,-0.3393855690956116,0.022575393319129944
1782987803342152400,4.64315234375,-0.5034561157226562,-0.3733997344970703,-0.07021073251962662
1782987803352226300,4.653226318359375,-0.4958738386631012,-0.41033637523651123,-0.12990203499794006
1782987803362301400,4.663301513671875,-0.49651166796684265,-0.4499623477458954,-0.15564627945423126
1782987803372375300,4.673375244140625,-0.5048788785934448,-0.48182716965675354,-0.15020033717155457
1782987803382450400,4.683450439453125,-0.5227891802787781,-0.5232140421867371,-0.12703004479408264
1782987803392524300,4.693524169921875,-0.5487523674964905,-0.5815039873123169,-0.09811928868293762
1782987803402599400,4.703599365234375,-0.5661497116088867,-0.6231518387794495,-0.06791984289884567
1782987803412673300,4.71367333984375,-0.5715963244438171,-0.6372517943382263,-0.03757930174469948
1782987803422748400,4.72374853515625,-0.5716642141342163,-0.6359004974365234,-0.009232614189386368
1782987803432822300,4.733822265625,-0.567882239818573,-0.6225468516349792,-0.0045270840637385845
1782987803442897400,4.7438974609375,-0.5596056580543518,-0.5953815579414368,-0.01043797004967928
1782987803452971300,4.75397119140625,-0.5474493503570557,-0.5262428522109985,-0.00542461546137929
1782987803463046400,4.76404638671875,-0.5472373366355896,-0.44283661246299744,0.010612407699227333
1782987803473120300,4.774120361328125,-0.5603786110877991,-0.37061774730682373,0.04279620200395584
1782987803483195400,4.7841953125,-0.5823563933372498,-0.33774182200431824,0.07731077075004578
1782987803493269200,4.794269287109375,-0.5925995707511902,-0.36667439341545105,0.10671699792146683
1782987803503344400,4.804344482421875,-0.5999025106430054,-0.4493437111377716,0.12405923753976822
1782987803513418200,4.814418212890625,-0.6132466793060303,-0.5510888695716858,0.12558044493198395
1782987803523493400,4.824493408203125,-0.6423206925392151,-0.6605415940284729,0.10988457500934601
1782987803533567200,4.834567138671875,-0.6764360070228577,-0.743129551410675,0.07567159831523895
1782987803543642400,4.844642333984375,-0.7190729379653931,-0.7819547057151794,0.03292013704776764
1782987803553716200,4.85471630859375,-0.7575677633285522,-0.7723711729049683,-0.014280984178185463
1782987803563791400,4.864791259765625,-0.785370945930481,-0.7145957350730896,-0.052625175565481186
1782987803573865200,4.874865234375,-0.7948594689369202,-0.5699917674064636,-0.05152441933751106
1782987803583940400,4.8849404296875,-0.7955838441848755,-0.35317474603652954,-0.010027843527495861
1782987803594014200,4.89501416015625,-0.7968680262565613,-0.24030084908008575,0.034265514463186264
1782987803604089300,4.90508935546875,-0.797548234462738,-0.36898988485336304,0.03001723811030388
1782987803614163200,4.9151630859375,-0.8051581978797913,-0.619127094745636,-0.01902133785188198
1782987803624238300,4.92523828125,-0.8355352878570557,-0.8524839282035828,-0.10194870829582214
1782987803634312200,4.935312255859375,-0.8850347995758057,-0.9773427844047546,-0.20015601813793182
1782987803644387300,4.94538720703125,-0.9476606249809265,-0.9509431719779968,-0.29670628905296326
1782987803654461200,4.955461181640625,-1.0382577180862427,-0.8402274250984192,-0.385791152715683
1782987803664536300,4.965536376953125,-1.149641513824463,-0.6896374225616455,-0.44044455885887146
1782987803674610400,4.9756103515625,-1.2671397924423218,-0.48199474811553955,-0.4387219250202179
1782987803684685300,4.985685302734375,-1.3599212169647217,-0.2413187325000763,-0.34254398941993713
1782987803694759400,4.995759521484375,-1.3878055810928345,-0.003988119773566723,-0.1514902561903
1782987803704834300,5.005834228515625,-1.33627450466156,0.1354675143957138,0.09884262830018997
1782987803714908400,5.015908447265625,-1.2434579133987427,0.0753028616309166,0.3368782699108124
1782987803724982300,5.025982177734375,-1.1420739889144897,-0.17856909334659576,0.5257554650306702
1782987803735057400,5.036057373046875,-1.0445470809936523,-0.5336669683456421,0.6331386566162109
1782987803745131300,5.04613134765625,-0.9527865648269653,-0.8565502166748047,0.669812023639679
1782987803755206400,5.056206298828125,-0.8879007697105408,-1.0232126712799072,0.6290218234062195
1782987803765280300,5.0662802734375,-0.8477317690849304,-1.0389854907989502,0.5202023983001709
1782987803775355400,5.07635546875,-0.835498571395874,-0.9304633736610413,0.3695378005504608
1782987803785429200,5.08642919921875,-0.8484641313552856,-0.7555855512619019,0.2033458948135376
1782987803795504400,5.09650439453125,-0.8853642344474792,-0.5396485328674316,0.06833987683057785
1782987803805578200,5.106578125,-0.9394844770431519,-0.3485901951789856,-0.003210206050425768
1782987803815653400,5.1166533203125,-0.993416965007782,-0.2367640733718872,-0.0022426797077059746
1782987803825727200,5.126727294921875,-1.040920615196228,-0.21622976660728455,0.05359954386949539
1782987803835802400,5.13680224609375,-1.0711047649383545,-0.28308168053627014,0.13824421167373657
1782987803845876200,5.146876220703125,-1.0833017826080322,-0.39827725291252136,0.21683064103126526
1782987803855951400,5.156951416015625,-1.0787162780761719,-0.5033371448516846,0.27426791191101074
1782987803866025200,5.167025146484375,-1.0592371225357056,-0.5753703713417053,0.28277885913848877
1782987803876100400,5.177100341796875,-1.0322890281677246,-0.5974385142326355,0.23794721066951752
1782987803886174200,5.18717431640625,-0.9946691393852234,-0.5708188414573669,0.16935749351978302
1782987803896249300,5.197249267578125,-0.9483807682991028,-0.4746159017086029,0.11161056905984879
1782987803906323200,5.2073232421875,-0.915112316608429,-0.32329055666923523,0.10249137133359909
1782987803916398300,5.2173984375,-0.9105231165885925,-0.18326261639595032,0.13514359295368195
1782987803926472200,5.22747216796875,-0.9292869567871094,-0.06621243804693222,0.18341098725795746
1782987803936547300,5.23754736328125,-0.9388617277145386,-0.026802530512213707,0.2518942654132843
1782987803946621200,5.24762109375,-0.9402481913566589,-0.06531556695699692,0.31810152530670166
1782987803956696300,5.2576962890625,-0.9344469308853149,-0.171013742685318,0.3652507960796356
1782987803966770200,5.267770263671875,-0.9252185225486755,-0.28652408719062805,0.38593530654907227
1782987803976845300,5.27784521484375,-0.9201574921607971,-0.3567717671394348,0.3894902765750885
1782987803986919200,5.287919189453125,-0.9173518419265747,-0.3482576310634613,0.37712761759757996
1782987803996994300,5.297994384765625,-0.9207543730735779,-0.30942797660827637,0.3477728068828583
1782987804007068200,5.308068115234375,-0.9219956994056702,-0.2731786370277405,0.2977767586708069
1782987804017143300,5.318143310546875,-0.9263846278190613,-0.25408339500427246,0.23537200689315796
1782987804027216600,5.328216552734375,-0.9229968190193176,-0.2468145787715912,0.1569530963897705
1782987804037291800,5.338291748046875,-0.8998839855194092,-0.22808837890625,0.09753206372261047
1782987804047365600,5.34836572265625,-0.852536141872406,-0.18577367067337036,0.0596158392727375
1782987804057440800,5.358440673828125,-0.771618664264679,-0.13910789787769318,0.056431230157613754
1782987804067514600,5.3685146484375,-0.6578018665313721,-0.10517337173223495,0.08232781291007996
1782987804077588700,5.378588623046875,-0.5450465679168701,-0.10514263063669205,0.14035357534885406
1782987804087663600,5.38866357421875,-0.4528268575668335,-0.1469116508960724,0.20609663426876068
1782987804097737700,5.39873779296875,-0.39012157917022705,-0.20840278267860413,0.2757825255393982
1782987804107812600,5.4088125,-0.3638763725757599,-0.26819100975990295,0.326082706451416
1782987804117886700,5.41888671875,-0.37502190470695496,-0.31361791491508484,0.34547507762908936
1782987804127961900,5.4289619140625,-0.4028969705104828,-0.31627148389816284,0.33084234595298767
1782987804138035700,5.43903564453125,-0.4283216893672943,-0.18822140991687775,0.29233235120773315
1782987804148110800,5.44911083984375,-0.44568416476249695,-0.04995301365852356,0.2299523651599884
1782987804158184700,5.459184814453125,-0.4526718556880951,-0.06939081102609634,0.1185426339507103
1782987804168259800,5.469259765625,-0.45597922801971436,-0.22803424298763275,-0.04126301407814026
1782987804178333700,5.479333740234375,-0.49471184611320496,-0.47963109612464905,-0.2381388247013092
1782987804188408800,5.489408935546875,-0.5547813177108765,-0.7444750666618347,-0.3998638093471527
1782987804198482700,5.499482666015625,-0.6188979148864746,-0.8748350739479065,-0.4413253962993622
1782987804208557800,5.509557861328125,-0.6908384561538696,-0.8384667038917542,-0.3497563302516937
1782987804218631700,5.519631591796875,-0.7593790888786316,-0.5973242521286011,-0.12936349213123322
1782987804228706800,5.529706787109375,-0.8056421875953674,-0.2491750717163086,0.182006374001503
1782987804238780700,5.53978076171875,-0.8186113238334656,0.09820467233657837,0.504177987575531
1782987804248854800,5.549854736328125,-0.8117089867591858,0.27280178666114807,0.7441229224205017
1782987804258929700,5.5599296875,-0.784356415271759,0.1979510486125946,0.8762611150741577
1782987804269003800,5.570003662109375,-0.7535473704338074,-0.02319306507706642,0.9182077646255493
1782987804279078700,5.58007861328125,-0.7439360022544861,-0.30667468905448914,0.8991854190826416
1782987804289152800,5.59015283203125,-0.7667902112007141,-0.6113927960395813,0.8088653683662415
1782987804299227600,5.6002275390625,-0.8192038536071777,-0.868488609790802,0.6439775228500366
1782987804309301800,5.6103017578125,-0.8736079931259155,-1.0166587829589844,0.42132768034935
1782987804319376600,5.620376708984375,-0.9269135594367981,-1.0377225875854492,0.18818309903144836
1782987804329450800,5.63045068359375,-0.974360466003418,-0.9776603579521179,-0.010690584778785706
1782987804339525600,5.640525634765625,-1.013481616973877,-0.8500823378562927,-0.14254379272460938
1782987804349599700,5.650599853515625,-1.054589867591858,-0.7270419001579285,-0.21269731223583221
1782987804359674600,5.660674560546875,-1.0966039896011353,-0.6547850370407104,-0.2329312413930893
1782987804369748700,5.670748779296875,-1.1369822025299072,-0.6170352697372437,-0.22850000858306885
1782987804379823600,5.68082373046875,-1.157250165939331,-0.5793520212173462,-0.1980380117893219
1782987804389897700,5.690897705078125,-1.162034034729004,-0.5468063354492188,-0.16473625600337982
1782987804399972600,5.70097265625,-1.162550926208496,-0.5279101133346558,-0.13443906605243683
1782987804410046700,5.711046630859375,-1.1592720746994019,-0.4967556893825531,-0.1176435723900795
1782987804420121600,5.72112158203125,-1.143272876739502,-0.45924365520477295,-0.10458700358867645
1782987804430195700,5.73119580078125,-1.112936019897461,-0.4349883794784546,-0.09861726313829422
1782987804440270600,5.7412705078125,-1.0625425577163696,-0.42602452635765076,-0.10431108623743057
1782987804450344700,5.7513447265625,-0.9989410042762756,-0.40488943457603455,-0.09847130626440048
1782987804460419600,5.761419677734375,-0.9386786222457886,-0.39777979254722595,-0.09281472861766815
1782987804470493700,5.77149365234375,-0.8896303772926331,-0.43887263536453247,-0.09490185230970383
1782987804480568600,5.781568603515625,-0.850536048412323,-0.5541667938232422,-0.1074124425649643
1782987804490642700,5.791642578125,-0.8195693492889404,-0.6976221799850464,-0.10925242304801941
1782987804500717800,5.8017177734375,-0.795748770236969,-0.7875158786773682,-0.08562878519296646
1782987804510791700,5.811791748046875,-0.7760805487632751,-0.8071367144584656,-0.04139181971549988
1782987804520866800,5.82186669921875,-0.7653456330299377,-0.7701444029808044,0.00623845960944891
1782987804530940700,5.831940673828125,-0.7469101548194885,-0.7354604005813599,0.05596260353922844
1782987804541015800,5.842015869140625,-0.7370980381965637,-0.6562002301216125,0.11153532564640045
1782987804551089700,5.852089599609375,-0.7449490427970886,-0.5682956576347351,0.15420874953269958
1782987804561164800,5.862164794921875,-0.7642017602920532,-0.5132794380187988,0.17841018736362457
1782987804571238700,5.87223876953125,-0.7782909274101257,-0.4908261001110077,0.18609313666820526
1782987804581313800,5.882313720703125,-0.7910202145576477,-0.47886595129966736,0.17139722406864166
1782987804591387600,5.8923876953125,-0.8066138029098511,-0.5345190763473511,0.12686437368392944
1782987804601462800,5.902462890625,-0.8364601135253906,-0.6332176327705383,0.05737919732928276
1782987804611536600,5.91253662109375,-0.8649540543556213,-0.715800404548645,-0.006940670311450958
1782987804621611800,5.92261181640625,-0.8901370763778687,-0.7625766396522522,-0.05761197209358215
1782987804631685600,5.932685546875,-0.9116541147232056,-0.7940176129341125,-0.107887402176857
1782987804641760000,5.942760009765625,-0.920086681842804,-0.8218411207199097,-0.15705256164073944
1782987804651834600,5.952834716796875,-0.9115930795669556,-0.8223689198493958,-0.19914862513542175
1782987804661909000,5.962908935546875,-0.8938619494438171,-0.8081591725349426,-0.22120770812034607
1782987804671983600,5.972983642578125,-0.8725787401199341,-0.7904472947120667,-0.21856558322906494
1782987804682058000,5.98305810546875,-0.8610069751739502,-0.7587052583694458,-0.18597343564033508
1782987804692132600,5.993132568359375,-0.8437779545783997,-0.6834168434143066,-0.1189749613404274
1782987804702207000,6.00320703125,-0.8287604451179504,-0.5677887201309204,-0.03305627033114433
1782987804712281600,6.013281494140625,-0.8109638690948486,-0.4291014075279236,0.0426560677587986
1782987804722356000,6.02335595703125,-0.7856619358062744,-0.3550690710544586,0.11647403985261917
1782987804732430600,6.0334306640625,-0.7488343715667725,-0.4364537000656128,0.13354331254959106
1782987804742505000,6.0435048828125,-0.7073305249214172,-0.7211365103721619,0.08526261895895004
1782987804752579600,6.05357958984375,-0.6823700666427612,-1.0972957611083984,-0.005494178272783756
1782987804762654000,6.063654052734375,-0.6785786747932434,-1.350224256515503,-0.10414838045835495
1782987804772728600,6.073728515625,-0.6986597180366516,-1.3454771041870117,-0.17803485691547394
1782987804782803000,6.083802978515625,-0.7261112332344055,-1.0810635089874268,-0.20486058294773102
1782987804792877600,6.093877685546875,-0.7290047407150269,-0.6453964114189148,-0.14134551584720612
1782987804802952000,6.103951904296875,-0.7136936783790588,-0.13568417727947235,0.03347422182559967
1782987804813026600,6.114026611328125,-0.6908911466598511,0.2631380259990692,0.27773189544677734
1782987804823101000,6.124100830078125,-0.6704716086387634,0.33533549308776855,0.5142481923103333
1782987804833175600,6.134175537109375,-0.6552343368530273,0.0368468202650547,0.6828545331954956
1782987804843250000,6.14425,-0.6267436742782593,-0.43125292658805847,0.7601493000984192
1782987804853324500,6.154324462890625,-0.5854220986366272,-0.8760572671890259,0.7461365461349487
1782987804863399000,6.16439892578125,-0.5359049439430237,-1.1820768117904663,0.6447874307632446
1782987804873473500,6.1744736328125,-0.5101947784423828,-1.292260766029358,0.48334985971450806
1782987804883548000,6.1845478515625,-0.5131641626358032,-1.1704394817352295,0.3097498118877411
1782987804893622800,6.194622802734375,-0.5240898132324219,-0.8764339089393616,0.1706872582435608
1782987804903697000,6.20469677734375,-0.5461350679397583,-0.5042744278907776,0.09312113374471664
1782987804913771800,6.214771728515625,-0.5767337083816528,-0.16487956047058105,0.10672615468502045
1782987804923846000,6.224845947265625,-0.6119391918182373,0.08626272529363632,0.20486167073249817
1782987804933920800,6.234920654296875,-0.6496791243553162,0.21575547754764557,0.3484175205230713
1782987804943995000,6.244994873046875,-0.6767827868461609,0.23296575248241425,0.47492715716362
1782987804954069800,6.25506982421875,-0.6918203830718994,0.143528014421463,0.5760114789009094
1782987804964143900,6.265143798828125,-0.6889585256576538,0.008432898670434952,0.6297452449798584
1782987804974218800,6.27521875,-0.6675429940223694,-0.1342366337776184,0.6289902329444885
1782987804984292900,6.28529296875,-0.6343375444412231,-0.2553577423095703,0.565314531326294
1782987804994366700,6.29536669921875,-0.590933620929718,-0.34580162167549133,0.45278504490852356
1782987805004441900,6.30544189453125,-0.5490232110023499,-0.4072266221046448,0.29940083622932434
1782987805014516000,6.315515869140625,-0.5065228939056396,-0.4399142563343048,0.131147101521492
1782987805024590800,6.3255908203125,-0.4686164855957031,-0.4686144292354584,-0.026408687233924866
1782987805034665200,6.335665283203125,-0.4473024010658264,-0.448762446641922,-0.15469209849834442
1782987805044739800,6.34573974609375,-0.4299616515636444,-0.4083319306373596,-0.24961823225021362
1782987805054814200,6.355814208984375,-0.4064653813838959,-0.3717406392097473,-0.3158382773399353
1782987805064888800,6.365888916015625,-0.37992408871650696,-0.3654208481311798,-0.3674849271774292
1782987805074963200,6.375963134765625,-0.3544863760471344,-0.3958165645599365,-0.39265844225883484
1782987805085037800,6.386037841796875,-0.3343479037284851,-0.41763314604759216,-0.39137938618659973
1782987805095112200,6.3961123046875,-0.3114180862903595,-0.408943772315979,-0.3397982120513916
1782987805105186800,6.406186767578125,-0.27115398645401,-0.34689536690711975,-0.25246021151542664
1782987805115261200,6.41626123046875,-0.21333518624305725,-0.22512954473495483,-0.14088042080402374
1782987805125335800,6.426335693359375,-0.13446353375911713,-0.1161457970738411,-0.0340929850935936
1782987805135410200,6.43641015625,-0.05469929799437523,-0.03286940976977348,0.05239954590797424
1782987805145484800,6.44648486328125,0.010998752899467945,0.05446289852261543,0.12267806380987167
1782987805155559200,6.45655908203125,0.05125083774328232,0.13399048149585724,0.17139367759227753
1782987805165633800,6.4666337890625,0.07763754576444626,0.2201678305864334,0.20175042748451233
1782987805175708200,6.476708251953125,0.1023964211344719,0.2939451336860657,0.21914300322532654
1782987805185782800,6.48678271484375,0.12796159088611603,0.32444584369659424,0.2390352040529251
1782987805195857200,6.496857177734375,0.16445036232471466,0.3176529109477997,0.2574120759963989
1782987805205931800,6.506931884765625,0.21003489196300507,0.28138914704322815,0.28539106249809265
1782987805216006100,6.517006103515625,0.26237374544143677,0.24078898131847382,0.3350214660167694
1782987805226080800,6.527080810546875,0.30415475368499756,0.19937708973884583,0.39315107464790344
1782987805236155100,6.537155029296875,0.3285715579986572,0.15240654349327087,0.44565632939338684
1782987805246230000,6.54722998046875,0.33177998661994934,0.10563362389802933,0.4942346513271332
1782987805256304000,6.55730419921875,0.32975783944129944,0.09285124391317368,0.5378745198249817
1782987805266379000,6.56737890625,0.3405788242816925,0.18139444291591644,0.5761827826499939
1782987805276453000,6.577453125,0.37172606587409973,0.2774285674095154,0.6129197478294373
1782987805286528000,6.587528076171875,0.435124933719635,0.20460322499275208,0.611702024936676
1782987805296602000,6.59760205078125,0.48905208706855774,-0.07094205915927887,0.4755977392196655
1782987805306677000,6.607677001953125,0.5092461705207825,-0.5375305414199829,0.1893174648284912
1782987805316751000,6.617751220703125,0.4962529242038727,-0.9560945630073547,-0.16628484427928925
1782987805326826000,6.627825927734375,0.45017576217651367,-1.1757311820983887,-0.4654322862625122
1782987805336900000,6.637900146484375,0.37982410192489624,-1.1310184001922607,-0.6434454321861267
1782987805346975000,6.64797509765625,0.28682848811149597,-0.8364863395690918,-0.6811321377754211
1782987805357049000,6.658049072265625,0.17491286993026733,-0.36763331294059753,-0.5698652863502502
1782987805367124000,6.6681240234375,0.05877285823225975,0.11094179004430771,-0.36339274048805237
1782987805377198000,6.678197998046875,-0.03962748125195503,0.4563297927379608,-0.12265042960643768
1782987805387273000,6.68827294921875,-0.08847536146640778,0.6429394483566284,0.11240188777446747
1782987805397347000,6.69834716796875,-0.07874363660812378,0.6592662334442139,0.302500456571579
1782987805407422000,6.708421875,-0.02345678023993969,0.5487457513809204,0.4292202889919281
1782987805417496000,6.71849609375,0.049310103058815,0.3532140552997589,0.46745049953460693
1782987805427571000,6.728571044921875,0.1068183183670044,0.1188383474946022,0.39952147006988525
1782987805437645000,6.73864501953125,0.14576704800128937,-0.07683474570512772,0.23889586329460144
1782987805447719200,6.74871923828125,0.17631325125694275,-0.20471768081188202,0.009726494550704956
1782987805457794000,6.7587939453125,0.19295400381088257,-0.28701120615005493,-0.2253989428281784
1782987805467868200,6.7688681640625,0.1902311146259308,-0.3504839539527893,-0.44469067454338074
1782987805477943000,6.778943115234375,0.18327893316745758,-0.38736313581466675,-0.5897314548492432
1782987805488017200,6.78901708984375,0.1633749008178711,-0.4019905626773834,-0.6495519280433655
1782987805498092000,6.799092041015625,0.13497334718704224,-0.3505537211894989,-0.620005190372467
1782987805508166100,6.809166259765625,0.09224559366703033,-0.19707955420017242,-0.5137413144111633
1782987805518241000,6.819240966796875,0.06162882596254349,0.021890603005886078,-0.35202112793922424
1782987805528315100,6.829315185546875,0.06243487447500229,0.276384562253952,-0.15660272538661957
1782987805538390000,6.83939013671875,0.08809603005647659,0.5178903937339783,0.04423476383090019
1782987805548464000,6.849464111328125,0.12777234613895416,0.684336245059967,0.19857583940029144
1782987805558539000,6.8595390625,0.167476087808609,0.780046820640564,0.2986595630645752
1782987805568613000,6.869613037109375,0.20676816999912262,0.8172130584716797,0.342867910861969
1782987805578688000,6.87968798828125,0.2353188544511795,0.7979693412780762,0.3326951563358307
1782987805588762000,6.88976220703125,0.24530217051506042,0.6799948215484619,0.2585011422634125
1782987805598837000,6.8998369140625,0.25400376319885254,0.46871134638786316,0.12241975218057632
1782987805608911000,6.9099111328125,0.276790052652359,0.2123427391052246,-0.0653216615319252
1782987805618986000,6.919986083984375,0.32907429337501526,-0.01080192718654871,-0.2634504437446594
1782987805629060000,6.93006005859375,0.3956698477268219,-0.13573554158210754,-0.4435279965400696
1782987805639135200,6.94013525390625,0.4614610970020294,-0.17028339207172394,-0.5570622682571411
1782987805649209000,6.950208984375,0.5052990913391113,-0.14106567203998566,-0.5957822203636169
1782987805659284200,6.9602841796875,0.5257458090782166,-0.08409638702869415,-0.5743166208267212
1782987805669358000,6.970358154296875,0.5273582935333252,-0.04586922004818916,-0.505784273147583
1782987805679433200,6.98043310546875,0.504145085811615,-0.03256326913833618,-0.40069037675857544
1782987805689507000,6.990507080078125,0.46211695671081543,-0.025111332535743713,-0.27495163679122925
1782987805699582200,7.000582275390625,0.40580815076828003,-0.03284435346722603,-0.14995428919792175
1782987805709656000,7.010656005859375,0.3369327485561371,-0.06993936002254486,-0.0490846261382103
1782987805719731200,7.020731201171875,0.2747359275817871,-0.1380385160446167,-0.0015626457752659917
1782987805729805000,7.03080517578125,0.22876200079917908,-0.19548001885414124,0.0005131593206897378
1782987805739880200,7.040880126953125,0.19766053557395935,-0.2374706119298935,-0.03346078842878342
1782987805749954000,7.0509541015625,0.1731039434671402,-0.2443234920501709,-0.08963476866483688
1782987805760029200,7.061029296875,0.15087588131427765,-0.2338855117559433,-0.14217521250247955
1782987805770103000,7.07110302734375,0.11453092843294144,-0.2230103611946106,-0.18500648438930511
1782987805780178200,7.08117822265625,0.06890005618333817,-0.20643377304077148,-0.1971731334924698
1782987805790252000,7.091251953125,0.01176992803812027,-0.17951081693172455,-0.16935747861862183
1782987805800327200,7.1013271484375,-0.055530015379190445,-0.11168409138917923,-0.0986151322722435
1782987805810401000,7.111401123046875,-0.12490730732679367,-0.012798701412975788,0.021287623792886734
1782987805820475100,7.12147509765625,-0.19300007820129395,0.07078620791435242,0.14838005602359772
1782987805830550000,7.131550048828125,-0.24192944169044495,0.12798190116882324,0.25054827332496643
1782987805840624000,7.1416240234375,-0.27021193504333496,0.14725732803344727,0.3310151696205139
1782987805850699000,7.151698974609375,-0.28554970026016235,0.1610405296087265,0.3916604518890381
1782987805860773000,7.161773193359375,-0.29122915863990784,0.26474857330322266,0.456001877784729
1782987805870848000,7.171847900390625,-0.29879167675971985,0.4080754518508911,0.5076481699943542
1782987805880922000,7.181922119140625,-0.3168681561946869,0.38563618063926697,0.48617056012153625
1782987805890997000,7.1919970703125,-0.33703508973121643,0.16914620995521545,0.39217904210090637
1782987805901071000,7.202071044921875,-0.35817980766296387,-0.06841413676738739,0.2719106674194336
1782987805911146000,7.21214599609375,-0.4010670781135559,-0.18085552752017975,0.1396966129541397
1782987805921220000,7.22222021484375,-0.4647323489189148,-0.16284270584583282,-0.0019396120915189385
1782987805931295000,7.232294921875,-0.5273907780647278,-0.07648343592882156,-0.13610143959522247
1782987805941369000,7.242369140625,-0.5816050171852112,0.03469661623239517,-0.2518754303455353
1782987805951444000,7.25244384765625,-0.6283074021339417,0.13630831241607666,-0.31422311067581177
1782987805961518000,7.26251806640625,-0.6581486463546753,0.20499922335147858,-0.31867218017578125
1782987805971593000,7.272593017578125,-0.6714797616004944,0.21546457707881927,-0.2796192467212677
1782987805981667000,7.2826669921875,-0.6656602621078491,0.19203542172908783,-0.2027340531349182
1782987805991742000,7.292741943359375,-0.6520626544952393,0.11823944747447968,-0.12562429904937744
1782987806001816000,7.302816162109375,-0.6368637084960938,0.03256901726126671,-0.0732971653342247
1782987806011891200,7.31289111328125,-0.6030504107475281,-0.029108040034770966,-0.04838448017835617
1782987806021965000,7.322965087890625,-0.5379875302314758,-0.027426254004240036,-0.03280392289161682
1782987806032039400,7.333039306640625,-0.44943326711654663,0.01866403967142105,-0.018403448164463043
1782987806042113500,7.343113525390625,-0.35379037261009216,0.061239466071128845,0.0004035289166495204
1782987806052188400,7.3531884765625,-0.2510295510292053,0.0650535523891449,0.041020140051841736
1782987806062262500,7.363262451171875,-0.14818574488162994,0.04766683652997017,0.10433413833379745
1782987806072337700,7.373337646484375,-0.06002729758620262,0.01448342576622963,0.18619529902935028
1782987806082411500,7.38341162109375,0.0076319077052176,-0.03317330777645111,0.2627289593219757
1782987806092486700,7.393486572265625,0.04704633355140686,-0.07092146575450897,0.31844180822372437
1782987806102560500,7.403560546875,0.060611143708229065,-0.09257269650697708,0.3365046977996826
1782987806112635600,7.4136357421875,0.06256172806024551,-0.09921259433031082,0.31463050842285156
1782987806122709500,7.42370947265625,0.05506599321961403,-0.09477869421243668,0.2630317807197571
1782987806132784600,7.43378466796875,0.038177378475666046,-0.09436146914958954,0.19851450622081757
1782987806142858500,7.4438583984375,0.011454153805971146,-0.070688895881176,0.12491139024496078
1782987806152933600,7.45393359375,-0.018651355057954788,-0.01526161190122366,0.05769989639520645
1782987806163007500,7.464007568359375,-0.0496944934129715,0.046173788607120514,0.0024158682208508253
1782987806173082600,7.47408251953125,-0.08179828524589539,0.07745931297540665,-0.04068273678421974
1782987806183156500,7.484156494140625,-0.1051693856716156,0.07203977555036545,-0.07588893175125122
1782987806193230600,7.494230712890625,-0.1176711693406105,0.056781865656375885,-0.09316353499889374
1782987806203305500,7.504305419921875,-0.12786200642585754,0.039631642401218414,-0.08513117581605911
1782987806213379600,7.514379638671875,-0.12494433671236038,0.03400508686900139,-0.07183743268251419
1782987806223454500,7.524454345703125,-0.11755326390266418,0.007202500943094492,-0.06854017078876495
1782987806233528600,7.534528564453125,-0.09959503263235092,-0.019518325105309486,-0.06801526248455048
1782987806243603500,7.544603515625,-0.08257690072059631,-0.03746376931667328,-0.07416343688964844
1782987806253677600,7.554677490234375,-0.06920543313026428,-0.04479445144534111,-0.08310722559690475
1782987806263752400,7.56475244140625,-0.059122174978256226,-0.03100886382162571,-0.09174039214849472
1782987806273826600,7.57482666015625,-0.0660788044333458,-0.0017731806728988886,-0.10795438289642334
1782987806283901400,7.5849013671875,-0.07947103679180145,0.025495991110801697,-0.12887510657310486
1782987806293975600,7.5949755859375,-0.09775621443986893,0.06935350596904755,-0.1541181206703186
1782987806304050400,7.605050537109375,-0.11232157796621323,0.09653133153915405,-0.1827835887670517
1782987806314124500,7.61512451171875,-0.10437417775392532,0.0933082327246666,-0.20576782524585724
1782987806324199400,7.625199462890625,-0.07763390988111496,0.08435069024562836,-0.20478059351444244
1782987806334273500,7.6352734375,-0.05128883942961693,0.07021644711494446,-0.17389877140522003
1782987806344348400,7.645348388671875,-0.018594276160001755,0.04585038870573044,-0.13239766657352448
1782987806354422500,7.655422607421875,0.007626131176948547,0.04419362172484398,-0.08080307394266129
1782987806364497400,7.665497314453125,0.03573686257004738,0.07032429426908493,-0.03620205074548721
1782987806374571500,7.675571533203125,0.05899069458246231,0.11173639446496964,-0.006197839975357056
1782987806384646400,7.685646484375,0.07956015318632126,0.18062278628349304,-0.0010054748272523284
1782987806394720500,7.695720458984375,0.09977559000253677,0.25012579560279846,-0.00648114550858736
1782987806404795400,7.70579541015625,0.11300510913133621,0.3182776868343353,-0.007925111800432205
1782987806414869500,7.715869384765625,0.1300211101770401,0.36996719241142273,-0.0012404033914208412
1782987806424944400,7.7259443359375,0.1437118947505951,0.3583203852176666,0.012187255546450615
1782987806435018500,7.7360185546875,0.14832261204719543,0.3234138786792755,0.013751954771578312
1782987806445093400,7.74609326171875,0.14946377277374268,0.2736409902572632,0.015297386795282364
1782987806455167500,7.75616748046875,0.1582234501838684,0.22551992535591125,0.025446509942412376
1782987806465242600,7.76624267578125,0.17446447908878326,0.21259720623493195,0.04940590262413025
1782987806475316500,7.77631640625,0.18654680252075195,0.31390002369880676,0.06047794222831726
1782987806485391600,7.7863916015625,0.19139908254146576,0.43881452083587646,0.058519721031188965
1782987806495465500,7.796465576171875,0.21078279614448547,0.3998527228832245,0.01025176141411066
1782987806505540600,7.80654052734375,0.2245824933052063,0.2198464423418045,-0.09958978742361069
1782987806515614500,7.816614501953125,0.19570744037628174,-0.09676152467727661,-0.2757095694541931
1782987806525689600,7.826689697265625,0.13269491493701935,-0.3990015387535095,-0.47261786460876465
1782987806535763500,7.836763427734375,0.07034856081008911,-0.5896521806716919,-0.6303019523620605
1782987806545837300,7.84683740234375,0.012590187601745129,-0.5987260937690735,-0.6963749527931213
1782987806555912400,7.856912353515625,-0.02218724973499775,-0.3913493752479553,-0.6232303977012634
1782987806565987600,7.866987548828125,-0.023111632093787193,0.04674355313181877,-0.38683730363845825
1782987806576061400,7.8770615234375,-0.0013491559075191617,0.5489487648010254,-0.07095681875944138
1782987806586135600,7.887135498046875,0.030772296711802483,0.8629977703094482,0.22231793403625488
1782987806596210400,7.89721044921875,0.06946375966072083,0.9123604893684387,0.4224869906902313
1782987806606284500,7.907284423828125,0.11216754466295242,0.73459392786026,0.5249233841896057
1782987806616359400,7.917359375,0.12478454411029816,0.4577675461769104,0.5498159527778625
1782987806626433500,7.92743359375,0.10455037653446198,0.17970024049282074,0.5195842981338501
1782987806636508400,7.93750830078125,0.05461158603429794,-0.038400065153837204,0.43035268783569336
1782987806646582500,7.94758251953125,0.007330356165766716,-0.17647884786128998,0.29347288608551025
1782987806656657400,7.957657470703125,-0.013289088383316994,-0.25616639852523804,0.14070487022399902
1782987806666731500,7.9677314453125,-0.018637515604496002,-0.2586876153945923,0.007478106766939163
1782987806676806400,7.977806396484375,-0.02833878993988037,-0.187819704413414,-0.09968657791614532
1782987806686880500,7.987880615234375,-0.032638732343912125,-0.09269291907548904,-0.17322923243045807
1782987806696955400,7.997955322265625,-0.03791765868663788,-0.0008157438132911921,-0.217751607298851
1782987806707029500,8.008029541015626,-0.032852862030267715,0.08168871700763702,-0.2183832973241806
1782987806717104400,8.0181044921875,-0.03007233329117298,0.13271832466125488,-0.1816171556711197
1782987806727178500,8.028178466796875,-0.02176699787378311,0.13015742599964142,-0.11786480993032455
1782987806737253400,8.03825341796875,0.001967989606782794,0.07582958787679672,-0.03440851345658302
1782987806747327500,8.048327392578125,0.02865499258041382,-0.0019746602047234774,0.04937639832496643
1782987806757402400,8.05840234375,0.05120929330587387,-0.0715193971991539,0.11542315781116486
1782987806767476500,8.0684765625,0.0723516047000885,-0.1169300228357315,0.15525606274604797
1782987806777551400,8.07855126953125,0.09512970596551895,-0.14093011617660522,0.15642894804477692
1782987806787625500,8.08862548828125,0.13035346567630768,-0.13937322795391083,0.14905917644500732
1782987806797700400,8.098700439453125,0.1580798327922821,-0.09856066107749939,0.13564099371433258
1782987806807774500,8.1087744140625,0.16096189618110657,-0.04282336309552193,0.11411785334348679
1782987806817849300,8.118849365234375,0.14373408257961273,0.02515111118555069,0.08732110261917114
1782987806827923500,8.12892333984375,0.11859597265720367,0.07687582075595856,0.07325535267591476
1782987806837998600,8.13899853515625,0.10079149901866913,0.08059804141521454,0.0654183030128479
1782987806848072400,8.149072509765626,0.09489792585372925,0.055795762687921524,0.07765153050422668
1782987806858147600,8.159147705078125,0.09587176144123077,0.02839505486190319,0.10543093085289001
1782987806868221400,8.169221435546875,0.09769682586193085,-0.0016248952597379684,0.13178850710391998
1782987806878296600,8.179296630859374,0.09976013749837875,-0.03252654895186424,0.15068097412586212
1782987806888370400,8.189370361328125,0.10039982944726944,-0.055288322269916534,0.1494159698486328
1782987806898445600,8.199445556640624,0.10462485253810883,-0.07438602298498154,0.1257418394088745
1782987806908519400,8.20951953125,0.09887135773897171,-0.08711939305067062,0.08066384494304657
1782987806918594600,8.219594482421876,0.0803455263376236,-0.10224005579948425,0.02180812694132328
1782987806928668400,8.22966845703125,0.0410282164812088,-0.14697131514549255,-0.047733403742313385
1782987806938742300,8.2397421875,0.003092816099524498,-0.203274205327034,-0.12330663204193115
1782987806948817400,8.2498173828125,-0.031093116849660873,-0.23156097531318665,-0.17295967042446136
1782987806958891300,8.259891357421875,-0.062291957437992096,-0.23187151551246643,-0.18469388782978058
1782987806968966400,8.26996630859375,-0.090553417801857,-0.23090878129005432,-0.1557922065258026
1782987806979040500,8.28004052734375,-0.11551292985677719,-0.23902998864650726,-0.11437882483005524
1782987806989115400,8.290115478515625,-0.11723253130912781,-0.2562825083732605,-0.051539670675992966
1782987806999189500,8.300189453125,-0.11596273630857468,-0.25863760709762573,0.024039147421717644
1782987807009264400,8.310264404296875,-0.12430641800165176,-0.25804343819618225,0.09871312230825424
1782987807019338500,8.32033837890625,-0.14587438106536865,-0.25233638286590576,0.15465323626995087
1782987807029413400,8.330413330078125,-0.16787901520729065,-0.24767985939979553,0.17573082447052002
1782987807039487500,8.340487548828126,-0.19609583914279938,-0.23136006295681,0.17535220086574554
1782987807049562400,8.350562255859375,-0.22358471155166626,-0.19986499845981598,0.1627431958913803
1782987807059636500,8.360636474609375,-0.23997746407985687,-0.0907076895236969,0.15861301124095917
1782987807069711400,8.37071142578125,-0.25367116928100586,0.06929583102464676,0.16489993035793304
1782987807079785500,8.380785400390625,-0.2540375292301178,0.06285380572080612,0.15632182359695435
1782987807089860400,8.3908603515625,-0.24314039945602417,-0.13804173469543457,0.08901017159223557
1782987807099934500,8.4009345703125,-0.23432044684886932,-0.407810777425766,-0.013295680284500122
1782987807110009600,8.411009521484376,-0.2318359911441803,-0.5837642550468445,-0.12650053203105927
1782987807120083500,8.42108349609375,-0.23678165674209595,-0.5978304147720337,-0.23101083934307098
1782987807130158600,8.43115869140625,-0.25053420662879944,-0.5267511606216431,-0.32774296402931213
1782987807140232400,8.441232421875,-0.26673606038093567,-0.46979784965515137,-0.38921618461608887
1782987807150307600,8.4513076171875,-0.28240612149238586,-0.43199828267097473,-0.4165056049823761
1782987807160381400,8.46138134765625,-0.28422072529792786,-0.36642956733703613,-0.39616265892982483
1782987807170456600,8.47145654296875,-0.2648811340332031,-0.21619026362895966,-0.2997378408908844
1782987807180530400,8.481530517578125,-0.22239500284194946,0.014700616709887981,-0.12309759110212326
1782987807190605600,8.49160546875,-0.18590116500854492,0.24078327417373657,0.09444884955883026
1782987807200679400,8.501679443359375,-0.15628691017627716,0.3134101629257202,0.2792555093765259
1782987807210754600,8.511754638671874,-0.10990235954523087,0.20583418011665344,0.3880464434623718
1782987807220828400,8.521828369140625,-0.046608954668045044,-0.0066766454838216305,0.42729470133781433
1782987807230903600,8.531903564453126,0.01678732968866825,-0.2145632654428482,0.3931380808353424
1782987807240977400,8.541977294921875,0.05216226726770401,-0.35602840781211853,0.30132949352264404
1782987807251052500,8.552052490234376,0.06491561233997345,-0.40186622738838196,0.18588359653949738
1782987807261126400,8.56212646484375,0.054444942623376846,-0.3530660569667816,0.07284896075725555
1782987807271201500,8.572201416015625,0.020389767363667488,-0.2437262386083603,-0.004185902886092663
1782987807281275400,8.582275390625,-0.018676742911338806,-0.08781608194112778,-0.0411146841943264
1782987807291349800,8.592349853515625,-0.05115292966365814,0.07479120790958405,-0.02069915644824505
1782987807301424400,8.60242431640625,-0.06483288109302521,0.19514665007591248,0.04869223013520241
1782987807311499500,8.61249951171875,-0.05863223969936371,0.2645004391670227,0.12471430003643036
1782987807321573400,8.622573486328125,-0.03390107303857803,0.27485138177871704,0.18803539872169495
1782987807331647700,8.632647705078124,0.004255099222064018,0.20552505552768707,0.20552411675453186
1782987807341722400,8.642722412109375,0.041587743908166885,0.10215016454458237,0.17536048591136932
1782987807351796700,8.652796630859376,0.07190676778554916,0.00585371907800436,0.11523350328207016
1782987807361871400,8.662871337890625,0.08439645916223526,-0.077785924077034,0.030059674754738808
1782987807371945700,8.67294580078125,0.07766371965408325,-0.12474144995212555,-0.06871217489242554
1782987807382020400,8.683020263671875,0.07749006897211075,-0.12655626237392426,-0.15357361733913422
1782987807392094700,8.6930947265625,0.09722968935966492,-0.08245591074228287,-0.2020876258611679
1782987807402169300,8.70316943359375,0.13997822999954224,-0.03362497687339783,-0.21960227191448212
1782987807412243700,8.71324365234375,0.20022718608379364,0.028592055663466454,-0.1957842856645584
1782987807422318300,8.723318359375,0.27299973368644714,0.07390544563531876,-0.1425172984600067
1782987807432392700,8.733392822265625,0.33367133140563965,0.10838938504457474,-0.06629417091608047
1782987807442467300,8.74346728515625,0.37435343861579895,0.16400760412216187,0.03047655150294304
1782987807452541700,8.753541748046874,0.40068596601486206,0.2210724800825119,0.11966129392385483
1782987807462616300,8.7636162109375,0.4105769395828247,0.2588788568973541,0.1791531890630722
1782987807472690700,8.773690673828124,0.42236143350601196,0.28680500388145447,0.21308425068855286
1782987807482765300,8.783765380859375,0.4352453649044037,0.32420989871025085,0.22086818516254425
1782987807492839700,8.793839599609376,0.4543799161911011,0.3494721055030823,0.20576006174087524
1782987807502914600,8.80391455078125,0.4735460579395294,0.3639880120754242,0.17144450545310974
1782987807512988700,8.81398876953125,0.5023170113563538,0.38100454211235046,0.142662912607193
1782987807523063600,8.8240634765625,0.538486659526825,0.38745763897895813,0.11703688651323318
1782987807533137700,8.8341376953125,0.5721721649169922,0.3733428716659546,0.09960383176803589
1782987807543212500,8.844212646484374,0.6062761545181274,0.386017769575119,0.09888000786304474
1782987807553286700,8.85428662109375,0.6446818709373474,0.441646933555603,0.12301144003868103
1782987807563361500,8.864361572265626,0.6829620599746704,0.5191437005996704,0.1498483568429947
1782987807573435600,8.874435546875,0.7216759324073792,0.5819213390350342,0.15798085927963257
1782987807583510500,8.884510498046875,0.7656022906303406,0.5954325199127197,0.1411256641149521
1782987807593584600,8.894584716796874,0.8172878623008728,0.5514586567878723,0.11010383814573288
1782987807603659500,8.904659423828125,0.8645976781845093,0.47186505794525146,0.06970248371362686
1782987807613733600,8.914733642578126,0.8971081972122192,0.36819007992744446,0.003665938274934888
1782987807623808500,8.92480859375,0.9146941900253296,0.27968478202819824,-0.07306893169879913
1782987807633882600,8.934882568359376,0.9113590717315674,0.24485252797603607,-0.17318648099899292
1782987807643957500,8.94495751953125,0.8937169909477234,0.27201467752456665,-0.2964004874229431
1782987807654031600,8.955031494140625,0.8796871900558472,0.44033923745155334,-0.4150536358356476
1782987807664105700,8.965105712890624,0.8890577554702759,0.6564390063285828,-0.5123924612998962
1782987807674180600,8.9751806640625,0.9102687239646912,0.6384549140930176,-0.6065298914909363
1782987807684254700,8.985254638671876,0.937278687953949,0.4563755989074707,-0.6770392656326294
1782987807694329600,8.99532958984375,0.9671651721000671,0.3181958794593811,-0.6870921850204468
1782987807704403700,9.00540380859375,1.003252387046814,0.3695441484451294,-0.6185667514801025
1782987807714478600,9.015478515625,1.046436071395874,0.59132981300354,-0.4800048768520355
1782987807724552700,9.025552734375,1.107077717781067,0.808738648891449,-0.3065279722213745
1782987807734627600,9.035627685546874,1.174913763999939,0.9353293180465698,-0.1377735733985901
1782987807744701700,9.04570166015625,1.249111294746399,1.0412993431091309,0.018739918246865273
1782987807754776600,9.055776611328126,1.3245935440063477,1.1254634857177734,0.14220672845840454
1782987807764850700,9.0658505859375,1.3869311809539795,1.1176843643188477,0.2120734304189682
1782987807774925600,9.075925537109375,1.4332475662231445,0.9988589286804199,0.2207968682050705
1782987807784999700,9.085999755859374,1.4523541927337646,0.7808631658554077,0.17770327627658844
1782987807795074600,9.096074462890625,1.4277929067611694,0.5456461310386658,0.08490010350942612
1782987807805148700,9.106148681640626,1.3896244764328003,0.33618128299713135,-0.03786123916506767
1782987807815223600,9.1162236328125,1.35007905960083,0.2112829089164734,-0.16138345003128052
1782987807825297700,9.126297607421876,1.3087036609649658,0.20094120502471924,-0.24088725447654724
1782987807835372500,9.13637255859375,1.255263328552246,0.27545008063316345,-0.2727900743484497
1782987807845446700,9.14644677734375,1.2044763565063477,0.36442914605140686,-0.2632310092449188
1782987807855521500,9.156521484375,1.1638938188552856,0.4203723073005676,-0.2309015691280365
1782987807865595600,9.166595703125,1.136305570602417,0.4492739140987396,-0.1862536519765854
1782987807875670500,9.17667041015625,1.1073148250579834,0.4667189419269562,-0.1283131241798401
1782987807885744600,9.18674462890625,1.0747164487838745,0.4635065197944641,-0.0641508400440216
1782987807895819800,9.19681982421875,1.0190389156341553,0.4887527525424957,0.00838168989866972
1782987807905893600,9.2068935546875,0.9632228016853333,0.5531675815582275,0.09571947157382965
1782987807915968800,9.21696875,0.9120592474937439,0.6315233707427979,0.16507723927497864
1782987807926042600,9.227042724609374,0.8833705186843872,0.6949166655540466,0.18929824233055115
1782987807936117800,9.23711767578125,0.873155951499939,0.741733729839325,0.16571541130542755
1782987807946191600,9.247191650390626,0.8698763847351074,0.7874929904937744,0.10677655786275864
1782987807956266800,9.257266845703125,0.8657823204994202,0.8135471940040588,0.033182766288518906
1782987807966340600,9.267340576171875,0.8639532327651978,0.790327250957489,-0.0469832606613636
1782987807976415700,9.277415771484375,0.8700268268585205,0.6978428363800049,-0.11702439188957214
1782987807986489600,9.287489501953125,0.8962690234184265,0.5673699378967285,-0.16947956383228302
1782987807996564700,9.297564697265624,0.9371330738067627,0.4384111762046814,-0.19097846746444702
1782987808006638600,9.307638671875,0.9751582741737366,0.3213093876838684,-0.19271422922611237
1782987808016712700,9.317712646484376,1.0059529542922974,0.2231023609638214,-0.17568358778953552
1782987808026787600,9.32778759765625,1.0247095823287964,0.17231586575508118,-0.15205571055412292
1782987808036861400,9.337861328125,1.0284790992736816,0.16387976706027985,-0.14639437198638916
1782987808046936300,9.347936279296874,1.0218223333358765,0.14613419771194458,-0.1655607968568802
1782987808057010400,9.358010498046875,1.000116229057312,0.12913763523101807,-0.2013065367937088
1782987808067085300,9.368085205078126,0.9718948602676392,0.13052885234355927,-0.23690970242023468
1782987808077159400,9.378159423828125,0.9374974966049194,0.14122144877910614,-0.2554362416267395
1782987808087234600,9.388234619140626,0.8969523906707764,0.19152958691120148,-0.24574805796146393
1782987808097308400,9.398308349609374,0.8589187264442444,0.25882023572921753,-0.19372107088565826
1782987808107383600,9.408383544921875,0.8372964262962341,0.321648508310318,-0.1119576096534729
1782987808117457400,9.41845751953125,0.8383433222770691,0.3670167922973633,-0.017112059518694878
1782987808127532500,9.428532470703125,0.8531118035316467,0.37172573804855347,0.07264543324708939
1782987808137606400,9.4386064453125,0.8701469898223877,0.33447265625,0.14129239320755005
1782987808147681500,9.448681640625,0.8806979656219482,0.26663610339164734,0.18277156352996826
1782987808157755400,9.45875537109375,0.886470377445221,0.1642572581768036,0.2018429934978485
1782987808167830500,9.46883056640625,0.8732247352600098,0.07756472378969193,0.20298607647418976
1782987808177904400,9.478904296875,0.8441965579986572,0.02860969491302967,0.19729650020599365
1782987808187979500,9.4889794921875,0.7970014214515686,0.012872462160885334,0.18006382882595062
1782987808198053400,9.499053466796875,0.7444617748260498,0.04465143010020256,0.1716543734073639
1782987808208128500,9.50912841796875,0.709190309047699,0.1751776933670044,0.15402698516845703
1782987808218202400,9.519202392578125,0.6892040371894836,0.30491703748703003,0.11003662645816803
1782987808228277500,9.529277587890626,0.6973766088485718,0.31097283959388733,0.01634877547621727
1782987808238351400,9.539351318359374,0.7133515477180481,0.20994077622890472,-0.10460161417722702
1782987808248426500,9.549426513671875,0.7259881496429443,0.10840213298797607,-0.21976161003112793
1782987808258500400,9.559500244140626,0.7099671363830566,0.11770989000797272,-0.2744930386543274
1782987808268575500,9.569575439453125,0.675886869430542,0.23996394872665405,-0.2566312849521637
1782987808278649300,9.5796494140625,0.6546314358711243,0.4665965437889099,-0.16536343097686768
1782987808288724500,9.589724365234375,0.6451985239982605,0.7161960601806641,-0.04563827067613602
1782987808298798300,9.59979833984375,0.6591860055923462,0.8440679907798767,0.03858073428273201
1782987808308873500,9.60987353515625,0.7013617753982544,0.7596547603607178,0.06372784823179245
1782987808318947300,9.619947265625,0.7640618681907654,0.5155326724052429,0.026017751544713974
1782987808329022500,9.6300224609375,0.8250364661216736,0.14861932396888733,-0.05015144869685173
1782987808339096300,9.640096435546875,0.873049795627594,-0.2285521924495697,-0.16921366751194
1782987808349171500,9.65017138671875,0.9047215580940247,-0.48520007729530334,-0.31984493136405945
1782987808359245300,9.660245361328125,0.8901122212409973,-0.4913410544395447,-0.448434054851532
1782987808369319400,9.6703193359375,0.857868492603302,-0.22118142247200012,-0.5111444592475891
1782987808379394300,9.680394287109374,0.8263707160949707,0.1889597624540329,-0.48546040058135986
1782987808389468400,9.690468505859375,0.7991655468940735,0.6274919509887695,-0.3702295422554016
1782987808399543300,9.700543212890626,0.7861253619194031,0.9256517887115479,-0.212132066488266
1782987808409617400,9.710617431640625,0.8116905093193054,0.9911531209945679,-0.08796113729476929
1782987808419692300,9.7206923828125,0.8682336807250977,0.9482147097587585,-0.0014784405939280987
1782987808429767400,9.730767333984375,0.9255020022392273,0.9043421745300293,0.06550241261720657
1782987808439841300,9.74084130859375,0.9570604562759399,0.8986318111419678,0.11342199891805649
1782987808449916400,9.75091650390625,0.9581766724586487,0.9037363529205322,0.13748182356357574
1782987808459990500,9.760990478515625,0.9422909617424011,0.8810757994651794,0.11452590674161911
1782987808470065400,9.7710654296875,0.9134469032287598,0.8229724168777466,0.0467098243534565
1782987808480139500,9.781139404296875,0.8854339122772217,0.7467074394226074,-0.046325311064720154
1782987808490214400,9.79121435546875,0.8614419102668762,0.6573820114135742,-0.15913839638233185
1782987808500288500,9.80128857421875,0.8478608131408691,0.5399421453475952,-0.27343860268592834
1782987808510363400,9.81136328125,0.8457745313644409,0.43442943692207336,-0.3646644949913025
1782987808520437500,9.8214375,0.8495301008224487,0.3819233477115631,-0.42495498061180115
1782987808530512400,9.831512451171875,0.8544967770576477,0.3488330543041229,-0.4480021595954895
1782987808540586500,9.84158642578125,0.8728742003440857,0.25983262062072754,-0.44289129972457886
1782987808550661400,9.851661376953125,0.9045450687408447,0.15034686028957367,-0.4135302007198334
1782987808560735500,9.861735595703125,0.9420612454414368,0.13070310652256012,-0.34375378489494324
1782987808570810400,9.871810302734374,0.953204333782196,0.20635393261909485,-0.26757121086120605
1782987808580884500,9.881884521484375,0.9418880343437195,0.30558890104293823,-0.20755288004875183
1782987808590959400,9.89195947265625,0.9316990375518799,0.35977622866630554,-0.1874643862247467
1782987808601033500,9.902033447265625,0.9312396049499512,0.36145374178886414,-0.19091717898845673
1782987808611108400,9.9121083984375,0.9431852698326111,0.3171118199825287,-0.20718559622764587
1782987808621182500,9.922182373046875,0.9662253856658936,0.25677499175071716,-0.23571203649044037
1782987808631257300,9.93225732421875,1.0059776306152344,0.2512691020965576,-0.23143036663532257
1782987808641331500,9.94233154296875,1.0513092279434204,0.3248274624347687,-0.184999480843544
1782987808651406300,9.95240625,1.0922033786773682,0.4203172028064728,-0.1176462396979332
1782987808661480400,9.96248046875,1.1191763877868652,0.5182315111160278,-0.04830578714609146
1782987808671555300,9.972555419921875,1.1219520568847656,0.6189777851104736,-0.0036651738919317722
1782987808681629400,9.98262939453125,1.1172646284103394,0.654003918170929,0.020119784399867058
1782987808691704300,9.992704345703125,1.1097612380981445,0.6311296224594116,0.03477737307548523
1782987808701778400,10.0027783203125,1.1098394393920898,0.6042357087135315,0.0791323184967041
1782987808711853600,10.012853515625,1.1048436164855957,0.5981339812278748,0.14675495028495789
1782987808721927400,10.022927490234375,1.0834485292434692,0.6156376004219055,0.21540671586990356
1782987808732002600,10.03300244140625,1.0545532703399658,0.6547582149505615,0.2567175030708313
1782987808742076400,10.043076416015625,1.0215181112289429,0.6870216131210327,0.26491525769233704
1782987808752150300,10.053150390625,0.9906965494155884,0.6964185833930969,0.2341260015964508
1782987808762225400,10.063225341796874,0.9705110788345337,0.6900712251663208,0.19252263009548187
1782987808772300500,10.073300537109375,0.9620551466941833,0.6774182915687561,0.15670961141586304
1782987808782374400,10.08337451171875,0.9598276615142822,0.6745612621307373,0.12461664527654648
1782987808792448300,10.0934482421875,0.9530131220817566,0.6946328282356262,0.10113518685102463
1782987808802523400,10.1035234375,0.9502567052841187,0.7234761714935303,0.09597610682249069
1782987808812597200,10.11359716796875,0.9354044198989868,0.7283695340156555,0.09073106944561005
1782987808822672400,10.12367236328125,0.9131702780723572,0.7436869740486145,0.08230855315923691
1782987808832746200,10.133746337890624,0.9056143760681152,0.8601710796356201,0.08328738063573837
1782987808842821400,10.1438212890625,0.9171485304832458,0.8805442452430725,0.07553385943174362
1782987808852895500,10.1538955078125,0.9191245436668396,0.7497097849845886,0.02724672481417656
1782987808862970400,10.163970458984375,0.8760835528373718,0.5073903799057007,-0.08639196306467056
1782987808873044500,10.17404443359375,0.7913206219673157,0.2126626968383789,-0.24548162519931793
1782987808883119400,10.184119384765625,0.7102769017219543,0.025606244802474976,-0.3859463334083557
1782987808893193500,10.194193359375,0.6403850317001343,0.03314421325922012,-0.46991246938705444
1782987808903268400,10.204268310546874,0.6109110116958618,0.2257554680109024,-0.477304071187973
1782987808913342500,10.214342529296875,0.6211346983909607,0.5728896260261536,-0.3874911367893219
1782987808923417300,10.224417236328126,0.6524540185928345,0.9969793558120728,-0.2334807962179184
1782987808933491500,10.234491455078125,0.7056556344032288,1.372794270515442,-0.05100645497441292
1782987808943566300,10.24456640625,0.7756573557853699,1.6301980018615723,0.13146056234836578
1782987808953640400,10.254640380859374,0.8398964405059814,1.728926420211792,0.27879026532173157
1782987808963715300,10.26471533203125,0.8818886280059814,1.62117600440979,0.3812181055545807
1782987808973789400,10.27478955078125,0.8963735699653625,1.3586548566818237,0.43438997864723206
1782987808983864300,10.2848642578125,0.8952302932739258,1.0408520698547363,0.4349460303783417
1782987808993938400,10.2949384765625,0.9006704092025757,0.7389345169067383,0.374054491519928
1782987809004013300,10.305013427734375,0.9218472838401794,0.4878125786781311,0.2535954415798187
1782987809014087400,10.31508740234375,0.9666311740875244,0.3022114634513855,0.11417828500270844
1782987809024162300,10.325162353515625,1.0219956636428833,0.1746380776166916,-0.028511494398117065
1782987809034237200,10.3352373046875,1.0850868225097656,0.11200015246868134,-0.13107340037822723
1782987809044312300,10.345312255859374,1.1523303985595703,0.13150008022785187,-0.18792204558849335
1782987809054386400,10.355386474609375,1.21102774143219,0.21779021620750427,-0.18769913911819458
1782987809064461300,10.36546142578125,1.2435270547866821,0.36028853058815,-0.12050598859786987
1782987809074535400,10.375535400390625,1.240745186805725,0.5795726776123047,-0.019060615450143814
1782987809084610300,10.3856103515625,1.1927655935287476,0.8223307132720947,0.09925404191017151
1782987809094684400,10.395684326171875,1.1219900846481323,0.9522165656089783,0.22040307521820068
1782987809104759300,10.40575927734375,1.0544248819351196,0.8728806972503662,0.3280206024646759
1782987809114833400,10.41583349609375,1.0245400667190552,0.6670439839363098,0.4345109164714813
1782987809124907300,10.4259072265625,1.020995855331421,0.4784375727176666,0.5173901319503784
1782987809134982400,10.435982421875,1.032256007194519,0.3873586356639862,0.5685139298439026
1782987809145056300,10.44605615234375,1.0508767366409302,0.4090186655521393,0.5630624294281006
1782987809155131400,10.45613134765625,1.0819613933563232,0.5019510984420776,0.4951086640357971
1782987809165205200,10.466205322265624,1.120452642440796,0.6134997606277466,0.3872554302215576
1782987809175280400,10.4762802734375,1.1733709573745728,0.7306784391403198,0.26759669184684753
1782987809185354200,10.486354248046876,1.2327855825424194,0.841025710105896,0.13190382719039917
1782987809195429400,10.496429443359375,1.2819443941116333,0.9279299974441528,0.01888212002813816
1782987809205503200,10.506503173828126,1.2914854288101196,0.982459545135498,-0.049745142459869385
1782987809215578400,10.516578369140625,1.2799566984176636,0.9816182255744934,-0.08723016083240509
1782987809225652200,10.52665234375,1.2448623180389404,0.9112524390220642,-0.08893617987632751
1782987809235727400,10.536727294921874,1.1907010078430176,0.7932295203208923,-0.0698893740773201
1782987809245801200,10.54680126953125,1.1190869808197021,0.6723127365112305,-0.01953752152621746
1782987809255876400,10.55687646484375,1.0476778745651245,0.6014425158500671,0.06326372176408768
1782987809265950200,10.5669501953125,0.9703388810157776,0.5729075074195862,0.15492412447929382
1782987809276025300,10.577025390625,0.8799868822097778,0.5499441623687744,0.2261965423822403
1782987809286099200,10.58709912109375,0.8021709322929382,0.5457056760787964,0.2716370224952698
1782987809296174300,10.59717431640625,0.7468213438987732,0.5703239440917969,0.2987631857395172
1782987809306248200,10.607248291015624,0.6953560709953308,0.588092565536499,0.28986847400665283
1782987809316323300,10.6173232421875,0.6579256057739258,0.5907843708992004,0.2789604961872101
1782987809326397200,10.627397216796876,0.6412515044212341,0.5796992182731628,0.2755729556083679
1782987809336472300,10.637472412109375,0.6370623707771301,0.5597795844078064,0.28985175490379333
1782987809346546200,10.647546142578125,0.6370692849159241,0.5098045468330383,0.31196051836013794
1782987809356621300,10.657621337890625,0.649627149105072,0.4701926112174988,0.3593743145465851
1782987809366695200,10.667695068359375,0.6238349676132202,0.42115822434425354,0.5561031103134155
1782987809376770300,10.677770263671874,0.5224971175193787,0.24424657225608826,0.6918566226959229
1782987809386844200,10.68784423828125,0.4989995062351227,0.00006986642256379128,0.6771474480628967
1782987809396919300,10.697919189453126,0.5282612442970276,-0.08277689665555954,0.5273821949958801
1782987809406993200,10.7079931640625,0.4709974229335785,0.1658228039741516,0.31817278265953064
1782987809417068300,10.718068359375,0.2879927158355713,0.48288092017173767,0.09306696057319641
1782987809427142100,10.72814208984375,0.06851362437009811,0.6894764304161072,-0.11518344283103943
1782987809437217300,10.73821728515625,-0.11190105229616165,0.7425010204315186,-0.2677883505821228
1782987809447291400,10.74829150390625,-0.2902449667453766,0.6704785227775574,-0.35338741540908813
