time,seconds_elapsed,z,y,x
1782987858443635500,0.064635498046875,-0.2692529942214489,-1.2780351922288535,-0.7714403726357966
1782987858453710300,0.07471044921875,-0.11050269420146941,-1.313857616238296,-0.6970252561859787
1782987858463784400,0.084784423828125,0.16265081458985806,-1.4591951847165823,-0.5865435317073017
1782987858473859300,0.094859375,0.4571750281900167,-1.7081600086688995,-0.42860352515690026
1782987858483933400,0.104933349609375,0.6976689609169959,-1.9640815198913215,-0.25122809270918367
1782987858494008600,0.115008544921875,0.9350421312749385,-2.122409795106947,-0.10191606764197349
1782987858504082400,0.12508251953125,0.9925725292235612,-2.219678036943078,0.03618964988663793
1782987858514156300,0.13515625,0.9814970084577799,-2.229368533091247,0.2573648418985307
1782987858524231400,0.1452314453125,0.926074396443367,-2.184091759777069,0.47924511343985793
1782987858534305300,0.15530517578125,0.7633633760988712,-2.1082783939018843,0.616782675691694
1782987858544380400,0.16538037109375,0.6627841100186109,-1.9741300356969236,0.6372156612589955
1782987858554454300,0.175454345703125,0.5995423486858606,-1.830846184878051,0.5621316325716674
1782987858564529400,0.185529296875,0.5027174667030573,-1.7396274523392319,0.5337643468737602
1782987858574603300,0.195603271484375,0.39396190842986106,-1.6505942471459507,0.4721193532131612
1782987858584678400,0.205678466796875,0.25848084031641483,-1.5472463931351899,0.3072762892760336
1782987858594752300,0.215752197265625,0.11050970846414565,-1.397288179118931,0.08622954594939947
1782987858604827400,0.225827392578125,0.033139468535780904,-1.2579378683567046,-0.13494593832343815
1782987858614901500,0.235901611328125,0.10397007756233215,-1.1846133966878056,-0.3756996910303831
1782987858624976400,0.245976318359375,0.37379707227945325,-1.1698285000100732,-0.5352290125988424
1782987858635050500,0.256050537109375,0.7436497908473014,-1.1892223517879843,-0.5442207128278911
1782987858645124400,0.266124267578125,1.173142446863651,-1.222298691959679,-0.4855070964440703
1782987858655199500,0.276199462890625,1.5454495728462934,-1.2591019437000155,-0.4622656293272972
1782987858665273300,0.2862734375,1.805637217080593,-1.3519777957960963,-0.48648967774063345
1782987858675348500,0.296348388671875,1.8940970063000917,-1.4379410920247435,-0.49655529081150884
1782987858685422300,0.30642236328125,1.780095948588848,-1.5568895430102943,-0.56798751899302
1782987858695497500,0.31649755859375,1.6172610096037388,-1.6256936146453023,-0.6583687777943908
1782987858705571300,0.3265712890625,1.4061702814936636,-1.6413628929421304,-0.6594982202157378
1782987858715646500,0.336646484375,1.0559019688397646,-1.740195899876952,-0.6342910059839487
1782987858725720300,0.34672021484375,0.8462380586624145,-1.775015868845582,-0.6240675720028579
1782987858735795500,0.35679541015625,0.7220821021616458,-1.7943845861822365,-0.6156979491949081
1782987858745869300,0.366869384765625,0.6309966406136751,-1.8356129608884453,-0.5803013493821024
1782987858755943400,0.376943359375,0.4410194276809692,-1.8932535412132738,-0.4332442636348307
1782987858766018300,0.387018310546875,0.21720950325131416,-1.9230641575872898,-0.335423210221529
1782987858776092400,0.397092529296875,0.029720015481114387,-1.8712044987514613,-0.3630871699556708
1782987858786167300,0.407167236328125,-0.2550122874230146,-1.7732164182081818,-0.4111721325583756
1782987858796241400,0.417241455078125,-0.6580033054828643,-1.7042065948680043,-0.4480275528773665
1782987858806316300,0.42731640625,-1.0460989522278308,-1.6332961986035108,-0.5818977517280727
1782987858816390400,0.437390380859375,-1.3024620697379112,-1.5012190937146543,-0.7215017449904233
1782987858826465300,0.44746533203125,-1.4600345581501721,-1.4661360898956655,-0.7616193819757551
1782987858836539400,0.457539306640625,-1.3634271183103321,-1.49150112503767,-0.6236760154020041
1782987858846614300,0.4676142578125,-1.0197785160571335,-1.506398834440112,-0.33493659574836493
1782987858856688400,0.4776884765625,-0.6602730039805174,-1.6364721982911228,0.188108204190433
1782987858866762500,0.487762451171875,-0.2591004335194826,-1.8288626098453997,0.7575127503745257
1782987858876837400,0.49783740234375,0.0433048887193203,-1.959934921605885,1.1132026496857403
1782987858886911500,0.507911376953125,0.1902420013487339,-1.9674989271193741,1.1926342060580848
1782987858896986400,0.517986328125,0.151498136934638,-1.9686381602823733,1.0336508279345928
1782987858907060500,0.528060546875,-0.1780506282955408,-1.9164269115298986,0.7307622522234917
1782987858917135400,0.53813525390625,-0.8115361631155014,-1.787553863379359,0.346566535526514
1782987858927209500,0.54820947265625,-1.560015858337283,-1.5536480768710375,0.030192016907036302
1782987858937284400,0.558284423828125,-2.0324393090635535,-1.255164019729197,-0.19260310445688664
1782987858947358500,0.5683583984375,-2.1894956646472212,-0.9116954502180218,-0.22134777209982276
1782987858957433300,0.578433349609375,-2.089220934471488,-0.5987941606670618,-0.017637363499402998
1782987858967507500,0.588507568359375,-1.8458306957811117,-0.31032793193161484,0.24750622264184055
1782987858977582300,0.598582275390625,-1.5975404100894928,-0.05877835218310356,0.3911223010897636
1782987858987656400,0.608656494140625,-1.3054963228672742,0.1664370551303029,0.4339859488476068
1782987858997730600,0.61873046875,-1.0684662668585776,0.3565598140135407,0.4510417861320078
1782987859007805400,0.628805419921875,-0.7413181330293417,0.4247895928919315,0.48708311358913775
1782987859017879600,0.638879638671875,-0.24601474197506903,0.4217208529710769,0.6110664900019764
1782987859027954400,0.648954345703125,0.32768238683640954,0.36919513144195076,0.7630920118115841
1782987859038028500,0.659028564453125,0.7968564803779125,0.2393546995639801,0.8600611245706677
1782987859048103400,0.669103515625,1.0831178925454616,0.16833061379194258,0.8636281694024801
1782987859058177500,0.679177490234375,1.09209147259593,0.2717576705187559,0.749031191624701
1782987859068252400,0.68925244140625,0.931671193537116,0.45618163323849437,0.5151709978237747
1782987859078326800,0.699326904296875,0.7451321383595466,0.58990124463737,0.21236279387250542
1782987859088402000,0.70940185546875,0.5473351915866136,0.6332420814529061,-0.16130363776460288
1782987859098475800,0.719475830078125,0.28042963727414605,0.6210346340477466,-0.5530620448008179
1782987859108551000,0.729551025390625,0.011188918012380599,0.6414364938244224,-0.8350953178793191
1782987859118624800,0.739624755859375,-0.35697511681616306,0.6562623070344329,-1.1407108343362808
1782987859128698600,0.74969873046875,-0.60627604085505,0.769758922354877,-1.3472931451112031
1782987859138773800,0.759773681640625,-0.6668593966335058,0.9023457303315401,-1.3633125520199536
1782987859148847600,0.76984765625,-0.5035737912714481,1.0614388524398206,-1.189653728942573
1782987859158922800,0.7799228515625,-0.13905015877187252,1.182027764108777,-0.8512804367437958
1782987859168996600,0.78999658203125,0.24561317543685435,1.227000586040318,-0.5063929403454065
1782987859179071700,0.80007177734375,0.5795972927659749,1.2170324419945477,-0.3285354965344071
1782987859189145600,0.8101455078125,0.8424234688103198,1.1562225839838385,-0.2995106237106025
1782987859199220700,0.820220703125,1.086692243900895,1.134680906522274,-0.3416584513492882
1782987859209294800,0.830294921875,1.3513473889380692,1.0754726384893059,-0.3767372173845768
1782987859219369700,0.84036962890625,1.6816320672273635,0.93040482686311,-0.3766381409242749
1782987859229443800,0.85044384765625,1.8898136298924684,0.718793874271214,-0.4112069116108119
1782987859239517700,0.860517578125,2.0223761802107094,0.5435021892949938,-0.5499265232540667
1782987859249592800,0.8705927734375,2.0014456203848123,0.36516660657823086,-0.7269508772417903
1782987859259666700,0.880666748046875,1.8407628909975289,0.21902970441579817,-0.8574348677203059
1782987859269741800,0.890741943359375,1.6353391026079653,0.07169044072628021,-1.0183448299922049
1782987859279815700,0.900815673828125,1.4090011210054159,-0.0534913516908884,-1.2237635038152337
1782987859289890800,0.910890869140625,1.2380565253227949,-0.1634896035015583,-1.3529893109261988
1782987859299964700,0.920964599609375,1.0984434719711542,-0.25274843414425846,-1.4015141262508928
1782987859310039800,0.931039794921875,0.9800403799086809,-0.3265603970691561,-1.4087636589877306
1782987859320113700,0.94111376953125,0.9730448219329119,-0.33119010269641874,-1.3708761191420256
1782987859330188800,0.951188720703125,1.0754454582214354,-0.3377373323827982,-1.344490070389211
1782987859340262700,0.9612626953125,1.165604452574253,-0.39842005688250065,-1.3399261234745383
1782987859350337800,0.971337890625,1.1845271797090768,-0.5164414561510086,-1.3141842178441583
1782987859360411600,0.98141162109375,1.2147750184565782,-0.6077957977682352,-1.2700054688997566
1782987859370485800,0.99148583984375,1.2655144410908221,-0.6701064157307147,-1.2719114486515521
1782987859380560600,1.001560546875,1.2281973946094513,-0.7403086637258529,-1.2711864953778684
1782987859390634800,1.011634765625,1.2179255914419889,-0.785928551389277,-1.2406601319499313
1782987859400709600,1.021709716796875,1.1382780542314053,-0.829920253328979,-1.1737750456787646
1782987859410783700,1.03178369140625,1.0148919130593537,-0.8469944299876689,-1.1250551461733878
1782987859420858600,1.041858642578125,0.9516717790365219,-0.8037754659861326,-1.0291887339591979
1782987859430932700,1.0519326171875,0.9006038551002741,-0.7878641956269741,-0.8990417203500867
1782987859441007600,1.062007568359375,0.7647486929774284,-0.8853212380334734,-0.8291181431658565
1782987859451081700,1.072081787109375,0.5450199003815651,-0.9384460944995283,-0.681060940465331
1782987859461156600,1.082156494140625,0.21562194179892538,-0.7856006346091627,-0.5147805372014641
1782987859471230700,1.092230712890625,-0.03168050189912319,-0.6905465616911649,-0.3219409205749631
1782987859481304600,1.1023046875,-0.11851824287474155,-0.7239379591614008,0.03316270328089595
1782987859491379700,1.112379638671875,-0.10191723668575287,-0.8343313477694988,0.2602580791220069
1782987859501453600,1.12245361328125,0.028499533775448796,-1.001677918960154,0.3361699369356036
1782987859511528700,1.13252880859375,0.07508183673024177,-1.1953244680553674,0.2869701449587941
1782987859521602600,1.1426025390625,-0.04926818103790283,-1.4552859023183584,0.13641995639875532
1782987859531677700,1.152677734375,-0.3265437381953001,-1.7834952356383202,-0.03910539120286703
1782987859541751600,1.16275146484375,-0.5737929904013872,-2.0962989100337026,-0.1388644269414246
1782987859551826700,1.17282666015625,-0.6634568947136402,-2.2318463213816284,-0.20957389380633829
1782987859561900500,1.182900634765625,-0.7473398775368928,-2.2207190704286095,-0.16717267592847346
1782987859571975700,1.1929755859375,-1.0462971051484347,-2.060732214350998,-0.0496703320980072
1782987859582049500,1.203049560546875,-1.7667203341871498,-1.7677303880125284,0.009181962104141711
1782987859592124700,1.213124755859375,-2.7926328229546544,-1.3158350537911057,-0.10763386076688766
1782987859602198500,1.223198486328125,-3.55138139873445,-0.7686331331953405,-0.15913652285858987
1782987859612272600,1.233272705078125,-3.759710260915756,-0.2833414330676198,-0.012435703203082083
1782987859622347500,1.243347412109375,-3.244804928290844,-0.09644435823261738,0.34057679359242315
1782987859632421600,1.253421630859375,-2.1886790875673294,-0.1403834532022476,0.8496765086784959
1782987859642496500,1.26349658203125,-1.077887590676546,-0.37154637074321506,1.3356855632953344
1782987859652570600,1.273570556640625,-0.2141658977717161,-0.5969818505480885,1.5670856505930424
1782987859662645500,1.2836455078125,0.3145867584198713,-0.6580781242847442,1.507413564440608
1782987859672719600,1.2937197265625,0.5582692580550909,-0.6115834996134042,1.2198358089774846
1782987859682794500,1.30379443359375,0.5216892936766148,-0.46721039225310085,0.8481196346253156
1782987859692868600,1.31386865234375,0.34466216320991516,-0.236456640034914,0.6193468270912766
1782987859702943500,1.323943603515625,0.13783610680699349,-0.06657528966963291,0.5710949834890663
1782987859713017600,1.334017578125,0.006178396373987197,0.1169207445502281,0.620104221329838
1782987859723091700,1.344091796875,-0.006826046627759933,0.2958800121232867,0.6589098989337683
1782987859733166600,1.35416650390625,-0.0551864651709795,0.3810530347570777,0.7513897374495864
1782987859743240700,1.36424072265625,-0.09780980136692523,0.4478229702159762,0.8250276589818298
1782987859753315600,1.374315673828125,-0.1540039822757244,0.4823752281591296,0.8587040108732878
1782987859763389700,1.3843896484375,-0.1774275279611349,0.5323161938920616,0.84350483430624
1782987859773464600,1.394464599609375,-0.21416765133738516,0.5658981454983353,0.795188254904747
1782987859783538700,1.40453857421875,-0.29497429545521736,0.5964417523220181,0.8168069431252777
1782987859793613600,1.414613525390625,-0.43446167660057544,0.6834001970678567,0.7804983430340886
1782987859803687700,1.424687744140625,-0.4658417342483997,0.8514663147047161,0.6081425653792918
1782987859813762600,1.434762451171875,-0.388952555835247,1.003188323523104,0.3381745547562837
1782987859823836700,1.444836669921875,-0.15133622437119484,1.0797554303750394,0.1333705057002604
1782987859833910800,1.454910888671875,0.18218728970885276,1.0634238887771963,0.018824819718301296
1782987859843986000,1.46498583984375,0.4067155915409326,0.9749547472074628,-0.08423267304375767
1782987859854059800,1.475059814453125,0.5630827958166599,0.8900409600317478,-0.22496201707422733
1782987859864135000,1.485135009765625,0.7871803050160407,0.8430459846228361,-0.3037802638538182
1782987859874208800,1.495208740234375,1.0535317325770854,0.7424746095880865,-0.3222951408401131
1782987859884284000,1.505283935546875,1.2909317909419535,0.6362927011951803,-0.2852764927834272
1782987859894357800,1.515357666015625,1.5293787280112503,0.5853755839064717,-0.2240019398704171
1782987859904433000,1.525432861328125,1.7215788776904344,0.5703931188300252,-0.1610695367477834
1782987859914506800,1.5355068359375,1.7655179726600645,0.5460445672541856,-0.08351765664219855
1782987859924582000,1.545581787109375,1.6601152319461105,0.5612289846435189,-0.052922758022695776
1782987859934655700,1.55565576171875,1.5758657538980245,0.5921829258337616,-0.01101151561886072
1782987859944731000,1.56573095703125,1.509589739435911,0.5965475507840514,0.0729305039152503
1782987859954804700,1.5758046875,1.4570108264148234,0.544328118725121,0.15015914341583847
1782987859964878800,1.58587890625,1.4103729938805103,0.5141700040876865,0.19792948711141942
1782987859974953700,1.59595361328125,1.2760872730314732,0.4683279981061816,0.27090938312634827
1782987859985027800,1.60602783203125,1.2014824061632157,0.4232017391785979,0.3034031011044979
1782987859995102700,1.616102783203125,1.1408967122972011,0.36388562685698267,0.3266580122247338
1782987860005176800,1.6261767578125,1.0272802699893713,0.3242532891705632,0.3185650144010782
1782987860015251700,1.636251708984375,0.8681535378724337,0.282458805014193,0.16752017419189213
1782987860025325800,1.646325927734375,0.48139819982051846,0.18693126936554907,-0.10776201719120145
1782987860035400700,1.656400634765625,0.13342179749608038,0.21318390099704265,-0.4400608117818832
1782987860045474800,1.666474853515625,-0.05485562578141689,0.26996231153458355,-0.7058933300353586
1782987860055549700,1.6765498046875,-0.11104513051509857,0.2538184014633298,-0.7837275342136621
1782987860065623800,1.686623779296875,-0.13249123864769935,0.10676146184653043,-0.6069647537715732
1782987860075698000,1.696697998046875,-0.07782733604609966,-0.059278410659730434,-0.33777620308846235
1782987860085773000,1.70677294921875,0.01957096191048622,-0.1600540760949254,-0.08026698428317904
1782987860095847000,1.716846923828125,0.01699906559586525,-0.2410018822491169,0.06886895356476307
1782987860105922000,1.726922119140625,-0.09380407285690306,-0.27472908754497766,0.052009296439588064
1782987860115996000,1.736995849609375,-0.21127660607099533,-0.289823780824244,-0.02717252295538783
1782987860126071000,1.747071044921875,-0.3323994784861803,-0.37674510843008757,-0.014191022437810896
1782987860136145000,1.757144775390625,-0.3511035944342613,-0.6463473544806242,0.17326383241042495
1782987860146220000,1.767219970703125,-0.1882254008293152,-0.9863391877919435,0.4024259315229952
1782987860156294000,1.7772939453125,-0.046319268104434014,-1.3709075371935964,0.4242801820650697
1782987860166369000,1.787369140625,-0.17532558724582195,-1.6807830491825937,0.07813625586479901
1782987860176443000,1.79744287109375,-0.7159469604074955,-1.760688652807474,-0.4907167939163744
1782987860186517000,1.80751708984375,-1.5778291629254817,-1.5133450003162026,-1.087761042176187
1782987860196591900,1.817591796875,-2.634871533972025,-1.0746683363690972,-1.6075861494161188
1782987860206666000,1.827666015625,-3.540855913066864,-0.5576958420813083,-1.9850480278134346
1782987860216740900,1.837740966796875,-4.057149485179782,0.05350917960852384,-2.130647608228773
1782987860226815000,1.84781494140625,-4.021793509638309,0.5537167093172669,-1.9108380054816603
1782987860236889900,1.857889892578125,-3.518022149968147,0.8296706624820828,-1.4047165755540132
1782987860246964000,1.8679638671875,-2.751208341154456,0.8640347043767571,-0.8534946056619286
1782987860257038800,1.878038818359375,-1.850979164585471,0.9043772361591458,-0.6202108965747058
1782987860267113000,1.888113037109375,-1.039054294413328,0.9977642526477575,-0.5292116520054638
1782987860277187800,1.898187744140625,-0.5151292045086622,1.009259167869389,-0.391162633100152
1782987860287262000,1.908261962890625,-0.22515140216648577,0.9440086970627307,-0.3207239460006356
1782987860297336800,1.9183369140625,-0.0357797539114952,0.875827433501184,-0.48981370759680865
1782987860307411000,1.928410888671875,0.1470452491790056,0.7731988336756825,-0.8466203359782696
1782987860317484800,1.93848486328125,0.37770635467767716,0.6133183605819941,-1.3139336040839553
1782987860327560000,1.948559814453125,0.6991057157218455,0.46032267856597897,-1.7585146697692573
1782987860337633800,1.9586337890625,1.0864210257440805,0.27515169687122104,-2.0672699455566703
1782987860347709000,1.968708984375,1.4352455693304538,0.09092413350641727,-2.243012735301256
1782987860357782800,1.97878271484375,1.6767179917007684,-0.06464665969461202,-2.3107371950060127
1782987860367858000,1.98885791015625,1.8628274232894182,-0.15397914009541272,-2.2747945056177676
1782987860377931800,1.998931884765625,2.0001678555339573,-0.1481482419848442,-2.118290669350326
1782987860388007000,2.0090068359375,2.0343629706025124,-0.1024582116946578,-1.8473206420779227
1782987860398080800,2.019080810546875,2.0544611712574956,-0.022158348055183887,-1.4985761779904365
1782987860408156000,2.029156005859375,2.097096197891235,0.04209229805916548,-1.1801334747947752
1782987860418229800,2.039229736328125,2.1326193466931582,0.04572860873490572,-0.903742737647891
1782987860428304000,2.049303955078125,2.0525819333821533,0.018806115017831325,-0.679411273562163
1782987860438378800,2.059378662109375,1.8907196388214826,-0.0166200031504035,-0.5532978993833064
1782987860448452900,2.069452880859375,1.697647967004776,-0.024425416204333306,-0.5244682568706571
1782987860458528000,2.079528076171875,1.5085042822867631,0.016515665993094442,-0.5580548846520483
1782987860468601900,2.089601806640625,1.1735989584594964,0.06663286507576703,-0.6003150866240262
1782987860478677000,2.099677001953125,0.8982213438779115,0.08943944790661335,-0.6525612605594098
1782987860488750800,2.109750732421875,0.7531926952183247,0.060193187417089934,-0.7014933415107428
1782987860498826000,2.119825927734375,0.6988947033196687,0.010323241093754768,-0.7064958259731531
1782987860508899800,2.12989990234375,0.6494295384049416,-0.07533961088359356,-0.6855981455035507
1782987860518974000,2.139973876953125,0.5424444969356059,-0.10623773023337126,-0.6972516122877598
1782987860529048800,2.150048828125,0.4460433933228254,-0.11921411618441342,-0.6829393015578389
1782987860539123000,2.160123046875,0.5028361246466636,-0.12719313223958015,-0.6162240188956261
1782987860549197800,2.17019775390625,0.6680705259889363,-0.18021774320155381,-0.5732587373942136
1782987860559272000,2.18027197265625,0.8293067976057529,-0.26412293785661456,-0.49362259836047884
1782987860569346800,2.190346923828125,0.9750941556781529,-0.36002661334127184,-0.43740591335892676
1782987860579421000,2.2004208984375,1.0626146182209253,-0.45705023276656864,-0.39866804029420017
1782987860589495800,2.210495849609375,0.9194184456855058,-0.5691787746042013,-0.42173020532131195
1782987860599570000,2.22056982421875,0.7046902378559112,-0.6363932389602065,-0.42400121899321674
1782987860609644800,2.230644775390625,0.5711299086719751,-0.7286760935992002,-0.3765381876811385
1782987860619719000,2.240718994140625,0.4925625679135322,-0.8632169582530855,-0.2815986810535192
1782987860629793800,2.250793701171875,0.4295224666327238,-1.0359244719550014,-0.09325301484540105
1782987860639868000,2.260867919921875,0.3656616966187954,-1.1486167851552367,0.19515110843926667
1782987860649942000,2.27094189453125,0.17528057906031608,-1.2636378335639833,0.49911038212180137
1782987860660017000,2.281016845703125,-0.15954115813672543,-1.3820315732762216,0.7617511185966431
1782987860670091000,2.291091064453125,-0.4451894068419933,-1.4624223300695418,0.8835894458048045
1782987860680166000,2.301165771484375,-0.7425158183813094,-1.5296587139964102,0.9393703697375952
1782987860690240000,2.311239990234375,-0.9530150103390216,-1.6000027085497974,0.9199658504351973
1782987860700315000,2.32131494140625,-1.0968038880705833,-1.6328671595364808,0.862790111143142
1782987860710389000,2.331388916015625,-1.108490818732977,-1.9415318344309924,0.8948127044782042
1782987860720464000,2.3414638671875,-0.8557587512016296,-2.349843462991714,1.0040404103077947
1782987860730538000,2.3515380859375,-0.7845821052163839,-2.5062296642288566,0.874624487452209
1782987860740612900,2.36161279296875,-1.0950620128393174,-2.435888300023973,0.6610011721245944
1782987860750687000,2.37168701171875,-1.8811463393121957,-2.1207573517248033,0.4625974916301667
1782987860760761000,2.381760986328125,-3.004560001888871,-1.6882608377173542,0.23962781741693615
1782987860770836000,2.3918359375,-3.882251183435321,-1.186710661228001,0.13211875207349658
1782987860780910000,2.40191015625,-4.232546384096145,-0.6014607495278119,0.18604849518164993
1782987860790985000,2.41198486328125,-3.9366912141531705,-0.21253566622138023,0.46027036385685205
1782987860801059000,2.42205908203125,-3.098140202862024,-0.03532733396887779,0.8328333642967045
1782987860811134000,2.432134033203125,-2.205502212074399,-0.07629618095606565,1.1829840419203042
1782987860821208000,2.4422080078125,-1.511589388820529,-0.22718612286448478,1.3390923029989004
1782987860831283000,2.452282958984375,-0.999913539636135,-0.2738856224581599,1.1098879721798003
1782987860841357000,2.462357177734375,-0.7002350120127201,-0.11873510049581527,0.5917853048183024
1782987860851432000,2.472431884765625,-0.44355800624787806,0.1092266829162836,0.06913914880827068
1782987860861506000,2.482506103515625,-0.16851532270908354,0.23318127162605523,-0.21245047215595841
1782987860871580000,2.492579833984375,0.1796633241891861,0.33236411491185425,-0.22032895044609904
1782987860881655000,2.502655029296875,0.6225526373952627,0.45003275521993635,-0.11130363532081246
1782987860891729000,2.51272900390625,0.982908628821373,0.5538648856163024,0.08567863406836985
1782987860901804000,2.522803955078125,1.190088320967555,0.599065963345766,0.2637653565905988
1782987860911878000,2.5328779296875,1.2622048781514168,0.6434931340932846,0.3540450547136366
1782987860921953000,2.542953125,1.1668500687211751,0.7152586858823895,0.3451560842067003
1782987860932027000,2.55302685546875,0.992729765611887,0.8113686975941061,0.19140081599503755
1782987860942102000,2.56310205078125,0.8242197035998106,0.8627697990074753,0.1301369306065142
1782987860952175900,2.57317578125,0.6764660138905048,0.9345780208945274,0.1177227085828781
1782987860962251000,2.5832509765625,0.5687643485844135,1.0689967204734683,0.1286800097964704
1782987860972324900,2.593324951171875,0.49286184312105175,1.2127382519319654,0.07462620191723107
1782987860982399000,2.60339892578125,0.43287411514818663,1.2951356723725795,0.018562807781249285
1782987860992473900,2.613473876953125,0.40843700850605963,1.327285545349121,-0.01652531060427427
1782987861002548000,2.6235478515625,0.4671358657121658,1.3192021921366452,-0.1231058629259467
1782987861012622800,2.633622802734375,0.5492015699803829,1.283838617810607,-0.2670953777961433
1782987861022697000,2.643697021484375,0.7247966218173504,1.2123527597457169,-0.3400019163139164
1782987861032771800,2.653771728515625,1.0461047974467277,1.0835784957945347,-0.2729937881849706
1782987861042846000,2.663845947265625,1.3830693918913601,0.9721376439601183,-0.12437588286176324
1782987861052920800,2.6739208984375,1.7279308770656585,0.9008528614252805,-0.003971826240420341
1782987861062995000,2.683994873046875,1.9926380445510148,0.8814490727752446,0.08077215732634067
1782987861073069800,2.69406982421875,2.142921544998884,0.8906623068004846,0.06861497880369424
1782987861083142700,2.704142578125,2.148080535197258,0.898492562034726,-0.02389525485038757
1782987861093217000,2.714217041015625,1.9738690466731785,0.8744780647188425,-0.08850392062216997
1782987861103291600,2.724291748046875,1.819119214466214,0.7924480162858962,-0.16671207267940044
1782987861113366000,2.734365966796875,1.788822275879979,0.748096833384037,-0.2312738305695355
1782987861123440600,2.744440673828125,1.8417156616777182,0.639986002755165,-0.22091084198728203
1782987861133515000,2.754514892578125,1.876902710393071,0.4663847550839185,-0.13662337001636624
1782987861143589600,2.764589599609375,1.8574018911093473,0.3163210348665714,-0.10375658094212412
1782987861153664000,2.7746640625,1.6993974410206079,0.158609430244565,-0.09614581367745995
1782987861163738600,2.784738525390625,1.3904343677014113,0.03023439474403858,-0.04789221650958061
1782987861173813000,2.79481298828125,0.9969903456658125,-0.0384551106005907,-0.02627265150621533
1782987861183887600,2.8048876953125,0.5366916324973106,-0.10217910249233245,-0.04418678612038493
1782987861193962000,2.8149619140625,0.013529343658685683,-0.2284796698063612,-0.02675897371843457
1782987861204035800,2.825035888671875,-0.4657990641504526,-0.3567506604105234,0.004541296691447496
1782987861214111000,2.835111083984375,-0.7984709298372268,-0.4547136065125465,-0.039669600956887006
1782987861224184800,2.845184814453125,-1.0287614484578371,-0.5350193153709173,-0.1663128442287445
1782987861234260000,2.855260009765625,-1.2181272514939308,-0.5845429324746132,-0.37846681765615936
1782987861244333800,2.865333740234375,-1.3023229535281657,-0.6657558193057775,-0.6321959334008396
1782987861254409000,2.875408935546875,-1.3342787652373314,-0.7331324884861707,-0.8282179794557392
1782987861264482800,2.88548291015625,-1.4722089800685643,-0.9319070481196046,-0.8033025877773762
1782987861274558000,2.895557861328125,-1.4350105915307998,-1.1935767476052046,-0.5979422200128436
1782987861284631800,2.9056318359375,-1.1906734273791313,-1.3158482055336236,-0.4989341487720608
1782987861294707000,2.91570703125,-1.018285647150874,-1.4202452763363718,-0.46601036881357427
1782987861304780800,2.92578076171875,-1.1921814938545225,-1.4047627527832984,-0.4898397188208997
1782987861314855000,2.93585498046875,-1.795624357110262,-1.1542314101666211,-0.68732935321033
1782987861324929800,2.9459296875,-2.60977742472589,-0.7347817169979214,-0.9760923729352653
1782987861335004000,2.95600390625,-3.3378035299837587,-0.20773557246327398,-1.2778595434010027
1782987861345078800,2.966078857421875,-3.767444654560089,0.36240211030095815,-1.4514878252096473
1782987861355153000,2.97615283203125,-3.695966395279765,0.7782818360283971,-1.3353715289101005
1782987861365227800,2.986227783203125,-3.0529402941763397,0.9646420275077223,-0.9435058621071278
1782987861375302000,2.996302001953125,-2.034771551403403,0.9703285487115383,-0.43269656662419437
1782987861385376800,3.006376708984375,-1.0118155743539332,0.9375114439979195,-0.057350803598016496
1782987861395451000,3.016450927734375,-0.26816929063796996,0.9222966314703226,0.01834317368119955
1782987861405526000,3.026526123046875,0.23160627739429474,0.948183936920762,-0.2245771094098687
1782987861415599900,3.036599853515625,0.45650224349498747,0.8638435657188296,-0.5619581757009029
1782987861425675000,3.046675048828125,0.45245559845268724,0.6666437080562114,-0.8969152297154068
1782987861435748900,3.056748779296875,0.40804713240563867,0.5305982840582728,-1.2679461982823907
1782987861445822700,3.06682275390625,0.32523733177185055,0.49376668300628657,-1.6247953506313264
1782987861455897900,3.07689794921875,0.2659276491910219,0.487801637122035,-1.9138043079413471
1782987861465971700,3.0869716796875,0.21775953834950923,0.4886506551668048,-2.056928730414808
1782987861476046800,3.097046875,0.23275895456075668,0.48972939031422136,-2.054858792272955
1782987861486120700,3.10712060546875,0.3229208715230226,0.5744289502173662,-1.9378512462221085
1782987861496195800,3.11719580078125,0.544421349966526,0.667051119813323,-1.6632172896146773
1782987861506269700,3.127269775390625,0.8891688533723354,0.722206605324149,-1.2558105009391902
1782987861516344800,3.1373447265625,1.2834627702355383,0.720912473860383,-0.8471843996018171
1782987861526418700,3.147418701171875,1.6999258488088844,0.7294248661398888,-0.5498671942822635
1782987861536492800,3.157492919921875,2.0555805306762456,0.6460770131066441,-0.3848014275051653
1782987861546568000,3.16756787109375,2.3202286614507437,0.5345858923897147,-0.2605594001561403
1782987861556641800,3.177641845703125,2.4013304891228673,0.39895021823644633,-0.21737550746798515
1782987861566717000,3.187717041015625,2.349078908360004,0.2958718288168311,-0.19912001207023858
1782987861576790800,3.197790771484375,2.111809782898426,0.19355302559286355,-0.2319888469710946
1782987861586866000,3.207865966796875,1.6705010168820618,0.13831979867070912,-0.3119401894338429
1782987861596939800,3.217939697265625,1.2255395735770462,0.10259849694818257,-0.41755438094139097
1782987861607015000,3.228014892578125,0.8242050905525684,0.07884644996076821,-0.428446800225228
1782987861617088800,3.2380888671875,0.45849897027015685,0.06332037952691316,-0.4236931759573519
1782987861627164000,3.248163818359375,0.17903671672344207,0.08466419632881879,-0.4173251022301614
1782987861637237800,3.25823779296875,0.032878187251091,0.0666325728148222,-0.42454350917637346
1782987861647311600,3.2683115234375,0.043886487999558445,0.015073942752182483,-0.4878732410535216
1782987861657386800,3.27838671875,0.10879589028358459,-0.12010609658807515,-0.566608485724777
1782987861667460900,3.2884609375,0.1560994932502508,-0.19955489635616538,-0.6311921631857752
1782987861677535700,3.29853564453125,0.24267244580984115,-0.2634130360215902,-0.6366758552938699
1782987861687609900,3.30860986328125,0.38304830022752284,-0.33496932897418735,-0.6167391288109123
1782987861697684700,3.318684814453125,0.4774877483785152,-0.42539808017909525,-0.6266307004891336
1782987861707758800,3.3287587890625,0.5227759198695421,-0.5058104642823338,-0.6699621849544346
1782987861717833700,3.338833740234375,0.5321241784512997,-0.6167004042357206,-0.6749459647163748
1782987861727907800,3.348907958984375,0.46295478063523765,-0.7738745409801602,-0.5715830592669546
1782987861737982700,3.358982666015625,0.3445592873573303,-0.9017641310513019,-0.4558139689698815
1782987861748056800,3.369056884765625,0.1873877809613943,-0.972253671555221,-0.2791160704575479
1782987861758131700,3.379131591796875,0.06862929958999156,-1.0503633316740393,-0.08641030934378505
1782987861768205800,3.389205810546875,-0.11139116747379302,-1.1199626453399658,0.07733604539781809
1782987861778279700,3.39927978515625,-0.2759621364712715,-1.1772954748898743,0.16674729012325404
1782987861788354800,3.409354736328125,-0.4905179103434086,-1.2097747259512543,0.11985694413259625
1782987861798428700,3.4194287109375,-0.7224094344198704,-1.2002362054944038,-0.05890811604261398
1782987861808503800,3.42950390625,-1.0142191283643245,-1.194618365612626,-0.24673925685733555
1782987861818577700,3.43957763671875,-1.2081757663220167,-1.2070923549994825,-0.37762656743973494
1782987861828652800,3.44965283203125,-1.1562386583358049,-1.4742933851271867,-0.14760712084546684
1782987861838726700,3.4597265625,-0.6837789672523736,-1.7347580927371977,0.35160219160616396
1782987861848801800,3.4698017578125,-0.26678046662807464,-1.8089985102072357,0.6313343481354415
1782987861858875600,3.479875732421875,-0.13918050715327263,-1.7319257919207214,0.6616730800367892
1782987861868950000,3.489949951171875,-0.5756365724414587,-1.440519125819206,0.46119142422452564
1782987861879024600,3.500024658203125,-1.3996335732012986,-1.1039154736414551,0.14968436551094055
1782987861889099000,3.51009912109375,-2.1561562896251676,-0.7310521750807761,-0.18770897573977707
1782987861899173600,3.520173583984375,-2.7253023310035465,-0.28514643666297196,-0.5202934554040431
1782987861909248000,3.530248046875,-2.9517665693342683,0.033570261168479915,-0.6283370660156011
1782987861919322600,3.540322509765625,-2.723939810478687,0.2782981782034039,-0.5838010280661284
1782987861929397000,3.55039697265625,-2.0335738660514355,0.4329512720376253,-0.4237761780656874
1782987861939471600,3.5604716796875,-1.0674936224341391,0.46445349476039405,-0.09609072248935699
1782987861949546000,3.5705458984375,-0.13972411251068115,0.420592433463037,0.2911925849594176
1782987861959620600,3.58062060546875,0.61530281239748,0.41588761677294966,0.6188106743879616
1782987861969695000,3.590695068359375,1.144494444528222,0.3829351952418685,0.8107369755618273
1782987861979768800,3.600768798828125,1.4268909979611635,0.35011019948273897,0.8933103370912373
1782987861989844000,3.610843994140625,1.444178232848644,0.3775222302824259,0.8561069801174104
1782987861999917800,3.620917724609375,1.1752069781780243,0.43909225901067256,0.7217876492597163
1782987862009993000,3.630992919921875,0.7579623938381671,0.5205167427659034,0.43736733491420743
1782987862020066800,3.64106689453125,0.27910627971589563,0.6190986975491046,0.07731310291364789
1782987862030142000,3.651141845703125,-0.29513620801866053,0.7109419917270541,-0.24504867342188952
1782987862040215800,3.6612158203125,-0.799461109918356,0.7575462142527103,-0.5076888253748416
1782987862050291000,3.671291015625,-1.1360492722660303,0.782190826165676,-0.6721601333901286
1782987862060364800,3.68136474609375,-1.2472574843883513,0.7889362087726592,-0.7170764028288423
1782987862070440000,3.69143994140625,-1.1312047548443078,0.7786983078747988,-0.6798809369005262
1782987862080514600,3.7015146484375,-0.810350752723217,0.8088198898941278,-0.5415338118314743
1782987862090588700,3.711588623046875,-0.34227906746566295,0.8645698341667651,-0.3873120951518416
1782987862100663600,3.72166357421875,0.10254852032661438,0.9193775291532278,-0.2377142388805747
1782987862110737700,3.731737548828125,0.4207470395028591,0.9306289910078048,-0.1854259793691337
1782987862120812500,3.7418125,0.6344716232478618,0.9553197801500558,-0.24348858449831604
1782987862130886700,3.75188671875,0.7922235598802566,0.9743085582584142,-0.38972105598971246
1782987862140961500,3.76196142578125,1.0127397034615278,0.9595306758433579,-0.5209975120201706
1782987862151035600,3.77203564453125,1.267640931725502,0.8832172514915466,-0.5304733425043523
1782987862161110500,3.782110595703125,1.53672733720839,0.7577841146618127,-0.5098167773142457
1782987862171184600,3.7921845703125,1.7489298259526491,0.6466600736916065,-0.48800154360830783
1782987862181259500,3.802259521484375,1.8768366594195365,0.557187308037281,-0.48563671417310833
1782987862191333600,3.812333740234375,1.9313000710129737,0.4846732759684324,-0.42233591612949967
1782987862201407700,3.82240771484375,1.9033792139083145,0.4467880742102861,-0.31854441000446676
1782987862211482600,3.832482666015625,1.751551991149783,0.43358489376604553,-0.2301600241087377
1782987862221556700,3.842556640625,1.5278782603204248,0.45637657128870485,-0.16192016222774983
1782987862231631600,3.852631591796875,1.301399408942461,0.4497288038372993,-0.08237082469463348
1782987862241705700,3.862705810546875,1.121944759067893,0.37271219965219493,0.057333706332743165
1782987862251780600,3.872780517578125,0.9637363108396529,0.24513912818431852,0.178064218429476
1782987862261854700,3.882854736328125,0.8830114997863769,0.1385316878557205,0.2095266936637461
1782987862271929600,3.8929296875,0.7804004356175661,0.07553717928230762,0.19589476641342043
1782987862282003700,3.903003662109375,0.6150894619077444,-0.01148819321990013,0.14624708453863858
1782987862292078600,3.91307861328125,0.3207897047132253,-0.07667436661869287,0.07444689982756972
1782987862302152700,3.923152587890625,-0.03170388277471065,-0.04849719666540622,-0.03631166883111
1782987862312226600,3.9332265625,-0.3799082486361265,0.01930471218973398,-0.11956672901436685
1782987862322301700,3.9433017578125,-0.7081640514463186,-0.005281739795207977,-0.12140621940121053
1782987862332375600,3.95337548828125,-1.0698059910297393,-0.07454290754795075,-0.09900222602188587
1782987862342450700,3.96345068359375,-1.3147557341217995,-0.19972060831189153,-0.10400222626626492
1782987862352524500,3.973524658203125,-1.386715639439225,-0.28336218359470366,-0.11954320200830697
1782987862362598700,3.9835986328125,-1.2665548900544643,-0.27662323072850703,-0.15266338132172821
1782987862372672500,3.993672607421875,-1.0781564707458018,-0.2632090378820896,-0.2484880002208054
1782987862382747600,4.00374755859375,-0.9135755648761987,-0.20888386571556328,-0.34774785426557064
1782987862392821500,4.013821533203125,-0.9034493076592683,-0.1840197658330202,-0.5462710694864392
1782987862402896600,4.023896728515625,-1.0202724370539187,-0.296655380409956,-0.6966875486642122
1782987862412970500,4.033970458984375,-1.0114935027927159,-0.5595569597780704,-0.6774012489140033
1782987862423045600,4.044045654296875,-0.8329998069047927,-0.9270680836558342,-0.591693681012094
1782987862433119500,4.054119384765625,-0.6546604247957467,-1.1773451592504978,-0.6682958591774105
1782987862443193600,4.064193603515625,-0.6194552559018135,-1.246752457475662,-1.0150599631026387
1782987862453268500,4.0742685546875,-0.9526724805116653,-1.2354606636106966,-1.4929155218802392
1782987862463342600,4.084342529296875,-1.517794088679552,-1.1032967572212218,-1.9447328224293887
1782987862473417500,4.09441748046875,-2.031803349247575,-0.8250839192137122,-2.3321616758286954
1782987862483491600,4.10449169921875,-2.27957808663249,-0.3555670035839081,-2.5759733548015356
1782987862493566500,4.11456640625,-2.271045236086845,0.07152823590189218,-2.5867984079375863
1782987862503640600,4.124640625,-2.0643056889235973,0.3454462993249297,-2.2955618377059697
1782987862513715500,4.134715576171875,-1.7319143937438726,0.5137646381571889,-1.9578643989421427
1782987862523789600,4.14478955078125,-1.336912620872259,0.6763385881185531,-1.6641007944509385
1782987862533864400,4.154864501953125,-1.0462333922624587,0.8030331231862307,-1.5214324451819061
1782987862543938600,4.1649384765625,-0.9367804993748664,0.8723685252189636,-1.4876273523442447
1782987862554012400,4.175012451171875,-0.8889291993975639,0.9559723988398909,-1.562172597979754
1782987862564087600,4.185087646484375,-0.8725520650923252,1.0032710333704948,-1.6870500006228684
1782987862574161400,4.195161376953125,-0.8916209226995706,0.969200713725388,-1.9160308979496359
1782987862584236500,4.205236572265625,-0.8287205221503973,1.020835331633687,-2.201188732789457
1782987862594310400,4.215310302734375,-0.6377373470455407,1.0937298874527215,-2.464096157376468
1782987862604385500,4.225385498046875,-0.3166933753103018,1.153985326451063,-2.581065124982595
1782987862614459400,4.23545947265625,0.10113748448491096,1.1932517534345388,-2.540787475129962
1782987862624534500,4.245534423828125,0.562323501881957,1.2179191617012024,-2.3115772990919647
1782987862634608400,4.2556083984375,1.0395943926393985,1.235687458103895,-1.9844475777022539
1782987862644682800,4.265682861328125,1.5172574975848196,1.2303098567187785,-1.5801264800824224
1782987862654757400,4.27575732421875,1.853855012282729,1.1933616435497998,-1.2521448180384933
1782987862664831700,4.285831787109375,2.149678618043661,1.1224585538089276,-0.9764243813686072
1782987862674906400,4.29590625,2.35867325065732,1.0132418077647685,-0.7545313964761793
1782987862684980700,4.305980712890625,2.457054129910469,0.8653612768054008,-0.5698765476100146
1782987862695055400,4.316055419921875,2.3088503583461044,0.7106932776629924,-0.4633151383802294
1782987862705129700,4.326129638671875,2.060734844699502,0.6654021835625171,-0.44088659508153794
1782987862715204400,4.336204345703125,1.776820872440934,0.6717828245103359,-0.5243871544584632
1782987862725278700,4.34627880859375,1.5029893182575702,0.5265498854503036,-0.6085993692360818
1782987862735353600,4.356353515625,1.1048562616229056,0.3705690501436591,-0.6249475697077811
1782987862745428500,4.366428466796875,0.49988604266941544,0.28120237521231173,-0.707353904107213
1782987862755502600,4.376502685546875,-0.01563654507100582,0.2522965987235308,-0.8430838324151932
1782987862765577500,4.386577392578125,-0.34262802703380585,0.20876666907668112,-0.8807267498500645
1782987862775651600,4.396651611328125,-0.5657423704147339,0.11408464434146881,-0.8388235446222126
1782987862785726500,4.4067265625,-0.7321288644015789,-0.018584873482584953,-0.7792872136786579
1782987862795800600,4.416800537109375,-0.8152525532901287,-0.06500526387393474,-0.7763567131847142
1782987862805875500,4.42687548828125,-0.78785308971107,-0.06210925017148256,-0.8393407003641128
1782987862815949600,4.436949462890625,-0.6058598612695932,-0.07901566904783248,-0.8202791492804884
1782987862826024400,4.4470244140625,-0.3477963695824146,-0.16835604049414396,-0.7159867078959942
1782987862836098600,4.4570986328125,-0.06437281118929386,-0.3223845726892352,-0.6267410289958119
1782987862846173400,4.46717333984375,0.1594248382806778,-0.4840943070366978,-0.5874632038354873
1782987862856247600,4.47724755859375,0.26278876664340495,-0.6301376856967806,-0.5838543656885623
1782987862866321700,4.48732177734375,0.2547650346636772,-0.779835495211184,-0.6660553867742419
1782987862876396500,4.497396484375,0.2062666689544916,-0.8597437291845679,-0.7586310868799686
1782987862886470700,4.507470703125,0.051045127582550046,-0.9270908800095319,-0.8020651549369097
1782987862896545500,4.517545654296875,-0.15524375320374964,-0.9651412092015147,-0.8157036580584943
1782987862906619600,4.52761962890625,-0.30914310606122014,-1.0074863129779696,-0.8035942642003298
1782987862916694500,4.537694580078125,-0.4197697189033031,-1.0543573697462678,-0.8278362866617739
1782987862926768600,4.5477685546875,-0.4695329899817705,-1.0618994556888937,-0.8561112179011106
1782987862936843500,4.557843505859375,-0.46496845854520796,-1.0594619994089007,-0.8934995760530233
1782987862946917600,4.567917724609375,-0.4644353745818138,-1.009613388134539,-0.9393751920431852
1782987862956992500,4.577992431640625,-0.5293775100916623,-0.9136363551527261,-0.9791652045093476
1782987862967066600,4.588066650390625,-0.5988239712834358,-0.9473010166063904,-0.8609152571819723
1782987862977140700,4.598140625,-0.426965183365345,-1.0626292312681673,-0.48551761783808467
1782987862987215600,4.608215576171875,-0.33741116916835306,-1.229497663553059,-0.11113266266807913
1782987862997289700,4.618289794921875,-0.5284726702064275,-1.3337953656345605,-0.04135784630477428
1782987863007364600,4.628364501953125,-1.1399731677114964,-1.1458028967782854,-0.2651138485901058
1782987863017438700,4.638438720703125,-2.1341344274312255,-0.8744394862741232,-0.5254856172196567
1782987863027513600,4.648513671875,-3.3296132092654704,-0.550676610969007,-0.7754223549440503
1782987863037587700,4.658587646484375,-4.233911827230453,-0.05650631559789181,-1.1004551040545105
1782987863047662600,4.66866259765625,-4.359374190154671,0.4875660748004913,-1.321294049849361
1782987863057736700,4.67873681640625,-3.6369302689433094,0.8260890046030283,-1.2607510260812937
1782987863067811600,4.6888115234375,-2.435589901599288,0.7501730551362037,-0.8724388139761984
1782987863077885200,4.69888525390625,-1.144537699148059,0.42938510398864743,-0.4352377755396068
1782987863087959000,4.708958984375,0.04282148911654949,0.2534182962298393,-0.1303320147871971
1782987863098034200,4.7190341796875,0.9422007708579301,0.1728875464439392,0.004429214619100094
1782987863108108000,4.72910791015625,1.5032307257980106,0.0657847238138318,0.04290902126953006
1782987863118183200,4.73918310546875,1.6589648928672074,-0.025860125182569027,-0.04567322528585791
1782987863128257000,4.749257080078125,1.4580758252978323,0.003524666994810104,-0.3535191311433911
1782987863138332200,4.759332275390625,1.0578794063925743,0.13354337804913521,-0.8411373745225369
1782987863148406000,4.769406005859375,0.48012744923233985,0.31289836694151163,-1.2829130273982883
1782987863158481200,4.779481201171875,-0.15540391220152378,0.509415210776031,-1.590732775901258
1782987863168555000,4.789554931640625,-0.7100444583654403,0.7312775082692503,-1.7615056682787835
1782987863178630100,4.799630126953125,-1.113158810544014,0.9707266081184148,-1.769643674287945
1782987863188704000,4.8097041015625,-1.3626923742949961,1.1683175109252333,-1.6243084438972175
1782987863198778000,4.819778076171875,-1.2951093688875437,1.2935711995348333,-1.3349576874122022
1782987863208853000,4.82985302734375,-0.9152332689553498,1.322714584171772,-0.9637722589358687
1782987863218927000,4.839927001953125,-0.4226414749473333,1.2870169555857778,-0.6661217300087213
1782987863229002000,4.850001953125,0.03158814744055271,1.1558268626645207,-0.41548999575749035
1782987863239076000,4.860076171875,0.3467465682685375,0.9923366746410727,-0.2600548116348684
1782987863249151000,4.87015087890625,0.4848118076562881,0.8890154163762927,-0.2524583651565015
1782987863259225000,4.88022509765625,0.4872480948925018,0.8476853348612785,-0.4318143769621849
1782987863269300000,4.890300048828125,0.4578782080233097,0.852527806456387,-0.6751997933469712
1782987863279374000,4.9003740234375,0.4587415468543768,0.8048536166116594,-0.8914679240949451
1782987863289449000,4.910448974609375,0.4828478141069412,0.6560507101103663,-0.9950501713834702
1782987863299523000,4.920523193359375,0.5162058938294649,0.5494827250093222,-1.0820355041362344
1782987863309597000,4.930596923828125,0.5292161820501089,0.46157413993179797,-1.1298574318885803
1782987863319672000,4.940672119140625,0.5958557691276073,0.35626433819830416,-1.1398756986863912
1782987863329746000,4.950745849609375,0.6309609847784042,0.2278822884351015,-1.0910387486726045
1782987863339821000,4.960821044921875,0.6153980894654989,0.14389642975926398,-1.1032188696794212
1782987863349895000,4.97089501953125,0.5599263776123523,0.10070260019898414,-1.18112701587677
1782987863359970000,4.980969970703125,0.5223977342069148,0.08764905735850334,-1.2615825084693728
1782987863370044000,4.9910439453125,0.49174774439930913,0.07134791089892387,-1.2879793708771465
1782987863380119000,5.001119140625,0.5128893166273832,0.07386018598079681,-1.2624948010087012
1782987863390193000,5.01119287109375,0.6257961493611336,0.056280690148472784,-1.2352484821647405
1782987863400268000,5.02126806640625,0.7876444153964519,0.03045183688700199,-1.2177213010415433
1782987863410342000,5.031341796875,0.8985159429103136,-0.00715513245165348,-1.1959922843143342
1782987863420416000,5.041416015625,0.8889204315692186,-0.032150457498431206,-1.182578822120279
1782987863430491000,5.051490966796875,0.7697767502725124,-0.06353226871192455,-1.1272056022055446
1782987863440565000,5.06156494140625,0.609030892521143,-0.07031096906661986,-1.0626771620631217
1782987863450640000,5.071639892578125,0.4263187021553516,-0.06479542051553726,-0.994498674980551
1782987863460714000,5.0817138671875,0.2168202116727829,-0.045727731952071186,-0.9237045985721051
1782987863470788900,5.091788818359375,0.03183013950288296,0.018977672192454338,-0.7622397788964211
1782987863480863000,5.101863037109375,-0.062085577034950254,0.0523673160970211,-0.5999922844104468
1782987863490937900,5.111937744140625,-0.13437456817626953,0.04720364972352981,-0.4434666747026145
1782987863501012000,5.122011962890625,-0.2424257775723934,0.0038151743739843367,-0.32868031183257695
1782987863511086800,5.1320869140625,-0.4004863417625427,-0.07117080076634884,-0.3242598650418222
1782987863521161000,5.142160888671875,-0.6513093608021736,-0.10635551139414309,-0.33618367320001125
1782987863531235000,5.152235107421875,-0.9328934288084506,-0.1467325299680233,-0.4178029488749802
1782987863541310000,5.16231005859375,-1.1234832206815482,-0.19485680166780947,-0.49660833617299793
1782987863551384000,5.172384033203125,-1.045222169393301,-0.42550913933813567,-0.3338653132550418
1782987863561459000,5.182458984375,-0.6941857949763536,-0.7235369771450758,-0.03275719121992588
1782987863571533000,5.192532958984375,-0.28734043957591054,-1.008971875360608,0.10642127010673284
1782987863581608000,5.20260791015625,-0.20288930147588252,-1.3190659985363482,0.02481675360947847
1782987863591682000,5.21268212890625,-0.6477624819755554,-1.4937702390134333,-0.21688816234245895
1782987863601757000,5.2227568359375,-1.5288842224925756,-1.2790402776181697,-0.7150894667953253
1782987863611831000,5.2328310546875,-2.554082425510883,-0.6599912644296884,-1.5202033417783676
1782987863621906000,5.242906005859375,-3.5036160234749314,0.12255465878397226,-2.351154399459809
1782987863631980000,5.25297998046875,-4.358067783731222,0.7702230327352881,-3.0259780529707667
1782987863642054100,5.26305419921875,-5.076047711271047,1.275874799324572,-3.459814875671267
1782987863652129000,5.27312890625,-5.339942393329739,1.6988111655652522,-3.592247369869053
1782987863662203100,5.283203125,-4.963219204470515,2.0599410639733073,-3.3404315403997895
1782987863672278300,5.2932783203125,-4.10021588896811,2.258837204159796,-2.6687755571395155
1782987863682352000,5.30335205078125,-2.9469828421890734,2.437051790845394,-1.965523097001761
1782987863692427300,5.31342724609375,-1.6569401090413332,2.530679045830667,-1.3869390729315578
1782987863702501000,5.323501220703125,-0.3757791860073805,2.4941724389493465,-0.901474062063545
1782987863712576300,5.333576171875,0.7638800934493541,2.3488176270753143,-0.6155310681954026
1782987863722650000,5.343650146484375,1.6652870816260574,2.1698475458472966,-0.502989415512234
1782987863732725200,5.353725341796875,2.272276823708415,1.933565093335509,-0.5677763604603707
1782987863742799000,5.363799072265625,2.579361243674159,1.6525468425184486,-0.8214914476796984
1782987863752873000,5.373873046875,2.668361131119728,1.4103355844795704,-1.2064872287131845
1782987863762948000,5.383947998046875,2.5280209325373173,1.1904922255933283,-1.6671708495460449
1782987863773022000,5.39402197265625,2.2851181851029394,0.9842284792482853,-2.087036576169729
1782987863783097000,5.40409716796875,2.015780435207486,0.8689069865882396,-2.3291071105636654
1782987863793171200,5.414171142578125,1.6752783142864702,0.7756529488295316,-2.36912172556594
1782987863803246000,5.42424609375,1.2945143256038427,0.7072007593721151,-2.2174473552815614
1782987863813320200,5.4343203125,0.9377116427451372,0.7263426822155714,-1.9582002067677675
1782987863823395000,5.44439501953125,0.5478600922435521,0.8096464038461446,-1.6736644493490456
1782987863833469200,5.45446923828125,0.2914513820260763,0.9060767335534096,-1.3254222356952725
1782987863843544000,5.4645439453125,0.19938158561587332,0.9078145171314478,-0.9221177677720784
1782987863853618200,5.4746181640625,0.16288111621439455,0.8675944426849483,-0.5663366830460727
1782987863863692000,5.484692138671875,0.16740473111867904,0.8423629707947373,-0.2766008727662265
1782987863873767200,5.49476708984375,0.20656126798689364,0.8080164645567536,-0.04296747345849872
1782987863883841000,5.504841064453125,0.20640403159856796,0.7241513096511364,0.0823000975459814
1782987863893916200,5.514916259765625,0.22656769870519636,0.5961907001703978,0.06853738352283835
1782987863903990000,5.524989990234375,0.22190730567872524,0.38069384605586526,-0.10155644054934382
1782987863914065200,5.535065185546875,0.23517536805272102,0.13753127864152193,-0.35010318522006273
1782987863924139000,5.545138916015625,0.29883798514604565,-0.06375643285661936,-0.577857171100378
1782987863934214100,5.555214111328125,0.42815117827951904,-0.23209464543312786,-0.695328243009746
1782987863944288000,5.5652880859375,0.5516331810414791,-0.40947599616497754,-0.6901334508456289
1782987863954363100,5.575363037109375,0.6487544156223535,-0.555479042814672,-0.6530803159974515
1782987863964437000,5.58543701171875,0.7042530154824257,-0.6676485011845826,-0.6483325369484723
1782987863974511000,5.595510986328125,0.6755857239246368,-0.7889996293976903,-0.6757113961309195
1782987863984586000,5.6055859375,0.5725093803316355,-0.86825349111557,-0.7298460141614079
1782987863994660000,5.61566015625,0.4607634080708027,-0.9016019262269139,-0.777765410938859
1782987864004735000,5.62573486328125,0.32336919981241224,-0.9066071871683001,-0.7751531826138496
1782987864014809000,5.63580908203125,0.13118307865858078,-0.9052227470725774,-0.7247250178858637
1782987864024884000,5.645884033203125,-0.01597907489836216,-0.9363315865635872,-0.6568418604880571
1782987864034958000,5.6559580078125,-0.023102643167972562,-0.9972378906860947,-0.5667969940342009
1782987864045033000,5.666032958984375,0.043970659151673315,-1.0691270688548684,-0.4774561841964721
1782987864055107000,5.676107177734375,0.07562661113142967,-1.178518002422154,-0.3446560257300734
1782987864065182000,5.686181884765625,0.05885726263821125,-1.290830376394093,-0.23588015532121062
1782987864075256000,5.696256103515625,-0.005144961673021317,-1.3818883654132486,-0.23921660626754163
1782987864085330400,5.706330322265625,-0.13988602507412431,-1.4636983413547278,-0.27003464611843225
1782987864095405300,5.7164052734375,-0.3865279590368271,-1.4987351679444312,-0.3620211481593549
1782987864105479400,5.7264794921875,-0.9457745376914739,-1.5419146767184138,-0.39924642470404503
1782987864115554300,5.73655419921875,-1.3810475306749344,-1.6729352582916617,-0.2743698988437652
1782987864125628400,5.74662841796875,-1.4921546205103398,-1.6872981301650405,-0.19273747142627834
1782987864135703300,5.756703369140625,-1.591695191192627,-1.6934391171380876,-0.24371684029623863
1782987864145777400,5.76677734375,-1.8633353728115558,-1.6515250982552765,-0.33151422008424997
1782987864155852300,5.776852294921875,-2.3861112926810977,-1.4646812149122357,-0.49086190147548914
1782987864165926400,5.786926513671875,-2.9149346760213373,-1.090681605798006,-0.7905014122627675
1782987864176001300,5.797001220703125,-3.130629098534584,-0.5039218740567565,-1.1056517959147691
1782987864186075400,5.807075439453125,-2.9409195966273542,0.11117109498232602,-1.2056691903285681
1782987864196149200,5.817149169921875,-2.446778235089779,0.5156365695089101,-1.0719354042738676
1782987864206224400,5.827224365234375,-1.753389143449068,0.759508746497333,-0.7945718765720725
1782987864216298200,5.83729833984375,-0.9247609757572411,0.916160028411448,-0.5815222694791853
1782987864226373400,5.847373291015625,-0.04213526041805744,0.9549269814401864,-0.34919425368160006
1782987864236447200,5.857447265625,0.7851859163284302,0.9008975773498415,-0.02749912456125021
1782987864246522400,5.8675224609375,1.5172387928843498,0.7030512384772301,0.40734716744273897
1782987864256596200,5.87759619140625,2.014322053092718,0.4105667140111327,0.818769329239428
1782987864266671400,5.88767138671875,2.255293540203571,0.15587299101799726,0.9960065953254699
1782987864276745200,5.8977451171875,2.154337257504463,0.0407490667566657,0.852758254211396
1782987864286820400,5.9078203125,1.76504158731997,0.03072422408759594,0.4413635649435222
1782987864296894200,5.917894287109375,1.2285814254909753,0.0753486709728837,0.014225216968357561
1782987864306968600,5.927968505859375,0.4632955568969249,0.11497604022324084,-0.3466806634254753
1782987864317043500,5.93804345703125,-0.25081600477695465,0.18061229547709226,-0.6207790518514812
1782987864327117600,5.94811767578125,-0.8611345990210771,0.18125293146818874,-0.7263624098293483
1782987864337192400,5.9581923828125,-1.2360521997630596,0.13678133705705403,-0.7158300560295582
1782987864347266600,5.9682666015625,-1.3586767089128493,0.16291297265738247,-0.5985501227781176
1782987864357341400,5.978341552734375,-1.172072187283635,0.21634528763741254,-0.34263694099262354
1782987864367415600,5.98841552734375,-0.7897054395794868,0.2588987734675407,0.039445729073137044
1782987864377490400,5.998490478515625,-0.2803711850851774,0.341340909832716,0.43794864193350075
1782987864387564500,6.008564453125,0.2237947268605232,0.4476689486980438,0.8104089126512408
1782987864397639400,6.018639404296875,0.6226952607363462,0.5306354011982679,1.049415675560385
1782987864407713500,6.028713623046875,0.7270102062135935,0.5334472437486052,1.0294168436266482
1782987864417787400,6.038787353515625,0.6247744050979613,0.4730751926332712,0.7915431033354252
1782987864427862500,6.048862548828125,0.33789573781490323,0.3885208864197135,0.4139468579687178
1782987864437936600,6.0589365234375,-0.05146130716800689,0.35755116313844915,0.06435439874976873
1782987864448011500,6.069011474609375,-0.2951806316822767,0.3575280745238065,-0.207296815719828
1782987864458085600,6.079085693359375,-0.3036427550792694,0.3075090751186013,-0.261808669564873
1782987864468160500,6.089160400390625,-0.10483166282773017,0.1691097814708948,-0.18044680271707475
1782987864478234600,6.099234619140625,0.17654489990770816,0.030543022301793097,-0.06020034781023859
1782987864488309500,6.1093095703125,0.47674599010050295,-0.018257541224360466,-0.02212678387314081
1782987864498383600,6.119383544921875,0.7448544904619455,0.01591331618577242,-0.013132380230352281
1782987864508458500,6.12945849609375,0.948702407836914,0.03995674733519554,-0.08764555022716522
1782987864518532600,6.13953271484375,1.131767649424076,0.018964812710881233,-0.14728124989196656
1782987864528606500,6.1496064453125,1.1809195106059311,-0.0772132958009839,-0.2153972661975771
1782987864538681600,6.159681640625,1.211851239964366,-0.12709668612778185,-0.29199732547104357
1782987864548755500,6.16975537109375,1.2171224583655595,-0.17112199807614087,-0.292301422984153
1782987864558830600,6.17983056640625,1.2225719559431076,-0.21283494142889975,-0.23092151000052688
1782987864568904400,6.189904541015625,1.3045330307930707,-0.2489309216827154,-0.0805563226185739
1782987864578979600,6.1999794921875,1.3575240317463875,-0.3017828064262867,0.12196253810971974
1782987864589053400,6.210053466796875,1.2712573686569928,-0.3598968494817614,0.3083906071934849
1782987864599128600,6.220128662109375,1.0719535244524478,-0.49717824501544233,0.32326544717699285
1782987864609202400,6.230202392578125,0.913681363338232,-0.5822071830034256,0.15347857016213237
1782987864619277600,6.240277587890625,0.8708703956156969,-0.6109788117185234,-0.005945464400947093
1782987864629351400,6.250351318359375,0.8402432021617889,-0.644876112884283,-0.03313552301302552
1782987864639425500,6.260425537109375,0.7382832953780889,-0.7088818443268537,0.0756201083254069
1782987864649500400,6.27050048828125,0.49269291629493234,-0.7858797438114881,0.2205865784689784
1782987864659574500,6.280574462890625,0.19973054518401623,-0.7283496381238103,0.22645758939422667
1782987864669649400,6.2906494140625,-0.07565700626969336,-0.5338941107332706,0.15442513029724358
1782987864679723500,6.3007236328125,-0.3205073806405067,-0.3967039006143808,0.1287158117622137
1782987864689798400,6.31079833984375,-0.41811318386793134,-0.3753083536252379,0.1423445241421461
1782987864699872500,6.32087255859375,-0.4367313750982284,-0.4226832682624459,0.23943302549719808
1782987864709947400,6.330947509765625,-0.4816051205694675,-0.5410702859729528,0.4331189567547291
1782987864720021500,6.341021484375,-0.5384375993818045,-0.6315630423247813,0.6105746148318052
1782987864730096400,6.351096435546875,-0.5964180791854858,-0.7021084046691656,0.6638602878827601
1782987864740170500,6.36117041015625,-0.6396458110153674,-0.7659177367568015,0.5948934999667108
1782987864750244400,6.371244384765625,-0.6024333939522505,-0.7910784814983606,0.45492907589413223
1782987864760319500,6.381319580078125,-0.5492559305161238,-0.7713558361575007,0.33235257060453294
1782987864770393300,6.391393310546875,-0.45574762573540206,-0.7143295883387327,0.25890571466498075
1782987864780468500,6.401468505859375,-0.37227380823493,-0.6694330465137958,0.2834084338892251
1782987864790542300,6.411542236328125,-0.2852110263317823,-0.7096075282528996,0.4897263215743005
1782987864800617500,6.421617431640625,-0.0634603725194931,-0.7514610491201281,0.7867291271824389
1782987864810691300,6.43169140625,0.14568097508847713,-0.8195821069270371,0.97626312639229
1782987864820766500,6.441766357421875,0.4158563448518514,-0.7382409175410867,0.8669245805993676
1782987864830840300,6.45184033203125,0.47910570496916766,-0.6147185827687383,0.5395850158512592
1782987864840915500,6.46191552734375,0.14148293887674807,-0.5709849472433328,0.022017186018824575
1782987864850989300,6.4719892578125,-0.5061643922865391,-0.5524214088097215,-0.5991879092250019
1782987864861063400,6.4820634765625,-1.150997835072875,-0.36056963417679067,-1.1127829629689454
1782987864871138300,6.49213818359375,-1.5835773511886595,-0.01494505567550659,-1.3885729577437043
1782987864881212400,6.50221240234375,-1.6038655214577913,0.3987757384523749,-1.3343079913318157
1782987864891287300,6.512287353515625,-1.3330068456053734,0.7072603806048631,-0.9888250132583081
1782987864901361400,6.522361328125,-1.125271857663989,0.8139177975550294,-0.4386988757789135
1782987864911436300,6.532436279296875,-1.1809434760034083,0.8780980087816714,0.06672178546823561
1782987864921510400,6.542510498046875,-1.5062819300621748,1.0688561429589987,0.2989611731342971
1782987864931585300,6.552585205078125,-1.8416297369599341,1.3667811049133538,0.3140194433933124
1782987864941659400,6.562659423828125,-1.9333599261522292,1.6403183523252605,0.2758440265169367
1782987864951734500,6.572734619140625,-1.6995640297591685,1.7863129234075545,0.25957601514197887
1782987864961808400,6.582808349609375,-1.2255226224422453,1.7562988934159278,0.33734292623773215
1782987864971882200,6.59288232421875,-0.5430167438656092,1.6042343547701834,0.45047173115909095
1782987864981957400,6.602957275390625,0.15481237604916095,1.369087628290057,0.5164830302704125
1782987864992031200,6.61303125,0.867852509099245,1.1246236228883266,0.5480312840919941
1782987865002106400,6.6231064453125,1.4754969156980513,0.8591901869550347,0.5245263437334448
1782987865012180200,6.63318017578125,1.8980805229783058,0.5487386286437511,0.4877005148351192
1782987865022255400,6.64325537109375,2.2028239327758548,0.2676408828496933,0.33862449048087
1782987865032329200,6.6533291015625,2.384675122398138,-0.009833119489252567,0.14938340980298817
1782987865042404400,6.663404296875,2.451617491814494,-0.1761260899737477,0.009542539044842124
1782987865052478200,6.673478271484375,2.46350432896316,-0.2751075654685497,-0.07330686294697225
1782987865062553300,6.68355322265625,2.352430556875467,-0.31355683085024355,-0.06449344189427793
1782987865072627500,6.69362744140625,2.1739695942133666,-0.29483985542058944,0.0066806468077003954
1782987865082701600,6.70370166015625,1.9972078366845845,-0.20462299340069293,0.1568278805900365
1782987865092776400,6.7137763671875,1.7976736908555029,-0.09874620543420314,0.34935485107079145
1782987865102850600,6.7238505859375,1.5697598382383584,-0.016031974129378793,0.4805748276736587
1782987865112925400,6.733925537109375,1.3252385496914385,0.0007534487158060073,0.5730307738572359
1782987865122999600,6.74399951171875,1.1068775383174418,-0.008111702524125575,0.5428644759133457
1782987865133074400,6.754074462890625,0.9844336464315653,-0.004082593138515949,0.45074850227385754
1782987865143148500,6.7641484375,0.8622826000124215,-0.014626491245627402,0.3244759189452976
1782987865153223400,6.774223388671875,0.7554168010085821,-0.06217734697163105,0.22034802047275007
1782987865163297500,6.784297607421875,0.6315922684192657,-0.11574147163778543,0.12742409145124256
1782987865173372400,6.794372314453125,0.5609492909193039,-0.12255816591531038,0.010031710801273583
1782987865183446500,6.804446533203125,0.592961801251769,-0.0805786805808544,-0.03983523984737694
1782987865193520600,6.814520751953125,0.612602321267128,-0.06408055024445057,0.02165807038284838
1782987865203595500,6.824595458984375,0.6882441299676895,-0.08024901023507118,0.06430398373678327
1782987865213669600,6.834669677734375,0.7272732410639524,-0.0977414123058319,0.10986052384041249
1782987865223744500,6.84474462890625,0.7522866862893104,-0.13188216683864593,0.14874416205137966
1782987865233818600,6.854818603515625,0.6790618756026029,-0.143486095392704,0.22395678555443882
1782987865243893500,6.8648935546875,0.604396218457818,-0.22423925575762985,0.3322277751810849
1782987865253967600,6.874967529296875,0.4746604159981012,-0.30398411586284635,0.37478864060007033
1782987865264042500,6.88504248046875,0.38704467638731,-0.43154491237103937,0.368333619241789
1782987865274116600,6.89511669921875,0.29412147801816463,-0.5016036602422594,0.3342487596146762
1782987865284191500,6.90519140625,0.1947726305156946,-0.5850590653032064,0.31072949846982956
1782987865294265600,6.915265625,0.04393851044774055,-0.6603244419068097,0.3168840025115758
1782987865304339500,6.92533935546875,-0.16573416755795478,-0.7055792956501246,0.2954769842803478
1782987865314414600,6.93541455078125,-0.4532154769092798,-0.7414470201060176,0.2748362742464989
1782987865324488400,6.945488525390625,-0.78067282281816,-0.7289771223723888,0.23125410295575854
1782987865334563600,6.9555634765625,-1.0896996090233326,-0.6433975647643209,0.15691753163486719
1782987865344637400,6.965637451171875,-1.2462468460410832,-0.5497241325497627,0.12280965645834803
1782987865354712600,6.975712646484375,-1.243606560665369,-0.5698074278965592,0.22238179132267832
1782987865364786400,6.985786376953125,-0.9853922623306512,-0.8550365744069218,0.6296677300974727
1782987865374861600,6.995861572265625,-0.4712666819065809,-1.1101739495143295,1.1569267867304385
1782987865384935400,7.005935302734375,-0.02477379125058651,-1.3236463120639324,1.4591346867009996
1782987865395010600,7.016010498046875,0.13775193565487862,-1.4723890128105879,1.6026963315479457
1782987865405084400,7.02608447265625,-0.1608925727456808,-1.4260183067798613,1.5464616724982856
1782987865415158500,7.036158447265625,-0.9008774113446474,-1.1872270863175391,1.2525225653097032
1782987865425233400,7.0462333984375,-1.8170237034916876,-0.8140604208961129,0.6756565972037613
1782987865435307500,7.0563076171875,-2.6940391777336594,-0.3378919384226203,0.14053338306695223
1782987865445382400,7.06638232421875,-3.287138926151395,0.12741057438254355,-0.22109613542631268
1782987865455456500,7.07645654296875,-3.4228047031819817,0.47531157338321206,-0.29647110988423225
1782987865465531400,7.086531494140625,-2.973440641003847,0.6382827059686184,-0.13263181616216896
1782987865475605500,7.09660546875,-2.1138708070814607,0.5235159245818853,0.17150880543664096
1782987865485680400,7.106680419921875,-1.2237637960761785,0.3020698066741228,0.4944108261287212
1782987865495754500,7.11675439453125,-0.5141390244275331,0.08242723105698824,0.7075567332029342
1782987865505829400,7.126829345703125,-0.08321721239089966,-0.03929039238095283,0.6786376588411629
1782987865515903500,7.136903564453125,0.16741232990324495,0.029112697237730023,0.3739959558524191
1782987865525977300,7.146977294921875,0.273081612598896,0.3154989048287272,-0.04043152524009347
1782987865536052500,7.157052490234375,0.2830214073330164,0.562463494874537,-0.35871421556845307
1782987865546126300,7.167126220703125,0.32587095350027084,0.7309963532403111,-0.49649084727317094
1782987865556201500,7.177201416015625,0.47058629842698574,0.8586755154311656,-0.49207127726525063
1782987865566275300,7.187275390625,0.6592822393774986,0.8633855928182601,-0.3859874224193394
1782987865576350500,7.1973505859375,0.9249328251928091,0.7933566555634141,-0.2560118198543787
1782987865586424300,7.20742431640625,1.1756050375849008,0.7087845214322209,-0.10809607145115732
1782987865596499500,7.21749951171875,1.380136261048913,0.6135121295884252,0.07271350016370415
1782987865606573300,7.2275732421875,1.5011422290861605,0.558466826453805,0.33051249569579955
1782987865616648400,7.2376484375,1.4815864647448063,0.5562266463115811,0.6476856173470616
1782987865626722300,7.247722412109375,1.3122832065284251,0.5878343752354384,0.8277572300761937
1782987865636796400,7.25779638671875,1.0408639741837977,0.6698734837576746,0.8559130649805069
1782987865646871300,7.267871337890625,0.7419710439801216,0.7860527622908353,0.7942996355019509
1782987865656945400,7.2779453125,0.5158206939041614,0.8141489759624004,0.7436854466825723
1782987865667020300,7.288020263671875,0.3968260656893253,0.7642033340543508,0.733994512142986
1782987865677094400,7.298094482421875,0.2706266206622124,0.6405223015889525,0.7236056584671139
1782987865687169300,7.308169189453125,0.21346856315732002,0.5689820829883218,0.6409259139537811
1782987865697243400,7.318243408203125,0.30356559818983075,0.49259588566124435,0.48100174784883853
1782987865707318500,7.328318603515625,0.4912000473886728,0.33350890103280545,0.3323946561805904
1782987865717392400,7.338392333984375,0.6790063460230827,0.1139253621265292,0.3229254015676677
1782987865727467500,7.348467529296875,0.8402940555661916,-0.03250613906830549,0.37082521686181424
1782987865737541400,7.358541259765625,0.8844201975405216,-0.10965250711292028,0.36133638076558705
1782987865747615200,7.368615234375,0.8172101170986891,-0.13382774794846772,0.3472081944309175
1782987865757690400,7.3786904296875,0.6457780301600694,-0.13436316999942063,0.38873759791031476
1782987865767764200,7.38876416015625,0.40746377955973145,-0.08063450242131948,0.4517512495756149
1782987865777839400,7.39883935546875,0.1744213318824768,-0.00008913958817720413,0.4720949494242668
1782987865787913200,7.408913330078125,0.0015337854385375975,0.13963292709589004,0.5408353081732988
1782987865797988400,7.41898828125,-0.1589309172838926,0.30791999400705095,0.5649553116902709
1782987865808062200,7.429062255859375,-0.22478782955110072,0.444800115263462,0.6435679528951644
1782987865818137300,7.439137451171875,-0.18820143543183804,0.5024392342835664,0.7475834770344197
1782987865828211500,7.44921142578125,-0.019420739784836768,0.4774649520248174,0.8817422105029225
1782987865838286300,7.459286376953125,0.1352729783207178,0.39407179854512214,1.0237539955593644
1782987865848360400,7.4693603515625,0.17371230683028696,0.2960264348566532,1.062169212540984
1782987865858434600,7.4794345703125,0.14935586420893668,0.2865779307708144,0.9732163791075348
1782987865868509400,7.489509521484375,-0.039823476344347,0.38169104039967056,0.7994340757809579
1782987865878583600,7.49958349609375,-0.27040800947546956,0.4576008523866534,0.5743102922737598
1782987865888658400,7.509658447265625,-0.46659342939853665,0.5122632936835289,0.3628710429869592
1782987865898732500,7.519732666015625,-0.5418827713996172,0.4482599003285169,0.31172070146426556
1782987865908807400,7.529807373046875,-0.3473883733034134,0.1282040628477931,0.5288670763514935
1782987865918881500,7.539881591796875,0.06770283239483833,-0.1471498785972595,0.8604109609216452
1782987865928956400,7.549956298828125,0.5486497813165188,-0.44568566592633724,1.0617788980491458
1782987865939030500,7.560030517578125,0.9099602969884872,-0.6044622694313526,0.8793019777439535
1782987865949105400,7.57010546875,0.8275555700242518,-0.7451125568762421,0.4054113770745694
1782987865959179500,7.580179443359375,0.18628829528689383,-0.6753218122914433,-0.06539207123443484
1782987865969253600,7.590253662109375,-0.7613730790644884,-0.20545535257160663,-0.5569378633208573
1782987865979328500,7.60032861328125,-1.8234253872275352,0.4551151730507612,-1.099591619092971
1782987865989402600,7.610402587890625,-2.60267139211297,1.166098665831983,-1.3421763866193592
1782987865999477500,7.6204775390625,-2.865813209977746,1.86702019880414,-1.1945312718510628
1782987866009551600,7.630551513671875,-2.5717899316370487,2.130389395684004,-0.5984195552010089
1782987866019626500,7.64062646484375,-1.7876386190533637,1.9517033920943736,0.011854250053316353
1782987866029700600,7.65070068359375,-0.7497457696348429,1.5287366307154298,0.273176232079789
1782987866039775500,7.660775390625,0.21857903803884982,1.0780354747146368,0.2314738101210445
1782987866049849600,7.670849609375,0.832087368234992,0.5867784364417195,-0.016504413946717977
1782987866059924500,7.680924560546875,1.128893555292487,0.1061240407258272,-0.34504765539616344
1782987866069998600,7.69099853515625,1.0531477016955613,-0.22037235119640827,-0.6599892186030745
1782987866080072200,7.701072265625,0.770204620295763,-0.40941257553994653,-0.9462795646041631
1782987866090147300,7.711147216796875,0.4161550355374813,-0.4844070262476802,-1.1560083567112684
1782987866100221200,7.72122119140625,0.07545300813019275,-0.47870998364984985,-1.3271158878706395
1782987866110296300,7.73129638671875,-0.15148469293117522,-0.3905854177340865,-1.4670394684761763
1782987866120370200,7.7413701171875,-0.20628595817685125,-0.274625919431448,-1.47920614547953
1782987866130445300,7.7514453125,-0.11550327896773814,-0.22370734083801508,-1.3535136270612478
1782987866140519200,7.761519287109375,0.09000468057394027,-0.18404110088199377,-1.0226019029147921
1782987866150594300,7.77159423828125,0.3968202204704284,-0.1590247330471873,-0.5625139098875225
1782987866160668200,7.781668212890625,0.6705594201952219,-0.12714052526950836,-0.1903568599000573
1782987866170743300,7.791743408203125,0.8706190512031317,-0.11321809064000844,0.09912256446592509
1782987866180817200,7.801817138671875,1.0057774632334708,-0.11421820759326219,0.3246780173886567
1782987866190891300,7.811891357421875,1.0753051729679106,-0.10686696804761886,0.3990803474221378
1782987866200966100,7.821966064453125,1.080426169243455,-0.05710398923009634,0.4202650281395763
1782987866211040300,7.832040283203125,1.067055815538764,-0.0056426820620894425,0.45229032488837834
1782987866221115100,7.842115234375,1.0030547602713107,0.03712970721572637,0.5488965226192027
1782987866231189200,7.852189208984375,0.8463555475622415,0.05429273120164871,0.6872162482246756
1782987866241264000,7.86226416015625,0.71685238481462,0.048806993266940116,0.8247682043280452
1782987866251338200,7.872338134765625,0.6649567778825759,0.039919922456145285,0.8806382678490131
1782987866261413400,7.882413330078125,0.6519885752379894,-0.05172697236686945,0.8154077438518404
1782987866271487200,7.8924873046875,0.7641501425623893,-0.15559563538134097,0.7098933594569563
1782987866281562400,7.902562255859375,0.8719026612728834,-0.31883126412183044,0.6062321286480874
1782987866291636200,7.91263623046875,0.9532342060476541,-0.45790363472551104,0.4988292270928621
1782987866301710000,7.9227099609375,0.9735866737246512,-0.5603010561436415,0.3919223654262721
1782987866311785200,7.93278515625,0.8077963920652866,-0.63871788251549,0.30225049700327217
1782987866321859000,7.942859130859375,0.6107751058399677,-0.6677817721754312,0.2604918878778815
1782987866331934200,7.952934326171875,0.3835509890526533,-0.698403704932332,0.2107586466114968
1782987866342008000,7.963008056640625,0.1590583430558443,-0.7504661928638815,0.11851641624383627
1782987866352083200,7.973083251953125,-0.06027355917692184,-0.790437845507264,0.028554405767843124
1782987866362156000,7.983156005859375,-0.25119945113658904,-0.8103016528844833,0.039712271054834124
1782987866372231200,7.993231201171875,-0.3404103509843349,-0.8306202182918786,0.17033588919974862
1782987866382305000,8.003304931640624,-0.36118425894379613,-0.8398127017900348,0.3970435443649068
1782987866392380200,8.013380126953125,-0.350263051956892,-0.8107374139532446,0.6452282873228192
1782987866402454000,8.0234541015625,-0.38537002117335795,-0.7829270314857363,0.836944599007815
1782987866412529200,8.033529052734375,-0.4346539843022823,-0.7536155968055128,0.9875530936263501
1782987866422603000,8.04360302734375,-0.4078349509596824,-0.7392629540652036,1.1021047709576786
1782987866432677400,8.053677490234374,-0.22521394600868225,-0.9394830363318324,1.4049537453107535
1782987866442752000,8.063751953125,0.03760638481676578,-1.1979039631545543,1.7444982732459902
1782987866452826400,8.073826416015624,0.3530383618891239,-1.4124112217098475,1.7886460425302386
1782987866462901000,8.08390087890625,0.4412748637467622,-1.4721958283260463,1.3914552351817489
1782987866472975400,8.093975341796876,-0.18664485363960265,-1.3308432378306985,0.7290745913974941
1782987866483050000,8.104050048828125,-1.431156838712096,-1.038517411057651,0.24011074209567157
1782987866493124400,8.114124267578125,-2.828850968283415,-0.7317375269964337,0.056629576651379465
1782987866503199200,8.12419921875,-3.9014872143030166,-0.21650281628668308,-0.09806479904130101
1782987866513273300,8.1342734375,-4.374254948422313,0.3889250833064318,-0.18137270365664734
1782987866523348200,8.14434814453125,-4.2522383420377965,0.9183341575801371,-0.10417513514775782
1782987866533422300,8.15442236328125,-3.628419045707583,1.2936083166748285,0.21672869746442883
1782987866543496200,8.16449609375,-2.7032132487922906,1.425205529092252,0.5837195968603714
1782987866553571300,8.1745712890625,-1.5758213302344082,1.4214578669965265,0.8632790637038648
1782987866563645200,8.184645263671875,-0.36497371435463427,1.3858888332262636,1.1027141350276768
1782987866573720300,8.19472021484375,0.8236544709324837,1.2784674461662768,1.3443342953056097
1782987866583794200,8.204794189453125,1.8556898264944552,1.1357307078361512,1.5927036375828085
1782987866593869300,8.214869384765626,2.6715023517549037,0.9710226684555411,1.8550547434613107
1782987866603943200,8.224943115234375,3.161418789073825,0.7742962735235691,2.0587138602659105
1782987866614018300,8.235018310546875,3.3469840307831764,0.7177677460938692,2.169287281616032
1782987866624092200,8.245092041015624,3.180877522781491,0.7775897621110082,2.149356254221499
1782987866634167300,8.255167236328125,2.7363544708937404,0.9264481981918216,1.8750129511237144
1782987866644241400,8.265241455078124,2.052213684591651,1.1333353371322155,1.5217765824444591
1782987866654315300,8.275315185546875,1.2336837170660495,1.304536245663464,1.2357393344216048
1782987866664390400,8.285390380859376,0.40962651055157184,1.432270645172894,1.0355915867388248
1782987866674464300,8.29546435546875,-0.31595044798851013,1.5375059203654526,0.9281825477037579
1782987866684539400,8.305539306640625,-0.8351777354657649,1.5299541898116469,0.8945200051419436
1782987866694613200,8.31561328125,-1.1169418362140655,1.4780278954803943,0.915361206183955
1782987866704688400,8.3256884765625,-1.1668249342799186,1.4212351641565562,0.8907216357722878
1782987866714762200,8.33576220703125,-1.1376865180790423,1.340900521464646,0.8152646821193397
1782987866724837400,8.34583740234375,-1.0086544799745083,1.233516543805599,0.6701943862751126
1782987866734911200,8.3559111328125,-0.7143465394735335,1.1146446651875972,0.5239125226840377
1782987866744986400,8.365986328125,-0.31835517104268074,1.010133904877305,0.38642347574904556
1782987866755060200,8.376060302734375,0.15422551607191562,0.8757757033139467,0.400509649572894
1782987866765134300,8.38613427734375,0.6078162560343742,0.7481649301841855,0.5440837520426139
1782987866775209200,8.396209228515625,1.0182172580897808,0.6865615837082266,0.7342305859211832
1782987866785283300,8.406283447265626,1.2878431772768497,0.6788850577309727,0.942047553057596
1782987866795358200,8.416358154296875,1.3843372198700905,0.6499439176678657,1.1679497735913842
1782987866805432300,8.426432373046875,1.3245897303938865,0.5694812646821141,1.3281553139209747
1782987866815507200,8.436507080078124,1.1121604471564293,0.49546091970354317,1.4155186862058937
1782987866825581300,8.446581298828125,0.8692530235469341,0.4403828833431005,1.4229609650358557
1782987866835656200,8.45665625,0.6598398732602596,0.38889205781966446,1.4315698034271598
1782987866845730300,8.466730224609375,0.49510290004611013,0.30854280208051205,1.4445415132030843
1782987866855805200,8.47680517578125,0.4231237055063247,0.21316431951373815,1.4943424859434364
1782987866865879300,8.48687939453125,0.43476036728620526,0.09654811086803675,1.5013681467965245
1782987866875954200,8.4969541015625,0.3921428763091564,-0.035709611284732816,1.450957079333812
1782987866886028300,8.5070283203125,0.25439678587317466,-0.1554433674290776,1.396135794213414
1782987866896102100,8.51710205078125,0.07621230206489563,-0.20615444075167177,1.3779627164021133
1782987866906177300,8.52717724609375,-0.1535679289460182,-0.1994821233808994,1.3410105577103792
1782987866916251100,8.537251220703125,-0.41395723323225975,-0.18400661409050226,1.2349275796473025
1782987866926326300,8.547326171875,-0.6781856772899627,-0.14243337146937846,1.1231763466894626
1782987866936400100,8.557400146484374,-0.8737865753233433,-0.15971622244268655,1.0367457982752473
1782987866946475300,8.567475341796875,-1.06831253760159,-0.23860154310911894,1.0558003350961953
1782987866956549000,8.577549072265626,-1.1936293545752763,-0.3414139750689268,1.0461271554090081
1782987866966624300,8.587624267578125,-1.2458943793416022,-0.4081660826101899,0.9740971805300563
1782987866976698000,8.597697998046876,-1.1799188091307877,-0.4405252144232392,0.7870685152046382
1782987866986773200,8.607773193359375,-1.0345827019572258,-0.4338695559263229,0.595756875330396
1782987866996847000,8.61784716796875,-0.87929452508986,-0.3697042500078678,0.448973163164407
1782987867006921200,8.627921142578124,-0.771416918694973,-0.3461459720268845,0.43938729643449187
1782987867016996000,8.63799609375,-0.6783224554121494,-0.41181291467994446,0.646377457357943
1782987867027070200,8.6480703125,-0.5044534967154264,-0.5326853194653988,0.9390227984089404
1782987867037145000,8.65814501953125,-0.31480829221606255,-0.6199564834222198,1.1060976399861275
1782987867047219200,8.66821923828125,-0.23281156153082846,-0.6731397920772433,0.9702155898563564
1782987867057294000,8.678294189453124,-0.43857437261641025,-0.6071952015265822,0.563058245897293
1782987867067368200,8.6883681640625,-0.9930588514357804,-0.4538938145622611,0.11855368864745833
1782987867077443000,8.698443115234374,-1.6334984431773423,-0.17008038006871937,-0.14733358286740258
1782987867087517000,8.708516845703125,-2.07388658721745,0.2828054264947772,-0.351047334202379
1782987867097591800,8.718591796875,-2.192727486175299,0.7456155379623174,-0.30849636912290007
1782987867107666000,8.728666015625,-1.903113840970397,1.069073585101962,0.05222405800169799
1782987867117740000,8.738739990234375,-1.3319734109044075,1.1644476837545632,0.4872210242224857
1782987867127815000,8.74881494140625,-0.8733844242632388,1.1388497166395186,0.7737390049669891
1782987867137889000,8.758888916015625,-0.7579998032391071,1.1606427385136484,0.9238548937629908
1782987867147964000,8.7689638671875,-1.0045587350934744,1.2343068174004554,0.7579566216845065
1782987867158038000,8.7790380859375,-1.4121721522569655,1.5123568660616873,0.36333296141028404
1782987867168113000,8.78911279296875,-1.7498942870706318,1.7090443902879953,0.07958880189382471
1782987867178187000,8.79918701171875,-1.7298294041633604,1.7511001557290553,0.03172582517846022
1782987867188262000,8.809261962890625,-1.3773165274530648,1.7832295704394578,0.12344913253881967
1782987867198336000,8.8193359375,-0.6607558190613985,1.7387109220162034,0.28415801014751196
1782987867208411000,8.829410888671875,0.14424948098063467,1.6602122625797986,0.49612398672215635
1782987867218485000,8.839485107421876,0.7694757214993238,1.5289567032068967,0.7171200958400964
1782987867228559000,8.84955908203125,1.212211305448413,1.3426438580006361,0.8963537964403628
1782987867238634000,8.859634033203125,1.4827052396416662,1.2115145553559064,1.0055236346028744
1782987867248708000,8.8697080078125,1.6595687039792537,1.0845710139632225,1.0543527666363866
1782987867258783000,8.879782958984375,1.7924165009796618,0.9675959088772534,1.09752781843096
1782987867268857000,8.889857177734376,1.8817133255451917,0.8419137657225132,1.1928651652697473
1782987867278932000,8.899931884765625,1.838334202545881,0.730804337799549,1.3043703875772654
1782987867289006000,8.910006103515625,1.7665046456098557,0.6810393131554127,1.4074882322244344
1782987867299081000,8.9200810546875,1.5654624333053826,0.6927572234779595,1.4488054542578757
1782987867309155000,8.930155029296875,1.261840721014142,0.7101835745751858,1.4479944301359355
1782987867319230000,8.94022998046875,0.8141027987331152,0.7647510310649871,1.3870479401335118
1782987867329304000,8.950303955078125,0.3881166895329952,0.8113695743769407,1.298152389845252
1782987867339379000,8.96037890625,0.05189736049771308,0.8798439756661653,1.2414362308889626
1782987867349453000,8.970453125,-0.1652495989114046,0.8994669600248336,1.1888152322918175
1782987867359527000,8.98052685546875,-0.3566571369081735,0.8971806026533246,1.2112370535887778
1782987867369602000,8.99060205078125,-0.5680868877142667,0.9141656397238374,1.2437620434880257
1782987867379676000,9.000676025390625,-0.732906278514862,0.9363315865635872,1.1883254029482602
1782987867389751000,9.0107509765625,-0.7314017191708088,0.9773930802702904,1.0943931736670434
1782987867399825000,9.020824951171875,-0.580457124465704,0.9616098202049732,1.043649805510044
1782987867409900000,9.030900146484376,-0.354283978036046,0.9023334553718566,1.0578812330234795
1782987867419974000,9.040973876953124,-0.10961831258237362,0.8139946621835231,1.0806562516722829
1782987867430049000,9.051049072265625,0.11602876414656639,0.7341220840454101,1.1401753392200917
1782987867440123000,9.061122802734374,0.3358978419959545,0.6338976227521896,1.1616667477991431
1782987867450198000,9.071197998046875,0.5424713849425316,0.47759471588432784,1.2434320808812975
1782987867460271900,9.08127197265625,0.6825994020789862,0.32777006511986256,1.3216153907582162
1782987867470346000,9.091345947265625,0.7759656680405139,0.18623919544816017,1.3872927086748181
1782987867480420900,9.1014208984375,0.7677291700929403,0.09339140040278435,1.4072072233259678
1782987867490495000,9.111494873046874,0.6810258691519498,0.010695581537485122,1.4223345037005841
1782987867500569900,9.12156982421875,0.5326730445057153,-0.07553601023852825,1.464016613523662
1782987867510644000,9.13164404296875,0.2899778023421764,-0.11620879688858986,1.5083048141919075
1782987867520718800,9.14171875,-0.02192541608214378,-0.15173311473429202,1.5420527700148523
1782987867530793000,9.15179296875,-0.3154495127290487,-0.17259879263043404,1.6572338312909005
1782987867540868000,9.1618681640625,-0.5432973143726587,-0.20307108778357505,1.745915300437063
1782987867550942000,9.17194189453125,-0.6834054577648639,-0.2219213342040777,1.7990009939365088
1782987867561017000,9.18201708984375,-0.7780769611060618,-0.22361118698716162,1.7738944636002183
1782987867571091000,9.192091064453125,-0.8161193992525339,-0.20135083986222743,1.6607399397157132
1782987867581164800,9.202164794921876,-0.8322118713974952,-0.16573416755795478,1.5345333342954515
1782987867591240000,9.212239990234375,-0.8595932147979736,-0.16308745244145392,1.4661002879299223
1782987867601313800,9.222313720703125,-0.793203803089261,-0.32637890302240846,1.6486635713443158
1782987867611389000,9.232388916015625,-0.5504886871814727,-0.6083809041798114,2.028626472777128
1782987867621462800,9.242462890625,-0.3298720058351755,-0.7000175698697566,2.136436420763284
1782987867631538000,9.252537841796874,-0.4714321016013622,-0.6201619428664445,1.9317733876131473
1782987867641611800,9.26261181640625,-1.0409095668911934,-0.39203240167200565,1.5307269277498126
1782987867651687000,9.27268701171875,-1.9289315883159637,0.01759410887956619,1.0732741055317223
1782987867661761000,9.282760986328125,-2.873683797222376,0.5526841513991355,0.6564376636013388
1782987867671836000,9.2928359375,-3.4212592273056504,1.247894320987165,0.4584136300742626
1782987867681910000,9.302909912109374,-3.232385007178783,1.909555272194743,0.5280270087981597
1782987867691984000,9.31298388671875,-2.2759645723104476,2.223189259934425,0.7996881236072629
1782987867702059000,9.32305908203125,-0.9806021054446696,2.109899857623875,1.2454171172186732
1782987867712132900,9.3331328125,0.3404378235131502,1.6764745383337138,1.812102467571944
1782987867722208000,9.3432080078125,1.489852188786864,1.1612450883209704,2.3063705242291093
1782987867732281900,9.35328173828125,2.224874436542392,0.7503513343125582,2.5531962903261185
1782987867742357000,9.36335693359375,2.542396663892269,0.4809656536221504,2.5427877090364692
1782987867752430800,9.373430908203124,2.544263042286038,0.4059761713504791,2.476638535824418
1782987867762506000,9.383506103515625,2.296266186583042,0.5010562554925679,2.38578980564177
1782987867772579800,9.393579833984376,1.7343085954040287,0.7821171764075756,2.168783569877595
1782987867782655000,9.403655029296875,1.0433885242253542,1.1442334555044769,1.87421917039752
1782987867792728800,9.413728759765625,0.22097499326467512,1.4883315550908445,1.5841431683778762
1782987867802803000,9.423802978515624,-0.6785960116565227,1.7786279218629002,1.2617220630705357
1782987867812877800,9.4338779296875,-1.4429863927155733,1.9828288904592393,0.9969063937094061
1782987867822952000,9.443951904296876,-1.9736726473182438,2.078279853740334,0.7686054414708167
1782987867833026800,9.45402685546875,-2.143505482366681,2.0648291282758113,0.5909287610542029
1782987867843101000,9.464100830078126,-2.0054607012450694,1.989271490727365,0.5598566733770072
1782987867853175800,9.47417578125,-1.587552684560418,1.9069769461393355,0.6732479286268354
1782987867863250000,9.48425,-0.9676642979383469,1.8399226407811045,0.9267734846234321
1782987867873324800,9.49432470703125,-0.3531318853914738,1.7579419844478368,1.141972817096114
1782987867883399000,9.50439892578125,0.12063012046217918,1.6215969929814338,1.3343755036100744
1782987867893473800,9.514473876953126,0.5193319168955087,1.5078005179315805,1.4427132748626172
1782987867903548000,9.5245478515625,0.791443223157525,1.4275938855335115,1.4702952554017306
1782987867913622000,9.5346220703125,0.9716156659126282,1.3213520636469125,1.5325822002276777
1782987867923697000,9.54469677734375,1.0023697006165981,1.1772343923524022,1.585353713211417
1782987867933771000,9.55477099609375,0.9112982675939798,1.0300947428882121,1.6243571053445338
1782987867943846000,9.564845947265624,0.6853010622531175,0.8972598053693771,1.5656792909264563
1782987867953920000,9.574919921875,0.3611597090244293,0.7899024234563112,1.4930192745156585
1782987867963995000,9.584994873046876,0.012862404182553291,0.6712000561863184,1.430261935698986
1782987867974069000,9.595069091796875,-0.3112812871336937,0.5940057573467493,1.29661290531829
1782987867984144000,9.605143798828125,-0.49938510740995407,0.5569003077894449,1.1855837030246854
1782987867994218000,9.615218017578124,-0.6129886902362108,0.5038660522162914,1.0629488916765897
1782987868004292900,9.62529296875,-0.8018138105243444,0.4341971804454922,0.9504729246407747
1782987868014367000,9.635366943359376,-1.0453343975961207,0.3567074057906866,0.8369728021889925
1782987868024441900,9.64544189453125,-1.2256821969181297,0.31473288889229295,0.7571988621197641
1782987868034516000,9.655515869140626,-1.2855366539001465,0.3397308442875743,0.7214092444013803
1782987868044590000,9.665590087890624,-1.2633791826277971,0.4141486641511321,0.7580326095301657
1782987868054665000,9.6756650390625,-1.103378590285778,0.5242354710280895,0.9305338600702583
1782987868064739000,9.685739013671874,-0.9010667964369058,0.617108108253777,1.1855255430966616
1782987868074814000,9.69581396484375,-0.7403373052984475,0.649607525320351,1.4560967803098261
1782987868084888000,9.70588818359375,-0.6507225008249282,0.6447054324924946,1.6352587308481334
1782987868094963200,9.715963134765625,-0.6377683267056942,0.5678659384399652,1.7611505712307989
1782987868105037000,9.726037109375,-0.7237105801463126,0.4659469481885433,1.7636841813616453
1782987868115112200,9.7361123046875,-0.9157657683968543,0.3649924190551042,1.5653525431901216
1782987868125186000,9.74618603515625,-1.120213989752531,0.292660465554893,1.3014748122662305
1782987868135261200,9.75626123046875,-1.1770827089220284,0.08766863884180784,1.2026059303004293
1782987868145335000,9.7663349609375,-0.9458639695405959,-0.19124708673804997,1.28060621176064
1782987868155409200,9.7764091796875,-0.5355997456073761,-0.45198914998471734,1.368128281738609
1782987868165484000,9.786484130859375,-0.19738544336259364,-0.6610103783443569,1.2375116047911345
1782987868175558100,9.79655810546875,-0.1703174036949873,-0.7076791905388236,0.8003254716627299
1782987868185633000,9.806633056640624,-0.5267588520258665,-0.588002717539668,0.22912633367944507
1782987868195707100,9.81670703125,-1.1941712063670158,-0.2799810167238116,-0.04517740459293127
1782987868205782000,9.826781982421876,-1.8148323309272527,0.2469049688130617,-0.16649021008964626
1782987868215856000,9.836856201171875,-2.0849615234613417,0.8519313018679618,-0.04967323187456932
1782987868225931300,9.84693115234375,-1.9572353072583675,1.2573577303811907,0.4211103929225355
1782987868236005000,9.857005126953124,-1.4833984826028346,1.2110559979334472,1.0724687804982065
1782987868246080300,9.867080322265625,-0.8714858971655368,0.9611199908614158,1.6143568125948309
1782987868256154000,9.877154052734374,-0.3794342013835907,0.7728232783615588,1.9389853648185729
1782987868266228000,9.88722802734375,-0.2040887403935194,0.6653498688533902,2.1187238000705837
1782987868276303000,9.89730322265625,-0.4063555260568857,0.8070929199710488,2.02920588010028
1782987868286377000,9.907376953125,-0.8615186299026012,1.1301701510995625,1.605619087126851
1782987868296452000,9.9174521484375,-1.2659738752961158,1.351385090599954,1.1197817358151076
1782987868306526000,9.92752587890625,-1.5975433326989412,1.3796066842168568,0.727782213499397
1782987868316601000,9.93760107421875,-1.814393354988098,1.3411150409981607,0.4257441902030259
1782987868326675000,9.947675048828126,-1.8665040659755467,1.2961013025343417,0.19288005823474377
1782987868336750000,9.95775,-1.7479881611883639,1.1870786177575587,0.12923070248179136
1782987868346824200,9.96782421875,-1.5440198323041199,1.0792273148477076,0.13738993394207208
1782987868356899000,9.977899169921875,-1.225690964746475,0.9939122533947229,0.16136822743341325
1782987868366973200,9.98797314453125,-0.8104156346529722,0.9783666014775633,0.15189020499214528
1782987868377047000,9.998047119140624,-0.34483927334249015,1.0269587829500437,0.20365235827025024
1782987868387122200,10.0081220703125,0.15360650739073753,1.053706212361157,0.3207406414071098
1782987868397196000,10.018196044921876,0.6791799490243197,1.0797083763629198,0.43851774705834684
1782987868407271200,10.028271240234375,1.159188740313053,1.1106681627720594,0.5995578750485554
1782987868417345000,10.038344970703125,1.5115461342006922,1.1143453899800777,0.8229786174975335
1782987868427420200,10.048420166015624,1.671757738944888,1.0992594645291567,1.0850682959608733
1782987868437494000,10.058493896484375,1.6276508861929178,1.1007032335966824,1.2952147289581597
1782987868447569200,10.068569091796874,1.2765712571561336,1.1196566481307149,1.4438907942093908
1782987868457643000,10.07864306640625,0.7948118228077888,1.2296207054108381,1.4204133263796568
1782987868467718100,10.08871826171875,0.40312136644124985,1.3140297579348086,1.3240233286827803
1782987868477792000,10.0987919921875,0.14246435112953185,1.372929982931912,1.3154267652511595
1782987868487866000,10.1088662109375,-0.03558043194711208,1.3597504756242036,1.3632146446034312
1782987868497941000,10.11894091796875,-0.16436872442364692,1.3073217847287655,1.432936123344302
1782987868508015000,10.12901513671875,-0.3283814750164747,1.2855214563310147,1.4313801260739565
1782987868518090000,10.139090087890626,-0.5000508778423071,1.3212956572845578,1.328202952454984
1782987868528164000,10.1491640625,-0.6450777729362249,1.3488091026321052,1.2639670655183493
1782987868538239000,10.159239013671876,-0.7228104164361954,1.3281725573167205,1.2022503948610275
1782987868548313000,10.16931298828125,-0.6746878983020782,1.2895181247517467,1.1439612144343554
1782987868558388000,10.179387939453125,-0.5998012918829918,1.2114739310845732,1.0285811234548687
1782987868568462000,10.189462158203124,-0.4673018699288368,1.1548755532890558,0.9194305745147168
1782987868578537000,10.199536865234375,-0.29198621955513954,1.1033777135029434,0.7887525958340614
1782987868588611000,10.209611083984376,-0.11593991681933402,1.0860670977398752,0.723102823511511
1782987868598685000,10.219684814453124,0.08125614145100116,1.0417509861513972,0.787481918311119
1782987868608760000,10.229760009765625,0.2976911531984806,0.9639347560212016,0.9193442114055156
1782987868618834000,10.239833984375,0.4854623805195093,0.9257213452219962,1.0780325521051883
1782987868628909000,10.249908935546875,0.5660521670162677,0.8674807531774044,1.1934737256221473
1782987868638983000,10.25998291015625,0.5768956325918436,0.8241822941988706,1.2071158089403062
1782987868649058000,10.27005810546875,0.5135030646115541,0.8014642664343118,1.1866525743652134
1782987868659132000,10.2801318359375,0.3643938686400652,0.7891571580469607,1.1256593956768512
1782987868669207000,10.29020703125,0.15717735161483287,0.8114403015255928,1.0549931834317743
1782987868679281000,10.300281005859375,0.004119125756621361,0.8677584010750055,1.0714582882814108
1782987868689356000,10.31035595703125,-0.09661503862440586,0.8490238899886607,1.1866408839274196
1782987868699430000,10.320429931640625,-0.14415654200017453,0.7986755124986171,1.2653585198767483
1782987868709504000,10.33050390625,-0.13017010222375391,0.7861123835235834,1.281132281461358
1782987868719579000,10.340578857421875,-0.16437164703309534,0.7698141596734523,1.2961927802100777
1782987868729653200,10.3506533203125,-0.19737609101235865,0.7619359736442566,1.296397362871468
1782987868739728000,10.360727783203124,-0.2581143450915813,0.7673053917229176,1.2128989954516292
1782987868749802200,10.37080224609375,-0.30161037246882916,0.8034943109571934,1.146050222602859
1782987868759876900,10.380876953125,-0.4040700454682111,0.6880868935793638,1.3015918627746403
1782987868769951200,10.390951171875,-0.4118734126955271,0.37421149829924105,1.702818501510471
1782987868780025900,10.40102587890625,-0.3946925607919693,0.19742519085109234,1.9459626564852892
1782987868790100200,10.411100341796875,-0.6096598380744457,0.17836919272541998,1.8377032111659646
1782987868800174800,10.4211748046875,-1.2854828778862952,0.4349497523784637,1.516939079285413
1782987868810249200,10.431249267578124,-2.4049931032836436,0.7611258263051509,1.1833725297812372
1782987868820323000,10.441322998046875,-3.4196307493209837,0.9747709150731563,1.0762491758197545
1782987868830398200,10.451398193359376,-3.880954713883996,1.2756962278872728,1.1391713498093188
1782987868840472000,10.46147216796875,-3.732557465574145,1.642165733757615,1.099966589885205
1782987868850547200,10.471547119140626,-3.166466135591268,1.8989836092978716,1.0258826781511305
1782987868860621000,10.48162109375,-2.5278654497146604,1.9679741434156894,1.0273982703458517
1782987868870696200,10.4916962890625,-1.8496528844177722,1.9425608852177858,1.1778461675751954
1782987868880770000,10.50177001953125,-1.1149562153548,1.8607786740660666,1.3603658310435711
1782987868890845200,10.51184521484375,-0.2984440173923969,1.7001491361707448,1.5080933633983133
1782987868900919000,10.5219189453125,0.46993514104187484,1.6083827066212892,1.5686325877740979
1782987868910994200,10.531994140625,1.00796123701334,1.5993325542032717,1.62262502085492
1782987868921068000,10.542068115234375,1.1986667642205953,1.620637792560458,1.675704869135469
1782987868931142100,10.55214208984375,0.981170260721445,1.7088205184042453,1.6590341587111352
1782987868941217000,10.562217041015625,0.31377135038375853,1.8717337833225727,1.449110282423347
1782987868951291100,10.572291015625,-0.5368938770711421,2.0663509310156107,1.0838637424767017
1782987868961366000,10.582365966796875,-1.3022557335108518,2.256551431310177,0.6344378671087324
1782987868971440000,10.592440185546875,-1.919544166767597,2.4262930809438226,0.29036205241940916
1782987868981515300,10.602515380859375,-2.3820827678173777,2.4183722248166797,0.20627434080429374
1782987868991589000,10.612589111328125,-2.7530782266795635,2.233311425498128,0.23891974221281706
1782987869001664300,10.622664306640624,-2.8640380169987676,2.0900831042587757,0.21916166023239492
1782987869011738000,10.632738037109375,-2.624551800009608,2.044436036327481,0.2088853270202875
1782987869021813200,10.642813232421876,-2.1938521062910556,2.0478350311160085,0.29666071417219936
1782987869031887000,10.65288720703125,-1.690950515192747,1.9833155049324034,0.42553456604033707
1782987869041961000,10.6629609375,-1.1499188076645135,1.9442431392163038,0.6026430911801756
1782987869052036000,10.6730361328125,-0.6553571748882532,1.9393734873533248,0.7311250941865146
1782987869062110000,10.68310986328125,-0.24087153386771679,1.8949334571242331,0.8158062416501343
1782987869072185000,10.69318505859375,0.13442249897122382,1.817052929586172,0.8608189572006464
1782987869082259000,10.703259033203125,0.39784780995249747,1.6583207497447727,0.8685742475025355
1782987869092334000,10.713333984375,0.5422264702707529,1.5074281774878502,0.8739506798438728
1782987869102408200,10.723408203125,0.48666649561226366,1.3672165737211703,0.7410510065257548
1782987869112483000,10.733483154296875,0.38610476518869397,1.262849605795741,0.6229046657033265
1782987869122557200,10.74355712890625,0.27616788817644117,1.1781295876264573,0.6367163334347308
1782987869132632000,10.753632080078125,0.11937339839935301,1.1358002659410238,0.7140313360445201
1782987869142706200,10.7637060546875,-0.040108723026514054,1.1885633033573626,0.7295638362191617
1782987869152780000,10.773780029296875,-0.06945172188878058,1.2109896546989678,0.7268288582973181
1782987869162855200,10.783855224609376,0.050124505606293675,1.2071750648468733,0.6649158613502979
1782987869172929000,10.793928955078124,0.1847077480971813,1.157743217679858,0.5071836523316801
1782987869183004200,10.804004150390625,0.3345423357337713,1.1202636741131544,0.48793096259012814
1782987869193078000,10.814078125,0.29759704517424107,1.0630810666888952,0.6332260071009397
1782987869203153200,10.824153076171875,0.05286357518136501,1.0373241096198558,0.6589910013459622
1782987869213227000,10.83422705078125,-0.2300426813393831,1.1949702477902173,0.5676020268067717
1782987869223302100,10.84430224609375,-0.42680853149890896,1.3719418486773967,0.4378925278320908
1782987869233376000,10.8543759765625,-0.41805122454762456,1.3944073629856109,0.3750483875147998
1782987869243451100,10.864451171875,-0.2624327928125858,1.380951084563136,0.3087763185754418
1782987869253525000,10.87452490234375,-0.045298692885041236,1.3032225327163933,0.2795864644482732
1782987869263599000,10.88459912109375,0.023538696497678754,1.1865192303091288,0.4775803950980305
1782987869273674000,10.894674072265625,-0.21380700133144853,1.1240829401403665,0.8743542922087013
1782987869283748000,10.904748046875,0.08227730119228363,1.1200608450174332,1.2314338923126458
1782987869293823000,10.914822998046875,0.8049895179510116,0.7972966253608464,1.774089840041846
1782987869303897000,10.92489697265625,0.9530798922687769,0.4272515990912914,1.5647463939905166
1782987869313972000,10.934971923828124,1.0761872164994477,0.2642816355496645,1.3643554852016269
1782987869324046000,10.945046142578125,0.8166483915627002,-0.14275310494303703,1.2562705196663737
1782987869334121000,10.955120849609376,0.7240209612697363,-0.7815174569487571,1.0806617315649987
1782987869344195000,10.965195068359375,0.4510802184462547,-1.2241384746074675,0.4087323381908238
1782987869354270000,10.97527001953125,-0.029490882900357243,-1.2354384517788886,-0.2662199101358652
1782987869364344000,10.985343994140624,-0.7647755809843539,-1.0719184531390666,-0.21216244899481534
1782987869374419200,10.995419189453125,-1.8253718451201915,-0.4047328932911157,-0.1400593358144164
1782987869384493000,11.0054931640625,-3.0773937674313783,0.7805360446959734,-0.27327231286540626
1782987869394567000,11.01556689453125,-3.681460315543413,1.820398732882738,-0.060550914813578126
1782987869404642000,11.02564208984375,-3.4901503927022217,2.230972168895602,0.37174934596940873
1782987869414716000,11.0357158203125,-2.6915163812577725,2.1408096674114465,0.8088980696968734
1782987869424791000,11.045791015625,-1.8099837218523025,1.8768682236015795,1.027319725216925
1782987869434865000,11.055864990234374,-0.8591472245961427,1.4992209056347607,1.2314188408739863
1782987869444940000,11.06593994140625,-0.050526656666398044,1.0462398220032454,1.3356830790773033
1782987869455014000,11.076013916015626,0.5180938995331525,0.7742693855166435,1.328707540976256
1782987869465089000,11.086089111328125,0.7824094373524189,0.7556774977713823,1.1413419718466697
1782987869475163000,11.096162841796875,0.7132499764084815,0.874141380110383,0.8569913617365061
1782987869485238000,11.106238037109375,0.40985096695721146,1.0073299533724784,0.5831931253008544
1782987869495312100,11.11631201171875,-0.03993862715661525,1.1869815871238707,0.39159035699293016
1782987869505386200,11.12638623046875,-0.5086696531057358,1.4257090947002171,0.29251696543097494
1782987869515461000,11.136461181640625,-0.9954664970993995,1.6433774476349352,0.22933277950435876
1782987869525535200,11.14653515625,-1.3619377565354107,1.7547814745903014,0.1718694554425776
1782987869535610000,11.156610107421875,-1.359262984368205,1.7770529276311398,0.2381269113346934
1782987869545684200,11.166684326171875,-0.9895984818488359,1.6954238612145185,0.3587960486330092
1782987869555759000,11.176759033203124,-0.37636838407218454,1.4980968700408934,0.5402013941839338
1782987869565833200,11.186833251953125,0.30650983494818207,1.2991717960208653,0.7212867140002548
1782987869575908000,11.196908203125,0.8984440467178821,1.0462433291345834,0.8388065934874117
1782987869585982200,11.206982177734375,1.3716349746853111,0.8968839577943086,0.9172511846490203
1782987869596057000,11.21705712890625,1.6823013447910546,0.8161556396096944,1.021947530659288
1782987869606131200,11.227131103515624,1.7755740872502326,0.7861632369279861,1.1222589395835996
1782987869616205000,11.237205078125,1.5785416951090097,0.8507517366945743,1.2140388131365178
1782987869626280200,11.2472802734375,1.076981581747532,0.916020035418868,1.2104071786358952
1782987869636354300,11.257354248046875,0.24765958657264708,1.0046230325013399,1.0353516405031085
1782987869646429200,11.26742919921875,-0.3957978916853666,1.1636077257990836,0.7762278261080384
1782987869656503300,11.27750341796875,-0.6758335612058639,1.2219617150902748,0.5826137179777026
1782987869666578200,11.287578125,-0.5819932479918003,1.083208493438363,0.4441404823109507
1782987869676652300,11.29765234375,-0.2782207290530205,0.8593436239510774,0.3279609115168452
1782987869686727200,11.30772705078125,-0.14973288082778452,0.6986211470752954,0.15187252320498226
1782987869696801300,11.31780126953125,-0.132960025203228,0.7053256131500005,-0.13951368463039399
1782987869706876200,11.327876220703125,-0.6272194601625204,0.8004261555582285,-0.5041263105876743
1782987869716950300,11.3379501953125,-1.2706553111106156,0.8392150281578302,-0.9423146064959466
1782987869727024000,11.348024169921874,-1.592256332206726,0.7904898679554462,-1.131293894432485
1782987869737099300,11.358099365234375,-1.9753502251416444,0.7656403811201453,-1.1829432715184987
1782987869747173000,11.368173095703124,-2.0566759246975184,0.7263967504903673,-1.2390882064580917
1782987869757248300,11.378248291015625,-1.7847113334298133,0.6513561225533485,-1.2094481243453918
1782987869767322000,11.388322021484376,-1.3555758202880621,0.7575777784347534,-0.9805281634256243
1782987869777397200,11.398397216796875,-1.0756044481754303,0.8872221032187342,-0.43644159837141633
1782987869787471000,11.40847119140625,-0.9812357271730899,0.9611819501817226,0.09782412215322256
1782987869797546200,11.418546142578125,-1.1390332565128802,0.7914946610838174,-0.0053417994193732735
1782987869807620000,11.4286201171875,-2.7737977741032838,-0.8076622442916035,-2.082148511867225
1782987869817695200,11.4386953125,-0.36244215005040165,1.1995154900044203,0.44684097344130275
1782987869827769000,11.44876904296875,-0.4683820663809776,0.36650282361805436,0.9630717094510793
1782987869837843200,11.45884326171875,-0.2545236271232366,0.3594704407632351,1.0127610385105013
1782987869847918000,11.46891796875,-1.03147889072299,0.12314473363161087,-0.1229741993702948
1782987869857992200,11.4789921875,-1.3287462655514477,0.3819017605409026,-0.36643048903420566
1782987869868067000,11.489067138671874,-1.2651128745526075,0.540461798685789,-0.3697191553160548
1782987869878141200,11.49914111328125,-1.3577461500644683,0.34125849224627014,-0.3306239932462573
1782987869888216000,11.509216064453126,-1.3513731079012155,-0.09376870928257704,-0.44353652506843205
1782987869898290200,11.519290283203125,-0.7800403701335191,-0.15929010598510504,-0.637449762275815
1782987869908365000,11.529364990234376,-0.2848860321611166,0.0457622187435627,-0.5986145663164556
1782987869918439200,11.539439208984374,-0.09595335984528064,0.1324137894973159,-0.6071368954680859
1782987869928514000,11.54951416015625,-0.15302257002294062,0.24103432321399448,-0.7432806652739644
1782987869938588200,11.559588134765624,-0.3824970960855484,0.31872926505208016,-0.7916076199389994
1782987869948662000,11.569662109375,-0.6975462113201618,0.5242763875603675,-0.605195406011492
1782987869958737200,11.579737060546876,-0.9987959337830543,0.7874070995092392,-0.30258813145980235
1782987869968811000,11.58981103515625,-1.0996452489763497,0.8730047772958874,0.0007103402264416217
1782987869978886100,11.59988623046875,-0.9781611420333385,0.8683315247878431,0.29945699382722374
1782987869988960000,11.6099599609375,-0.8710901758462191,0.9725275200605392,0.39235315805897114
1782987869999035100,11.62003515625,-0.8360287993371486,0.967234966610372,0.22516177743002772
1782987870009109000,11.63010888671875,-0.8160434114068746,0.9475886013761162,-0.025736644933372733
1782987870019184000,11.64018408203125,-0.6193272456079721,0.8983294804275035,-0.37609760430678724
1782987870029258000,11.650258056640626,-0.15073942752182481,0.7565472663432359,-0.5580019854210316
1782987870039332000,11.66033203125,0.34892741943895816,0.5985685352176427,-0.5417153058782219
1782987870049407000,11.670406982421875,0.8228390628963709,0.5880974100857973,-0.46738121877536176
1782987870059481000,11.680481201171874,1.1235650537461042,0.6876338891148567,-0.3191588886409998
1782987870069556000,11.690555908203125,1.2307850730150938,0.8062187674850225,-0.12102803373858331
1782987870079630000,11.700630126953126,1.0912515146404504,0.8947855242103337,0.13534399773031472
1782987870089705700,11.710705810546875,0.7455956642180681,0.9547662379205226,0.25213117902874943
1782987870099779800,11.72077978515625,0.2899526679009199,0.9980445308938621,0.1984368521116674
1782987870109854700,11.730854736328125,-0.2974643587052822,1.0451973272129893,0.1479497968032956
1782987870119928800,11.7409287109375,-0.7106868479222059,1.1307298308089375,0.11982727964669465
1782987870130003700,11.751003662109374,-0.8040922768503427,1.1808128353610634,0.04722907642573118
1782987870140077800,11.761077880859375,-0.6054828446507453,1.1172808589100838,-0.004658931721746922
1782987870150153000,11.771153076171874,-0.3178630036115646,1.0527125251486897,0.0996519221022725
1782987870160226800,11.781226806640625,-0.0913321297854185,1.0221329702287911,0.28838819506317376
1782987870170300700,11.79130078125,0.1437818634688854,1.0387257931113243,0.4130219982087612
1782987870180375800,11.801375732421874,0.3416962991416454,1.0606704984158277,0.551831041701138
1782987870190449700,11.81144970703125,0.4670002566337585,0.9958756624221801,0.670924746376276
1782987870200524800,11.82152490234375,0.6191892984420061,0.8357809620559215,0.5949067978397011
1782987870210598700,11.8315986328125,0.765364779049158,0.6818371855348349,0.3543988365873694
1782987870220673800,11.841673828125,0.8343091359376907,0.5723270095020532,0.15345482396036386
1782987870230747600,11.85174755859375,0.7898141606509685,0.4888566991329193,0.04506722221672535
1782987870240822800,11.86182275390625,0.5935726266264915,0.5066951381623744,0.005412380437552928
1782987870250896600,11.871896728515624,0.30938626716732975,0.6155027188837527,-0.03205079651623964
1782987870260970800,11.881970703125,0.11270458815991878,0.7278548403441906,-0.12353051807880401
1782987870271045600,11.892045654296876,0.18746026167571544,0.8700058877408504,-0.10367927792221307
1782987870281119700,11.90211962890625,0.2839519661813974,0.6675280896753072,0.13805530251562595
1782987870291195000,11.91219482421875,0.2724842312276363,0.32659809873104095,0.41949908526837826
1782987870301268700,11.922268798828124,-0.0718909317344427,0.4713724803686142,0.4499912541657686
1782987870311343900,11.93234375,-0.26146833169460293,0.6731032594591378,0.14611395967826246
1782987870321417700,11.942417724609374,-0.23672084392905235,0.573522941288352,0.0017919979833066462
1782987870331492900,11.952492919921875,-0.2177951941847801,0.3299339651554823,0.18156068224310873
1782987870341566700,11.962566650390626,-0.13433482068777083,0.2074006414204836,0.2667762288443744
1782987870351641900,11.972641845703125,0.018892916518449782,0.33101123899817464,0.39903833491131663
