time,seconds_elapsed,z,y,x
1782987858443635500,0.064635498046875,0.01925145834684372,0.09796091914176941,-0.14572738111019135
1782987858453710300,0.07471044921875,0.013642841950058937,0.35700419545173645,-0.11914130300283432
1782987858463784400,0.084784423828125,-0.01359597034752369,0.5362703800201416,-0.12915825843811035
1782987858473859300,0.094859375,-0.049438655376434326,0.6677362322807312,-0.16032549738883972
1782987858483933400,0.104933349609375,-0.09201594442129135,0.7597391605377197,-0.20467032492160797
1782987858494008600,0.115008544921875,-0.14220108091831207,0.7624944448471069,-0.2552115321159363
1782987858504082400,0.12508251953125,-0.18966713547706604,0.7098312377929688,-0.28184419870376587
1782987858514156300,0.13515625,-0.21376687288284302,0.6481266021728516,-0.28213343024253845
1782987858524231400,0.1452314453125,-0.21400150656700134,0.5573724508285522,-0.26089203357696533
1782987858534305300,0.15530517578125,-0.18624550104141235,0.46780794858932495,-0.2390674352645874
1782987858544380400,0.16538037109375,-0.1480453908443451,0.35201209783554077,-0.21068426966667175
1782987858554454300,0.175454345703125,-0.10458473116159439,0.22608426213264465,-0.1935737282037735
1782987858564529400,0.185529296875,-0.058035604655742645,0.13455328345298767,-0.18019907176494598
1782987858574603300,0.195603271484375,0.0026666230987757444,0.09062018245458603,-0.16325363516807556
1782987858584678400,0.205678466796875,0.06854523718357086,0.08624859899282455,-0.12334350496530533
1782987858594752300,0.215752197265625,0.141028493642807,0.10822740197181702,-0.038493864238262177
1782987858604827400,0.225827392578125,0.20420587062835693,0.15790867805480957,0.08446348458528519
1782987858614901500,0.235901611328125,0.2427135705947876,0.24131567776203156,0.22254572808742523
1782987858624976400,0.245976318359375,0.2688003182411194,0.3333859443664551,0.35210371017456055
1782987858635050500,0.256050537109375,0.2882416546344757,0.3801955282688141,0.46544092893600464
1782987858645124400,0.266124267578125,0.2978058457374573,0.37127742171287537,0.5497275590896606
1782987858655199500,0.276199462890625,0.29953718185424805,0.3080076277256012,0.6023340821266174
1782987858665273300,0.2862734375,0.2695007026195526,0.19041894376277924,0.6219727396965027
1782987858675348500,0.296348388671875,0.22641289234161377,0.09863070398569107,0.6238526701927185
1782987858685422300,0.30642236328125,0.18105527758598328,-0.00818016566336155,0.6137049794197083
1782987858695497500,0.31649755859375,0.12459252774715424,-0.10861675441265106,0.593025267124176
1782987858705571300,0.3265712890625,0.07859867066144943,-0.17778198421001434,0.5754385590553284
1782987858715646500,0.336646484375,0.03213503211736679,-0.21450883150100708,0.5624588131904602
1782987858725720300,0.34672021484375,-0.020373715087771416,-0.25029292702674866,0.5315472483634949
1782987858735795500,0.35679541015625,-0.08198807388544083,-0.3347042202949524,0.4754496216773987
1782987858745869300,0.366869384765625,-0.14306634664535522,-0.4541994631290436,0.38810431957244873
1782987858755943400,0.376943359375,-0.1942717432975769,-0.5548163652420044,0.2834000289440155
1782987858766018300,0.387018310546875,-0.23680002987384796,-0.6340919733047485,0.17022180557250977
1782987858776092400,0.397092529296875,-0.2684101462364197,-0.6991490125656128,0.05235268548130989
1782987858786167300,0.407167236328125,-0.287888765335083,-0.7218759059906006,-0.041607629507780075
1782987858796241400,0.417241455078125,-0.28921690583229065,-0.6179276704788208,-0.08934985101222992
1782987858806316300,0.42731640625,-0.285722553730011,-0.41713863611221313,-0.09621760994195938
1782987858816390400,0.437390380859375,-0.2937757074832916,-0.15127740800380707,-0.06597848236560822
1782987858826465300,0.44746533203125,-0.3084433078765869,0.09476619213819504,-0.01290754321962595
1782987858836539400,0.457539306640625,-0.34554222226142883,0.2338966429233551,0.04622528702020645
1782987858846614300,0.4676142578125,-0.3989495038986206,0.2525046765804291,0.08001147955656052
1782987858856688400,0.4776884765625,-0.43267232179641724,0.2196791023015976,0.09876678884029388
1782987858866762500,0.487762451171875,-0.44363123178482056,0.06257709115743637,0.0819300189614296
1782987858876837400,0.49783740234375,-0.43858134746551514,-0.2252269983291626,0.03434412553906441
1782987858886911500,0.507911376953125,-0.44966408610343933,-0.547385036945343,-0.05169062316417694
1782987858896986400,0.517986328125,-0.49757328629493713,-0.8023750185966492,-0.15984958410263062
1782987858907060500,0.528060546875,-0.5720059871673584,-0.9385874271392822,-0.26712703704833984
1782987858917135400,0.53813525390625,-0.6629319190979004,-0.9060617089271545,-0.34664422273635864
1782987858927209500,0.54820947265625,-0.7527638077735901,-0.724834144115448,-0.393354207277298
1782987858937284400,0.558284423828125,-0.8365606665611267,-0.4730391800403595,-0.4220268726348877
1782987858947358500,0.5683583984375,-0.8877533078193665,-0.24139131605625153,-0.4383872151374817
1782987858957433300,0.578433349609375,-0.8865849375724792,-0.06012672185897827,-0.42900142073631287
1782987858967507500,0.588507568359375,-0.8442907929420471,0.08434098213911057,-0.3854387700557709
1782987858977582300,0.598582275390625,-0.7751274108886719,0.18991906940937042,-0.2894829511642456
1782987858987656400,0.608656494140625,-0.698087751865387,0.28029078245162964,-0.14263784885406494
1782987858997730600,0.61873046875,-0.625090479850769,0.4066910743713379,0.05727420747280121
1782987859007805400,0.628805419921875,-0.5542802810668945,0.5082824230194092,0.27380651235580444
1782987859017879600,0.638879638671875,-0.49049222469329834,0.510836124420166,0.4635849595069885
1782987859027954400,0.648954345703125,-0.4215136766433716,0.3929837644100189,0.6013119220733643
1782987859038028500,0.659028564453125,-0.35979944467544556,0.22777724266052246,0.6698547601699829
1782987859048103400,0.669103515625,-0.29364386200904846,0.03332679718732834,0.6872004866600037
1782987859058177500,0.679177490234375,-0.21961916983127594,-0.14876684546470642,0.67418372631073
1782987859068252400,0.68925244140625,-0.14597319066524506,-0.28574520349502563,0.6440314650535583
1782987859078326800,0.699326904296875,-0.08316972106695175,-0.38982605934143066,0.5822921991348267
1782987859088402000,0.70940185546875,-0.053233128041028976,-0.4579393267631531,0.4924147427082062
1782987859098475800,0.719475830078125,-0.05782921239733696,-0.45768794417381287,0.3902186155319214
1782987859108551000,0.729551025390625,-0.08991976827383041,-0.40257593989372253,0.28596118092536926
1782987859118624800,0.739624755859375,-0.14317713677883148,-0.25767946243286133,0.20474408566951752
1782987859128698600,0.74969873046875,-0.20672468841075897,-0.09024228155612946,0.15994572639465332
1782987859138773800,0.759773681640625,-0.2595149278640747,0.07203291356563568,0.1519586443901062
1782987859148847600,0.76984765625,-0.2763431668281555,0.20467165112495422,0.17332758009433746
1782987859158922800,0.7799228515625,-0.2581002414226532,0.2602270543575287,0.20222048461437225
1782987859168996600,0.78999658203125,-0.2199195772409439,0.2707201838493347,0.22737909853458405
1782987859179071700,0.80007177734375,-0.16632665693759918,0.2647070288658142,0.24192793667316437
1782987859189145600,0.8101455078125,-0.12624715268611908,0.26451581716537476,0.24054443836212158
1782987859199220700,0.820220703125,-0.08293003588914871,0.26846954226493835,0.22646509110927582
1782987859209294800,0.830294921875,-0.03153742104768753,0.25517797470092773,0.18979230523109436
1782987859219369700,0.84036962890625,0.01974148117005825,0.20922645926475525,0.13006453216075897
1782987859229443800,0.85044384765625,0.057912301272153854,0.14538834989070892,0.06758490204811096
1782987859239517700,0.860517578125,0.0744665116071701,0.060737382620573044,0.008595085702836514
1782987859249592800,0.8705927734375,0.07086538523435593,-0.007476558443158865,-0.03909200802445412
1782987859259666700,0.880666748046875,0.06337311118841171,-0.05378919467329979,-0.06339921057224274
1782987859269741800,0.890741943359375,0.04312776401638985,-0.08900816738605499,-0.06476514786481857
1782987859279815700,0.900815673828125,0.0024807346053421497,-0.10898400843143463,-0.05059340223670006
1782987859289890800,0.910890869140625,-0.05089700222015381,-0.1113630086183548,-0.01841016672551632
1782987859299964700,0.920964599609375,-0.11170362681150436,-0.10033565759658813,0.019306320697069168
1782987859310039800,0.931039794921875,-0.16203497350215912,-0.07117217779159546,0.054419830441474915
1782987859320113700,0.94111376953125,-0.2019357830286026,-0.027127491310238838,0.07431390881538391
1782987859330188800,0.951188720703125,-0.2288867086172104,0.0060019660741090775,0.07337834686040878
1782987859340262700,0.9612626953125,-0.24940423667430878,0.032830916345119476,0.05151645466685295
1782987859350337800,0.971337890625,-0.27303898334503174,0.09175281971693039,0.017724135890603065
1782987859360411600,0.98141162109375,-0.2947821021080017,0.14775830507278442,-0.03356648236513138
1782987859370485800,0.99148583984375,-0.3204328715801239,0.19641532003879547,-0.10220972448587418
1782987859380560600,1.001560546875,-0.34452223777770996,0.23615847527980804,-0.17709195613861084
1782987859390634800,1.011634765625,-0.3599696159362793,0.2639557421207428,-0.24682842195034027
1782987859400709600,1.021709716796875,-0.37389716506004333,0.2950313687324524,-0.3130607008934021
1782987859410783700,1.03178369140625,-0.3844890892505646,0.3052685558795929,-0.37258049845695496
1782987859420858600,1.041858642578125,-0.39741232991218567,0.2815536558628082,-0.43036308884620667
1782987859430932700,1.0519326171875,-0.4050425589084625,0.2303306758403778,-0.4673083424568176
1782987859441007600,1.062007568359375,-0.4150978624820709,0.18993371725082397,-0.47317206859588623
1782987859451081700,1.072081787109375,-0.39333397150039673,0.20412996411323547,-0.42733561992645264
1782987859461156600,1.082156494140625,-0.3433842658996582,0.25605309009552,-0.32447686791419983
1782987859471230700,1.092230712890625,-0.24458524584770203,0.28143301606178284,-0.19579879939556122
1782987859481304600,1.1023046875,-0.09809514135122299,0.24458257853984833,-0.04115116596221924
1782987859491379700,1.112379638671875,0.03671247512102127,0.13949771225452423,0.10807853192090988
1782987859501453600,1.12245361328125,0.1326480507850647,-0.04273068532347679,0.23129794001579285
1782987859511528700,1.13252880859375,0.19349995255470276,-0.25076910853385925,0.30765581130981445
1782987859521602600,1.1426025390625,0.21135751903057098,-0.3659958243370056,0.34573715925216675
1782987859531677700,1.152677734375,0.1814161241054535,-0.3439810872077942,0.34708818793296814
1782987859541751600,1.16275146484375,0.1070026159286499,-0.391932874917984,0.2986319661140442
1782987859551826700,1.17282666015625,0.01059219054877758,-0.5247763991355896,0.18215729296207428
1782987859561900500,1.182900634765625,-0.08109112083911896,-0.7437862753868103,0.024022778496146202
1782987859571975700,1.1929755859375,-0.13785827159881592,-0.9543182253837585,-0.15565909445285797
1782987859582049500,1.203049560546875,-0.1582849770784378,-0.8892092704772949,-0.2922004461288452
1782987859592124700,1.213124755859375,-0.14673538506031036,-0.5487086772918701,-0.32379645109176636
1782987859602198500,1.223198486328125,-0.10020463168621063,-0.07044966518878937,-0.22606483101844788
1782987859612272600,1.233272705078125,-0.03600194305181503,0.412139892578125,-0.02510135807096958
1782987859622347500,1.243347412109375,0.030846862122416496,0.6156474947929382,0.19007672369480133
1782987859632421600,1.253421630859375,0.1114511638879776,0.5411844253540039,0.3637406527996063
1782987859642496500,1.26349658203125,0.1842028647661209,0.3328935503959656,0.45767781138420105
1782987859652570600,1.273570556640625,0.218978151679039,0.04386492446064949,0.47674018144607544
1782987859662645500,1.2836455078125,0.212833970785141,-0.20146387815475464,0.43321534991264343
1782987859672719600,1.2937197265625,0.17012405395507812,-0.3128140866756439,0.33663448691368103
1782987859682794500,1.30379443359375,0.12230513989925385,-0.3167390525341034,0.21629555523395538
1782987859692868600,1.31386865234375,0.08178114891052246,-0.21505850553512573,0.10283370316028595
1782987859702943500,1.323943603515625,0.06574466079473495,-0.06953806430101395,0.015484417788684368
1782987859713017600,1.334017578125,0.07557491958141327,0.06283142417669296,-0.041972216218709946
1782987859723091700,1.344091796875,0.09826984256505966,0.14233024418354034,-0.058167699724435806
1782987859733166600,1.35416650390625,0.1383805125951767,0.16532397270202637,-0.03952796757221222
1782987859743240700,1.36424072265625,0.18580715358257294,0.13572826981544495,0.016865000128746033
1782987859753315600,1.374315673828125,0.23180952668190002,0.06508658826351166,0.0862392783164978
1782987859763389700,1.3843896484375,0.2675057351589203,-0.02003149874508381,0.16292713582515717
1782987859773464600,1.394464599609375,0.29089441895484924,-0.10816188901662827,0.23741121590137482
1782987859783538700,1.40453857421875,0.31289851665496826,-0.1771542727947235,0.30590933561325073
1782987859793613600,1.414613525390625,0.34154775738716125,-0.18107284605503082,0.37432432174682617
1782987859803687700,1.424687744140625,0.3670576214790344,-0.12586446106433868,0.42098692059516907
1782987859813762600,1.434762451171875,0.39198774099349976,-0.03708158805966377,0.4420405328273773
1782987859823836700,1.444836669921875,0.40551501512527466,0.05971046909689903,0.4303109049797058
1782987859833910800,1.454910888671875,0.40465667843818665,0.1276298612356186,0.4000541865825653
1782987859843986000,1.46498583984375,0.3838028013706207,0.18090108036994934,0.3758428692817688
1782987859854059800,1.475059814453125,0.33905476331710815,0.21905192732810974,0.362488716840744
1782987859864135000,1.485135009765625,0.27187997102737427,0.19713756442070007,0.35891395807266235
1782987859874208800,1.495208740234375,0.19686193764209747,0.14410844445228577,0.34794092178344727
1782987859884284000,1.505283935546875,0.10656292736530304,0.07096818089485168,0.3285147547721863
1782987859894357800,1.515357666015625,0.02323581464588642,-0.02538471855223179,0.29793474078178406
1782987859904433000,1.525432861328125,-0.04699813574552536,-0.13353462517261505,0.24079343676567078
1782987859914506800,1.5355068359375,-0.0961768627166748,-0.19618548452854156,0.17196190357208252
1782987859924582000,1.545581787109375,-0.13818290829658508,-0.19840602576732635,0.10685880482196808
1782987859934655700,1.55565576171875,-0.17555131018161774,-0.18628278374671936,0.05031963065266609
1782987859944731000,1.56573095703125,-0.2017379105091095,-0.17902088165283203,-0.013377324678003788
1782987859954804700,1.5758046875,-0.2109260857105255,-0.19612263143062592,-0.06361626088619232
1782987859964878800,1.58587890625,-0.21408885717391968,-0.24894803762435913,-0.0906478762626648
1782987859974953700,1.59595361328125,-0.2129404991865158,-0.32588303089141846,-0.09387776255607605
1782987859985027800,1.60602783203125,-0.2064514458179474,-0.4176108241081238,-0.07326382398605347
1782987859995102700,1.616102783203125,-0.19478999078273773,-0.5253183841705322,-0.046847399324178696
1782987860005176800,1.6261767578125,-0.18372082710266113,-0.6194672584533691,-0.00765845226123929
1782987860015251700,1.636251708984375,-0.17810289561748505,-0.6038385033607483,0.02839701995253563
1782987860025325800,1.646325927734375,-0.1803966760635376,-0.4865962862968445,0.0713769793510437
1782987860035400700,1.656400634765625,-0.21484120190143585,-0.32016441226005554,0.11302215605974197
1782987860045474800,1.666474853515625,-0.26678669452667236,-0.15437465906143188,0.14729304611682892
1782987860055549700,1.6765498046875,-0.30893680453300476,-0.010993262752890587,0.17451348900794983
1782987860065623800,1.686623779296875,-0.3195529580116272,0.0823577269911766,0.19130951166152954
1782987860075698000,1.696697998046875,-0.3194773197174072,0.10404224693775177,0.19737033545970917
1782987860085773000,1.70677294921875,-0.30072149634361267,0.05482463166117668,0.2030700296163559
1782987860095847000,1.716846923828125,-0.2739814817905426,-0.0003989415417890996,0.19580918550491333
1782987860105922000,1.726922119140625,-0.24526329338550568,-0.02983805723488331,0.17856068909168243
1782987860115996000,1.736995849609375,-0.23064333200454712,0.001026382320560515,0.14173556864261627
1782987860126071000,1.747071044921875,-0.2158593237400055,0.1425478309392929,0.10190718621015549
1782987860136145000,1.757144775390625,-0.19232124090194702,0.23208729922771454,0.03413959592580795
1782987860146220000,1.767219970703125,-0.169402614235878,0.15899817645549774,-0.08244214206933975
1782987860156294000,1.7772939453125,-0.18493816256523132,-0.12279915809631348,-0.26922082901000977
1782987860166369000,1.787369140625,-0.25793832540512085,-0.5112784504890442,-0.5133477449417114
1782987860176443000,1.79744287109375,-0.39592576026916504,-0.7478028535842896,-0.7557957768440247
1782987860186517000,1.80751708984375,-0.548494815826416,-0.7739484310150146,-0.9418580532073975
1782987860196591900,1.817591796875,-0.6946461796760559,-0.5473296642303467,-1.0545576810836792
1782987860206666000,1.827666015625,-0.8145976066589355,-0.14041410386562347,-1.057831048965454
1782987860216740900,1.837740966796875,-0.8852241039276123,0.3122282028198242,-0.9328024983406067
1782987860226815000,1.84781494140625,-0.9005386233329773,0.6861541271209717,-0.7198926210403442
1782987860236889900,1.857889892578125,-0.8548616766929626,0.9109086990356445,-0.47293347120285034
1782987860246964000,1.8679638671875,-0.771388590335846,0.9937777519226074,-0.24550244212150574
1782987860257038800,1.878038818359375,-0.6606024503707886,0.8509028553962708,-0.06278961151838303
1782987860267113000,1.888113037109375,-0.5260707139968872,0.5789546966552734,0.09219969809055328
1782987860277187800,1.898187744140625,-0.38307762145996094,0.2737828195095062,0.2592177093029022
1782987860287262000,1.908261962890625,-0.24250957369804382,0.029688119888305664,0.4332350492477417
1782987860297336800,1.9183369140625,-0.1380007416009903,-0.1470554918050766,0.5903077721595764
1782987860307411000,1.928410888671875,-0.09674971550703049,-0.24108505249023438,0.7006102800369263
1782987860317484800,1.93848486328125,-0.11015153676271439,-0.2558160722255707,0.749190092086792
1782987860327560000,1.948559814453125,-0.17330147325992584,-0.2331530898809433,0.7295830845832825
1782987860337633800,1.9586337890625,-0.26975399255752563,-0.2045062631368637,0.6469409465789795
1782987860347709000,1.968708984375,-0.38367363810539246,-0.16671867668628693,0.5267588496208191
1782987860357782800,1.97878271484375,-0.5062040686607361,-0.10050130635499954,0.3968871533870697
1782987860367858000,1.98885791015625,-0.6357556581497192,-0.048832252621650696,0.263902485370636
1782987860377931800,1.998931884765625,-0.7436983585357666,-0.013735253363847733,0.15475043654441833
1782987860388007000,2.0090068359375,-0.8112760782241821,0.0076094502583146095,0.07903783023357391
1782987860398080800,2.019080810546875,-0.8453344702720642,-0.018438395112752914,0.029952039942145348
1782987860408156000,2.029156005859375,-0.8412989974021912,-0.10196125507354736,-0.010272610932588577
1782987860418229800,2.039229736328125,-0.8221311569213867,-0.21127308905124664,-0.0465637743473053
1782987860428304000,2.049303955078125,-0.7911529541015625,-0.31052911281585693,-0.07804526388645172
1782987860438378800,2.059378662109375,-0.7601388692855835,-0.38566115498542786,-0.10557515919208527
1782987860448452900,2.069452880859375,-0.7346788048744202,-0.4236583113670349,-0.1291619837284088
1782987860458528000,2.079528076171875,-0.6975910663604736,-0.4306701719760895,-0.1433957815170288
1782987860468601900,2.089601806640625,-0.6489191651344299,-0.382217139005661,-0.13176175951957703
1782987860478677000,2.099677001953125,-0.6024360656738281,-0.3211500644683838,-0.09238692373037338
1782987860488750800,2.109750732421875,-0.5565282106399536,-0.30468878149986267,-0.03603443503379822
1782987860498826000,2.119825927734375,-0.5214794278144836,-0.3345537483692169,0.03057575225830078
1782987860508899800,2.12989990234375,-0.4976670444011688,-0.39601925015449524,0.11877644807100296
1782987860518974000,2.139973876953125,-0.4785812199115753,-0.45616352558135986,0.2303900569677353
1782987860529048800,2.150048828125,-0.46563559770584106,-0.5118963122367859,0.35204699635505676
1782987860539123000,2.160123046875,-0.463842511177063,-0.5592217445373535,0.4561329185962677
1782987860549197800,2.17019775390625,-0.4608059525489807,-0.6035860180854797,0.5200639367103577
1782987860559272000,2.18027197265625,-0.4579198956489563,-0.6176352500915527,0.538489580154419
1782987860569346800,2.190346923828125,-0.45923709869384766,-0.5997015237808228,0.4980505406856537
1782987860579421000,2.2004208984375,-0.46475836634635925,-0.543189525604248,0.42007529735565186
1782987860589495800,2.210495849609375,-0.4789671301841736,-0.40650463104248047,0.3291107714176178
1782987860599570000,2.22056982421875,-0.5077663064002991,-0.2420768141746521,0.24152420461177826
1782987860609644800,2.230644775390625,-0.5469397902488708,-0.10037587583065033,0.14441150426864624
1782987860619719000,2.240718994140625,-0.5798771977424622,0.02341477759182453,0.03436463326215744
1782987860629793800,2.250793701171875,-0.5917336344718933,0.0879005640745163,-0.08191803842782974
1782987860639868000,2.260867919921875,-0.5633765459060669,0.07536586374044418,-0.18046431243419647
1782987860649942000,2.27094189453125,-0.501045286655426,0.04826127365231514,-0.24970410764217377
1782987860660017000,2.281016845703125,-0.41247040033340454,0.007383880205452442,-0.28010568022727966
1782987860670091000,2.291091064453125,-0.30758020281791687,-0.05806596577167511,-0.2756193280220032
1782987860680166000,2.301165771484375,-0.19441981613636017,-0.10318151116371155,-0.24110156297683716
1782987860690240000,2.311239990234375,-0.07954063266515732,-0.11681609600782394,-0.1935686618089676
1782987860700315000,2.32131494140625,0.035406194627285004,-0.004261856433004141,-0.15722183883190155
1782987860710389000,2.331388916015625,0.1226569414138794,0.09232992678880692,-0.1433020383119583
1782987860720464000,2.3414638671875,0.17006200551986694,-0.07545134425163269,-0.18573445081710815
1782987860730538000,2.3515380859375,0.16577911376953125,-0.3436513841152191,-0.23958170413970947
1782987860740612900,2.36161279296875,0.14737240970134735,-0.7179315090179443,-0.3068765699863434
1782987860750687000,2.37168701171875,0.13507713377475739,-0.9095177054405212,-0.3342759907245636
1782987860760761000,2.381760986328125,0.1125103011727333,-0.6918826103210449,-0.2848604917526245
1782987860770836000,2.3918359375,0.10594667494297028,-0.3014429211616516,-0.15094849467277527
1782987860780910000,2.40191015625,0.1525847464799881,0.10814697295427322,0.04027072340250015
1782987860790985000,2.41198486328125,0.2340841293334961,0.3721109926700592,0.2557300329208374
1782987860801059000,2.42205908203125,0.33452391624450684,0.34095627069473267,0.43239855766296387
1782987860811134000,2.432134033203125,0.44001704454421997,0.14695721864700317,0.5712448358535767
1782987860821208000,2.4422080078125,0.5134257674217224,-0.04423324018716812,0.6658549904823303
1782987860831283000,2.452282958984375,0.5399396419525146,-0.18311522901058197,0.7288722991943359
1782987860841357000,2.462357177734375,0.49724626541137695,-0.21004857122898102,0.755908727645874
1782987860851432000,2.472431884765625,0.41193509101867676,-0.14460964500904083,0.750087559223175
1782987860861506000,2.482506103515625,0.32273730635643005,-0.006196909584105015,0.7109324336051941
1782987860871580000,2.492579833984375,0.2465309500694275,0.1275491714477539,0.6511425971984863
1782987860881655000,2.502655029296875,0.18975821137428284,0.17664746940135956,0.5703575015068054
1782987860891729000,2.51272900390625,0.16087010502815247,0.13040700554847717,0.4811035096645355
1782987860901804000,2.522803955078125,0.15207847952842712,0.04096101596951485,0.4052731990814209
1782987860911878000,2.5328779296875,0.14249509572982788,-0.0656176283955574,0.33806511759757996
1782987860921953000,2.542953125,0.12875930964946747,-0.14914953708648682,0.28581416606903076
1782987860932027000,2.55302685546875,0.11057258397340775,-0.20918144285678864,0.2525763213634491
1782987860942102000,2.56310205078125,0.09063935279846191,-0.25433826446533203,0.23793986439704895
1782987860952175900,2.57317578125,0.07781490683555603,-0.27523157000541687,0.23581412434577942
1782987860962251000,2.5832509765625,0.07574696093797684,-0.2582898736000061,0.24297936260700226
1782987860972324900,2.593324951171875,0.084029920399189,-0.22812078893184662,0.24532561004161835
1782987860982399000,2.60339892578125,0.10419857501983643,-0.17232170701026917,0.2533513009548187
1782987860992473900,2.613473876953125,0.12547962367534637,-0.08339103311300278,0.26642051339149475
1782987861002548000,2.6235478515625,0.13077931106090546,0.030958980321884155,0.2815895974636078
1782987861012622800,2.633622802734375,0.12743252515792847,0.1651892215013504,0.3004181385040283
1782987861022697000,2.643697021484375,0.1190214604139328,0.2663813531398773,0.3257448077201843
1782987861032771800,2.653771728515625,0.11126819998025894,0.3016200363636017,0.3510078191757202
1782987861042846000,2.663845947265625,0.10042300820350647,0.2530178725719452,0.3718137741088867
1782987861052920800,2.6739208984375,0.08692211657762527,0.1501769870519638,0.3778703212738037
1782987861062995000,2.683994873046875,0.07156313210725784,0.04100069776177406,0.36128681898117065
1782987861073069800,2.69406982421875,0.05658098682761192,-0.021458154544234276,0.3109075427055359
1782987861083142700,2.704142578125,0.04747244343161583,-0.03587118163704872,0.24071460962295532
1782987861093217000,2.714217041015625,0.032635439187288284,0.04873131960630417,0.16018754243850708
1782987861103291600,2.724291748046875,0.006680539343506098,0.1555592268705368,0.07084620743989944
1782987861113366000,2.734365966796875,-0.016231434419751167,0.24018409848213196,-0.02321903593838215
1782987861123440600,2.744440673828125,-0.043354663997888565,0.3049316704273224,-0.11275850236415863
1782987861133515000,2.754514892578125,-0.05857356637716293,0.30543553829193115,-0.2099713385105133
1782987861143589600,2.764589599609375,-0.07609103620052338,0.23380370438098907,-0.3015468120574951
1782987861153664000,2.7746640625,-0.09304925054311752,0.11123944073915482,-0.3611725866794586
1782987861163738600,2.784738525390625,-0.1029474213719368,-0.04267475754022598,-0.37878724932670593
1782987861173813000,2.79481298828125,-0.11216302216053009,-0.17537687718868256,-0.35573387145996094
1782987861183887600,2.8048876953125,-0.11677082628011703,-0.27284085750579834,-0.32184648513793945
1782987861193962000,2.8149619140625,-0.11884276568889618,-0.3106310963630676,-0.2831116020679474
1782987861204035800,2.825035888671875,-0.1181415542960167,-0.28302717208862305,-0.2476619929075241
1782987861214111000,2.835111083984375,-0.12460238486528397,-0.235063374042511,-0.22842945158481598
1782987861224184800,2.845184814453125,-0.13157986104488373,-0.18096844851970673,-0.220377117395401
1782987861234260000,2.855260009765625,-0.1564284861087799,-0.12377440184354782,-0.21651339530944824
1782987861244333800,2.865333740234375,-0.20255017280578613,-0.13104137778282166,-0.23041270673274994
1782987861254409000,2.875408935546875,-0.2565937042236328,-0.1327980011701584,-0.24915070831775665
1782987861264482800,2.88548291015625,-0.3229396939277649,-0.011980496346950531,-0.251463383436203
1782987861274558000,2.895557861328125,-0.39653244614601135,-0.006900516804307699,-0.2837129533290863
1782987861284631800,2.9056318359375,-0.4706561863422394,-0.17269347608089447,-0.37258023023605347
1782987861294707000,2.91570703125,-0.5322548151016235,-0.4663408100605011,-0.5074298977851868
1782987861304780800,2.92578076171875,-0.5750260353088379,-0.7259033918380737,-0.6492573618888855
1782987861314855000,2.93585498046875,-0.6223199963569641,-0.8128263354301453,-0.7431913018226624
1782987861324929800,2.9459296875,-0.6698041558265686,-0.6768096089363098,-0.7723627686500549
1782987861335004000,2.95600390625,-0.701594889163971,-0.35883405804634094,-0.7251057624816895
1782987861345078800,2.966078857421875,-0.6994875073432922,0.04986849054694176,-0.5771567821502686
1782987861355153000,2.97615283203125,-0.6616658568382263,0.40795180201530457,-0.3572382926940918
1782987861365227800,2.986227783203125,-0.5905392169952393,0.5572970509529114,-0.11812637001276016
1782987861375302000,2.996302001953125,-0.4924144744873047,0.46294793486595154,0.0972309485077858
1782987861385376800,3.006376708984375,-0.3695186674594879,0.23771882057189941,0.2548200488090515
1782987861395451000,3.016450927734375,-0.24321505427360535,-0.034560106694698334,0.3528243601322174
1782987861405526000,3.026526123046875,-0.1347293257713318,-0.3027327060699463,0.39516517519950867
1782987861415599900,3.036599853515625,-0.07724232226610184,-0.46123045682907104,0.40232694149017334
1782987861425675000,3.046675048828125,-0.07489874213933945,-0.5101559162139893,0.3795877993106842
1782987861435748900,3.056748779296875,-0.11866353452205658,-0.4867731034755707,0.3172767460346222
1782987861445822700,3.06682275390625,-0.19082240760326385,-0.4099094867706299,0.2268909364938736
1782987861455897900,3.07689794921875,-0.2816218137741089,-0.29400500655174255,0.14141279458999634
1782987861465971700,3.0869716796875,-0.3801017999649048,-0.1575840413570404,0.07872330397367477
1782987861476046800,3.097046875,-0.4767361879348755,-0.008206796832382679,0.047640491276979446
1782987861486120700,3.10712060546875,-0.5617482662200928,0.1288812905550003,0.05321448668837547
1782987861496195800,3.11719580078125,-0.6189695000648499,0.21706973016262054,0.0915813148021698
1782987861506269700,3.127269775390625,-0.638019859790802,0.24013777077198029,0.14857615530490875
1782987861516344800,3.1373447265625,-0.623590886592865,0.2031203657388687,0.20197786390781403
1782987861526418700,3.147418701171875,-0.5995702147483826,0.110087089240551,0.23091204464435577
1782987861536492800,3.157492919921875,-0.5759280323982239,-0.016078302636742592,0.22208845615386963
1782987861546568000,3.16756787109375,-0.5551652312278748,-0.14006149768829346,0.1698971539735794
1782987861556641800,3.177641845703125,-0.535731852054596,-0.22003355622291565,0.0797390341758728
1782987861566717000,3.187717041015625,-0.520408034324646,-0.2643706798553467,-0.03362081199884415
1782987861576790800,3.197790771484375,-0.5071356296539307,-0.26745113730430603,-0.14174196124076843
1782987861586866000,3.207865966796875,-0.49920207262039185,-0.23287053406238556,-0.22434255480766296
1782987861596939800,3.217939697265625,-0.49319878220558167,-0.18717467784881592,-0.2658766806125641
1782987861607015000,3.228014892578125,-0.4764472246170044,-0.14589835703372955,-0.2568376362323761
1782987861617088800,3.2380888671875,-0.4483301043510437,-0.10973209142684937,-0.20216241478919983
1782987861627164000,3.248163818359375,-0.40976622700691223,-0.07406863570213318,-0.10199933499097824
1782987861637237800,3.25823779296875,-0.36736470460891724,-0.05576073378324509,0.010463027283549309
1782987861647311600,3.2683115234375,-0.3324975371360779,-0.06108918786048889,0.11284852027893066
1782987861657386800,3.27838671875,-0.3070129454135895,-0.05939541757106781,0.19131669402122498
1782987861667460900,3.2884609375,-0.28530338406562805,-0.027656661346554756,0.25238272547721863
1782987861677535700,3.29853564453125,-0.26272696256637573,0.00974583812057972,0.29356610774993896
1782987861687609900,3.30860986328125,-0.23781175911426544,0.03494866192340851,0.31490254402160645
1782987861697684700,3.318684814453125,-0.21238043904304504,0.05552797392010689,0.3196544349193573
1782987861707758800,3.3287587890625,-0.19168874621391296,0.04278767853975296,0.3251914083957672
1782987861717833700,3.338833740234375,-0.18503722548484802,0.022826218977570534,0.3314567506313324
1782987861727907800,3.348907958984375,-0.19046609103679657,-0.009787117131054401,0.34498268365859985
1782987861737982700,3.358982666015625,-0.19802972674369812,-0.0437469482421875,0.3615257143974304
1782987861748056800,3.369056884765625,-0.19070176780223846,-0.06229719519615173,0.36883875727653503
1782987861758131700,3.379131591796875,-0.17114724218845367,-0.08617616444826126,0.35771578550338745
1782987861768205800,3.389205810546875,-0.13739727437496185,-0.11369061470031738,0.3365767002105713
1782987861778279700,3.39927978515625,-0.10625319927930832,-0.13350532948970795,0.30897143483161926
1782987861788354800,3.409354736328125,-0.08929179608821869,-0.14637425541877747,0.2585300803184509
1782987861798428700,3.4194287109375,-0.07931932061910629,-0.12341620773077011,0.20752975344657898
1782987861808503800,3.42950390625,-0.08093585819005966,-0.017310813069343567,0.16396602988243103
1782987861818577700,3.43957763671875,-0.10374610126018524,0.2358865588903427,0.12766900658607483
1782987861828652800,3.44965283203125,-0.13402438163757324,0.4064420461654663,0.0973377376794815
1782987861838726700,3.4597265625,-0.14039599895477295,0.2576935887336731,0.031864456832408905
1782987861848801800,3.4698017578125,-0.13712961971759796,-0.0775294154882431,-0.07819174230098724
1782987861858875600,3.479875732421875,-0.13556209206581116,-0.5306657552719116,-0.22142294049263
1782987861868950000,3.489949951171875,-0.126401886343956,-0.7495751976966858,-0.3474184274673462
1782987861879024600,3.500024658203125,-0.1295129805803299,-0.6515812277793884,-0.41539984941482544
1782987861889099000,3.51009912109375,-0.13122273981571198,-0.4491671621799469,-0.43091756105422974
1782987861899173600,3.520173583984375,-0.12288597226142883,-0.16895680129528046,-0.3637177646160126
1782987861909248000,3.530248046875,-0.1117158755660057,0.1597590446472168,-0.21220093965530396
1782987861919322600,3.540322509765625,-0.11021704971790314,0.4371677339076996,-0.03133555129170418
1782987861929397000,3.55039697265625,-0.10304862260818481,0.5848948955535889,0.1371501386165619
1782987861939471600,3.5604716796875,-0.06155364215373993,0.6031825542449951,0.2693102955818176
1782987861949546000,3.5705458984375,-0.0010407633380964398,0.47756603360176086,0.35877013206481934
1782987861959620600,3.58062060546875,0.05717407166957855,0.24865828454494476,0.40799787640571594
1782987861969695000,3.590695068359375,0.10428991913795471,-0.026453711092472076,0.41187357902526855
1782987861979768800,3.600768798828125,0.14310656487941742,-0.2762387692928314,0.35167309641838074
1782987861989844000,3.610843994140625,0.18336956202983856,-0.4510028660297394,0.2349129170179367
1782987861999917800,3.620917724609375,0.22551648318767548,-0.5327062606811523,0.08775994926691055
1782987862009993000,3.630992919921875,0.2553561329841614,-0.5188112258911133,-0.051901545375585556
1782987862020066800,3.64106689453125,0.2652638852596283,-0.4512076675891876,-0.1555110365152359
1782987862030142000,3.651141845703125,0.25960174202919006,-0.34904640913009644,-0.20417684316635132
1782987862040215800,3.6612158203125,0.24084696173667908,-0.21980559825897217,-0.18065153062343597
1782987862050291000,3.671291015625,0.20351344347000122,-0.1033112108707428,-0.09461438655853271
1782987862060364800,3.68136474609375,0.15769189596176147,-0.02714506722986698,0.035943884402513504
1782987862070440000,3.69143994140625,0.12039778381586075,0.014623151160776615,0.18328620493412018
1782987862080514600,3.7015146484375,0.0939619168639183,-0.00538464542478323,0.3155968487262726
1782987862090588700,3.711588623046875,0.08763797581195831,-0.087298683822155,0.41062667965888977
1782987862100663600,3.72166357421875,0.09758248180150986,-0.17145511507987976,0.45574355125427246
1782987862110737700,3.731737548828125,0.11236116290092468,-0.2183896005153656,0.455406129360199
1782987862120812500,3.7418125,0.11674525588750839,-0.1974630057811737,0.43450456857681274
1782987862130886700,3.75188671875,0.10875017940998077,-0.12217225134372711,0.3941592872142792
1782987862140961500,3.76196142578125,0.07927005738019943,-0.06055735424160957,0.35144591331481934
1782987862151035600,3.77203564453125,0.042501918971538544,-0.040773261338472366,0.30585259199142456
1782987862161110500,3.782110595703125,-0.00026019083452410996,-0.06447752565145493,0.2555987536907196
1782987862171184600,3.7921845703125,-0.05253191664814949,-0.11954557150602341,0.19405309855937958
1782987862181259500,3.802259521484375,-0.11067431420087814,-0.1899145394563675,0.12352406978607178
1782987862191333600,3.812333740234375,-0.17247803509235382,-0.2532668709754944,0.04409715533256531
1782987862201407700,3.82240771484375,-0.21951824426651,-0.28506582975387573,-0.0392262302339077
1782987862211482600,3.832482666015625,-0.26010480523109436,-0.28217098116874695,-0.1073131412267685
1782987862221556700,3.842556640625,-0.28989705443382263,-0.2370876520872116,-0.15803544223308563
1782987862231631600,3.852631591796875,-0.3057471215724945,-0.2052876353263855,-0.1898370385169983
1782987862241705700,3.862705810546875,-0.31671828031539917,-0.185056671500206,-0.20887412130832672
1782987862251780600,3.872780517578125,-0.3271288573741913,-0.19585072994232178,-0.2049560695886612
1782987862261854700,3.882854736328125,-0.3376462161540985,-0.235378697514534,-0.20246708393096924
1782987862271929600,3.8929296875,-0.35573866963386536,-0.28972530364990234,-0.20305244624614716
1782987862282003700,3.903003662109375,-0.3724135160446167,-0.3195825219154358,-0.21593575179576874
1782987862292078600,3.91307861328125,-0.3901299238204956,-0.26715072989463806,-0.21784764528274536
1782987862302152700,3.923152587890625,-0.40892866253852844,-0.1741507649421692,-0.2079731673002243
1782987862312226600,3.9332265625,-0.42419707775115967,-0.08937009423971176,-0.1784653514623642
1782987862322301700,3.9433017578125,-0.4236585795879364,-0.028297418728470802,-0.11232893913984299
1782987862332375600,3.95337548828125,-0.41387760639190674,0.016157930716872215,-0.0073071811348199844
1782987862342450700,3.96345068359375,-0.4052010178565979,0.0367865115404129,0.11959164589643478
1782987862352524500,3.973524658203125,-0.40102624893188477,0.0018913770327344537,0.2445753961801529
1782987862362598700,3.9835986328125,-0.39302611351013184,-0.0924907848238945,0.3366051912307739
1782987862372672500,3.993672607421875,-0.38446059823036194,-0.2150353491306305,0.37516695261001587
1782987862382747600,4.00374755859375,-0.36128976941108704,-0.3132609724998474,0.3653244376182556
1782987862392821500,4.013821533203125,-0.340971976518631,-0.31171926856040955,0.31914710998535156
1782987862402896600,4.023896728515625,-0.33503150939941406,-0.18029147386550903,0.2778998017311096
1782987862412970500,4.033970458984375,-0.3446444571018219,-0.10940825194120407,0.2284371703863144
1782987862423045600,4.044045654296875,-0.3769912123680115,-0.160997673869133,0.15228407084941864
1782987862433119500,4.054119384765625,-0.4193384051322937,-0.3798655569553375,0.04830707982182503
1782987862443193600,4.064193603515625,-0.48405349254608154,-0.6660187840461731,-0.08078272640705109
1782987862453268500,4.0742685546875,-0.5840101838111877,-0.8137245774269104,-0.19727738201618195
1782987862463342600,4.084342529296875,-0.7166995406150818,-0.7481399774551392,-0.26755261421203613
1782987862473417500,4.09441748046875,-0.8637204170227051,-0.5666972398757935,-0.2885066270828247
1782987862483491600,4.10449169921875,-0.992988109588623,-0.37592676281929016,-0.2570195496082306
1782987862493566500,4.11456640625,-1.0715545415878296,-0.2229052484035492,-0.17360694706439972
1782987862503640600,4.124640625,-1.1086596250534058,-0.12826555967330933,-0.062248460948467255
1782987862513715500,4.134715576171875,-1.10566246509552,-0.15848524868488312,0.06425142288208008
1782987862523789600,4.14478955078125,-1.0692051649093628,-0.2728096842765808,0.17689993977546692
1782987862533864400,4.154864501953125,-1.0160428285598755,-0.4338632822036743,0.27986201643943787
1782987862543938600,4.1649384765625,-0.9711299538612366,-0.577860951423645,0.36953863501548767
1782987862554012400,4.175012451171875,-0.9274618029594421,-0.7097939252853394,0.4417113661766052
1782987862564087600,4.185087646484375,-0.9053131341934204,-0.7686071991920471,0.47940123081207275
1782987862574161400,4.195161376953125,-0.9160736203193665,-0.7368231415748596,0.48636457324028015
1782987862584236500,4.205236572265625,-0.9489263892173767,-0.6322879791259766,0.46892035007476807
1782987862594310400,4.215310302734375,-1.0047284364700317,-0.46441853046417236,0.4379240870475769
1782987862604385500,4.225385498046875,-1.0739455223083496,-0.2828633785247803,0.4011301100254059
1782987862614459400,4.23545947265625,-1.1441717147827148,-0.11418356001377106,0.3684273064136505
1782987862624534500,4.245534423828125,-1.2022411823272705,-0.006160690449178219,0.34019166231155396
1782987862634608400,4.2556083984375,-1.223486065864563,0.027528030797839165,0.32460498809814453
1782987862644682800,4.265682861328125,-1.2121700048446655,-0.010432400740683079,0.3179073929786682
1782987862654757400,4.27575732421875,-1.177991271018982,-0.11604058742523193,0.3131033182144165
1782987862664831700,4.285831787109375,-1.1402995586395264,-0.2573186159133911,0.3026711940765381
1782987862674906400,4.29590625,-1.0980250835418701,-0.44503524899482727,0.2633972764015198
1782987862684980700,4.305980712890625,-1.0525087118148804,-0.6114678978919983,0.18885646760463715
1782987862695055400,4.316055419921875,-1.0038343667984009,-0.7048713564872742,0.10108640044927597
1782987862705129700,4.326129638671875,-0.9525581002235413,-0.7458789944648743,-0.0027238810434937477
1782987862715204400,4.336204345703125,-0.9055107235908508,-0.7702194452285767,-0.1137838214635849
1782987862725278700,4.34627880859375,-0.8638543486595154,-0.7761844396591187,-0.22309885919094086
1782987862735353600,4.356353515625,-0.8212887644767761,-0.759211540222168,-0.2943589389324188
1782987862745428500,4.366428466796875,-0.7885404229164124,-0.6671836376190186,-0.30113694071769714
1782987862755502600,4.376502685546875,-0.7691254615783691,-0.5754441022872925,-0.2540442645549774
1782987862765577500,4.386577392578125,-0.7504186034202576,-0.518692135810852,-0.16966386139392853
1782987862775651600,4.396651611328125,-0.7235568761825562,-0.5044341087341309,-0.06085323169827461
1782987862785726500,4.4067265625,-0.6929894089698792,-0.4887012541294098,0.059001002460718155
1782987862795800600,4.416800537109375,-0.673419177532196,-0.433173805475235,0.17857800424098969
1782987862805875500,4.42687548828125,-0.6588172912597656,-0.3609800338745117,0.2866826355457306
1782987862815949600,4.436949462890625,-0.6415770649909973,-0.30796316266059875,0.36228418350219727
1782987862826024400,4.4470244140625,-0.6181553602218628,-0.26074957847595215,0.40144675970077515
1782987862836098600,4.4570986328125,-0.5983797907829285,-0.2526730000972748,0.40148696303367615
1782987862846173400,4.46717333984375,-0.5788183808326721,-0.26654061675071716,0.3825303316116333
1782987862856247600,4.47724755859375,-0.5717924237251282,-0.2784750461578369,0.33719000220298767
1782987862866321700,4.48732177734375,-0.581307590007782,-0.2761855125427246,0.2789192497730255
1782987862876396500,4.497396484375,-0.5958117246627808,-0.2697092294692993,0.22231270372867584
1782987862886470700,4.507470703125,-0.6096572279930115,-0.2572251260280609,0.17263010144233704
1782987862896545500,4.517545654296875,-0.6221413016319275,-0.23358026146888733,0.14180773496627808
1782987862906619600,4.52761962890625,-0.6339257955551147,-0.209752157330513,0.1218702420592308
1782987862916694500,4.537694580078125,-0.6554479002952576,-0.18445399403572083,0.10531070828437805
1782987862926768600,4.5477685546875,-0.6795234084129333,-0.1720322221517563,0.08958820253610611
1782987862936843500,4.557843505859375,-0.7101097702980042,-0.16872882843017578,0.06414622813463211
1782987862946917600,4.567917724609375,-0.7390003204345703,-0.1702476292848587,0.021823540329933167
1782987862956992500,4.577992431640625,-0.7613061666488647,-0.07342441380023956,-0.03307193145155907
1782987862967066600,4.588066650390625,-0.7815991640090942,0.03916311636567116,-0.0825904831290245
1782987862977140700,4.598140625,-0.768774688243866,-0.07077856361865997,-0.151078462600708
1782987862987215600,4.608215576171875,-0.747013509273529,-0.25435638427734375,-0.25426796078681946
1782987862997289700,4.618289794921875,-0.7211136817932129,-0.5573676824569702,-0.36977699398994446
1782987863007364600,4.628364501953125,-0.6990233063697815,-0.8063668012619019,-0.4668412208557129
1782987863017438700,4.638438720703125,-0.6890282034873962,-0.8215769529342651,-0.48395174741744995
1782987863027513600,4.648513671875,-0.6808360815048218,-0.5362746119499207,-0.3839484751224518
1782987863037587700,4.658587646484375,-0.6558524370193481,-0.050705522298812866,-0.15331578254699707
1782987863047662600,4.66866259765625,-0.6076849102973938,0.42026838660240173,0.15456268191337585
1782987863057736700,4.67873681640625,-0.5565801858901978,0.6853935122489929,0.46735572814941406
1782987863067811600,4.6888115234375,-0.5040333271026611,0.6999698281288147,0.725732147693634
1782987863077885200,4.69888525390625,-0.4682481586933136,0.551710844039917,0.8906159400939941
1782987863087959000,4.708958984375,-0.43393492698669434,0.25907018780708313,0.9617281556129456
1782987863098034200,4.7190341796875,-0.4112812876701355,-0.1271267980337143,0.9423169493675232
1782987863108108000,4.72910791015625,-0.3955340087413788,-0.5139997005462646,0.8443189859390259
1782987863118183200,4.73918310546875,-0.4057570993900299,-0.7973264455795288,0.6845999360084534
1782987863128257000,4.749257080078125,-0.4560767114162445,-0.955333948135376,0.47745150327682495
1782987863138332200,4.759332275390625,-0.5394973158836365,-0.9938784241676331,0.25885632634162903
1782987863148406000,4.769406005859375,-0.629122257232666,-0.9335601925849915,0.06398244202136993
1782987863158481200,4.779481201171875,-0.7260379195213318,-0.7811842560768127,-0.08230659365653992
1782987863168555000,4.789554931640625,-0.8183497190475464,-0.5655336976051331,-0.16915972530841827
1782987863178630100,4.799630126953125,-0.8904960751533508,-0.3164612948894501,-0.18589450418949127
1782987863188704000,4.8097041015625,-0.9274937510490417,-0.07194209843873978,-0.12449665367603302
1782987863198778000,4.819778076171875,-0.9224643707275391,0.08688429743051529,-0.00017683389887679368
1782987863208853000,4.82985302734375,-0.8814181685447693,0.10110371559858322,0.14364159107208252
1782987863218927000,4.839927001953125,-0.822852611541748,-0.03388819098472595,0.27643904089927673
1782987863229002000,4.850001953125,-0.7593372464179993,-0.2515915036201477,0.38409626483917236
1782987863239076000,4.860076171875,-0.7043850421905518,-0.47351428866386414,0.4531203508377075
1782987863249151000,4.87015087890625,-0.6565970182418823,-0.6218406558036804,0.48297277092933655
1782987863259225000,4.88022509765625,-0.6244686841964722,-0.6700774431228638,0.4758450984954834
1782987863269300000,4.890300048828125,-0.6054350733757019,-0.6646981239318848,0.4364148676395416
1782987863279374000,4.9003740234375,-0.5944396257400513,-0.6318565607070923,0.38437482714653015
1782987863289449000,4.910448974609375,-0.5967049598693848,-0.575388491153717,0.33198192715644836
1782987863299523000,4.920523193359375,-0.6128697991371155,-0.5325016975402832,0.2949773073196411
1782987863309597000,4.930596923828125,-0.6403136849403381,-0.5194215774536133,0.2724379301071167
1782987863319672000,4.940672119140625,-0.6702476143836975,-0.5497400760650635,0.2579790949821472
1782987863329746000,4.950745849609375,-0.695758044719696,-0.6109435558319092,0.2593575417995453
1782987863339821000,4.960821044921875,-0.7293285131454468,-0.6657934784889221,0.2645387053489685
1782987863349895000,4.97089501953125,-0.7785290479660034,-0.7044135332107544,0.28095629811286926
1782987863359970000,4.980969970703125,-0.8345555663108826,-0.7090626358985901,0.2936404049396515
1782987863370044000,4.9910439453125,-0.8911762237548828,-0.6737691164016724,0.298869252204895
1782987863380119000,5.001119140625,-0.9342379570007324,-0.63890540599823,0.29953184723854065
1782987863390193000,5.01119287109375,-0.9755116105079651,-0.6225807666778564,0.2899319529533386
1782987863400268000,5.02126806640625,-1.0176728963851929,-0.6329529881477356,0.2724831998348236
1782987863410342000,5.031341796875,-1.064798355102539,-0.6534489393234253,0.2552674412727356
1782987863420416000,5.041416015625,-1.1122796535491943,-0.6685191988945007,0.23620668053627014
1782987863430491000,5.051490966796875,-1.1620497703552246,-0.6848757863044739,0.22103038430213928
1782987863440565000,5.06156494140625,-1.2105721235275269,-0.6890348792076111,0.2166827768087387
1782987863450640000,5.071639892578125,-1.2505613565444946,-0.6911038756370544,0.22411832213401794
1782987863460714000,5.0817138671875,-1.2692391872406006,-0.6794975399971008,0.245950385928154
1782987863470788900,5.091788818359375,-1.2695426940917969,-0.6612240076065063,0.27309730648994446
1782987863480863000,5.101863037109375,-1.2518081665039062,-0.6607875227928162,0.29443323612213135
1782987863490937900,5.111937744140625,-1.2186564207077026,-0.6823492646217346,0.31314167380332947
1782987863501012000,5.122011962890625,-1.1810203790664673,-0.7137468457221985,0.33354201912879944
1782987863511086800,5.1320869140625,-1.1460309028625488,-0.7653371095657349,0.359391450881958
1782987863521161000,5.142160888671875,-1.114793062210083,-0.7956752777099609,0.3953382670879364
1782987863531235000,5.152235107421875,-1.0962390899658203,-0.766897976398468,0.4450128972530365
1782987863541310000,5.16231005859375,-1.0849212408065796,-0.6681357026100159,0.49827051162719727
1782987863551384000,5.172384033203125,-1.0726679563522339,-0.6305183172225952,0.5235356688499451
1782987863561459000,5.182458984375,-1.0535552501678467,-0.7541331648826599,0.4696471095085144
1782987863571533000,5.192532958984375,-1.0413225889205933,-1.09944748878479,0.3132580518722534
1782987863581608000,5.20260791015625,-1.05104660987854,-1.533584475517273,0.08101868629455566
1782987863591682000,5.21268212890625,-1.097585916519165,-1.8102773427963257,-0.14170892536640167
1782987863601757000,5.2227568359375,-1.1914926767349243,-1.8292076587677002,-0.3063404858112335
1782987863611831000,5.2328310546875,-1.3167989253997803,-1.7063275575637817,-0.4161154627799988
1782987863621906000,5.242906005859375,-1.4209567308425903,-1.5228983163833618,-0.4784339666366577
1782987863631980000,5.25297998046875,-1.4896868467330933,-1.2481609582901,-0.4828702509403229
1782987863642054100,5.26305419921875,-1.526457667350769,-0.8169864416122437,-0.40069442987442017
1782987863652129000,5.27312890625,-1.5402789115905762,-0.35529470443725586,-0.21221452951431274
1782987863662203100,5.283203125,-1.554405927658081,0.028623921796679497,0.06244580075144768
1782987863672278300,5.2932783203125,-1.5298103094100952,0.27033454179763794,0.3957654535770416
1782987863682352000,5.30335205078125,-1.4504179954528809,0.3341982066631317,0.7368361949920654
1782987863692427300,5.31342724609375,-1.3230171203613281,0.24240997433662415,1.046854853630066
1782987863702501000,5.323501220703125,-1.1708885431289673,-0.0024431839119642973,1.276336431503296
1782987863712576300,5.333576171875,-1.0286470651626587,-0.3377689719200134,1.391107201576233
1782987863722650000,5.343650146484375,-0.9126495718955994,-0.6871368288993835,1.3991459608078003
1782987863732725200,5.353725341796875,-0.8442106246948242,-0.9839610457420349,1.2849235534667969
1782987863742799000,5.363799072265625,-0.8225894570350647,-1.1944860219955444,1.0767685174942017
1782987863752873000,5.373873046875,-0.8430036902427673,-1.3175848722457886,0.8088874816894531
1782987863762948000,5.383947998046875,-0.9198739528656006,-1.3091764450073242,0.5086984038352966
1782987863773022000,5.39402197265625,-1.0468523502349854,-1.203849196434021,0.21228057146072388
1782987863783097000,5.40409716796875,-1.204207181930542,-1.063004970550537,-0.059250008314847946
1782987863793171200,5.414171142578125,-1.3590768575668335,-0.8945425152778625,-0.2785991430282593
1782987863803246000,5.42424609375,-1.4897891283035278,-0.7282919883728027,-0.43345770239830017
1782987863813320200,5.4343203125,-1.5891691446304321,-0.6073573231697083,-0.5056636929512024
1782987863823395000,5.44439501953125,-1.6388016939163208,-0.5164758563041687,-0.5022226572036743
1782987863833469200,5.45446923828125,-1.6473501920700073,-0.46703803539276123,-0.4298397898674011
1782987863843544000,5.4645439453125,-1.6304301023483276,-0.46472692489624023,-0.340973824262619
1782987863853618200,5.4746181640625,-1.587670922279358,-0.4895622432231903,-0.2519369125366211
1782987863863692000,5.484692138671875,-1.5130650997161865,-0.5294790267944336,-0.1719515174627304
1782987863873767200,5.49476708984375,-1.4047551155090332,-0.5494338274002075,-0.10172849148511887
1782987863883841000,5.504841064453125,-1.2807279825210571,-0.5506135821342468,-0.03399232029914856
1782987863893916200,5.514916259765625,-1.1653577089309692,-0.5522834062576294,0.02280677855014801
1782987863903990000,5.524989990234375,-1.0834804773330688,-0.5342743396759033,0.0798833817243576
1782987863914065200,5.535065185546875,-1.0431405305862427,-0.4911891520023346,0.14169961214065552
1782987863924139000,5.545138916015625,-1.0310512781143188,-0.4584948718547821,0.19649122655391693
1782987863934214100,5.555214111328125,-1.028612732887268,-0.45112189650535583,0.23031896352767944
1782987863944288000,5.5652880859375,-1.0195577144622803,-0.46354687213897705,0.24404223263263702
1782987863954363100,5.575363037109375,-1.0084764957427979,-0.49372848868370056,0.2318798303604126
1782987863964437000,5.58543701171875,-0.9921396374702454,-0.5217116475105286,0.20227773487567902
1782987863974511000,5.595510986328125,-0.9821282625198364,-0.525033175945282,0.1609545350074768
1782987863984586000,5.6055859375,-0.9816539287567139,-0.498890221118927,0.11265464127063751
1782987863994660000,5.61566015625,-0.9780046343803406,-0.46428272128105164,0.072840116918087
1782987864004735000,5.62573486328125,-0.9650493860244751,-0.4207967519760132,0.04980776831507683
1782987864014809000,5.63580908203125,-0.9340534210205078,-0.35785746574401855,0.048353418707847595
1782987864024884000,5.645884033203125,-0.8925219178199768,-0.28789275884628296,0.06269880384206772
1782987864034958000,5.6559580078125,-0.8543151617050171,-0.249986931681633,0.08184506744146347
1782987864045033000,5.666032958984375,-0.8042677044868469,-0.2572704255580902,0.10744363814592361
1782987864055107000,5.676107177734375,-0.7438616156578064,-0.2993912398815155,0.13359826803207397
1782987864065182000,5.686181884765625,-0.6781238913536072,-0.3816688060760498,0.1641889363527298
1782987864075256000,5.696256103515625,-0.6218265295028687,-0.4856945276260376,0.18465347588062286
1782987864085330400,5.706330322265625,-0.5852056741714478,-0.5970463752746582,0.19291432201862335
1782987864095405300,5.7164052734375,-0.5608968734741211,-0.6448231935501099,0.2022058367729187
1782987864105479400,5.7264794921875,-0.5354785919189453,-0.5281338691711426,0.24218866229057312
1782987864115554300,5.73655419921875,-0.5145863890647888,-0.4709733724594116,0.3000357151031494
1782987864125628400,5.74662841796875,-0.5183747410774231,-0.6196035742759705,0.3206571042537689
1782987864135703300,5.756703369140625,-0.5509523749351501,-0.8668234944343567,0.2876032888889313
1782987864145777400,5.76677734375,-0.5924180746078491,-1.0298552513122559,0.22186635434627533
1782987864155852300,5.776852294921875,-0.6308530569076538,-0.9782059788703918,0.16706489026546478
1782987864165926400,5.786926513671875,-0.6709346771240234,-0.758380651473999,0.12418267130851746
1782987864176001300,5.797001220703125,-0.6961585879325867,-0.48698270320892334,0.11593299359083176
1782987864186075400,5.807075439453125,-0.6939252614974976,-0.21858267486095428,0.1457846313714981
1782987864196149200,5.817149169921875,-0.6700486540794373,0.026624687016010284,0.21597278118133545
1782987864206224400,5.827224365234375,-0.6314442753791809,0.19225172698497772,0.29460978507995605
1782987864216298200,5.83729833984375,-0.5863322019577026,0.2545017898082733,0.37666046619415283
1782987864226373400,5.847373291015625,-0.53841233253479,0.2228139042854309,0.45054373145103455
1782987864236447200,5.857447265625,-0.4890679717063904,0.07449501007795334,0.5014101266860962
1782987864246522400,5.8675224609375,-0.4342060387134552,-0.18934622406959534,0.5003384351730347
1782987864256596200,5.87759619140625,-0.3846603333950043,-0.5382762551307678,0.42482054233551025
1782987864266671400,5.88767138671875,-0.3371495306491852,-0.9006128907203674,0.27944469451904297
1782987864276745200,5.8977451171875,-0.30990514159202576,-1.1728636026382446,0.07370298355817795
1782987864286820400,5.9078203125,-0.31052350997924805,-1.3003374338150024,-0.16665954887866974
1782987864296894200,5.917894287109375,-0.33756765723228455,-1.2862048149108887,-0.3943624794483185
1782987864306968600,5.927968505859375,-0.38699379563331604,-1.146608829498291,-0.58010333776474
1782987864317043500,5.93804345703125,-0.4443385601043701,-0.9686089754104614,-0.7100200653076172
1782987864327117600,5.94811767578125,-0.49627792835235596,-0.7603801488876343,-0.7836458086967468
1782987864337192400,5.9581923828125,-0.5587578415870667,-0.5785557627677917,-0.7892045974731445
1782987864347266600,5.9682666015625,-0.6233147382736206,-0.45881789922714233,-0.7579635977745056
1782987864357341400,5.978341552734375,-0.6604474186897278,-0.42678913474082947,-0.718181848526001
1782987864367415600,5.98841552734375,-0.6484403014183044,-0.4717182517051697,-0.6922098994255066
1782987864377490400,5.998490478515625,-0.5889844298362732,-0.5799834728240967,-0.6902162432670593
1782987864387564500,6.008564453125,-0.4881094992160797,-0.7216333150863647,-0.6948200464248657
1782987864397639400,6.018639404296875,-0.3682890832424164,-0.8155174255371094,-0.7042487263679504
1782987864407713500,6.028713623046875,-0.26843759417533875,-0.8253298401832581,-0.6910197138786316
1782987864417787400,6.038787353515625,-0.21585586667060852,-0.7645328044891357,-0.6680529117584229
1782987864427862500,6.048862548828125,-0.21276339888572693,-0.6382609009742737,-0.6147566437721252
1782987864437936600,6.0589365234375,-0.2076711654663086,-0.45854201912879944,-0.5077577829360962
1782987864448011500,6.069011474609375,-0.20179863274097443,-0.2809547185897827,-0.3599824011325836
1782987864458085600,6.079085693359375,-0.20093896985054016,-0.19590160250663757,-0.20180635154247284
1782987864468160500,6.089160400390625,-0.20759473741054535,-0.21076363325119019,-0.0389721654355526
1782987864478234600,6.099234619140625,-0.2225867360830307,-0.28435981273651123,0.09785359352827072
1782987864488309500,6.1093095703125,-0.24887879192829132,-0.37147101759910583,0.21008425951004028
1782987864498383600,6.119383544921875,-0.2654034495353699,-0.44453164935112,0.2835773825645447
1782987864508458500,6.12945849609375,-0.27853840589523315,-0.46471256017684937,0.3144410252571106
1782987864518532600,6.13953271484375,-0.2951038181781769,-0.43772488832473755,0.29493844509124756
1782987864528606500,6.1496064453125,-0.31572601199150085,-0.34928902983665466,0.24024935066699982
1782987864538681600,6.159681640625,-0.339138925075531,-0.1888740509748459,0.16762015223503113
1782987864548755500,6.16975537109375,-0.36344239115715027,-0.01974387653172016,0.09292248636484146
1782987864558830600,6.17983056640625,-0.38207653164863586,0.11826938390731812,0.03295794874429703
1782987864568904400,6.189904541015625,-0.3874143064022064,0.1634560376405716,-0.017417605966329575
1782987864578979600,6.1999794921875,-0.3649228513240814,0.08423738181591034,-0.03825417906045914
1782987864589053400,6.210053466796875,-0.3392297327518463,-0.03148388862609863,-0.0314311608672142
1782987864599128600,6.220128662109375,-0.34280315041542053,-0.10190931707620621,-0.013936588540673256
1782987864609202400,6.230202392578125,-0.36272281408309937,-0.14860811829566956,0.005300489254295826
1782987864619277600,6.240277587890625,-0.3919864296913147,-0.21707159280776978,0.000046072687837295234
1782987864629351400,6.250351318359375,-0.40843623876571655,-0.31050461530685425,-0.026973560452461243
1782987864639425500,6.260425537109375,-0.42061832547187805,-0.43018838763237,-0.07348566502332687
1782987864649500400,6.27050048828125,-0.419685423374176,-0.45554089546203613,-0.1111622080206871
1782987864659574500,6.280574462890625,-0.40471500158309937,-0.37557974457740784,-0.12499146908521652
1782987864669649400,6.2906494140625,-0.3691772520542145,-0.2991124093532562,-0.11989737302064896
1782987864679723500,6.3007236328125,-0.31717023253440857,-0.22362589836120605,-0.09205056726932526
1782987864689798400,6.31079833984375,-0.2622164487838745,-0.16135373711585999,-0.05693412199616432
1782987864699872500,6.32087255859375,-0.20961900055408478,-0.1641886681318283,-0.01619042083621025
1782987864709947400,6.330947509765625,-0.16040778160095215,-0.21167975664138794,0.03244369477033615
1782987864720021500,6.341021484375,-0.11145835369825363,-0.23390915989875793,0.09118343889713287
1782987864730096400,6.351096435546875,-0.06838119029998779,-0.22161628305912018,0.14191186428070068
1782987864740170500,6.36117041015625,-0.036372121423482895,-0.179003044962883,0.17638088762760162
1782987864750244400,6.371244384765625,-0.021859493106603622,-0.13194498419761658,0.20783282816410065
1782987864760319500,6.381319580078125,-0.015215704217553139,-0.09305564314126968,0.2318345606327057
1782987864770393300,6.391393310546875,-0.01233336515724659,-0.06053072214126587,0.24099157750606537
1782987864780468500,6.401468505859375,-0.000624777574557811,0.0193736981600523,0.26058897376060486
1782987864790542300,6.411542236328125,0.03269056975841522,0.0994110107421875,0.3013308048248291
1782987864800617500,6.421617431640625,0.07464254647493362,0.11860467493534088,0.31790605187416077
1782987864810691300,6.43169140625,0.10373944789171219,0.07506518810987473,0.27993044257164
1782987864820766500,6.441766357421875,0.14808639883995056,-0.16065679490566254,0.20728927850723267
1782987864830840300,6.45184033203125,0.1980728656053543,-0.5415942668914795,0.09671083092689514
1782987864840915500,6.46191552734375,0.20067770779132843,-0.8282926082611084,-0.012818593531847
1782987864850989300,6.4719892578125,0.11680278182029724,-0.8337097764015198,-0.09255602955818176
1782987864861063400,6.4820634765625,-0.02226695604622364,-0.574951171875,-0.12286999821662903
1782987864871138300,6.49213818359375,-0.18607692420482635,-0.20504209399223328,-0.11477238684892654
1782987864881212400,6.50221240234375,-0.30863773822784424,0.04392511397600174,-0.11029881238937378
1782987864891287300,6.512287353515625,-0.3590063750743866,0.03239096328616142,-0.12662585079669952
1782987864901361400,6.522361328125,-0.34285083413124084,-0.14532816410064697,-0.16155853867530823
1782987864911436300,6.532436279296875,-0.29640182852745056,-0.3041976988315582,-0.17692391574382782
1782987864921510400,6.542510498046875,-0.25578224658966064,-0.3094491958618164,-0.14988216757774353
1782987864931585300,6.552585205078125,-0.21040597558021545,-0.1303337663412094,-0.07458528876304626
1782987864941659400,6.562659423828125,-0.14656254649162292,0.13188719749450684,0.020110327750444412
1782987864951734500,6.572734619140625,-0.06228893995285034,0.3534209132194519,0.11419368535280228
1782987864961808400,6.582808349609375,0.03797747567296028,0.5063811540603638,0.19953681528568268
1782987864971882200,6.59288232421875,0.13058410584926605,0.5794700384140015,0.2731836140155792
1782987864981957400,6.602957275390625,0.21178841590881348,0.5997273325920105,0.3464953601360321
1782987864992031200,6.61303125,0.26868951320648193,0.5585210919380188,0.3916500508785248
1782987865002106400,6.6231064453125,0.2975587248802185,0.4706341028213501,0.4214537739753723
1782987865012180200,6.63318017578125,0.29076632857322693,0.37453392148017883,0.4207293689250946
1782987865022255400,6.64325537109375,0.24030767381191254,0.278884619474411,0.3839234411716461
1782987865032329200,6.6533291015625,0.15392538905143738,0.20393182337284088,0.3126809298992157
1782987865042404400,6.663404296875,0.04818830266594887,0.1484414041042328,0.22003595530986786
1782987865052478200,6.673478271484375,-0.05338599160313606,0.0952540785074234,0.11349859833717346
1782987865062553300,6.68355322265625,-0.1403435319662094,0.06635718792676926,0.010046509094536304
1782987865072627500,6.69362744140625,-0.20274752378463745,0.07071651518344879,-0.08279794454574585
1782987865082701600,6.70370166015625,-0.23354990780353546,0.07632965594530106,-0.14993196725845337
1782987865092776400,6.7137763671875,-0.22953945398330688,0.04510888829827309,-0.19951364398002625
1782987865102850600,6.7238505859375,-0.19602170586585999,0.018677014857530594,-0.22273534536361694
1782987865112925400,6.733925537109375,-0.14782780408859253,0.0224459208548069,-0.21979548037052155
1782987865122999600,6.74399951171875,-0.11282961070537567,0.03579714521765709,-0.19622330367565155
1782987865133074400,6.754074462890625,-0.08765288442373276,0.03971092775464058,-0.163688525557518
1782987865143148500,6.7641484375,-0.07119747996330261,0.040583644062280655,-0.11392736434936523
1782987865153223400,6.774223388671875,-0.06193340942263603,0.043836429715156555,-0.06109185144305229
1782987865163297500,6.784297607421875,-0.0636061429977417,0.06556782126426697,-0.004986236337572336
1782987865173372400,6.794372314453125,-0.07421111315488815,0.0981539934873581,0.036014191806316376
1782987865183446500,6.804446533203125,-0.08642197400331497,0.12216132879257202,0.06670153141021729
1782987865193520600,6.814520751953125,-0.07829027622938156,0.15509212017059326,0.09095307439565659
1782987865203595500,6.824595458984375,-0.0601019524037838,0.18474960327148438,0.10774723440408707
1782987865213669600,6.834669677734375,-0.045331794768571854,0.20500081777572632,0.1252117156982422
1782987865223744500,6.84474462890625,-0.03580380231142044,0.20697341859340668,0.1563214361667633
1782987865233818600,6.854818603515625,-0.013717143796384335,0.1984044313430786,0.19658416509628296
1782987865243893500,6.8648935546875,0.00437956815585494,0.1801346242427826,0.24516554176807404
1782987865253967600,6.874967529296875,0.014654044061899185,0.17043006420135498,0.28435662388801575
1782987865264042500,6.88504248046875,0.019961724057793617,0.15542180836200714,0.2980996072292328
1782987865274116600,6.89511669921875,0.015917448326945305,0.12363751977682114,0.2759873867034912
1782987865284191500,6.90519140625,0.0004988100845366716,0.07458209246397018,0.22550822794437408
1782987865294265600,6.915265625,-0.009557818993926048,0.05617991462349892,0.16233697533607483
1782987865304339500,6.92533935546875,-0.020447485148906708,0.07816058397293091,0.09874308854341507
1782987865314414600,6.93541455078125,-0.03543735295534134,0.1363551765680313,0.058510713279247284
1782987865324488400,6.945488525390625,-0.05501318350434303,0.21464359760284424,0.039738889783620834
1782987865334563600,6.9555634765625,-0.07242439687252045,0.32999762892723083,0.05590294674038887
1782987865344637400,6.965637451171875,-0.0939139798283577,0.5032280087471008,0.08159951865673065
1782987865354712600,6.975712646484375,-0.10740102827548981,0.8006133437156677,0.10565531998872757
1782987865364786400,6.985786376953125,-0.09155521541833878,1.0323799848556519,0.11814261972904205
1782987865374861600,6.995861572265625,-0.06380055099725723,0.9743590354919434,0.08080137521028519
1782987865384935400,7.005935302734375,-0.046652987599372864,0.6942924857139587,-0.010654241777956486
1782987865395010600,7.016010498046875,-0.04458238184452057,0.22674445807933807,-0.1352478414773941
1782987865405084400,7.02608447265625,-0.02996242605149746,-0.2331232726573944,-0.24666011333465576
1782987865415158500,7.036158447265625,-0.01842374913394451,-0.5407676100730896,-0.3110649287700653
1782987865425233400,7.0462333984375,-0.022648587822914124,-0.6065796613693237,-0.32575172185897827
1782987865435307500,7.0563076171875,-0.021857095882296562,-0.414753258228302,-0.279185026884079
1782987865445382400,7.06638232421875,0.008711200207471848,0.004419249482452869,-0.1619414985179901
1782987865455456500,7.07645654296875,0.062381353229284286,0.4972779452800751,-0.007819040678441525
1782987865465531400,7.086531494140625,0.12280873954296112,0.7967991232872009,0.14566293358802795
1782987865475605500,7.09660546875,0.17466580867767334,0.7969280481338501,0.26874250173568726
1782987865485680400,7.106680419921875,0.2171299159526825,0.555899977684021,0.3589658737182617
1782987865495754500,7.11675439453125,0.22575989365577698,0.23914547264575958,0.4089329242706299
1782987865505829400,7.126829345703125,0.19895358383655548,-0.020237093791365623,0.42683708667755127
1782987865515903500,7.136903564453125,0.1501506119966507,-0.18734592199325562,0.4056686758995056
1782987865525977300,7.146977294921875,0.10472028702497482,-0.24935656785964966,0.3585440516471863
1782987865536052500,7.157052490234375,0.06850981712341309,-0.17384156584739685,0.29978832602500916
1782987865546126300,7.167126220703125,0.0452985055744648,-0.04530729353427887,0.2327488213777542
1782987865556201500,7.177201416015625,0.03519020974636078,0.11325997859239578,0.1638840138912201
1782987865566275300,7.187275390625,0.021313278004527092,0.27293458580970764,0.0902894139289856
1782987865576350500,7.1973505859375,0.005308212712407112,0.38130927085876465,0.02472265623509884
1782987865586424300,7.20742431640625,-0.002292981604114175,0.41990405321121216,-0.03001675382256508
1782987865596499500,7.21749951171875,0.006166815757751465,0.33269327878952026,-0.058100320398807526
1782987865606573300,7.2275732421875,0.018189389258623123,0.13379187881946564,-0.06877213716506958
1782987865616648400,7.2376484375,0.04121081903576851,-0.08167116343975067,-0.046785615384578705
1782987865626722300,7.247722412109375,0.07419193536043167,-0.25403812527656555,-0.0012370382901281118
1782987865636796400,7.25779638671875,0.11716577410697937,-0.3559493124485016,0.054312773048877716
1782987865646871300,7.267871337890625,0.16261927783489227,-0.3808610737323761,0.11286689341068268
1782987865656945400,7.2779453125,0.21126005053520203,-0.36152383685112,0.17186017334461212
1782987865667020300,7.288020263671875,0.2619740962982178,-0.3333260416984558,0.22179098427295685
1782987865677094400,7.298094482421875,0.2981629967689514,-0.2899135649204254,0.2779535949230194
1782987865687169300,7.308169189453125,0.3060755133628845,-0.25808215141296387,0.3326623737812042
1782987865697243400,7.318243408203125,0.27985480427742004,-0.24399055540561676,0.3556089699268341
1782987865707318500,7.328318603515625,0.2293543666601181,-0.25239577889442444,0.3492019474506378
1782987865717392400,7.338392333984375,0.1623271256685257,-0.24461133778095245,0.2953357696533203
1782987865727467500,7.348467529296875,0.08826381713151932,-0.2723529636859894,0.21394264698028564
1782987865737541400,7.358541259765625,0.0049042110331356525,-0.3139187693595886,0.11354812979698181
1782987865747615200,7.368615234375,-0.07502683997154236,-0.32386061549186707,0.005256547126919031
1782987865757690400,7.3786904296875,-0.15477760136127472,-0.28133606910705566,-0.08660546690225601
1782987865767764200,7.38876416015625,-0.2140563577413559,-0.2133713960647583,-0.16169755160808563
1782987865777839400,7.39883935546875,-0.26360926032066345,-0.13708089292049408,-0.21379297971725464
1782987865787913200,7.408913330078125,-0.29232239723205566,-0.05324777588248253,-0.22436413168907166
1782987865797988400,7.41898828125,-0.30686432123184204,0.04791346192359924,-0.1911182850599289
1782987865808062200,7.429062255859375,-0.3057979941368103,0.13602255284786224,-0.11815273761749268
1782987865818137300,7.439137451171875,-0.2941051125526428,0.16770058870315552,-0.02895255573093891
1782987865828211500,7.44921142578125,-0.26636192202568054,0.10788332670927048,0.06085589528083801
1782987865838286300,7.459286376953125,-0.23188357055187225,-0.004065581597387791,0.12958835065364838
1782987865848360400,7.4693603515625,-0.21024325489997864,-0.1030704602599144,0.16771815717220306
1782987865858434600,7.4794345703125,-0.18228165805339813,-0.20437657833099365,0.18523404002189636
1782987865868509400,7.489509521484375,-0.15678748488426208,-0.23568123579025269,0.19398492574691772
1782987865878583600,7.49958349609375,-0.13093218207359314,-0.18386197090148926,0.1972440928220749
1782987865888658400,7.509658447265625,-0.10926949977874756,-0.028385834768414497,0.20564717054367065
1782987865898732500,7.519732666015625,-0.08898686617612839,0.24432212114334106,0.21699489653110504
1782987865908807400,7.529807373046875,-0.06901448965072632,0.4055909216403961,0.22010333836078644
1782987865918881500,7.539881591796875,-0.029204756021499634,0.37884798645973206,0.18318766355514526
1782987865928956400,7.549956298828125,0.012685434892773628,0.09493503719568253,0.11045833677053452
1782987865939030500,7.560030517578125,0.015569638460874557,-0.4234101176261902,-0.02827265113592148
1782987865949105400,7.57010546875,-0.050582751631736755,-0.9984957575798035,-0.20437364280223846
1782987865959179500,7.580179443359375,-0.1543344408273697,-1.4024072885513306,-0.3521106541156769
1782987865969253600,7.590253662109375,-0.26674115657806396,-1.483217477798462,-0.4332379698753357
1782987865979328500,7.60032861328125,-0.3403879404067993,-1.2058929204940796,-0.4383339285850525
1782987865989402600,7.610402587890625,-0.3212642967700958,-0.7382231950759888,-0.3634868562221527
1782987865999477500,7.6204775390625,-0.1944376528263092,-0.20212993025779724,-0.22411459684371948
1782987866009551600,7.630551513671875,0.0174450371414423,0.26285985112190247,-0.06091048941016197
1782987866019626500,7.64062646484375,0.2365579456090927,0.4903563857078552,0.06675293296575546
1782987866029700600,7.65070068359375,0.3886297643184662,0.5019304752349854,0.13304460048675537
1782987866039775500,7.660775390625,0.46734270453453064,0.3357066214084625,0.13852618634700775
1782987866049849600,7.670849609375,0.4658513069152832,0.030530212447047234,0.09002362936735153
1782987866059924500,7.680924560546875,0.3984525799751282,-0.32598555088043213,0.02773682214319706
1782987866069998600,7.69099853515625,0.2892397940158844,-0.6217165589332581,-0.03311507776379585
1782987866080072200,7.701072265625,0.1695709228515625,-0.7614070773124695,-0.09731004387140274
1782987866090147300,7.711147216796875,0.05312154069542885,-0.724012553691864,-0.17382025718688965
1782987866100221200,7.72122119140625,-0.05678418651223183,-0.5571919083595276,-0.2678130567073822
1782987866110296300,7.73129638671875,-0.15128245949745178,-0.28891223669052124,-0.36336037516593933
1782987866120370200,7.7413701171875,-0.22194811701774597,0.017009610310196877,-0.43637171387672424
1782987866130445300,7.7514453125,-0.27762070298194885,0.2628449499607086,-0.4679829180240631
1782987866140519200,7.761519287109375,-0.31122100353240967,0.3860640823841095,-0.45807090401649475
1782987866150594300,7.77159423828125,-0.3196578919887543,0.368916779756546,-0.4211541414260864
1782987866160668200,7.781668212890625,-0.3081008493900299,0.2728690803050995,-0.3720787465572357
1782987866170743300,7.791743408203125,-0.27759644389152527,0.14822089672088623,-0.31898224353790283
1782987866180817200,7.801817138671875,-0.23787035048007965,0.03706853836774826,-0.27225974202156067
1782987866190891300,7.811891357421875,-0.20079222321510315,-0.03720036521553993,-0.23006142675876617
1782987866200966100,7.821966064453125,-0.15689986944198608,-0.049788061529397964,-0.19491782784461975
1782987866211040300,7.832040283203125,-0.10673204064369202,-0.03458620607852936,-0.16973736882209778
1782987866221115100,7.842115234375,-0.039081357419490814,-0.02027224749326706,-0.12666234374046326
1782987866231189200,7.852189208984375,0.05230794474482536,-0.004512459971010685,-0.0672413557767868
1782987866241264000,7.86226416015625,0.1521780788898468,0.007306648883968592,0.011810853146016598
1782987866251338200,7.872338134765625,0.2558400332927704,0.011716310866177082,0.09972686320543289
1782987866261413400,7.882413330078125,0.3382134735584259,-0.010398578830063343,0.17595425248146057
1782987866271487200,7.8924873046875,0.396860808134079,-0.054129812866449356,0.21517010033130646
1782987866281562400,7.902562255859375,0.4457681477069855,-0.09585621953010559,0.22943611443042755
1782987866291636200,7.91263623046875,0.4731702208518982,-0.13149011135101318,0.21118494868278503
1782987866301710000,7.9227099609375,0.4915473759174347,-0.1614948809146881,0.18308699131011963
1782987866311785200,7.93278515625,0.5032048225402832,-0.1752418577671051,0.1587371826171875
1782987866321859000,7.942859130859375,0.5137682557106018,-0.1707025021314621,0.14605467021465302
1782987866331934200,7.952934326171875,0.5149804949760437,-0.14194142818450928,0.14407941699028015
1782987866342008000,7.963008056640625,0.504123330116272,-0.08926303684711456,0.1427891105413437
1782987866352083200,7.973083251953125,0.48436322808265686,-0.005801962688565254,0.1388859748840332
1782987866362156000,7.983156005859375,0.46202248334884644,0.11025513708591461,0.1286703646183014
1782987866372231200,7.993231201171875,0.46075135469436646,0.23093761503696442,0.12407560646533966
1782987866382305000,8.003304931640624,0.48171791434288025,0.3109709322452545,0.12470731139183044
1782987866392380200,8.013380126953125,0.5149208903312683,0.3412204384803772,0.1361652910709381
1782987866402454000,8.0234541015625,0.5561684370040894,0.35147708654403687,0.16799911856651306
1782987866412529200,8.033529052734375,0.6001428365707397,0.3697492778301239,0.22163225710391998
1782987866422603000,8.04360302734375,0.642264187335968,0.4695832133293152,0.2693009674549103
1782987866432677400,8.053677490234374,0.6851215958595276,0.5627509951591492,0.2930755615234375
1782987866442752000,8.063751953125,0.7253337502479553,0.48232322931289673,0.25270920991897583
1782987866452826400,8.073826416015624,0.7237805724143982,0.12329690158367157,0.09176800400018692
1782987866462901000,8.08390087890625,0.6605827212333679,-0.4526127576828003,-0.1744929701089859
1782987866472975400,8.093975341796876,0.581005871295929,-0.9063757061958313,-0.4536322057247162
1782987866483050000,8.104050048828125,0.5034689903259277,-0.8651763200759888,-0.6401501297950745
1782987866493124400,8.114124267578125,0.45180368423461914,-0.4546220898628235,-0.7049717307090759
1782987866503199200,8.12419921875,0.4373781383037567,0.0589810274541378,-0.6478102207183838
1782987866513273300,8.1342734375,0.4468294382095337,0.5240626931190491,-0.5073822736740112
1782987866523348200,8.14434814453125,0.48878592252731323,0.8802346587181091,-0.3021273612976074
1782987866533422300,8.15442236328125,0.5671656727790833,1.1546776294708252,-0.06421440839767456
1782987866543496200,8.16449609375,0.6557791829109192,1.381089210510254,0.17083272337913513
1782987866553571300,8.1745712890625,0.7314819097518921,1.535526156425476,0.38112711906433105
1782987866563645200,8.184645263671875,0.7822816967964172,1.5671731233596802,0.542744517326355
1782987866573720300,8.19472021484375,0.8222584128379822,1.4358891248703003,0.6246814727783203
1782987866583794200,8.204794189453125,0.8508602380752563,1.1683729887008667,0.6203545928001404
1782987866593869300,8.214869384765626,0.8746790289878845,0.8241410255432129,0.5326449871063232
1782987866603943200,8.224943115234375,0.8913299441337585,0.43849560618400574,0.37006887793540955
1782987866614018300,8.235018310546875,0.9072018265724182,0.07163557410240173,0.1521916687488556
1782987866624092200,8.245092041015624,0.9392745494842529,-0.1934932917356491,-0.096246637403965
1782987866634167300,8.255167236328125,0.9695605635643005,-0.35459351539611816,-0.3331523835659027
1782987866644241400,8.265241455078124,0.9953479170799255,-0.3892233967781067,-0.5295924544334412
1782987866654315300,8.275315185546875,1.0215102434158325,-0.3066680431365967,-0.6398228406906128
1782987866664390400,8.285390380859376,1.046946406364441,-0.17791754007339478,-0.6526033878326416
1782987866674464300,8.29546435546875,1.0762035846710205,-0.05031829699873924,-0.5776969194412231
1782987866684539400,8.305539306640625,1.0968945026397705,0.03542004153132439,-0.4318768382072449
1782987866694613200,8.31561328125,1.106707215309143,0.08014756441116333,-0.24218973517417908
1782987866704688400,8.3256884765625,1.101948618888855,0.07159242779016495,-0.05168929323554039
1782987866714762200,8.33576220703125,1.0814359188079834,0.07294904440641403,0.11242055147886276
1782987866724837400,8.34583740234375,1.0366681814193726,0.14918895065784454,0.23829485476016998
1782987866734911200,8.3559111328125,0.9753822088241577,0.2548466622829437,0.302496999502182
1782987866744986400,8.365986328125,0.9041208028793335,0.35154685378074646,0.30694982409477234
1782987866755060200,8.376060302734375,0.8294615149497986,0.46471601724624634,0.2595285177230835
1782987866765134300,8.38613427734375,0.7685709595680237,0.5432073473930359,0.17486421763896942
1782987866775209200,8.396209228515625,0.7227771282196045,0.56382155418396,0.07897710800170898
1782987866785283300,8.406283447265626,0.6995735168457031,0.5221505165100098,-0.006914631463587284
1782987866795358200,8.416358154296875,0.7028465270996094,0.4416485130786896,-0.07420365512371063
1782987866805432300,8.426432373046875,0.7093827724456787,0.3560771644115448,-0.10283317416906357
1782987866815507200,8.436507080078124,0.7140275835990906,0.284933477640152,-0.09866345673799515
1782987866825581300,8.446581298828125,0.7070623636245728,0.2547771632671356,-0.07051464915275574
1782987866835656200,8.45665625,0.6964057087898254,0.2350178360939026,-0.02929610386490822
1782987866845730300,8.466730224609375,0.6904056072235107,0.22501979768276215,0.008526110090315342
1782987866855805200,8.47680517578125,0.6882851719856262,0.20737209916114807,0.027519242838025093
1782987866865879300,8.48687939453125,0.6823689937591553,0.16688485443592072,0.012768525630235672
1782987866875954200,8.4969541015625,0.6747145056724548,0.12578162550926208,-0.022876819595694542
1782987866886028300,8.5070283203125,0.6666611433029175,0.09474275261163712,-0.05956612527370453
1782987866896102100,8.51710205078125,0.6571248769760132,0.048292964696884155,-0.08267650753259659
1782987866906177300,8.52717724609375,0.6450535655021667,0.03792208060622215,-0.08939539641141891
1782987866916251100,8.537251220703125,0.6459377408027649,0.051296211779117584,-0.07452216744422913
1782987866926326300,8.547326171875,0.6477087140083313,0.08573727309703827,-0.03297872096300125
1782987866936400100,8.557400146484374,0.6514486074447632,0.10857121646404266,0.028786906972527504
1782987866946475300,8.567475341796875,0.6547645330429077,0.1187511533498764,0.11543232202529907
1782987866956549000,8.577549072265626,0.6489652395248413,0.12389637529850006,0.21486251056194305
1782987866966624300,8.587624267578125,0.6294682025909424,0.1412343531847,0.30550292134284973
1782987866976698000,8.597697998046876,0.5971230268478394,0.15145502984523773,0.36309272050857544
1782987866986773200,8.607773193359375,0.5473174452781677,0.1402125060558319,0.39003005623817444
1782987866996847000,8.61784716796875,0.49173563718795776,0.14603443443775177,0.38069087266921997
1782987867006921200,8.627921142578124,0.4471633732318878,0.22354920208454132,0.352370023727417
1782987867016996000,8.63799609375,0.4263142943382263,0.31084761023521423,0.3262263238430023
1782987867027070200,8.6480703125,0.42710578441619873,0.30031508207321167,0.278807133436203
1782987867037145000,8.65814501953125,0.41674503684043884,0.1613321602344513,0.19272764027118683
1782987867047219200,8.66821923828125,0.38428375124931335,-0.1162877306342125,0.06502880156040192
1782987867057294000,8.678294189453124,0.31078851222991943,-0.3435227572917938,-0.08409330248832703
1782987867067368200,8.6883681640625,0.2223326712846756,-0.3412175178527832,-0.19188235700130463
1782987867077443000,8.698443115234374,0.13238734006881714,-0.1178765669465065,-0.24195857346057892
1782987867087517000,8.708516845703125,0.0753520131111145,0.22833304107189178,-0.221088707447052
1782987867097591800,8.718591796875,0.07261348515748978,0.5907498598098755,-0.13657702505588531
1782987867107666000,8.728666015625,0.11530235409736633,0.7819259166717529,-0.023179354146122932
1782987867117740000,8.738739990234375,0.17848825454711914,0.6488469839096069,0.06607382744550705
1782987867127815000,8.74881494140625,0.24551628530025482,0.2883484363555908,0.1179862916469574
1782987867137889000,8.758888916015625,0.3053458034992218,-0.019629627466201782,0.14292946457862854
1782987867147964000,8.7689638671875,0.3600897490978241,-0.1261052042245865,0.1756541132926941
1782987867158038000,8.7790380859375,0.40201535820961,-0.07780398428440094,0.218360036611557
1782987867168113000,8.78911279296875,0.4288072884082794,0.16865958273410797,0.271450936794281
1782987867178187000,8.79918701171875,0.45196959376335144,0.5329270362854004,0.3204307556152344
1782987867188262000,8.809261962890625,0.47704005241394043,0.8619475364685059,0.3408880829811096
1782987867198336000,8.8193359375,0.513005793094635,1.0370991230010986,0.3260044753551483
1782987867208411000,8.829410888671875,0.5649440884590149,1.0482244491577148,0.289004385471344
1782987867218485000,8.839485107421876,0.6183806657791138,0.9750698208808899,0.25485944747924805
1782987867228559000,8.84955908203125,0.6568228602409363,0.8746532201766968,0.2384362667798996
1782987867238634000,8.859634033203125,0.6744149327278137,0.7874839305877686,0.23831643164157867
1782987867248708000,8.8697080078125,0.6834694147109985,0.6932719349861145,0.23441196978092194
1782987867258783000,8.879782958984375,0.6778154969215393,0.5728952288627625,0.2094762623310089
1782987867268857000,8.889857177734376,0.6753566265106201,0.4373815953731537,0.1617036759853363
1782987867278932000,8.899931884765625,0.6821559071540833,0.32294291257858276,0.09002389758825302
1782987867289006000,8.910006103515625,0.6988624930381775,0.22183279693126678,-0.008096275851130486
1782987867299081000,8.9200810546875,0.725125789642334,0.1443989872932434,-0.11351564526557922
1782987867309155000,8.930155029296875,0.7621093392372131,0.11788003146648407,-0.20744213461875916
1782987867319230000,8.94022998046875,0.7971051335334778,0.16229437291622162,-0.2715359032154083
1782987867329304000,8.950303955078125,0.8291144967079163,0.23187610507011414,-0.29604658484458923
1782987867339379000,8.96037890625,0.8607291579246521,0.282434344291687,-0.2919655442237854
1782987867349453000,8.970453125,0.8939648270606995,0.2917575538158417,-0.2731436491012573
1782987867359527000,8.98052685546875,0.9325548410415649,0.2989771068096161,-0.2181648164987564
1782987867369602000,8.99060205078125,0.9781457781791687,0.35742124915122986,-0.12705355882644653
1782987867379676000,9.000676025390625,1.0176823139190674,0.46253702044487,-0.006677343975752592
1782987867389751000,9.0107509765625,1.0453532934188843,0.5656580924987793,0.10868839919567108
1782987867399825000,9.020824951171875,1.0652673244476318,0.6301185488700867,0.21257831156253815
1782987867409900000,9.030900146484376,1.091025471687317,0.68007493019104,0.2885897159576416
1782987867419974000,9.040973876953124,1.1168376207351685,0.7227973341941833,0.3455161154270172
1782987867430049000,9.051049072265625,1.1359292268753052,0.7562501430511475,0.3770034611225128
1782987867440123000,9.061122802734374,1.139298915863037,0.7767245173454285,0.37798750400543213
1782987867450198000,9.071197998046875,1.1389745473861694,0.7803855538368225,0.35506489872932434
1782987867460271900,9.08127197265625,1.1331201791763306,0.7818287014961243,0.30268344283103943
1782987867470346000,9.091345947265625,1.116650104522705,0.7709848880767822,0.2342793494462967
1782987867480420900,9.1014208984375,1.0987735986709595,0.7416554689407349,0.1546494960784912
1782987867490495000,9.111494873046874,1.0805898904800415,0.7116549611091614,0.07978803664445877
1782987867500569900,9.12156982421875,1.0667017698287964,0.6936866044998169,0.009129050187766552
1782987867510644000,9.13164404296875,1.0578432083129883,0.6907557845115662,-0.049732401967048645
1782987867520718800,9.14171875,1.0541484355926514,0.7300291657447815,-0.08294202387332916
1782987867530793000,9.15179296875,1.0578126907348633,0.7778305411338806,-0.09428788721561432
1782987867540868000,9.1618681640625,1.0682392120361328,0.8154346346855164,-0.08245546370744705
1782987867550942000,9.17194189453125,1.0782963037490845,0.8416454792022705,-0.05645821616053581
1782987867561017000,9.18201708984375,1.0829235315322876,0.8512850403785706,-0.039094407111406326
1782987867571091000,9.192091064453125,1.0753750801086426,0.838405430316925,-0.021678131073713303
1782987867581164800,9.202164794921876,1.052473783493042,0.8613544702529907,-0.025961559265851974
1782987867591240000,9.212239990234375,1.0251332521438599,0.9984041452407837,-0.05241287499666214
1782987867601313800,9.222313720703125,1.0060783624649048,1.1520813703536987,-0.10241478681564331
1782987867611389000,9.232388916015625,0.993656575679779,1.14669930934906,-0.21512748301029205
1782987867621462800,9.242462890625,0.9764714241027832,0.8765291571617126,-0.3832666873931885
1782987867631538000,9.252537841796874,0.9544470906257629,0.5292635560035706,-0.5685588121414185
1782987867641611800,9.26261181640625,0.9106932282447815,0.33475401997566223,-0.7051563262939453
1782987867651687000,9.27268701171875,0.8427927494049072,0.4064503014087677,-0.7581201791763306
1782987867661761000,9.282760986328125,0.8101471662521362,0.7314174771308899,-0.667828381061554
1782987867671836000,9.2928359375,0.8390792012214661,1.2863097190856934,-0.4610863924026489
1782987867681910000,9.302909912109374,0.9266412854194641,1.897592544555664,-0.20250304043293
1782987867691984000,9.31298388671875,1.0418038368225098,2.317100763320923,0.03512203320860863
1782987867702059000,9.32305908203125,1.1616698503494263,2.4061872959136963,0.19734716415405273
1782987867712132900,9.3331328125,1.2740315198898315,2.232389211654663,0.2632681131362915
1782987867722208000,9.3432080078125,1.345510721206665,1.8647648096084595,0.23382048308849335
1782987867732281900,9.35328173828125,1.3820240497589111,1.414336919784546,0.13980050384998322
1782987867742357000,9.36335693359375,1.385939121246338,0.9900469183921814,0.013609019108116627
1782987867752430800,9.373430908203124,1.372109055519104,0.6084372401237488,-0.14280082285404205
1782987867762506000,9.383506103515625,1.371975064277649,0.30124586820602417,-0.3178623914718628
1782987867772579800,9.393579833984376,1.3927416801452637,0.08994826674461365,-0.504942774772644
1782987867782655000,9.403655029296875,1.4305771589279175,-0.01968475431203842,-0.66640704870224
1782987867792728800,9.413728759765625,1.4875458478927612,-0.005301821045577526,-0.767356812953949
1782987867802803000,9.423802978515624,1.5513187646865845,0.11871626228094101,-0.7901415228843689
1782987867812877800,9.4338779296875,1.6007128953933716,0.3217197060585022,-0.725433349609375
1782987867822952000,9.443951904296876,1.6272963285446167,0.542587399482727,-0.5902907252311707
1782987867833026800,9.45402685546875,1.630849003791809,0.7216460704803467,-0.4028475880622864
1782987867843101000,9.464100830078126,1.6162614822387695,0.8267117738723755,-0.18717308342456818
1782987867853175800,9.47417578125,1.5996607542037964,0.8611992001533508,0.019571570679545403
1782987867863250000,9.48425,1.5877395868301392,0.7965578436851501,0.17736279964447021
1782987867873324800,9.49432470703125,1.5823121070861816,0.6690017580986023,0.277387410402298
1782987867883399000,9.50439892578125,1.5829206705093384,0.5512168407440186,0.32039692997932434
1782987867893473800,9.514473876953126,1.5767426490783691,0.4697440564632416,0.30706432461738586
1782987867903548000,9.5245478515625,1.5567302703857422,0.39786213636398315,0.24503612518310547
1782987867913622000,9.5346220703125,1.5346918106079102,0.3259248435497284,0.1458810418844223
1782987867923697000,9.54469677734375,1.5120781660079956,0.2581082582473755,0.03851649910211563
1782987867933771000,9.55477099609375,1.486656904220581,0.20044441521167755,-0.05585847049951553
1782987867943846000,9.564845947265624,1.448398470878601,0.12329716980457306,-0.12551717460155487
1782987867953920000,9.574919921875,1.3965704441070557,0.0368988960981369,-0.1612759679555893
1782987867963995000,9.584994873046876,1.3286651372909546,-0.01708337850868702,-0.17483599483966827
1782987867974069000,9.595069091796875,1.2546160221099854,-0.041962895542383194,-0.17419444024562836
1782987867984144000,9.605143798828125,1.1789175271987915,-0.053371611982584,-0.17813457548618317
1782987867994218000,9.615218017578124,1.0939544439315796,-0.06433957815170288,-0.1955961287021637
1782987868004292900,9.62529296875,0.9984265565872192,-0.04969858005642891,-0.20815107226371765
1782987868014367000,9.635366943359376,0.8923797607421875,0.026196716353297234,-0.21181797981262207
1782987868024441900,9.64544189453125,0.7843112945556641,0.14478594064712524,-0.200579434633255
1782987868034516000,9.655515869140626,0.6789255142211914,0.2633003294467926,-0.17397871613502502
1782987868044590000,9.665590087890624,0.5957437753677368,0.3468378484249115,-0.14064766466617584
1782987868054665000,9.6756650390625,0.5431801676750183,0.3722718358039856,-0.08485843241214752
1782987868064739000,9.685739013671874,0.5265026688575745,0.3512570858001709,-0.01967783086001873
1782987868074814000,9.69581396484375,0.5359960794448853,0.2801181972026825,0.04975983127951622
1782987868084888000,9.70588818359375,0.5643842816352844,0.17200824618339539,0.11063943058252335
1782987868094963200,9.715963134765625,0.6003388166427612,0.05939381942152977,0.15498052537441254
1782987868105037000,9.726037109375,0.6289475560188293,-0.0044291033409535885,0.19176436960697174
1782987868115112200,9.7361123046875,0.6412721276283264,0.02395273745059967,0.21089892089366913
1782987868125186000,9.74618603515625,0.6260833144187927,0.1804179698228836,0.22842438519001007
1782987868135261200,9.75626123046875,0.5958061218261719,0.38631895184516907,0.23996493220329285
1782987868145335000,9.7663349609375,0.5571082830429077,0.4885976314544678,0.20676995813846588
1782987868155409200,9.7764091796875,0.5141176581382751,0.41592663526535034,0.114169180393219
1782987868165484000,9.786484130859375,0.43682873249053955,0.17106814682483673,-0.035474102944135666
1782987868175558100,9.79655810546875,0.29943543672561646,-0.08573275059461594,-0.24185630679130554
1782987868185633000,9.806633056640624,0.1395437866449356,-0.13209624588489532,-0.4427529275417328
1782987868195707100,9.81670703125,0.011150122620165348,0.08985026180744171,-0.5762816667556763
1782987868205782000,9.826781982421876,-0.047751009464263916,0.5041715502738953,-0.6040778756141663
1782987868215856000,9.836856201171875,-0.010058226995170116,0.9717419147491455,-0.5290851593017578
1782987868225931300,9.84693115234375,0.1122535690665245,1.337155818939209,-0.3805460035800934
1782987868236005000,9.857005126953124,0.2646585702896118,1.432711124420166,-0.20259571075439453
1782987868246080300,9.867080322265625,0.4038065969944,1.2198820114135742,-0.036138296127319336
1782987868256154000,9.877154052734374,0.5152380466461182,0.7929287552833557,0.0948527455329895
1782987868266228000,9.88722802734375,0.5974738001823425,0.3595810830593109,0.1946701556444168
1782987868276303000,9.89730322265625,0.6887794733047485,0.08710693567991257,0.26702797412872314
1782987868286377000,9.907376953125,0.7810518741607666,0.0018903117161244154,0.2917442321777344
1782987868296452000,9.9174521484375,0.8518118262290955,0.07583484053611755,0.26060494780540466
1782987868306526000,9.92752587890625,0.9251523017883301,0.2716948986053467,0.20534169673919678
1782987868316601000,9.93760107421875,0.9831514358520508,0.5431290864944458,0.15022972226142883
1782987868326675000,9.947675048828126,1.0237747430801392,0.7814963459968567,0.11322775483131409
1782987868336750000,9.95775,1.0429809093475342,0.9289654493331909,0.11402031034231186
1782987868346824200,9.96782421875,1.0458108186721802,1.0027563571929932,0.16751974821090698
1782987868356899000,9.977899169921875,1.0319610834121704,1.0247641801834106,0.24489523470401764
1782987868366973200,9.98797314453125,1.0099345445632935,0.9971215724945068,0.3182855546474457
1782987868377047000,9.998047119140624,0.9814419746398926,0.934567928314209,0.36824992299079895
1782987868387122200,10.0081220703125,0.9533362984657288,0.8811672925949097,0.36222904920578003
1782987868397196000,10.018196044921876,0.9340270757675171,0.8424941897392273,0.28809303045272827
1782987868407271200,10.028271240234375,0.9296432137489319,0.8269400000572205,0.1515306681394577
1782987868417345000,10.038344970703125,0.9361242651939392,0.7971922159194946,-0.027767449617385864
1782987868427420200,10.048420166015624,0.9578530192375183,0.7385403513908386,-0.21935711801052094
1782987868437494000,10.058493896484375,0.9977461099624634,0.6762633919715881,-0.3693564832210541
1782987868447569200,10.068569091796874,1.0442345142364502,0.6550023555755615,-0.4574964642524719
1782987868457643000,10.07864306640625,1.0894408226013184,0.6755651235580444,-0.4752674698829651
1782987868467718100,10.08871826171875,1.132259488105774,0.6857264041900635,-0.45921552181243896
1782987868477792000,10.0987919921875,1.1821439266204834,0.6514054536819458,-0.421553373336792
1782987868487866000,10.1088662109375,1.2434741258621216,0.6271648406982422,-0.3696954846382141
1782987868497941000,10.11894091796875,1.314795970916748,0.6206440925598145,-0.3039439022541046
1782987868508015000,10.12901513671875,1.382252812385559,0.6070366501808167,-0.233602374792099
1782987868518090000,10.139090087890626,1.4401719570159912,0.6108242273330688,-0.1432250738143921
1782987868528164000,10.1491640625,1.4876055717468262,0.6669726967811584,-0.03545945882797241
1782987868538239000,10.159239013671876,1.5129530429840088,0.7410115003585815,0.0683327168226242
1782987868548313000,10.16931298828125,1.5196239948272705,0.7948126792907715,0.15424177050590515
1782987868558388000,10.179387939453125,1.5124168395996094,0.8578944802284241,0.20984004437923431
1782987868568462000,10.189462158203124,1.5028742551803589,0.9645341038703918,0.2487533539533615
1782987868578537000,10.199536865234375,1.489103078842163,1.0689949989318848,0.25840386748313904
1782987868588611000,10.209611083984376,1.4812674522399902,1.1445128917694092,0.25231292843818665
1782987868598685000,10.219684814453124,1.478675127029419,1.1765693426132202,0.23975427448749542
1782987868608760000,10.229760009765625,1.483731985092163,1.173650860786438,0.20337894558906555
1782987868618834000,10.239833984375,1.4949172735214233,1.1561312675476074,0.15306171774864197
1782987868628909000,10.249908935546875,1.518486738204956,1.125849723815918,0.10371547937393188
1782987868638983000,10.25998291015625,1.5354758501052856,1.1059151887893677,0.053133524954319
1782987868649058000,10.27005810546875,1.537474274635315,1.0971806049346924,0.011965316720306873
1782987868659132000,10.2801318359375,1.5367765426635742,1.1180675029754639,-0.012193016707897186
1782987868669207000,10.29020703125,1.542029857635498,1.1901975870132446,-0.01696779765188694
1782987868679281000,10.300281005859375,1.571519136428833,1.2601194381713867,-0.004168912302702665
1782987868689356000,10.31035595703125,1.6116050481796265,1.323316216468811,0.010362626053392887
1782987868699430000,10.320429931640625,1.647497534751892,1.3370836973190308,0.01938115432858467
1782987868709504000,10.33050390625,1.6755576133728027,1.3081090450286865,0.021097294986248016
1782987868719579000,10.340578857421875,1.701017141342163,1.2815266847610474,0.019753199070692062
1782987868729653200,10.3506533203125,1.7173404693603516,1.2725856304168701,0.013855095021426678
1782987868739728000,10.360727783203124,1.733752965927124,1.2813868522644043,0.0012958941515535116
1782987868749802200,10.37080224609375,1.741274356842041,1.3270313739776611,-0.022006498649716377
1782987868759876900,10.380876953125,1.7520604133605957,1.444739818572998,-0.04828044772148132
1782987868769951200,10.390951171875,1.7640446424484253,1.4434418678283691,-0.08250179886817932
1782987868780025900,10.40102587890625,1.7559001445770264,1.2153167724609375,-0.16103602945804596
1782987868790100200,10.411100341796875,1.7172245979309082,0.8622497916221619,-0.28949040174484253
1782987868800174800,10.4211748046875,1.676137924194336,0.6274676322937012,-0.38896745443344116
1782987868810249200,10.431249267578124,1.642797827720642,0.8334490656852722,-0.40750280022621155
1782987868820323000,10.441322998046875,1.6499837636947632,1.3002409934997559,-0.3346882462501526
1782987868830398200,10.451398193359376,1.6969486474990845,1.6452583074569702,-0.21326912939548492
1782987868840472000,10.46147216796875,1.7472549676895142,1.7550554275512695,-0.07642366737127304
1782987868850547200,10.471547119140626,1.794649362564087,1.7696694135665894,0.05331408604979515
1782987868860621000,10.48162109375,1.8309743404388428,1.8442907333374023,0.1876750886440277
1782987868870696200,10.4916962890625,1.854703664779663,1.9583189487457275,0.294614315032959
1782987868880770000,10.50177001953125,1.8629876375198364,2.046093225479126,0.3669010400772095
1782987868890845200,10.51184521484375,1.8654305934906006,2.0086121559143066,0.3842478096485138
1782987868900919000,10.5219189453125,1.8574600219726562,1.7947404384613037,0.34455180168151855
1782987868910994200,10.531994140625,1.8403230905532837,1.4196141958236694,0.2441530078649521
1782987868921068000,10.542068115234375,1.829825520515442,1.0182862281799316,0.08332711458206177
1782987868931142100,10.55214208984375,1.8361376523971558,0.6843541264533997,-0.09816092252731323
1782987868941217000,10.562217041015625,1.854634165763855,0.5499049425125122,-0.25977832078933716
1782987868951291100,10.572291015625,1.859939694404602,0.6022557616233826,-0.3903578817844391
1782987868961366000,10.582365966796875,1.8529435396194458,0.7419350743293762,-0.4776858687400818
1782987868971440000,10.592440185546875,1.851800799369812,0.8785344958305359,-0.52361661195755
1782987868981515300,10.602515380859375,1.8525819778442383,1.0388232469558716,-0.500370442867279
1782987868991589000,10.612589111328125,1.8522367477416992,1.2053152322769165,-0.40385720133781433
1782987869001664300,10.622664306640624,1.8247777223587036,1.328770637512207,-0.25057628750801086
1782987869011738000,10.632738037109375,1.7775119543075562,1.365532398223877,-0.07249337434768677
1782987869021813200,10.642813232421876,1.7301156520843506,1.322201132774353,0.0846744105219841
1782987869031887000,10.65288720703125,1.6899073123931885,1.2706362009048462,0.21503108739852905
1782987869041961000,10.6629609375,1.6597602367401123,1.2327780723571777,0.3006666302680969
1782987869052036000,10.6730361328125,1.6322239637374878,1.2071200609207153,0.33654525876045227
1782987869062110000,10.68310986328125,1.6061230897903442,1.188595175743103,0.33629679679870605
1782987869072185000,10.69318505859375,1.5695805549621582,1.158027172088623,0.2978822886943817
1782987869082259000,10.703259033203125,1.5203893184661865,1.1181659698486328,0.23234961926937103
1782987869092334000,10.713333984375,1.4672670364379883,1.078181505203247,0.16125281155109406
1782987869102408200,10.723408203125,1.3962929248809814,1.0565439462661743,0.09002789109945297
1782987869112483000,10.733483154296875,1.3138086795806885,1.0291253328323364,0.03525679185986519
1782987869122557200,10.74355712890625,1.2255710363388062,0.9910187125205994,0.0016082830261439085
1782987869132632000,10.753632080078125,1.152811050415039,0.9800541996955872,0.00041678472189232707
1782987869142706200,10.7637060546875,1.0916461944580078,0.9989250898361206,0.022852851077914238
1782987869152780000,10.773780029296875,1.0313732624053955,1.0093066692352295,0.04988287016749382
1782987869162855200,10.783855224609376,0.9676233530044556,1.0088120698928833,0.057561565190553665
1782987869172929000,10.793928955078124,0.9035098552703857,0.9837040305137634,0.04254959151148796
1782987869183004200,10.804004150390625,0.8357894420623779,0.8829558491706848,0.01769191212952137
1782987869193078000,10.814078125,0.7736685276031494,0.8008628487586975,-0.0013765880139544606
1782987869203153200,10.824153076171875,0.7233920693397522,0.7995909452438354,0.003226952161639929
1782987869213227000,10.83422705078125,0.6908074617385864,0.8132936954498291,0.041072335094213486
1782987869223302100,10.84430224609375,0.6896809339523315,0.8879508972167969,0.10254421830177307
1782987869233376000,10.8543759765625,0.6823484897613525,0.9868902564048767,0.16167572140693665
1782987869243451100,10.864451171875,0.6701014041900635,1.0518519878387451,0.19742412865161896
1782987869253525000,10.87452490234375,0.6638123393058777,1.0383961200714111,0.1974954903125763
1782987869263599000,10.88459912109375,0.6856646537780762,0.9610165953636169,0.21574294567108154
1782987869273674000,10.894674072265625,0.7425793409347534,0.9725661873817444,0.2828626036643982
1782987869283748000,10.904748046875,0.7893545627593994,0.8607701659202576,0.3700670003890991
1782987869293823000,10.914822998046875,0.8041356205940247,0.5059561133384705,0.38387176394462585
1782987869303897000,10.92489697265625,0.7908448576927185,0.2571822702884674,0.3301640748977661
1782987869313972000,10.934971923828124,0.7847888469696045,0.16832323372364044,0.2532799243927002
1782987869324046000,10.945046142578125,0.7265380620956421,0.3158860504627228,0.13641244173049927
1782987869334121000,10.955120849609376,0.5643875002861023,0.36553484201431274,-0.0653529092669487
1782987869344195000,10.965195068359375,0.30473434925079346,0.167291522026062,-0.3991095721721649
1782987869354270000,10.97527001953125,0.05512503907084465,-0.13203074038028717,-0.7844287753105164
1782987869364344000,10.985343994140624,-0.12767034769058228,-0.2957507073879242,-1.0962474346160889
1782987869374419200,10.995419189453125,-0.20992393791675568,-0.10026055574417114,-1.2508792877197266
1782987869384493000,11.0054931640625,-0.1558559089899063,0.3594180941581726,-1.213690161705017
1782987869394567000,11.01556689453125,0.03609994798898697,0.8507544994354248,-1.0182998180389404
1782987869404642000,11.02564208984375,0.2843545079231262,1.2462611198425293,-0.7473855018615723
1782987869414716000,11.0357158203125,0.5130590200424194,1.4106758832931519,-0.44375932216644287
1782987869424791000,11.045791015625,0.6879286170005798,1.351914882659912,-0.15796220302581787
1782987869434865000,11.055864990234374,0.7995613813400269,1.1106135845184326,0.07524042576551437
1782987869444940000,11.06593994140625,0.8525641560554504,0.7639924883842468,0.20546233654022217
1782987869455014000,11.076013916015626,0.8707152009010315,0.4106264114379883,0.20591534674167633
1782987869465089000,11.086089111328125,0.8675603866577148,0.17180371284484863,0.09384260326623917
1782987869475163000,11.096162841796875,0.8710057139396667,0.09907758235931396,-0.10473866015672684
1782987869485238000,11.106238037109375,0.892421305179596,0.13668620586395264,-0.34452515840530396
1782987869495312100,11.11631201171875,0.9296099543571472,0.27586114406585693,-0.5748475790023804
1782987869505386200,11.12638623046875,0.979619026184082,0.4707217216491699,-0.7310153245925903
1782987869515461000,11.136461181640625,1.0490106344223022,0.6933683753013611,-0.7949541211128235
1782987869525535200,11.14653515625,1.1134151220321655,0.910875141620636,-0.7642550468444824
1782987869535610000,11.156610107421875,1.161250114440918,1.0713262557983398,-0.6742141246795654
1782987869545684200,11.166684326171875,1.1899744272232056,1.1682651042938232,-0.5707463026046753
1782987869555759000,11.176759033203124,1.1978241205215454,1.1596633195877075,-0.49491387605667114
1782987869565833200,11.186833251953125,1.1880491971969604,1.0611664056777954,-0.46621111035346985
1782987869575908000,11.196908203125,1.1711711883544922,0.9146970510482788,-0.48335015773773193
1782987869585982200,11.206982177734375,1.1484559774398804,0.7295854687690735,-0.5485329031944275
1782987869596057000,11.21705712890625,1.1309605836868286,0.5089409947395325,-0.6537243127822876
1782987869606131200,11.227131103515624,1.1210938692092896,0.2760230600833893,-0.7822796106338501
1782987869616205000,11.237205078125,1.1310460567474365,0.11743342131376266,-0.9111273288726807
1782987869626280200,11.2472802734375,1.1497478485107422,0.08922814577817917,-1.0078178644180298
1782987869636354300,11.257354248046875,1.1761888265609741,0.18267953395843506,-1.0519829988479614
1782987869646429200,11.26742919921875,1.196244239807129,0.33905261754989624,-1.0466065406799316
1782987869656503300,11.27750341796875,1.194817066192627,0.42404448986053467,-1.0422227382659912
1782987869666578200,11.287578125,1.1750152111053467,0.38316524028778076,-1.0646950006484985
1782987869676652300,11.29765234375,1.1229016780853271,0.22949311137199402,-1.1252079010009766
1782987869686727200,11.30772705078125,1.0530647039413452,0.08199580013751984,-1.2027919292449951
1782987869696801300,11.31780126953125,0.9665157198905945,-0.03428446874022484,-1.236954689025879
1782987869706876200,11.327876220703125,0.8594593405723572,-0.046780556440353394,-1.155718445777893
1782987869716950300,11.3379501953125,0.7344955801963806,0.09111206978559494,-1.0102144479751587
1782987869727024000,11.348024169921874,0.595422089099884,0.26109471917152405,-0.7993057370185852
1782987869737099300,11.358099365234375,0.47102105617523193,0.4084213078022003,-0.5751029849052429
1782987869747173000,11.368173095703124,0.3577304482460022,0.5680639743804932,-0.37642157077789307
1782987869757248300,11.378248291015625,0.29076260328292847,0.6819548606872559,-0.23201778531074524
1782987869767322000,11.388322021484376,0.324461430311203,0.6778040528297424,-0.14895007014274597
1782987869777397200,11.398397216796875,0.48983415961265564,0.6669445037841797,-0.11092545092105865
1782987869787471000,11.40847119140625,0.7439074516296387,0.7332489490509033,-0.10859305411577225
1782987869797546200,11.418546142578125,0.8819310665130615,1.8654756546020508,-0.3067748546600342
1782987869807620000,11.4286201171875,0.9522832632064819,1.4260625839233398,-0.3816285729408264
1782987869817695200,11.4386953125,1.1734029054641724,1.4577795267105103,-0.4233773648738861
1782987869827769000,11.44876904296875,1.3951789140701294,1.1697783470153809,-0.3833966553211212
1782987869837843200,11.45884326171875,1.5413206815719604,1.0848114490509033,-0.369626522064209
1782987869847918000,11.46891796875,1.6120446920394897,0.9902711510658264,-0.32146698236465454
1782987869857992200,11.4789921875,1.638692855834961,0.9873390197753906,-0.22643686830997467
1782987869868067000,11.489067138671874,1.6141424179077148,0.9600397348403931,-0.07612645626068115
1782987869878141200,11.49914111328125,1.4447095394134521,0.9444003105163574,0.24152447283267975
1782987869888216000,11.509216064453126,1.201294183731079,0.8250765800476074,0.43623510003089905
1782987869898290200,11.519290283203125,1.0919538736343384,0.6469451785087585,0.43257033824920654
1782987869908365000,11.529364990234376,1.0386523008346558,0.5733274221420288,0.2761005461215973
1782987869918439200,11.539439208984374,0.9952936172485352,0.6931289434432983,0.060025520622730255
1782987869928514000,11.54951416015625,0.951386570930481,0.8722031116485596,-0.18533843755722046
1782987869938588200,11.559588134765624,0.930307924747467,1.0453485250473022,-0.3803286850452423
1782987869948662000,11.569662109375,0.9262335896492004,1.1380635499954224,-0.4570533037185669
1782987869958737200,11.579737060546876,0.9491607546806335,1.0897096395492554,-0.3691548705101013
1782987869968811000,11.58981103515625,0.9886924028396606,0.9678835272789001,-0.16948197782039642
1782987869978886100,11.59988623046875,1.0127031803131104,0.7328534722328186,0.06387991458177567
1782987869988960000,11.6099599609375,1.046870231628418,0.5771834254264832,0.26738324761390686
1782987869999035100,11.62003515625,1.0551984310150146,0.5539318919181824,0.43285316228866577
1782987870009109000,11.63010888671875,1.0347429513931274,0.6585485935211182,0.5269621014595032
1782987870019184000,11.64018408203125,0.9682124257087708,0.7653530836105347,0.5145410895347595
1782987870029258000,11.650258056640626,0.8833915591239929,0.8585597276687622,0.3866731524467468
1782987870039332000,11.66033203125,0.8174985647201538,0.9581334590911865,0.18504922091960907
1782987870049407000,11.670406982421875,0.7630523443222046,1.0238176584243774,-0.05915386602282524
1782987870059481000,11.680481201171874,0.7318851351737976,1.0430469512939453,-0.2968252897262573
1782987870069556000,11.690555908203125,0.7324569225311279,0.9848047494888306,-0.49051618576049805
1782987870079630000,11.700630126953126,0.7594738602638245,0.8775805234909058,-0.6152083277702332
1782987870089705700,11.710705810546875,0.7805591821670532,0.8001528978347778,-0.6544068455696106
1782987870099779800,11.72077978515625,0.7862067222595215,0.7576051354408264,-0.6257898807525635
1782987870109854700,11.730854736328125,0.797383189201355,0.7713323831558228,-0.5084019899368286
1782987870119928800,11.7409287109375,0.7982953190803528,0.8224261999130249,-0.34693583846092224
1782987870130003700,11.751003662109374,0.7887851595878601,0.8725634217262268,-0.2003975510597229
1782987870140077800,11.761077880859375,0.7774891257286072,0.8529399037361145,-0.09887997806072235
1782987870150153000,11.771153076171874,0.7777213454246521,0.7996130585670471,-0.03135419264435768
1782987870160226800,11.781226806640625,0.8030551671981812,0.7592909336090088,0.016685502603650093
1782987870170300700,11.79130078125,0.8403279781341553,0.7128903865814209,0.043535757809877396
1782987870180375800,11.801375732421874,0.8977862000465393,0.6453822255134583,0.053639527410268784
1782987870190449700,11.81144970703125,0.9565190672874451,0.568142294883728,0.05289996787905693
1782987870200524800,11.82152490234375,0.9749148488044739,0.5009341835975647,0.030110498890280724
1782987870210598700,11.8315986328125,0.9507149457931519,0.4296720027923584,-0.026102706789970398
1782987870220673800,11.841673828125,0.9141840934753418,0.358639121055603,-0.11800546944141388
1782987870230747600,11.85174755859375,0.8856989145278931,0.317770779132843,-0.2076871544122696
1782987870240822800,11.86182275390625,0.8663968443870544,0.29511499404907227,-0.29080334305763245
1782987870250896600,11.871896728515624,0.8746012449264526,0.35802313685417175,-0.34256160259246826
1782987870260970800,11.881970703125,0.8785515427589417,0.4349954128265381,-0.3610575199127197
1782987870271045600,11.892045654296876,0.7979208827018738,0.437469482421875,-0.2496897280216217
1782987870281119700,11.90211962890625,0.679770290851593,0.15965330600738525,-0.2637304365634918
1782987870291195000,11.91219482421875,0.6664469838142395,-0.06615851074457169,-0.3189665377140045
1782987870301268700,11.922268798828124,0.6867003440856934,-0.049065813422203064,-0.3653782308101654
1782987870311343900,11.93234375,0.6676643490791321,0.06496994197368622,-0.4144802689552307
1782987870321417700,11.942417724609374,0.6343673467636108,0.11902572214603424,-0.4649253487586975
1782987870331492900,11.952492919921875,0.5689963698387146,0.11214065551757812,-0.47412869334220886
1782987870341566700,11.962566650390626,0.5081393718719482,0.061052169650793076,-0.40617361664772034
1782987870351641900,11.972641845703125,0.4821930229663849,-0.1374601274728775,-0.3480980694293976
