time,seconds_elapsed,z,y,x
1782987858443635500,0.064635498046875,0.017904266715049744,0.09583760052919388,-0.1457141786813736
1782987858453710300,0.07471044921875,0.012295650318264961,0.3548808693885803,-0.11912810057401657
1782987858463784400,0.084784423828125,-0.014943510293960571,0.5341466069221497,-0.12914447486400604
1782987858473859300,0.094859375,-0.05078619718551636,0.6656124591827393,-0.1603117138147354
1782987858483933400,0.104933349609375,-0.093363918364048,0.7576148509979248,-0.20465581119060516
1782987858494008600,0.115008544921875,-0.14354905486106873,0.760370135307312,-0.25519701838493347
1782987858504082400,0.12508251953125,-0.19101397693157196,0.7077083587646484,-0.2818315923213959
1782987858514156300,0.13515625,-0.21511371433734894,0.6460037231445312,-0.28212082386016846
1782987858524231400,0.1452314453125,-0.21534956991672516,0.5552480220794678,-0.2608773708343506
1782987858534305300,0.15530517578125,-0.18759356439113617,0.46568354964256287,-0.23905277252197266
1782987858544380400,0.16538037109375,-0.1493927538394928,0.34988856315612793,-0.21067076921463013
1782987858554454300,0.175454345703125,-0.1059320941567421,0.2239607274532318,-0.19356022775173187
1782987858564529400,0.185529296875,-0.059383317828178406,0.1324293166399002,-0.1801849901676178
1782987858574603300,0.195603271484375,0.0013189087621867657,0.08849621564149857,-0.16323955357074738
1782987858584678400,0.205678466796875,0.06719847768545151,0.084125816822052,-0.12333103269338608
1782987858594752300,0.215752197265625,0.13968174159526825,0.10610461980104446,-0.038481391966342926
1782987858604827400,0.225827392578125,0.2028583288192749,0.15578491985797882,0.0844772681593895
1782987858614901500,0.235901611328125,0.24136602878570557,0.2391919195652008,0.22255951166152954
1782987858624976400,0.245976318359375,0.2674529552459717,0.33126240968704224,0.3521172106266022
1782987858635050500,0.256050537109375,0.286894291639328,0.37807199358940125,0.46545442938804626
1782987858645124400,0.266124267578125,0.2964583933353424,0.369153767824173,0.5497412085533142
1782987858655199500,0.276199462890625,0.2981897294521332,0.3058839738368988,0.602347731590271
1782987858665273300,0.2862734375,0.26815342903137207,0.18829551339149475,0.6219860911369324
1782987858675348500,0.296348388671875,0.22506561875343323,0.09650727361440659,0.6238660216331482
1782987858685422300,0.30642236328125,0.17970773577690125,-0.010303918272256851,0.6137187480926514
1782987858695497500,0.31649755859375,0.1232449859380722,-0.11074050515890121,0.5930390357971191
1782987858705571300,0.3265712890625,0.0772511288523674,-0.1799057424068451,0.5754523277282715
1782987858715646500,0.336646484375,0.03078749217092991,-0.21663258969783783,0.5624725818634033
1782987858725720300,0.34672021484375,-0.02172134257853031,-0.25241678953170776,0.5315611958503723
1782987858735795500,0.35679541015625,-0.08333569765090942,-0.3368280827999115,0.47546353936195374
1782987858745869300,0.366869384765625,-0.14441397786140442,-0.4563233256340027,0.3881182372570038
1782987858755943400,0.376943359375,-0.1956193745136261,-0.5569401979446411,0.28341394662857056
1782987858766018300,0.387018310546875,-0.23814739286899567,-0.6362155079841614,0.1702353060245514
1782987858776092400,0.397092529296875,-0.2697575092315674,-0.7012725472450256,0.05236617848277092
1782987858786167300,0.407167236328125,-0.2892358601093292,-0.7239991426467896,-0.041594576090574265
1782987858796241400,0.417241455078125,-0.29056400060653687,-0.6200509071350098,-0.08933679759502411
1782987858806316300,0.42731640625,-0.2870692312717438,-0.41926130652427673,-0.09620528668165207
1782987858816390400,0.437390380859375,-0.2951223850250244,-0.15340007841587067,-0.0659661591053009
1782987858826465300,0.44746533203125,-0.30979111790657043,0.09264211356639862,-0.012893320061266422
1782987858836539400,0.457539306640625,-0.34689003229141235,0.23177257180213928,0.04623951017856598
1782987858846614300,0.4676142578125,-0.40029704570770264,0.2503809332847595,0.08002526313066483
1782987858856688400,0.4776884765625,-0.43401986360549927,0.21755534410476685,0.0987805724143982
1782987858866762500,0.487762451171875,-0.4449787735939026,0.06045334041118622,0.0819438025355339
1782987858876837400,0.49783740234375,-0.43992888927459717,-0.22735075652599335,0.034357909113168716
1782987858886911500,0.507911376953125,-0.45101067423820496,-0.5495076179504395,-0.05167844519019127
1782987858896986400,0.517986328125,-0.49891987442970276,-0.8044975996017456,-0.15983740985393524
1782987858907060500,0.528060546875,-0.5733526349067688,-0.9407101273536682,-0.26711469888687134
1782987858917135400,0.53813525390625,-0.6642785668373108,-0.9081844091415405,-0.34663188457489014
1782987858927209500,0.54820947265625,-0.7541109919548035,-0.7269574403762817,-0.3933410048484802
1782987858937284400,0.558284423828125,-0.8379078507423401,-0.4751625061035156,-0.42201367020606995
1782987858947358500,0.5683583984375,-0.8891006112098694,-0.243514746427536,-0.438373863697052
1782987858957433300,0.578433349609375,-0.8879322409629822,-0.062250152230262756,-0.4289880692958832
1782987858967507500,0.588507568359375,-0.8456383347511292,0.08221723139286041,-0.38542497158050537
1782987858977582300,0.598582275390625,-0.7764749526977539,0.18779531121253967,-0.2894691526889801
1782987858987656400,0.608656494140625,-0.6994355320930481,0.2781667113304138,-0.14262361824512482
1782987858997730600,0.61873046875,-0.6264382600784302,0.40456700325012207,0.057288430631160736
1782987859007805400,0.628805419921875,-0.5556274652481079,0.5061591267585754,0.2738197147846222
1782987859017879600,0.638879638671875,-0.4918394088745117,0.5087128281593323,0.4635981619358063
1782987859027954400,0.648954345703125,-0.42286217212677,0.39085882902145386,0.6013273000717163
1782987859038028500,0.659028564453125,-0.361147940158844,0.2256523072719574,0.669870138168335
1782987859048103400,0.669103515625,-0.2949909567832947,0.031203584745526314,0.6872135400772095
1782987859058177500,0.679177490234375,-0.22096627950668335,-0.150890052318573,0.6741967797279358
1782987859068252400,0.68925244140625,-0.14732098579406738,-0.28786927461624146,0.6440457105636597
1782987859078326800,0.699326904296875,-0.08451752364635468,-0.3919501304626465,0.582306444644928
1782987859088402000,0.70940185546875,-0.054581016302108765,-0.46006351709365845,0.49242910742759705
1782987859098475800,0.719475830078125,-0.05917710065841675,-0.45981213450431824,0.39023298025131226
1782987859108551000,0.729551025390625,-0.09126739203929901,-0.40469980239868164,0.2859750986099243
1782987859118624800,0.739624755859375,-0.14452476799488068,-0.25980332493782043,0.20475801825523376
1782987859128698600,0.74969873046875,-0.20807136595249176,-0.09236495941877365,0.15995804965496063
1782987859138773800,0.759773681640625,-0.2608616054058075,0.06991023570299149,0.1519709676504135
1782987859148847600,0.76984765625,-0.27769017219543457,0.202548548579216,0.17334048449993134
1782987859158922800,0.7799228515625,-0.25944724678993225,0.2581039369106293,0.20223338901996613
1782987859168996600,0.78999658203125,-0.22126737236976624,0.2685961127281189,0.22739332914352417
1782987859179071700,0.80007177734375,-0.1676744520664215,0.2625829577445984,0.2419421672821045
1782987859189145600,0.8101455078125,-0.12759408354759216,0.2623928189277649,0.24055719375610352
1782987859199220700,0.820220703125,-0.0842769667506218,0.2663465440273285,0.22647784650325775
1782987859209294800,0.830294921875,-0.032884612679481506,0.2530546486377716,0.1898055076599121
1782987859219369700,0.84036962890625,0.018394289538264275,0.20710313320159912,0.13007773458957672
1782987859229443800,0.85044384765625,0.05656563118100166,0.14326567947864532,0.06759722530841827
1782987859239517700,0.860517578125,0.07311984151601791,0.05861470848321915,0.008607410825788975
1782987859249592800,0.8705927734375,0.06951871514320374,-0.00959923304617405,-0.039079684764146805
1782987859259666700,0.880666748046875,0.06202644109725952,-0.055911868810653687,-0.06338688731193542
1782987859269741800,0.890741943359375,0.04178057238459587,-0.09113148599863052,-0.06475194543600082
1782987859279815700,0.900815673828125,0.0011335425078868866,-0.11110732704401016,-0.05058019980788231
1782987859289890800,0.910890869140625,-0.05224497616291046,-0.11348730325698853,-0.018395651131868362
1782987859299964700,0.920964599609375,-0.11305160075426102,-0.10245995223522186,0.019320836290717125
1782987859310039800,0.931039794921875,-0.16338138282299042,-0.07329452782869339,0.054431717842817307
1782987859320113700,0.94111376953125,-0.2032821923494339,-0.02924984320998192,0.074325792491436
1782987859330188800,0.951188720703125,-0.23023398220539093,0.003878537565469742,0.07339169085025787
1782987859340262700,0.9612626953125,-0.2507515251636505,0.03070748783648014,0.05152980238199234
1782987859350337800,0.971337890625,-0.2743859887123108,0.08962971717119217,0.017737044021487236
1782987859360411600,0.98141162109375,-0.29612910747528076,0.1456352025270462,-0.03355357423424721
1782987859370485800,0.99148583984375,-0.32178014516830444,0.194291889667511,-0.10219638049602509
1782987859380560600,1.001560546875,-0.3458695113658905,0.23403504490852356,-0.17707860469818115
1782987859390634800,1.011634765625,-0.361316978931427,0.26183220744132996,-0.24681492149829865
1782987859400709600,1.021709716796875,-0.37524452805519104,0.29290783405303955,-0.3130472004413605
1782987859410783700,1.03178369140625,-0.3858358561992645,0.30314576625823975,-0.3725680410861969
1782987859420858600,1.041858642578125,-0.3987590968608856,0.2794308662414551,-0.4303506314754486
1782987859430932700,1.0519326171875,-0.40638983249664307,0.22820724546909332,-0.46729499101638794
1782987859441007600,1.062007568359375,-0.41644513607025146,0.1878102868795395,-0.47315871715545654
1782987859451081700,1.072081787109375,-0.39468133449554443,0.20200642943382263,-0.427322119474411
1782987859461156600,1.082156494140625,-0.3447316288948059,0.2539295554161072,-0.3244633674621582
1782987859471230700,1.092230712890625,-0.24593251943588257,0.27930960059165955,-0.19578544795513153
1782987859481304600,1.1023046875,-0.09944242238998413,0.24245914816856384,-0.04113781824707985
1782987859491379700,1.112379638671875,0.035365890711545944,0.137375146150589,0.10809071362018585
1782987859501453600,1.12245361328125,0.13130146265029907,-0.04485325142741203,0.23131011426448822
1782987859511528700,1.13252880859375,0.192153200507164,-0.2528918981552124,0.3076682686805725
1782987859521602600,1.1426025390625,0.21001076698303223,-0.36811861395835876,0.3457496166229248
1782987859531677700,1.152677734375,0.18006980419158936,-0.34610334038734436,0.3470999300479889
1782987859541751600,1.16275146484375,0.10565629601478577,-0.3940551280975342,0.29864370822906494
1782987859551826700,1.17282666015625,0.009244476445019245,-0.5269003510475159,0.18217137455940247
1782987859561900500,1.182900634765625,-0.08243883401155472,-0.7459102272987366,0.02403685636818409
1782987859571975700,1.1929755859375,-0.13920529186725616,-0.956441342830658,-0.1556461900472641
1782987859582049500,1.203049560546875,-0.15963199734687805,-0.8913323879241943,-0.29218754172325134
1782987859592124700,1.213124755859375,-0.1480829268693924,-0.5508324503898621,-0.32378265261650085
1782987859602198500,1.223198486328125,-0.10155217349529266,-0.07257341593503952,-0.22605104744434357
1782987859612272600,1.233272705078125,-0.037349309772253036,0.41001635789871216,-0.025087865069508553
1782987859622347500,1.243347412109375,0.029499495401978493,0.6135239601135254,0.19009022414684296
1782987859632421600,1.253421630859375,0.11010423302650452,0.539061427116394,0.36375340819358826
1782987859642496500,1.26349658203125,0.18285593390464783,0.3307705521583557,0.457690566778183
1782987859652570600,1.273570556640625,0.21763113141059875,0.04174181818962097,0.4767530858516693
1782987859662645500,1.2836455078125,0.21148695051670074,-0.20358698070049286,0.4332282543182373
1782987859672719600,1.2937197265625,0.16877685487270355,-0.31493741273880005,0.3366476893424988
1782987859682794500,1.30379443359375,0.12095794826745987,-0.3188623785972595,0.21630875766277313
1782987859692868600,1.31386865234375,0.08043421804904938,-0.2171815037727356,0.10284646600484848
1782987859702943500,1.323943603515625,0.06439772993326187,-0.07166106253862381,0.015497180633246899
1782987859713017600,1.334017578125,0.07422920316457748,0.06070993095636368,-0.04196149483323097
1782987859723091700,1.344091796875,0.09692412614822388,0.14020875096321106,-0.05815697833895683
1782987859733166600,1.35416650390625,0.1370328813791275,0.16320011019706726,-0.03951403498649597
1782987859743240700,1.36424072265625,0.18445952236652374,0.13360440731048584,0.01687893085181713
1782987859753315600,1.374315673828125,0.23046128451824188,0.06296197324991226,0.08625423163175583
1782987859763389700,1.3843896484375,0.26615750789642334,-0.022156115621328354,0.1629420965909958
1782987859773464600,1.394464599609375,0.2895468771457672,-0.11028563976287842,0.23742499947547913
1782987859783538700,1.40453857421875,0.31155097484588623,-0.17927803099155426,0.30592313408851624
1782987859793613600,1.414613525390625,0.3402002155780792,-0.18319660425186157,0.3743381202220917
1782987859803687700,1.424687744140625,0.3657100796699524,-0.12798821926116943,0.42100071907043457
1782987859813762600,1.434762451171875,0.39064106345176697,-0.03920426219701767,0.4420528709888458
1782987859823836700,1.444836669921875,0.40416833758354187,0.057587794959545135,0.4303232431411743
1782987859833910800,1.454910888671875,0.4033103585243225,0.12550762295722961,0.40006592869758606
1782987859843986000,1.46498583984375,0.3824564814567566,0.17877884209156036,0.37585461139678955
1782987859854059800,1.475059814453125,0.3377074897289276,0.21692849695682526,0.3625020682811737
1782987859864135000,1.485135009765625,0.2705326974391937,0.1950141340494156,0.35892730951309204
1782987859874208800,1.495208740234375,0.19551344215869904,0.1419835090637207,0.3479563295841217
1782987859884284000,1.505283935546875,0.1052144318819046,0.06884323805570602,0.3285301625728607
1782987859894357800,1.515357666015625,0.021888883784413338,-0.027507716789841652,0.297947496175766
1782987859904433000,1.525432861328125,-0.048345066606998444,-0.13565762341022491,0.2408061921596527
1782987859914506800,1.5355068359375,-0.09752370417118073,-0.19830837845802307,0.1719745248556137
1782987859924582000,1.545581787109375,-0.139529749751091,-0.20052891969680786,0.10687141865491867
1782987859934655700,1.55565576171875,-0.17689789831638336,-0.1884053498506546,0.050331808626651764
1782987859944731000,1.56573095703125,-0.20308449864387512,-0.18114344775676727,-0.013365145772695541
1782987859954804700,1.5758046875,-0.21227319538593292,-0.1982458382844925,-0.06360320746898651
1782987859964878800,1.58587890625,-0.2154359668493271,-0.2510712444782257,-0.09063482284545898
1782987859974953700,1.59595361328125,-0.2142871767282486,-0.32800570130348206,-0.09386543929576874
1782987859985027800,1.60602783203125,-0.20779812335968018,-0.4197334945201874,-0.07325150072574615
1782987859995102700,1.616102783203125,-0.19613762199878693,-0.527442216873169,-0.04683346673846245
1782987860005176800,1.6261767578125,-0.18506845831871033,-0.6215910911560059,-0.007644520606845617
1782987860015251700,1.636251708984375,-0.1794501692056656,-0.6059619188308716,0.02841036766767502
1782987860025325800,1.646325927734375,-0.18174394965171814,-0.4887197017669678,0.07139032334089279
1782987860035400700,1.656400634765625,-0.21618856489658356,-0.3222879469394684,0.113035649061203
1782987860045474800,1.666474853515625,-0.26813405752182007,-0.15649819374084473,0.14730654656887054
1782987860055549700,1.6765498046875,-0.31028348207473755,-0.013115936890244484,0.17452581226825714
1782987860065623800,1.686623779296875,-0.32089963555336,0.08023504912853241,0.19132183492183685
1782987860075698000,1.696697998046875,-0.32082563638687134,0.10191752016544342,0.19738543033599854
1782987860085773000,1.70677294921875,-0.3020698130130768,0.05269990488886833,0.20308512449264526
1782987860095847000,1.716846923828125,-0.2753297984600067,-0.002523667411878705,0.1958242803812027
1782987860105922000,1.726922119140625,-0.24661162495613098,-0.03196278214454651,0.1785757839679718
1782987860115996000,1.736995849609375,-0.231990784406662,-0.0010972622549161315,0.14174920320510864
1782987860126071000,1.747071044921875,-0.21720677614212036,0.1404241919517517,0.10192082822322845
1782987860136145000,1.757144775390625,-0.19366826117038727,0.22996419668197632,0.03415250405669212
1782987860146220000,1.767219970703125,-0.17074963450431824,0.15687507390975952,-0.08242923021316528
1782987860156294000,1.7772939453125,-0.18628570437431335,-0.12492290884256363,-0.26920703053474426
1782987860166369000,1.787369140625,-0.2592858672142029,-0.5134022235870361,-0.5133339762687683
1782987860176443000,1.79744287109375,-0.39727261662483215,-0.7499257326126099,-0.7557831406593323
1782987860186517000,1.80751708984375,-0.5498416423797607,-0.776071310043335,-0.9418454170227051
1782987860196591900,1.817591796875,-0.695993185043335,-0.5494527816772461,-1.0545448064804077
1782987860206666000,1.827666015625,-0.8159446120262146,-0.1425372064113617,-1.0578181743621826
1782987860216740900,1.837740966796875,-0.8865707516670227,0.3101055324077606,-0.9327901601791382
1782987860226815000,1.84781494140625,-0.9018852710723877,0.6840314269065857,-0.7198802828788757
1782987860236889900,1.857889892578125,-0.8562101721763611,0.9087837338447571,-0.4729180634021759
1782987860246964000,1.8679638671875,-0.7727370858192444,0.99165278673172,-0.2454870492219925
1782987860257038800,1.878038818359375,-0.6619503498077393,0.8487786650657654,-0.06277523934841156
1782987860267113000,1.888113037109375,-0.5274186134338379,0.5768305063247681,0.09221407026052475
1782987860277187800,1.898187744140625,-0.38442543148994446,0.2716587483882904,0.25923192501068115
1782987860287262000,1.908261962890625,-0.24385736882686615,0.027564043179154396,0.43324926495552063
1782987860297336800,1.9183369140625,-0.13934776186943054,-0.14917859435081482,0.5903207063674927
1782987860307411000,1.928410888671875,-0.09809673577547073,-0.2432081550359726,0.7006232142448425
1782987860317484800,1.93848486328125,-0.11149855703115463,-0.2579391896724701,0.7492030262947083
1782987860327560000,1.948559814453125,-0.1746484935283661,-0.23527619242668152,0.7295960187911987
1782987860337633800,1.9586337890625,-0.271099716424942,-0.206627756357193,0.6469516754150391
1782987860347709000,1.968708984375,-0.38501936197280884,-0.1688401699066162,0.5267695784568787
1782987860357782800,1.97878271484375,-0.5075506567955017,-0.10262387245893478,0.39689934253692627
1782987860367858000,1.98885791015625,-0.6371022462844849,-0.05095481872558594,0.26391467452049255
1782987860377931800,1.998931884765625,-0.7450459003448486,-0.015859005972743034,0.15476422011852264
1782987860388007000,2.0090068359375,-0.8126236200332642,0.005485697649419308,0.07905161380767822
1782987860398080800,2.019080810546875,-0.8466823697090149,-0.020562579855322838,0.029966410249471664
1782987860408156000,2.029156005859375,-0.8426468968391418,-0.10408543795347214,-0.01025824062526226
1782987860418229800,2.039229736328125,-0.8234787583351135,-0.21339695155620575,-0.04654984176158905
1782987860428304000,2.049303955078125,-0.7925005555152893,-0.31265297532081604,-0.07803133130073547
1782987860438378800,2.059378662109375,-0.7614864706993103,-0.38778501749038696,-0.10556122660636902
1782987860448452900,2.069452880859375,-0.736026406288147,-0.425782173871994,-0.12914805114269257
1782987860458528000,2.079528076171875,-0.6989380717277527,-0.4327932894229889,-0.14338287711143494
1782987860468601900,2.089601806640625,-0.650266170501709,-0.3843402564525604,-0.13174885511398315
1782987860478677000,2.099677001953125,-0.6037827134132385,-0.3232727348804474,-0.09237460047006607
1782987860488750800,2.109750732421875,-0.557874858379364,-0.30681145191192627,-0.036022111773490906
1782987860498826000,2.119825927734375,-0.5228267312049866,-0.3366771638393402,0.03058909997344017
1782987860508899800,2.12989990234375,-0.49901431798934937,-0.39814266562461853,0.11878979206085205
1782987860518974000,2.139973876953125,-0.47992753982543945,-0.45828577876091003,0.23040179908275604
1782987860529048800,2.150048828125,-0.4669819176197052,-0.5140185356140137,0.3520587384700775
1782987860539123000,2.160123046875,-0.46518969535827637,-0.5613450407981873,0.45614612102508545
1782987860549197800,2.17019775390625,-0.4621531367301941,-0.6057093143463135,0.520077109336853
1782987860559272000,2.18027197265625,-0.4592669904232025,-0.6197584867477417,0.5385026335716248
1782987860569346800,2.190346923828125,-0.46058419346809387,-0.6018247604370117,0.4980635941028595
1782987860579421000,2.2004208984375,-0.46610522270202637,-0.5453124046325684,0.42008790373802185
1782987860589495800,2.210495849609375,-0.4803139865398407,-0.4086275100708008,0.3291233777999878
1782987860599570000,2.22056982421875,-0.5091139078140259,-0.2442006766796112,0.2415381371974945
1782987860609644800,2.230644775390625,-0.5482873916625977,-0.10249973833560944,0.1444254368543625
1782987860619719000,2.240718994140625,-0.5812245607376099,0.02129124104976654,0.03437812626361847
1782987860629793800,2.250793701171875,-0.593080997467041,0.08577702939510345,-0.08190454542636871
1782987860639868000,2.260867919921875,-0.5647240877151489,0.07324211299419403,-0.18045052886009216
1782987860649942000,2.27094189453125,-0.5023928284645081,0.04613751918077469,-0.24969032406806946
1782987860660017000,2.281016845703125,-0.41381707787513733,0.005261205602437258,-0.28009334206581116
1782987860670091000,2.291091064453125,-0.30892688035964966,-0.06018863990902901,-0.27560698986053467
1782987860680166000,2.301165771484375,-0.19576849043369293,-0.10530667006969452,-0.24108587205410004
1782987860690240000,2.311239990234375,-0.08088930696249008,-0.11894125491380692,-0.19355297088623047
1782987860700315000,2.32131494140625,0.034059178084135056,-0.006384961307048798,-0.15720893442630768
1782987860710389000,2.331388916015625,0.12130992114543915,0.0902068242430687,-0.14328913390636444
1782987860720464000,2.3414638671875,0.16871385276317596,-0.07757585495710373,-0.18571963906288147
1782987860730538000,2.3515380859375,0.16443096101284027,-0.34577590227127075,-0.2395668923854828
1782987860740612900,2.36161279296875,0.1460241675376892,-0.7200561165809631,-0.30686160922050476
1782987860750687000,2.37168701171875,0.13372889161109924,-0.91164231300354,-0.334261029958725
1782987860760761000,2.381760986328125,0.11116275936365128,-0.6940063834190369,-0.284846693277359
1782987860770836000,2.3918359375,0.10459913313388824,-0.30356666445732117,-0.15093471109867096
1782987860780910000,2.40191015625,0.15123625099658966,0.10602203011512756,0.0402861163020134
1782987860790985000,2.41198486328125,0.23273563385009766,0.36998605728149414,0.25574544072151184
1782987860801059000,2.42205908203125,0.3331769108772278,0.33883315324783325,0.43241146206855774
1782987860811134000,2.432134033203125,0.4386700391769409,0.14483411610126495,0.5712577700614929
1782987860821208000,2.4422080078125,0.5120788216590881,-0.046356238424777985,0.6658677458763123
1782987860831283000,2.452282958984375,0.5385926961898804,-0.18523822724819183,0.7288850545883179
1782987860841357000,2.462357177734375,0.49589836597442627,-0.2121727615594864,0.7559230923652649
1782987860851432000,2.472431884765625,0.4105871915817261,-0.1467338353395462,0.7501019239425659
1782987860861506000,2.482506103515625,0.32139062881469727,-0.008319584652781487,0.7109447717666626
1782987860871580000,2.492579833984375,0.2451842725276947,0.1254265010356903,0.6511549353599548
1782987860881655000,2.502655029296875,0.18841084837913513,0.17452393472194672,0.5703709721565247
1782987860891729000,2.51272900390625,0.15952274203300476,0.12828347086906433,0.48111701011657715
1782987860901804000,2.522803955078125,0.15073154866695404,0.038838017731904984,0.40528595447540283
1782987860911878000,2.5328779296875,0.1411481648683548,-0.06774062663316727,0.3380778729915619
1782987860921953000,2.542953125,0.1274121105670929,-0.15127286314964294,0.2858273684978485
1782987860932027000,2.55302685546875,0.10922539234161377,-0.21130476891994476,0.25258952379226685
1782987860942102000,2.56310205078125,0.08929163962602615,-0.2564622461795807,0.23795394599437714
1782987860952175900,2.57317578125,0.07646719366312027,-0.2773555517196655,0.2358282059431076
1782987860962251000,2.5832509765625,0.07440081238746643,-0.26041191816329956,0.24299080669879913
1782987860972324900,2.593324951171875,0.08268377184867859,-0.23024281859397888,0.24533705413341522
1782987860982399000,2.60339892578125,0.10285112261772156,-0.17444534599781036,0.2533649504184723
1782987860992473900,2.613473876953125,0.1241321712732315,-0.08551467955112457,0.2664341628551483
1782987861002548000,2.6235478515625,0.12943211197853088,0.028835659846663475,0.28160279989242554
1782987861012622800,2.633622802734375,0.1260853260755539,0.16306589543819427,0.30043134093284607
1782987861022697000,2.643697021484375,0.11767356842756271,0.26425716280937195,0.3257591724395752
1782987861032771800,2.653771728515625,0.10992030799388885,0.2994958460330963,0.3510221838951111
1782987861042846000,2.663845947265625,0.09907633811235428,0.2508952021598816,0.3718261122703552
1782987861052920800,2.6739208984375,0.08557544648647308,0.1480543166399002,0.3778826594352722
1782987861062995000,2.683994873046875,0.07021646201610565,0.038878023624420166,0.36129915714263916
1782987861073069800,2.69406982421875,0.05523431673645973,-0.023580828681588173,0.3109198808670044
1782987861083142700,2.704142578125,0.046125687658786774,-0.037993963807821274,0.24072708189487457
1782987861093217000,2.714217041015625,0.03128868341445923,0.046608537435531616,0.16020001471042633
1782987861103291600,2.724291748046875,0.00533378217369318,0.15343643724918365,0.0708586797118187
1782987861113366000,2.734365966796875,-0.017578192055225372,0.2380613088607788,-0.023206565529108047
1782987861123440600,2.744440673828125,-0.04470203071832657,0.30280813574790955,-0.1127450093626976
1782987861133515000,2.754514892578125,-0.05992093309760094,0.3033120036125183,-0.20995783805847168
1782987861143589600,2.764589599609375,-0.07743805646896362,0.23168060183525085,-0.30153390765190125
1782987861153664000,2.7746640625,-0.09439627081155777,0.1091163381934166,-0.36115968227386475
1782987861163738600,2.784738525390625,-0.10429618507623672,-0.04480002447962761,-0.37877142429351807
1782987861173813000,2.79481298828125,-0.11351178586483002,-0.17750214040279388,-0.35571804642677307
1782987861183887600,2.8048876953125,-0.11811671406030655,-0.27496257424354553,-0.3218354880809784
1782987861193962000,2.8149619140625,-0.1201886534690857,-0.3127528131008148,-0.28310060501098633
1782987861204035800,2.825035888671875,-0.11948857456445694,-0.28515028953552246,-0.24764908850193024
1782987861214111000,2.835111083984375,-0.12594939768314362,-0.2371864765882492,-0.2284165471792221
1782987861224184800,2.845184814453125,-0.13292688131332397,-0.18309155106544495,-0.22036421298980713
1782987861234260000,2.855260009765625,-0.15777550637722015,-0.12589751183986664,-0.21650049090385437
1782987861244333800,2.865333740234375,-0.20389719307422638,-0.13316448032855988,-0.23039980232715607
1782987861254409000,2.875408935546875,-0.25794070959091187,-0.1349211037158966,-0.24913780391216278
1782987861264482800,2.88548291015625,-0.3242872357368469,-0.014104248955845833,-0.2514495849609375
1782987861274558000,2.895557861328125,-0.3978799879550934,-0.009024269878864288,-0.2836991548538208
1782987861284631800,2.9056318359375,-0.4720037281513214,-0.17481723427772522,-0.37256643176078796
1782987861294707000,2.91570703125,-0.5336023569107056,-0.46846455335617065,-0.5074161291122437
1782987861304780800,2.92578076171875,-0.5763735175132751,-0.7280270457267761,-0.6492437124252319
1782987861314855000,2.93585498046875,-0.6236674785614014,-0.8149499893188477,-0.7431776523590088
1782987861324929800,2.9459296875,-0.6711502075195312,-0.6789315342903137,-0.7723514437675476
1782987861335004000,2.95600390625,-0.7029409408569336,-0.36095598340034485,-0.7250944375991821
1782987861345078800,2.966078857421875,-0.7008346915245056,0.04774516820907593,-0.5771436095237732
1782987861355153000,2.97615283203125,-0.6630130410194397,0.40582847595214844,-0.35722509026527405
1782987861365227800,2.986227783203125,-0.5918866991996765,0.555173397064209,-0.1181127279996872
1782987861375302000,2.996302001953125,-0.49376192688941956,0.46082428097724915,0.09724459052085876
1782987861385376800,3.006376708984375,-0.3708660304546356,0.23559528589248657,0.25483354926109314
1782987861395451000,3.016450927734375,-0.24456241726875305,-0.036683641374111176,0.35283786058425903
1782987861405526000,3.026526123046875,-0.13607634603977203,-0.3048558235168457,0.39517807960510254
1782987861415599900,3.036599853515625,-0.07858934253454208,-0.46335357427597046,0.4023398458957672
1782987861425675000,3.046675048828125,-0.07624654471874237,-0.5122799873352051,0.37960201501846313
1782987861435748900,3.056748779296875,-0.1200113371014595,-0.4888971745967865,0.3172909617424011
1782987861445822700,3.06682275390625,-0.19216908514499664,-0.4120321571826935,0.2269032597541809
1782987861455897900,3.07689794921875,-0.2829684913158417,-0.29612767696380615,0.14142511785030365
1782987861465971700,3.0869716796875,-0.38144874572753906,-0.15970703959465027,0.0787360668182373
1782987861476046800,3.097046875,-0.47808313369750977,-0.010329794138669968,0.04765325412154198
1782987861486120700,3.10712060546875,-0.5630954504013062,0.12675796449184418,0.05322768911719322
1782987861496195800,3.11719580078125,-0.6203166842460632,0.21494640409946442,0.09159451723098755
1782987861506269700,3.127269775390625,-0.6393676400184631,0.23801369965076447,0.14859038591384888
1782987861516344800,3.1373447265625,-0.6249386668205261,0.2009962946176529,0.20199209451675415
1782987861526418700,3.147418701171875,-0.6009177565574646,0.10796333849430084,0.23092582821846008
1782987861536492800,3.157492919921875,-0.5772755742073059,-0.018202055245637894,0.22210223972797394
1782987861546568000,3.16756787109375,-0.5565127730369568,-0.1421852558851242,0.16991093754768372
1782987861556641800,3.177641845703125,-0.537079393863678,-0.2221573144197464,0.07975281774997711
1782987861566717000,3.187717041015625,-0.521754801273346,-0.26649346947669983,-0.033608339726924896
1782987861576790800,3.197790771484375,-0.5084823966026306,-0.2695739269256592,-0.14172948896884918
1782987861586866000,3.207865966796875,-0.5005491971969604,-0.23499374091625214,-0.22432950139045715
1782987861596939800,3.217939697265625,-0.4945458769798279,-0.1892978847026825,-0.2658636271953583
1782987861607015000,3.228014892578125,-0.47779521346092224,-0.14802265167236328,-0.2568231225013733
1782987861617088800,3.2380888671875,-0.44967809319496155,-0.1118563860654831,-0.20214790105819702
1782987861627164000,3.248163818359375,-0.4111135005950928,-0.07619206607341766,-0.10198599100112915
1782987861637237800,3.25823779296875,-0.3687119781970978,-0.05788416415452957,0.010476374067366123
1782987861647311600,3.2683115234375,-0.33384430408477783,-0.06321197003126144,0.11286099255084991
1782987861657386800,3.27838671875,-0.30835971236228943,-0.06151819974184036,0.19132916629314423
1782987861667460900,3.2884609375,-0.2866503894329071,-0.029779765754938126,0.2523956298828125
1782987861677535700,3.29853564453125,-0.2640739679336548,0.0076227327808737755,0.29357901215553284
1782987861687609900,3.30860986328125,-0.23915964365005493,0.032824479043483734,0.3149169087409973
1782987861697684700,3.318684814453125,-0.21372832357883453,0.053403787314891815,0.31966879963874817
1782987861707758800,3.3287587890625,-0.19303558766841888,0.04066478833556175,0.3252040147781372
1782987861717833700,3.338833740234375,-0.18638406693935394,0.020703328773379326,0.3314693570137024
1782987861727907800,3.348907958984375,-0.19181302189826965,-0.01191011443734169,0.3449954390525818
1782987861737982700,3.358982666015625,-0.1993766576051712,-0.04586994647979736,0.36153846979141235
1782987861748056800,3.369056884765625,-0.19204896688461304,-0.06442051380872726,0.3688519597053528
1782987861758131700,3.379131591796875,-0.17249444127082825,-0.08829948306083679,0.3577289879322052
1782987861768205800,3.389205810546875,-0.13874420523643494,-0.11581361293792725,0.3365894556045532
1782987861778279700,3.39927978515625,-0.1076001301407814,-0.1356283277273178,0.3089841902256012
1782987861788354800,3.409354736328125,-0.09063881635665894,-0.14849735796451569,0.2585429847240448
1782987861798428700,3.4194287109375,-0.08066634088754654,-0.12553931772708893,0.20754265785217285
1782987861808503800,3.42950390625,-0.08228243887424469,-0.01943337917327881,0.1639782041311264
1782987861818577700,3.43957763671875,-0.10509268194437027,0.23376399278640747,0.1276811808347702
1782987861828652800,3.44965283203125,-0.13537158071994781,0.4043187201023102,0.09735094010829926
1782987861838726700,3.4597265625,-0.14174319803714752,0.25557026267051697,0.031877659261226654
1782987861848801800,3.4698017578125,-0.13847725093364716,-0.07965327799320221,-0.078177809715271
1782987861858875600,3.479875732421875,-0.13690972328186035,-0.5327895879745483,-0.22140900790691376
1782987861868950000,3.489949951171875,-0.12774908542633057,-0.7516984939575195,-0.34740522503852844
1782987861879024600,3.500024658203125,-0.13086017966270447,-0.6537045240402222,-0.4153866469860077
1782987861889099000,3.51009912109375,-0.13257010281085968,-0.45129069685935974,-0.4309040606021881
1782987861899173600,3.520173583984375,-0.12423333525657654,-0.1710803359746933,-0.36370426416397095
1782987861909248000,3.530248046875,-0.11306211352348328,0.15763691067695618,-0.21218934655189514
1782987861919322600,3.540322509765625,-0.1115632876753807,0.43504559993743896,-0.031323954463005066
1782987861929397000,3.55039697265625,-0.10439503192901611,0.5827725529670715,0.13716202974319458
1782987861939471600,3.5604716796875,-0.06290005147457123,0.6010602116584778,0.2693221867084503
1782987861949546000,3.5705458984375,-0.0023881294764578342,0.475442498922348,0.35878363251686096
1782987861959620600,3.58062060546875,0.05582670494914055,0.24653474986553192,0.40801137685775757
1782987861969695000,3.590695068359375,0.1029418557882309,-0.02857811190187931,0.4118882417678833
1782987861979768800,3.600768798828125,0.1417585015296936,-0.2783631682395935,0.3516877591609955
1782987861989844000,3.610843994140625,0.18202106654644012,-0.45312780141830444,0.23492830991744995
1782987861999917800,3.620917724609375,0.22416798770427704,-0.5348312258720398,0.0877753421664238
1782987862009993000,3.630992919921875,0.25400832295417786,-0.5209352970123291,-0.05188732221722603
1782987862020066800,3.64106689453125,0.2639160752296448,-0.45333173871040344,-0.15549680590629578
1782987862030142000,3.651141845703125,0.2582554221153259,-0.3511686623096466,-0.20416510105133057
1782987862040215800,3.6612158203125,0.23950064182281494,-0.22192783653736115,-0.18063978850841522
1782987862050291000,3.671291015625,0.2021675556898117,-0.1054329201579094,-0.09460337460041046
1782987862060364800,3.68136474609375,0.15634600818157196,-0.029266774654388428,0.03595489636063576
1782987862070440000,3.69143994140625,0.11904998123645782,0.012499074451625347,0.1833004355430603
1782987862080514600,3.7015146484375,0.09261411428451538,-0.007508722133934498,0.3156110644340515
1782987862090588700,3.711588623046875,0.08629190921783447,-0.0894206091761589,0.4106379747390747
1782987862100663600,3.72166357421875,0.09623642265796661,-0.17357704043388367,0.4557548463344574
1782987862110737700,3.731737548828125,0.11101440340280533,-0.22051239013671875,0.45541858673095703
1782987862120812500,3.7418125,0.11539849638938904,-0.19958579540252686,0.4345170259475708
1782987862130886700,3.75188671875,0.10740341991186142,-0.12429503351449966,0.39417174458503723
1782987862140961500,3.76196142578125,0.07792329788208008,-0.06268014013767242,0.3514583706855774
1782987862151035600,3.77203564453125,0.04115472733974457,-0.042896583676338196,0.3058657944202423
1782987862161110500,3.782110595703125,-0.0016073829028755426,-0.06660084426403046,0.25561195611953735
1782987862171184600,3.7921845703125,-0.053878411650657654,-0.12166803330183029,0.1940651386976242
1782987862181259500,3.802259521484375,-0.1120208129286766,-0.19203700125217438,0.12353610247373581
1782987862191333600,3.812333740234375,-0.17382487654685974,-0.2553897500038147,0.0441097728908062
1782987862201407700,3.82240771484375,-0.22086508572101593,-0.28718870878219604,-0.03921361267566681
1782987862211482600,3.832482666015625,-0.261450856924057,-0.28429290652275085,-0.10730183869600296
1782987862221556700,3.842556640625,-0.2912431061267853,-0.23920957744121552,-0.1580241322517395
1782987862231631600,3.852631591796875,-0.30709370970726013,-0.20741020143032074,-0.18982486426830292
1782987862241705700,3.862705810546875,-0.3180648684501648,-0.18717923760414124,-0.20886194705963135
1782987862251780600,3.872780517578125,-0.32847490906715393,-0.19797265529632568,-0.20494475960731506
1782987862261854700,3.882854736328125,-0.33899226784706116,-0.2375006228685379,-0.2024557739496231
1782987862271929600,3.8929296875,-0.357085257768631,-0.2918478846549988,-0.20304027199745178
1782987862282003700,3.903003662109375,-0.3737601041793823,-0.3217051029205322,-0.21592357754707336
1782987862292078600,3.91307861328125,-0.39147746562957764,-0.2692744731903076,-0.21783386170864105
1782987862302152700,3.923152587890625,-0.4102762043476105,-0.17627452313899994,-0.20795938372612
1782987862312226600,3.9332265625,-0.4255440831184387,-0.09149319678544998,-0.17845244705677032
1782987862322301700,3.9433017578125,-0.42500558495521545,-0.030420523136854172,-0.11231602728366852
1782987862332375600,3.95337548828125,-0.4152231514453888,0.014036651700735092,-0.007296753115952015
1782987862342450700,3.96345068359375,-0.40654656291007996,0.03466523438692093,0.11960207670927048
1782987862352524500,3.973524658203125,-0.4023740589618683,-0.00023269944358617067,0.24458962678909302
1782987862362598700,3.9835986328125,-0.39437392354011536,-0.09461486339569092,0.33661940693855286
1782987862372672500,3.993672607421875,-0.38580623269081116,-0.21715673804283142,0.3751775324344635
1782987862382747600,4.00374755859375,-0.36263540387153625,-0.31538236141204834,0.36533501744270325
1782987862392821500,4.013821533203125,-0.3423183858394623,-0.3138416111469269,0.31915900111198425
1782987862402896600,4.023896728515625,-0.33637791872024536,-0.18241383135318756,0.2779116928577423
1782987862412970500,4.033970458984375,-0.34599173069000244,-0.11153168231248856,0.22845052182674408
1782987862423045600,4.044045654296875,-0.378338485956192,-0.16312110424041748,0.15229742228984833
1782987862433119500,4.054119384765625,-0.4206860363483429,-0.38198941946029663,0.048321012407541275
1782987862443193600,4.064193603515625,-0.48540112376213074,-0.6681426167488098,-0.08076879382133484
1782987862453268500,4.0742685546875,-0.585357129573822,-0.8158475756645203,-0.1972646266222
1782987862463342600,4.084342529296875,-0.7180464863777161,-0.750262975692749,-0.2675398588180542
1782987862473417500,4.09441748046875,-0.8650684952735901,-0.5688216686248779,-0.28849196434020996
1782987862483491600,4.10449169921875,-0.9943361878395081,-0.37805116176605225,-0.25700488686561584
1782987862493566500,4.11456640625,-1.072901725769043,-0.22502857446670532,-0.17359374463558197
1782987862503640600,4.124640625,-1.1100068092346191,-0.13038888573646545,-0.062235258519649506
1782987862513715500,4.134715576171875,-1.107010006904602,-0.16060900688171387,0.06426520645618439
1782987862523789600,4.14478955078125,-1.0705527067184448,-0.27493342757225037,0.17691372334957123
1782987862533864400,4.154864501953125,-1.0173895359039307,-0.43598607182502747,0.2798744738101959
1782987862543938600,4.1649384765625,-0.9724767208099365,-0.5799837112426758,0.3695510923862457
1782987862554012400,4.175012451171875,-0.9288089871406555,-0.7119172215461731,0.441724568605423
1782987862564087600,4.185087646484375,-0.9066603183746338,-0.7707304954528809,0.4794144332408905
1782987862574161400,4.195161376953125,-0.9174205660820007,-0.7389461398124695,0.4863773286342621
1782987862584236500,4.205236572265625,-0.950273334980011,-0.6344109773635864,0.46893310546875
1782987862594310400,4.215310302734375,-1.0060750246047974,-0.4665411114692688,0.43793627619743347
1782987862604385500,4.225385498046875,-1.0752921104431152,-0.2849859595298767,0.40114229917526245
1782987862614459400,4.23545947265625,-1.14551842212677,-0.11630623787641525,0.368439644575119
1782987862624534500,4.245534423828125,-1.2035878896713257,-0.00828336551785469,0.34020400047302246
1782987862634608400,4.2556083984375,-1.2248334884643555,0.025404494255781174,0.32461848855018616
1782987862644682800,4.265682861328125,-1.213517427444458,-0.01255593728274107,0.31792089343070984
1782987862654757400,4.27575732421875,-1.179337978363037,-0.11816326528787613,0.313115656375885
1782987862664831700,4.285831787109375,-1.1416462659835815,-0.2594412863254547,0.3026835322380066
1782987862674906400,4.29590625,-1.099372148513794,-0.4471583664417267,0.26341018080711365
1782987862684980700,4.305980712890625,-1.0538557767868042,-0.6135910153388977,0.18886937201023102
1782987862695055400,4.316055419921875,-1.0051816701889038,-0.7069947719573975,0.10109974443912506
1782987862705129700,4.326129638671875,-0.9539054036140442,-0.7480024099349976,-0.0027105342596769333
1782987862715204400,4.336204345703125,-0.9068586826324463,-0.7723437547683716,-0.11376930773258209
1782987862725278700,4.34627880859375,-0.8652023077011108,-0.7783087491989136,-0.22308434545993805
1782987862735353600,4.356353515625,-0.8226349353790283,-0.7613335847854614,-0.29434749484062195
1782987862745428500,4.366428466796875,-0.7898865938186646,-0.669305682182312,-0.30112549662590027
1782987862755502600,4.376502685546875,-0.7704732418060303,-0.5775681734085083,-0.2540300488471985
1782987862765577500,4.386577392578125,-0.7517663836479187,-0.5208162069320679,-0.1696496307849884
1782987862775651600,4.396651611328125,-0.7249032855033875,-0.5065564513206482,-0.06084134429693222
1782987862785726500,4.4067265625,-0.6943358182907104,-0.4908235967159271,0.05901288986206055
1782987862795800600,4.416800537109375,-0.6747661828994751,-0.4352969229221344,0.17859090864658356
1782987862805875500,4.42687548828125,-0.6601642966270447,-0.36310315132141113,0.28669553995132446
1782987862815949600,4.436949462890625,-0.6429236531257629,-0.3100857436656952,0.36229637265205383
1782987862826024400,4.4470244140625,-0.6195019483566284,-0.2628721594810486,0.4014589488506317
1782987862836098600,4.4570986328125,-0.5997272729873657,-0.2547966539859772,0.4015006124973297
1782987862846173400,4.46717333984375,-0.5801658630371094,-0.26866427063941956,0.38254398107528687
1782987862856247600,4.47724755859375,-0.5731397271156311,-0.2805984616279602,0.33720335364341736
1782987862866321700,4.48732177734375,-0.5826548933982849,-0.2783089280128479,0.2789326012134552
1782987862876396500,4.497396484375,-0.597158670425415,-0.2718322277069092,0.22232545912265778
1782987862886470700,4.507470703125,-0.6110041737556458,-0.2593481242656708,0.17264285683631897
1782987862896545500,4.517545654296875,-0.6234872937202454,-0.23570208251476288,0.14181889593601227
1782987862906619600,4.52761962890625,-0.6352717876434326,-0.21187397837638855,0.1218813955783844
1782987862916694500,4.537694580078125,-0.6567949056625366,-0.18657709658145905,0.10532362014055252
1782987862926768600,4.5477685546875,-0.6808704137802124,-0.1741553246974945,0.08960111439228058
1782987862936843500,4.557843505859375,-0.7114577293395996,-0.1708531230688095,0.06416074186563492
1782987862946917600,4.567917724609375,-0.7403482794761658,-0.17237192392349243,0.021838055923581123
1782987862956992500,4.577992431640625,-0.7626535296440125,-0.0755479484796524,-0.03305843845009804
1782987862967066600,4.588066650390625,-0.7829465270042419,0.03703957796096802,-0.08257699012756348
1782987862977140700,4.598140625,-0.7701214551925659,-0.07290134578943253,-0.15106599032878876
1782987862987215600,4.608215576171875,-0.748360276222229,-0.2564791738986969,-0.2542555034160614
1782987862997289700,4.618289794921875,-0.7224608659744263,-0.559490978717804,-0.3697637915611267
1782987863007364600,4.628364501953125,-0.7003704905509949,-0.8084900975227356,-0.46682801842689514
1782987863017438700,4.638438720703125,-0.6903747916221619,-0.8236995339393616,-0.4839395582675934
1782987863027513600,4.648513671875,-0.6821826696395874,-0.5383971929550171,-0.3839362859725952
1782987863037587700,4.658587646484375,-0.6571990251541138,-0.05282808840274811,-0.1533036082983017
1782987863047662600,4.66866259765625,-0.6090314984321594,0.4181458055973053,0.15457485616207123
1782987863057736700,4.67873681640625,-0.5579277276992798,0.683269739151001,0.46736952662467957
1782987863067811600,4.6888115234375,-0.5053808689117432,0.6978460550308228,0.7257459163665771
1782987863077885200,4.69888525390625,-0.4695957899093628,0.5495870113372803,0.8906298875808716
1782987863087959000,4.708958984375,-0.43528255820274353,0.256946325302124,0.961742103099823
1782987863098034200,4.7190341796875,-0.4126274287700653,-0.12924882769584656,0.9423283934593201
1782987863108108000,4.72910791015625,-0.3968801498413086,-0.5161217451095581,0.8443304300308228
1782987863118183200,4.73918310546875,-0.4071042835712433,-0.7994497418403625,0.6846131086349487
1782987863128257000,4.749257080078125,-0.4574238955974579,-0.9574572443962097,0.4774647057056427
1782987863138332200,4.759332275390625,-0.5408442616462708,-0.9960014224052429,0.25886908173561096
1782987863148406000,4.769406005859375,-0.6304692029953003,-0.9356831908226013,0.06399520486593246
1782987863158481200,4.779481201171875,-0.7273843288421631,-0.7833065986633301,-0.08229470998048782
1782987863168555000,4.789554931640625,-0.8196961283683777,-0.5676560401916504,-0.16914783418178558
1782987863178630100,4.799630126953125,-0.8918417692184448,-0.31858280301094055,-0.1858837902545929
1782987863188704000,4.8097041015625,-0.9288394451141357,-0.07406359165906906,-0.12448593229055405
1782987863198778000,4.819778076171875,-0.9238107204437256,0.08476205170154572,-0.00016509307897649705
1782987863208853000,4.82985302734375,-0.8827645182609558,0.09898146986961365,0.14365333318710327
1782987863218927000,4.839927001953125,-0.824199378490448,-0.036010973155498505,0.2764514982700348
1782987863229002000,4.850001953125,-0.7606840133666992,-0.25371429324150085,0.3841087222099304
1782987863239076000,4.860076171875,-0.705731987953186,-0.475637286901474,0.45313310623168945
1782987863249151000,4.87015087890625,-0.6579439640045166,-0.6239636540412903,0.4829855263233185
1782987863259225000,4.88022509765625,-0.6258156895637512,-0.6722005605697632,0.47585800290107727
1782987863269300000,4.890300048828125,-0.606782078742981,-0.6668212413787842,0.4364277720451355
1782987863279374000,4.9003740234375,-0.5957862734794617,-0.6339792609214783,0.38438716530799866
1782987863289449000,4.910448974609375,-0.5980516076087952,-0.577511191368103,0.33199426531791687
1782987863299523000,4.920523193359375,-0.6142164468765259,-0.5346243977546692,0.2949896454811096
1782987863309597000,4.930596923828125,-0.6416603326797485,-0.5215442776679993,0.2724502682685852
1782987863319672000,4.940672119140625,-0.6715934872627258,-0.5518617630004883,0.2579900920391083
1782987863329746000,4.950745849609375,-0.6971039175987244,-0.613065242767334,0.25936853885650635
1782987863339821000,4.960821044921875,-0.7306747436523438,-0.6679156422615051,0.2645502984523773
1782987863349895000,4.97089501953125,-0.7798752784729004,-0.7065356969833374,0.2809678912162781
1782987863359970000,4.980969970703125,-0.8359017372131348,-0.7111846804618835,0.29365184903144836
1782987863370044000,4.9910439453125,-0.892522394657135,-0.6758911609649658,0.2988806962966919
1782987863380119000,5.001119140625,-0.9355843663215637,-0.6410277485847473,0.29954373836517334
1782987863390193000,5.01119287109375,-0.9768580198287964,-0.6247031092643738,0.2899438440799713
1782987863400268000,5.02126806640625,-1.0190190076828003,-0.6350749135017395,0.27249449491500854
1782987863410342000,5.031341796875,-1.0661444664001465,-0.6555708646774292,0.25527873635292053
1782987863420416000,5.041416015625,-1.1136269569396973,-0.670642614364624,0.23622003197669983
1782987863430491000,5.051490966796875,-1.1633970737457275,-0.6869992017745972,0.22104373574256897
1782987863440565000,5.06156494140625,-1.2119194269180298,-0.6911582946777344,0.2166961282491684
1782987863450640000,5.071639892578125,-1.2519086599349976,-0.6932272911071777,0.22413167357444763
1782987863460714000,5.0817138671875,-1.270586371421814,-0.6816208362579346,0.24596358835697174
1782987863470788900,5.091788818359375,-1.2708898782730103,-0.6633473038673401,0.2731105089187622
1782987863480863000,5.101863037109375,-1.25315523147583,-0.6629106402397156,0.2944461405277252
1782987863490937900,5.111937744140625,-1.2200034856796265,-0.684472382068634,0.31315457820892334
1782987863501012000,5.122011962890625,-1.182366967201233,-0.7158694267272949,0.333554208278656
1782987863511086800,5.1320869140625,-1.1473774909973145,-0.7674596905708313,0.3594036400318146
1782987863521161000,5.142160888671875,-1.1161397695541382,-0.7977980375289917,0.39535072445869446
1782987863531235000,5.152235107421875,-1.0975857973098755,-0.7690207362174988,0.44502535462379456
1782987863541310000,5.16231005859375,-1.0862679481506348,-0.6702584028244019,0.49828284978866577
1782987863551384000,5.172384033203125,-1.074014663696289,-0.6326410174369812,0.5235480070114136
1782987863561459000,5.182458984375,-1.0549025535583496,-0.7562565803527832,0.4696604609489441
1782987863571533000,5.192532958984375,-1.0426698923110962,-1.101570963859558,0.3132714033126831
1782987863581608000,5.20260791015625,-1.0523933172225952,-1.5357072353363037,0.08103115856647491
1782987863591682000,5.21268212890625,-1.0989326238632202,-1.8124001026153564,-0.14169645309448242
1782987863601757000,5.2227568359375,-1.1928397417068481,-1.8313307762145996,-0.30632758140563965
1782987863611831000,5.2328310546875,-1.318145990371704,-1.7084506750106812,-0.4161025583744049
1782987863621906000,5.242906005859375,-1.4223031997680664,-1.525020718574524,-0.4784219264984131
1782987863631980000,5.25297998046875,-1.4910333156585693,-1.2502833604812622,-0.48285821080207825
1782987863642054100,5.26305419921875,-1.5278043746948242,-0.8191091418266296,-0.40068209171295166
1782987863652129000,5.27312890625,-1.5416256189346313,-0.35741737484931946,-0.21220220625400543
1782987863662203100,5.283203125,-1.5557529926300049,0.026500817388296127,0.06245870888233185
1782987863672278300,5.2932783203125,-1.531157374382019,0.2682114243507385,0.3957783579826355
1782987863682352000,5.30335205078125,-1.451764702796936,0.3320755362510681,0.7368485331535339
1782987863692427300,5.31342724609375,-1.3243638277053833,0.24028730392456055,1.0468671321868896
1782987863702501000,5.323501220703125,-1.1722362041473389,-0.004567044787108898,1.2763503789901733
1782987863712576300,5.333576171875,-1.0299947261810303,-0.33989283442497253,1.3911211490631104
1782987863722650000,5.343650146484375,-0.9139965772628784,-0.689259946346283,1.3991588354110718
1782987863732725200,5.353725341796875,-0.8455576300621033,-0.9860841631889343,1.2849364280700684
1782987863742799000,5.363799072265625,-0.8239362835884094,-1.1966089010238647,1.076781153678894
1782987863752873000,5.373873046875,-0.8443505167961121,-1.3197077512741089,0.8089001178741455
1782987863762948000,5.383947998046875,-0.9212217330932617,-1.31130051612854,0.508712649345398
1782987863773022000,5.39402197265625,-1.0482001304626465,-1.2059732675552368,0.212294802069664
1782987863783097000,5.40409716796875,-1.2055538892745972,-1.0651276111602783,-0.059237685054540634
1782987863793171200,5.414171142578125,-1.3604235649108887,-0.8966652154922485,-0.27858680486679077
1782987863803246000,5.42424609375,-1.4911363124847412,-0.7304152846336365,-0.4334444999694824
1782987863813320200,5.4343203125,-1.5905163288116455,-0.609480619430542,-0.505650520324707
1782987863823395000,5.44439501953125,-1.6401491165161133,-0.5185995101928711,-0.5022090077400208
1782987863833469200,5.45446923828125,-1.6486976146697998,-0.4691616892814636,-0.42982614040374756
1782987863843544000,5.4645439453125,-1.6317777633666992,-0.46685078740119934,-0.34095990657806396
1782987863853618200,5.4746181640625,-1.5890185832977295,-0.4916861057281494,-0.25192299485206604
1782987863863692000,5.484692138671875,-1.5144116878509521,-0.53160160779953,-0.17193934321403503
1782987863873767200,5.49476708984375,-1.4061017036437988,-0.551556408405304,-0.1017163097858429
1782987863883841000,5.504841064453125,-1.2820754051208496,-0.5527372360229492,-0.03397868201136589
1782987863893916200,5.514916259765625,-1.1667051315307617,-0.5544070601463318,0.02282041683793068
1782987863903990000,5.524989990234375,-1.084827184677124,-0.5363970994949341,0.07989585399627686
1782987863914065200,5.535065185546875,-1.0444872379302979,-0.49331194162368774,0.14171208441257477
1782987863924139000,5.545138916015625,-1.0323987007141113,-0.46061840653419495,0.19650472700595856
1782987863934214100,5.555214111328125,-1.0299601554870605,-0.4532454311847687,0.23033246397972107
1782987863944288000,5.5652880859375,-1.020903468132019,-0.4656684696674347,0.24405309557914734
1782987863954363100,5.575363037109375,-1.0098222494125366,-0.4958500862121582,0.2318906933069229
1782987863964437000,5.58543701171875,-0.993486225605011,-0.523834228515625,0.2022899091243744
1782987863974511000,5.595510986328125,-0.983474850654602,-0.5271557569503784,0.16096670925617218
1782987863984586000,5.6055859375,-0.9830014705657959,-0.501013994216919,0.11266842484474182
1782987863994660000,5.61566015625,-0.9793521761894226,-0.4664064645767212,0.07285390049219131
1782987864004735000,5.62573486328125,-0.9663969278335571,-0.42292049527168274,0.04982155188918114
1782987864014809000,5.63580908203125,-0.9354009628295898,-0.3599812090396881,0.048367202281951904
1782987864024884000,5.645884033203125,-0.8938696384429932,-0.2900167405605316,0.06271287798881531
1782987864034958000,5.6559580078125,-0.8556628823280334,-0.25211089849472046,0.08185914158821106
1782987864045033000,5.666032958984375,-0.8056142926216125,-0.25939300656318665,0.10745581984519958
1782987864055107000,5.676107177734375,-0.745208203792572,-0.30151382088661194,0.13361044228076935
1782987864065182000,5.686181884765625,-0.6794713735580444,-0.3837924599647522,0.16420257091522217
1782987864075256000,5.696256103515625,-0.6231740117073059,-0.48781818151474,0.18466711044311523
1782987864085330400,5.706330322265625,-0.586552083492279,-0.5991687178611755,0.19292621314525604
1782987864095405300,5.7164052734375,-0.5622432827949524,-0.6469455361366272,0.2022177278995514
1782987864105479400,5.7264794921875,-0.5368247628211975,-0.530255913734436,0.24220010638237
1782987864115554300,5.73655419921875,-0.515932559967041,-0.4730954170227051,0.3000471591949463
1782987864125628400,5.74662841796875,-0.5197213888168335,-0.6217262744903564,0.3206694424152374
1782987864135703300,5.756703369140625,-0.5522990226745605,-0.8689461946487427,0.2876156270503998
1782987864145777400,5.76677734375,-0.5937647223472595,-1.031977891921997,0.22187867760658264
1782987864155852300,5.776852294921875,-0.6321997046470642,-0.9803286790847778,0.1670772135257721
1782987864165926400,5.786926513671875,-0.6722824573516846,-0.7605047225952148,0.12419689446687698
1782987864176001300,5.797001220703125,-0.6975063681602478,-0.48910677433013916,0.11594721674919128
1782987864186075400,5.807075439453125,-0.6952724456787109,-0.2207060009241104,0.14579783380031586
1782987864196149200,5.817149169921875,-0.6713958382606506,0.024501366540789604,0.2159859836101532
1782987864206224400,5.827224365234375,-0.632792055606842,0.1901276558637619,0.294624000787735
1782987864216298200,5.83729833984375,-0.5876799821853638,0.2523777186870575,0.37667468190193176
1782987864226373400,5.847373291015625,-0.5397585034370422,0.22069187462329865,0.4505551755428314
1782987864236447200,5.857447265625,-0.4904141128063202,0.07237298041582108,0.5014215707778931
1782987864246522400,5.8675224609375,-0.43555304408073425,-0.19146932661533356,0.5003513693809509
1782987864256596200,5.87759619140625,-0.3860073387622833,-0.5403993725776672,0.4248334467411041
1782987864266671400,5.88767138671875,-0.33849653601646423,-0.9027360081672668,0.27945759892463684
1782987864276745200,5.8977451171875,-0.3112521469593048,-1.174986720085144,0.07371589541435242
1782987864286820400,5.9078203125,-0.3118704557418823,-1.3024604320526123,-0.1666467934846878
1782987864296894200,5.917894287109375,-0.3389146029949188,-1.2883278131484985,-0.39434972405433655
1782987864306968600,5.927968505859375,-0.3883409798145294,-1.1487321853637695,-0.5800901651382446
1782987864317043500,5.93804345703125,-0.4456857442855835,-0.9707322716712952,-0.7100068926811218
1782987864327117600,5.94811767578125,-0.4976245164871216,-0.7625027298927307,-0.7836336493492126
1782987864337192400,5.9581923828125,-0.5601044297218323,-0.5806783437728882,-0.7891924381256104
1782987864347266600,5.9682666015625,-0.6246625185012817,-0.46094197034835815,-0.7579493522644043
1782987864357341400,5.978341552734375,-0.6617951989173889,-0.4289132058620453,-0.7181676030158997
1782987864367415600,5.98841552734375,-0.6497876644134521,-0.4738417863845825,-0.6921964287757874
1782987864377490400,5.998490478515625,-0.5903317928314209,-0.5821070075035095,-0.6902027726173401
1782987864387564500,6.008564453125,-0.48945626616477966,-0.7237560749053955,-0.6948075890541077
1782987864397639400,6.018639404296875,-0.36963585019111633,-0.8176401853561401,-0.7042362689971924
1782987864407713500,6.028713623046875,-0.26978549361228943,-0.8274540305137634,-0.6910053491592407
1782987864417787400,6.038787353515625,-0.217203751206398,-0.7666569948196411,-0.668038547039032
1782987864427862500,6.048862548828125,-0.21411119401454926,-0.6403849720954895,-0.6147423982620239
1782987864437936600,6.0589365234375,-0.20901896059513092,-0.46066609025001526,-0.5077435374259949
1782987864448011500,6.069011474609375,-0.20314504206180573,-0.28307706117630005,-0.3599705100059509
1782987864458085600,6.079085693359375,-0.20228537917137146,-0.1980239599943161,-0.20179446041584015
1782987864468160500,6.089160400390625,-0.2089420109987259,-0.21288706362247467,-0.03895881772041321
1782987864478234600,6.099234619140625,-0.22393400967121124,-0.2864832282066345,0.09786693751811981
1782987864488309500,6.1093095703125,-0.2502259910106659,-0.37359434366226196,0.21009746193885803
1782987864498383600,6.119383544921875,-0.26675063371658325,-0.4466549754142761,0.2835905849933624
1782987864508458500,6.12945849609375,-0.27988559007644653,-0.4668358862400055,0.31445422768592834
1782987864518532600,6.13953271484375,-0.29645100235939026,-0.4398482143878937,0.2949516475200653
1782987864528606500,6.1496064453125,-0.317072331905365,-0.35141128301620483,0.24026109278202057
1782987864538681600,6.159681640625,-0.34048524498939514,-0.19099628925323486,0.16763189435005188
1782987864548755500,6.16975537109375,-0.3647887110710144,-0.021866120398044586,0.09293422847986221
1782987864558830600,6.17983056640625,-0.3834245800971985,0.11614498496055603,0.032972611486911774
1782987864568904400,6.189904541015625,-0.3887602686882019,0.16133421659469604,-0.01740644872188568
1782987864578979600,6.1999794921875,-0.3662688136100769,0.08211556822061539,-0.038243021816015244
1782987864589053400,6.210053466796875,-0.34057778120040894,-0.033608291298151016,-0.03141649812459946
1782987864599128600,6.220128662109375,-0.34415119886398315,-0.10403371602296829,-0.01392192579805851
1782987864609202400,6.230202392578125,-0.3640699088573456,-0.15073132514953613,0.005313544068485498
1782987864619277600,6.240277587890625,-0.3933335244655609,-0.21919479966163635,0.00005912737105973065
1782987864629351400,6.250351318359375,-0.4097837805747986,-0.3126283586025238,-0.026959775015711784
1782987864639425500,6.260425537109375,-0.4219658672809601,-0.43231213092803955,-0.07347188144922256
1782987864649500400,6.27050048828125,-0.421033650636673,-0.45766550302505493,-0.11114725470542908
1782987864659574500,6.280574462890625,-0.4060632288455963,-0.37770435214042664,-0.1249765157699585
1782987864669649400,6.2906494140625,-0.3705238401889801,-0.30123499035835266,-0.11988519132137299
1782987864679723500,6.3007236328125,-0.3185168206691742,-0.2257484644651413,-0.09203838557004929
1782987864689798400,6.31079833984375,-0.2635633051395416,-0.1634766310453415,-0.05692150443792343
1782987864699872500,6.32087255859375,-0.2109658420085907,-0.16631156206130981,-0.01617780514061451
1782987864709947400,6.330947509765625,-0.16175514459609985,-0.21380329132080078,0.03245718777179718
1782987864720021500,6.341021484375,-0.11280571669340134,-0.23603269457817078,0.0911969318985939
1782987864730096400,6.351096435546875,-0.06972847133874893,-0.22373971343040466,0.14192521572113037
1782987864740170500,6.36117041015625,-0.037719398736953735,-0.18112647533416748,0.1763942390680313
1782987864750244400,6.371244384765625,-0.023207208141684532,-0.13406895101070404,0.20784690976142883
1782987864760319500,6.381319580078125,-0.01656341925263405,-0.09517960995435715,0.23184864223003387
1782987864770393300,6.391393310546875,-0.013680122792720795,-0.06265350431203842,0.24100404977798462
1782987864780468500,6.401468505859375,-0.0019715349189937115,0.017250915989279747,0.2606014311313629
1782987864790542300,6.411542236328125,0.03134328871965408,0.09728758037090302,0.3013441562652588
1782987864800617500,6.421617431640625,0.07329526543617249,0.1164812445640564,0.31791940331459045
1782987864810691300,6.43169140625,0.10239242762327194,0.0729420855641365,0.2799433469772339
1782987864820766500,6.441766357421875,0.14673937857151031,-0.16277989745140076,0.20730218291282654
1782987864830840300,6.45184033203125,0.19672584533691406,-0.5437173843383789,0.09672374278306961
1782987864840915500,6.46191552734375,0.19933068752288818,-0.8304157257080078,-0.012805684469640255
1782987864850989300,6.4719892578125,0.11545637249946594,-0.8358321189880371,-0.09254414588212967
1782987864861063400,6.4820634765625,-0.02361336536705494,-0.5770735144615173,-0.12285811454057693
1782987864871138300,6.49213818359375,-0.18742455542087555,-0.20716595649719238,-0.1147584542632103
1782987864881212400,6.50221240234375,-0.30998536944389343,0.04180125147104263,-0.11028487980365753
1782987864891287300,6.512287353515625,-0.36035338044166565,0.030267858877778053,-0.12661294639110565
1782987864901361400,6.522361328125,-0.3441978394985199,-0.1474512666463852,-0.16154563426971436
1782987864911436300,6.532436279296875,-0.29774779081344604,-0.3063195049762726,-0.17691275477409363
1782987864921510400,6.542510498046875,-0.25712820887565613,-0.31157100200653076,-0.14987100660800934
1782987864931585300,6.552585205078125,-0.2117520421743393,-0.13245569169521332,-0.07457398623228073
1782987864941659400,6.562659423828125,-0.14790861308574677,0.12976527214050293,0.020121630281209946
1782987864951734500,6.572734619140625,-0.06363596022129059,0.3512977957725525,0.11420659720897675
1782987864961808400,6.582808349609375,0.03663045912981033,0.5042580366134644,0.19954971969127655
1782987864971882200,6.59288232421875,0.1292363852262497,0.5773460865020752,0.2731976807117462
1782987864981957400,6.602957275390625,0.21044069528579712,0.5976033806800842,0.3465094268321991
1782987864992031200,6.61303125,0.26734283566474915,0.5563983917236328,0.3916623890399933
1782987865002106400,6.6231064453125,0.2962120473384857,0.4685114324092865,0.4214661121368408
1782987865012180200,6.63318017578125,0.2894202768802643,0.3724119961261749,0.42074066400527954
1782987865022255400,6.64325537109375,0.2389616072177887,0.2767626941204071,0.38393473625183105
1782987865032329200,6.6533291015625,0.15257975459098816,0.20181043446063995,0.31269150972366333
1782987865042404400,6.663404296875,0.04684267193078995,0.14632001519203186,0.2200465351343155
1782987865052478200,6.673478271484375,-0.054733533412218094,0.09313032776117325,0.11351238191127777
1782987865062553300,6.68355322265625,-0.14169107377529144,0.0642334371805191,0.010060294531285763
1782987865072627500,6.69362744140625,-0.204094797372818,0.0685930848121643,-0.08278460055589676
1782987865082701600,6.70370166015625,-0.234897181391716,0.07420622557401657,-0.14991861581802368
1782987865092776400,6.7137763671875,-0.23088620603084564,0.042986106127500534,-0.199501171708107
1782987865102850600,6.7238505859375,-0.19736845791339874,0.01655423268675804,-0.2227228730916977
1782987865112925400,6.733925537109375,-0.14917396008968353,0.020323891192674637,-0.21978403627872467
1782987865122999600,6.74399951171875,-0.11417575925588608,0.033675115555524826,-0.19621185958385468
1782987865133074400,6.754074462890625,-0.0889992043375969,0.037588682025671005,-0.16367678344249725
1782987865143148500,6.7641484375,-0.07254379987716675,0.03846139833331108,-0.11391562223434448
1782987865153223400,6.774223388671875,-0.0632796436548233,0.04171429201960564,-0.06108025461435318
1782987865163297500,6.784297607421875,-0.06495238095521927,0.06344568729400635,-0.0049746413715183735
1782987865173372400,6.794372314453125,-0.0755571722984314,0.09603206813335419,0.03602549433708191
1782987865183446500,6.804446533203125,-0.08776803314685822,0.12003940343856812,0.06671283394098282
1782987865193520600,6.814520751953125,-0.07963763922452927,0.15296858549118042,0.09096656739711761
1782987865203595500,6.824595458984375,-0.0614493191242218,0.18262606859207153,0.1077607274055481
1782987865213669600,6.834669677734375,-0.04667855054140091,0.20287802815437317,0.12522418797016144
1782987865223744500,6.84474462890625,-0.037150558084249496,0.20485062897205353,0.15633390843868256
1782987865233818600,6.854818603515625,-0.015064422972500324,0.19628100097179413,0.19659751653671265
1782987865243893500,6.8648935546875,0.0030322889797389507,0.1780111938714981,0.24517889320850372
1782987865253967600,6.874967529296875,0.01330685243010521,0.16830673813819885,0.2843698263168335
1782987865264042500,6.88504248046875,0.01861453242599964,0.153298482298851,0.29811280965805054
1782987865274116600,6.89511669921875,0.014570517465472221,0.12151452153921127,0.27600014209747314
1782987865284191500,6.90519140625,-0.0008481212425976992,0.07245909422636032,0.22552098333835602
1782987865294265600,6.915265625,-0.010905272327363491,0.05405627191066742,0.1623506098985672
1782987865304339500,6.92533935546875,-0.021794937551021576,0.07603693753480911,0.09875673055648804
1782987865314414600,6.93541455078125,-0.03678480535745621,0.1342315375804901,0.05852435156702995
1782987865324488400,6.945488525390625,-0.0563606359064579,0.21251995861530304,0.0397525280714035
1782987865334563600,6.9555634765625,-0.0737714171409607,0.3278745114803314,0.05591585487127304
1782987865344637400,6.965637451171875,-0.09526100009679794,0.5011048913002014,0.08161243051290512
1782987865354712600,6.975712646484375,-0.10874857008457184,0.7984895706176758,0.10566910356283188
1782987865364786400,6.985786376953125,-0.0929027572274208,1.0302562713623047,0.11815640330314636
1782987865374861600,6.995861572265625,-0.06514774262905121,0.9722357392311096,0.08081457763910294
1782987865384935400,7.005935302734375,-0.04800017923116684,0.692169189453125,-0.010641041211783886
1782987865395010600,7.016010498046875,-0.04592974856495857,0.22462092339992523,-0.13523434102535248
1782987865405084400,7.02608447265625,-0.031309790909290314,-0.23524680733680725,-0.24664661288261414
1782987865415158500,7.036158447265625,-0.0197710283100605,-0.5428910255432129,-0.3110515773296356
1782987865425233400,7.0462333984375,-0.023995866999030113,-0.608703076839447,-0.3257383704185486
1782987865435307500,7.0563076171875,-0.023204287514090538,-0.41687658429145813,-0.27917182445526123
1782987865445382400,7.06638232421875,0.007364008110016584,0.002295928541570902,-0.16192829608917236
1782987865455456500,7.07645654296875,0.061035897582769394,0.49515676498413086,-0.007808758411556482
1782987865465531400,7.086531494140625,0.12146328389644623,0.7946779727935791,0.1456732153892517
1782987865475605500,7.09660546875,0.17331922054290771,0.7948054671287537,0.2687546908855438
1782987865485680400,7.106680419921875,0.21578332781791687,0.5537773966789246,0.3589780628681183
1782987865495754500,7.11675439453125,0.22441348433494568,0.23702311515808105,0.4089448153972626
1782987865505829400,7.126829345703125,0.19760717451572418,-0.022359445691108704,0.42684897780418396
1782987865515903500,7.136903564453125,0.14880385994911194,-0.18946871161460876,0.40568113327026367
1782987865525977300,7.146977294921875,0.10337352752685547,-0.2514793574810028,0.35855650901794434
1782987865536052500,7.157052490234375,0.06716262549161911,-0.17596489191055298,0.2998015284538269
1782987865546126300,7.167126220703125,0.04395131394267082,-0.0474306158721447,0.23276202380657196
1782987865556201500,7.177201416015625,0.03384292870759964,0.1111365482211113,0.16389736533164978
1782987865566275300,7.187275390625,0.019965998828411102,0.27081117033958435,0.09030275791883469
1782987865576350500,7.1973505859375,0.003962496295571327,0.37918776273727417,0.024733375757932663
1782987865586424300,7.20742431640625,-0.003638697788119316,0.4177825450897217,-0.030006034299731255
1782987865596499500,7.21749951171875,0.00482005812227726,0.3305704891681671,-0.058087848126888275
1782987865606573300,7.2275732421875,0.016842631623148918,0.1316690891981125,-0.06875966489315033
1782987865616648400,7.2376484375,0.03986354172229767,-0.08379459381103516,-0.046772267669439316
1782987865626722300,7.247722412109375,0.07284465432167053,-0.25616154074668884,-0.0012236913898959756
1782987865636796400,7.25779638671875,0.11581910401582718,-0.3580719828605652,0.05432509630918503
1782987865646871300,7.267871337890625,0.16127260029315948,-0.3829837441444397,0.11287921667098999
1782987865656945400,7.2779453125,0.20991094410419464,-0.36364954710006714,0.17187659442424774
1782987865667020300,7.288020263671875,0.2606249749660492,-0.33545175194740295,0.22180740535259247
1782987865677094400,7.298094482421875,0.2968164086341858,-0.29203614592552185,0.277965784072876
1782987865687169300,7.308169189453125,0.3047289252281189,-0.2602047324180603,0.3326745629310608
1782987865697243400,7.318243408203125,0.27850762009620667,-0.2461138814687729,0.35562217235565186
1782987865707318500,7.328318603515625,0.22800716757774353,-0.25451910495758057,0.34921514987945557
1782987865717392400,7.338392333984375,0.16097992658615112,-0.24673466384410858,0.29534897208213806
1782987865727467500,7.348467529296875,0.08691662549972534,-0.2744762897491455,0.2139558494091034
1782987865737541400,7.358541259765625,0.003557540476322174,-0.3160414397716522,0.11356045305728912
1782987865747615200,7.368615234375,-0.07637351006269455,-0.32598328590393066,0.005268871784210205
1782987865757690400,7.3786904296875,-0.1561248004436493,-0.2834593951702118,-0.08659226447343826
1782987865767764200,7.38876416015625,-0.21540355682373047,-0.21549472212791443,-0.16168434917926788
1782987865777839400,7.39883935546875,-0.26495566964149475,-0.1392032504081726,-0.21378108859062195
1782987865787913200,7.408913330078125,-0.29366880655288696,-0.05537012591958046,-0.22435224056243896
1782987865797988400,7.41898828125,-0.3082113265991211,0.045790355652570724,-0.19110538065433502
1782987865808062200,7.429062255859375,-0.30714499950408936,0.13389945030212402,-0.1181398257613182
1782987865818137300,7.439137451171875,-0.2954528331756592,0.16557662189006805,-0.028938477858901024
1782987865828211500,7.44921142578125,-0.2677096426486969,0.10575935989618301,0.0608699731528759
1782987865838286300,7.459286376953125,-0.233230322599411,-0.006188363768160343,0.12960082292556763
1782987865848360400,7.4693603515625,-0.2115900069475174,-0.10519324243068695,0.16773062944412231
1782987865858434600,7.4794345703125,-0.18362893164157867,-0.20650000870227814,0.18524739146232605
1782987865868509400,7.489509521484375,-0.15813475847244263,-0.23780466616153717,0.1939982771873474
1782987865878583600,7.49958349609375,-0.132279634475708,-0.18598560988903046,0.19725772738456726
1782987865888658400,7.509658447265625,-0.11061695218086243,-0.030509479343891144,0.20566080510616302
1782987865898732500,7.519732666015625,-0.09033414721488953,0.24219869077205658,0.21700824797153473
1782987865908807400,7.529807373046875,-0.07036177068948746,0.4034675061702728,0.22011668980121613
1782987865918881500,7.539881591796875,-0.03055151365697384,0.3767251968383789,0.18320013582706451
1782987865928956400,7.549956298828125,0.011338677257299423,0.09281225502490997,0.11047080904245377
1782987865939030500,7.560030517578125,0.014223402366042137,-0.4255322515964508,-0.028261056169867516
1782987865949105400,7.57010546875,-0.051928989589214325,-1.0006178617477417,-0.20436204969882965
1782987865959179500,7.580179443359375,-0.15568111836910248,-1.4045299291610718,-0.3520983159542084
1782987865969253600,7.590253662109375,-0.26808783411979675,-1.4853401184082031,-0.4332256317138672
1782987865979328500,7.60032861328125,-0.3417348861694336,-1.2080159187316895,-0.43832117319107056
1782987865989402600,7.610402587890625,-0.3226112425327301,-0.7403461933135986,-0.3634741008281708
1782987865999477500,7.6204775390625,-0.1957847625017166,-0.20425313711166382,-0.22410154342651367
1782987866009551600,7.630551513671875,0.016097931191325188,0.2607366442680359,-0.06089743599295616
1782987866019626500,7.64062646484375,0.23521101474761963,0.48823338747024536,0.066765695810318
1782987866029700600,7.65070068359375,0.3872828185558319,0.4998074769973755,0.1330573558807373
1782987866039775500,7.660775390625,0.465996116399765,0.3335840404033661,0.13853836059570312
1782987866049849600,7.670849609375,0.4645047187805176,0.028407644480466843,0.0900358110666275
1782987866059924500,7.680924560546875,0.3971045911312103,-0.32810983061790466,0.027751337736845016
1782987866069998600,7.69099853515625,0.28789180517196655,-0.623840868473053,-0.03310056030750275
1782987866080072200,7.701072265625,0.16822408139705658,-0.7635299563407898,-0.09729743003845215
1782987866090147300,7.711147216796875,0.05177469551563263,-0.7261354327201843,-0.17380763590335846
1782987866100221200,7.72122119140625,-0.05813181400299072,-0.5593157410621643,-0.26779913902282715
1782987866110296300,7.73129638671875,-0.15263009071350098,-0.29103609919548035,-0.3633464574813843
1782987866120370200,7.7413701171875,-0.223295658826828,0.014885857701301575,-0.43635791540145874
1782987866130445300,7.7514453125,-0.2789682447910309,0.26072120666503906,-0.4679691195487976
1782987866140519200,7.761519287109375,-0.3125675916671753,0.38394150137901306,-0.4580587148666382
1782987866150594300,7.77159423828125,-0.3210044801235199,0.3667941987514496,-0.42114195227622986
1782987866160668200,7.781668212890625,-0.3094482123851776,0.27074554562568665,-0.3720652461051941
1782987866170743300,7.791743408203125,-0.278943806886673,0.1460973620414734,-0.3189687430858612
1782987866180817200,7.801817138671875,-0.23921798169612885,0.034944675862789154,-0.2722458243370056
1782987866190891300,7.811891357421875,-0.20213985443115234,-0.03932422399520874,-0.23004749417304993
1782987866200966100,7.821966064453125,-0.15824680030345917,-0.05191105976700783,-0.19490507245063782
1782987866211040300,7.832040283203125,-0.1080789715051651,-0.03670920431613922,-0.16972461342811584
1782987866221115100,7.842115234375,-0.04042959585785866,-0.022396864369511604,-0.12664738297462463
1782987866231189200,7.852189208984375,0.05095970630645752,-0.006637077312916517,-0.06722640246152878
1782987866241264000,7.86226416015625,0.15083175897598267,0.00518440455198288,0.011822594329714775
1782987866251338200,7.872338134765625,0.25449371337890625,0.009594066068530083,0.09973860532045364
1782987866261413400,7.882413330078125,0.3368675708770752,-0.01252028625458479,0.17596526443958282
1782987866271487200,7.8924873046875,0.39551490545272827,-0.05625152215361595,0.2151811122894287
1782987866281562400,7.902562255859375,0.4444211423397064,-0.09797932207584381,0.22944901883602142
1782987866291636200,7.91263623046875,0.47182321548461914,-0.1336132138967514,0.2111978530883789
1782987866301710000,7.9227099609375,0.49019983410835266,-0.16361863911151886,0.18310077488422394
1782987866311785200,7.93278515625,0.5018572807312012,-0.17736561596393585,0.1587509661912918
1782987866321859000,7.942859130859375,0.5124207735061646,-0.1728261411190033,0.14606830477714539
1782987866331934200,7.952934326171875,0.5136330127716064,-0.14406506717205048,0.14409305155277252
1782987866342008000,7.963008056640625,0.502776026725769,-0.09138646721839905,0.14280246198177338
1782987866352083200,7.973083251953125,0.4830159544944763,-0.00792539119720459,0.1388993263244629
1782987866362156000,7.983156005859375,0.4606754779815674,0.10813203454017639,0.12868326902389526
1782987866372231200,7.993231201171875,0.4594043493270874,0.2288145124912262,0.12408851832151413
1782987866382305000,8.003304931640624,0.4803715944290161,0.30884867906570435,0.1247190535068512
1782987866392380200,8.013380126953125,0.5135745406150818,0.339098185300827,0.13617703318595886
1782987866402454000,8.0234541015625,0.5548211336135864,0.3493536710739136,0.16801247000694275
1782987866412529200,8.033529052734375,0.5987955331802368,0.3676258623600006,0.22164560854434967
1782987866422603000,8.04360302734375,0.6409168243408203,0.46745967864990234,0.2693144679069519
1782987866432677400,8.053677490234374,0.6837742328643799,0.5606274604797363,0.2930890619754791
1782987866442752000,8.063751953125,0.7239876985549927,0.4802013039588928,0.25272050499916077
1782987866452826400,8.073826416015624,0.7224345207214355,0.12117497622966766,0.09177930653095245
1782987866462901000,8.08390087890625,0.6592361330986023,-0.45473533868789673,-0.17448079586029053
1782987866472975400,8.093975341796876,0.5796592831611633,-0.9084982872009277,-0.4536200165748596
1782987866483050000,8.104050048828125,0.5021214485168457,-0.8673000931739807,-0.6401363611221313
1782987866493124400,8.114124267578125,0.4504561424255371,-0.45674583315849304,-0.7049579620361328
1782987866503199200,8.12419921875,0.43603119254112244,0.05685802921652794,-0.6477974653244019
1782987866513273300,8.1342734375,0.4454824924468994,0.5219396948814392,-0.5073695182800293
1782987866523348200,8.14434814453125,0.48743847012519836,0.8781110048294067,-0.30211371183395386
1782987866533422300,8.15442236328125,0.565818190574646,1.1525540351867676,-0.06420076638460159
1782987866543496200,8.16449609375,0.654433012008667,1.3789671659469604,0.170844167470932
1782987866553571300,8.1745712890625,0.7301357388496399,1.5334041118621826,0.38113856315612793
1782987866563645200,8.184645263671875,0.780934751033783,1.5650501251220703,0.5427572727203369
1782987866573720300,8.19472021484375,0.8209114670753479,1.4337661266326904,0.6246942281723022
1782987866583794200,8.204794189453125,0.8495128750801086,1.166249394416809,0.6203680634498596
1782987866593869300,8.214869384765626,0.8733316659927368,0.8220174908638,0.5326584577560425
1782987866603943200,8.224943115234375,0.8899835348129272,0.4363732635974884,0.37008076906204224
1782987866614018300,8.235018310546875,0.9058554172515869,0.0695132240653038,0.15220355987548828
1782987866624092200,8.245092041015624,0.9379286766052246,-0.1956149935722351,-0.09623562544584274
1782987866634167300,8.255167236328125,0.9682146906852722,-0.35671523213386536,-0.33314138650894165
1782987866644241400,8.265241455078124,0.9940003156661987,-0.3913472592830658,-0.5295785069465637
1782987866654315300,8.275315185546875,1.020162582397461,-0.3087919056415558,-0.6398088932037354
1782987866664390400,8.285390380859376,1.0455996990203857,-0.18004032969474792,-0.6525909304618835
1782987866674464300,8.29546435546875,1.0748568773269653,-0.052441079169511795,-0.5776844620704651
1782987866684539400,8.305539306640625,1.0955479145050049,0.033297475427389145,-0.4318646490573883
1782987866694613200,8.31561328125,1.1053606271743774,0.07802499830722809,-0.2421775609254837
1782987866704688400,8.3256884765625,1.100602149963379,0.06946996599435806,-0.05167726054787636
1782987866714762200,8.33576220703125,1.0800894498825073,0.07082658261060715,0.1124325841665268
1782987866724837400,8.34583740234375,1.035321593284607,0.1470663845539093,0.23830702900886536
1782987866734911200,8.3559111328125,0.9740356206893921,0.2527240812778473,0.3025091886520386
1782987866744986400,8.365986328125,0.9027733206748962,0.34942319989204407,0.3069634735584259
1782987866755060200,8.376060302734375,0.8281140327453613,0.46259236335754395,0.25954216718673706
1782987866765134300,8.38613427734375,0.7672241926193237,0.5410845875740051,0.17487668991088867
1782987866775209200,8.396209228515625,0.7214303612709045,0.5616987943649292,0.07898958027362823
1782987866785283300,8.406283447265626,0.6982266902923584,0.5200276374816895,-0.006902014836668968
1782987866795358200,8.416358154296875,0.7014997005462646,0.43952563405036926,-0.07419104129076004
1782987866805432300,8.426432373046875,0.7080354690551758,0.3539537489414215,-0.10281983017921448
1782987866815507200,8.436507080078124,0.7126802802085876,0.2828100621700287,-0.09865011274814606
1782987866825581300,8.446581298828125,0.7057142853736877,0.25265276432037354,-0.07049998641014099
1782987866835656200,8.45665625,0.6950576305389404,0.2328934371471405,-0.029281441122293472
1782987866845730300,8.466730224609375,0.6890578269958496,0.22289572656154633,0.00854033324867487
1782987866855805200,8.47680517578125,0.6869373917579651,0.20524802803993225,0.02753346599638462
1782987866865879300,8.48687939453125,0.6810222268104553,0.16476206481456757,0.012780996039509773
1782987866875954200,8.4969541015625,0.6733677387237549,0.12365884333848953,-0.02286434918642044
1782987866886028300,8.5070283203125,0.6653146743774414,0.09262029081583023,-0.0595540925860405
1782987866896102100,8.51710205078125,0.6557784080505371,0.04617050662636757,-0.08266447484493256
1782987866906177300,8.52717724609375,0.643705427646637,0.035797569900751114,-0.08938058465719223
1782987866916251100,8.537251220703125,0.6445896029472351,0.049171701073646545,-0.07450735569000244
1782987866926326300,8.547326171875,0.6463608145713806,0.0836130902171135,-0.032964352518320084
1782987866936400100,8.557400146484374,0.6501007080078125,0.10644703358411789,0.02880127727985382
1782987866946475300,8.567475341796875,0.6534175872802734,0.11662815511226654,0.1154450848698616
1782987866956549000,8.577549072265626,0.647618293762207,0.1217733770608902,0.214875265955925
1782987866966624300,8.587624267578125,0.6281213760375977,0.1391114592552185,0.3055155277252197
1782987866976698000,8.597697998046876,0.5957762002944946,0.14933213591575623,0.36310532689094543
1782987866986773200,8.607773193359375,0.5459708571434021,0.13808993995189667,0.390042245388031
1782987866996847000,8.61784716796875,0.49038904905319214,0.14391186833381653,0.38070306181907654
1782987867006921200,8.627921142578124,0.4458157420158386,0.22142533957958221,0.35238394141197205
1782987867016996000,8.63799609375,0.4249666631221771,0.3087237477302551,0.3262402415275574
1782987867027070200,8.6480703125,0.4257594645023346,0.2981928288936615,0.27881887555122375
1782987867037145000,8.65814501953125,0.4153987169265747,0.15920992195606232,0.19273938238620758
1782987867047219200,8.66821923828125,0.3829374313354492,-0.11840997636318207,0.06504054367542267
1782987867057294000,8.678294189453124,0.3094421923160553,-0.345645010471344,-0.08408156037330627
1782987867067368200,8.6883681640625,0.22098582983016968,-0.3433403968811035,-0.19186973571777344
1782987867077443000,8.698443115234374,0.13104049861431122,-0.11999945342540741,-0.24194595217704773
1782987867087517000,8.708516845703125,0.07400447130203247,0.22620928287506104,-0.2210749238729477
1782987867097591800,8.718591796875,0.07126594334840775,0.5886260867118835,-0.136563241481781
1782987867107666000,8.728666015625,0.11395594477653503,0.7798035740852356,-0.02316746674478054
1782987867117740000,8.738739990234375,0.17714184522628784,0.6467246413230896,0.06608571112155914
1782987867127815000,8.74881494140625,0.24416987597942352,0.2862260937690735,0.11799817532300949
1782987867137889000,8.758888916015625,0.3039984405040741,-0.021753164008259773,0.14294296503067017
1782987867147964000,8.7689638671875,0.3587440252304077,-0.12822669744491577,0.17566482722759247
1782987867158038000,8.7790380859375,0.4006696343421936,-0.07992547750473022,0.21837075054645538
1782987867168113000,8.78911279296875,0.42746034264564514,0.1665365844964981,0.27146369218826294
1782987867178187000,8.79918701171875,0.45062264800071716,0.5308040380477905,0.3204435110092163
1782987867188262000,8.809261962890625,0.4756930470466614,0.8598244190216064,0.3409009873867035
1782987867198336000,8.8193359375,0.511658787727356,1.0349760055541992,0.3260173797607422
1782987867208411000,8.829410888671875,0.5635959506034851,1.0460999011993408,0.2890191972255707
1782987867218485000,8.839485107421876,0.617032527923584,0.9729453325271606,0.25487425923347473
1782987867228559000,8.84955908203125,0.6554760336875916,0.8725303411483765,0.2384488880634308
1782987867238634000,8.859634033203125,0.673068106174469,0.7853610515594482,0.23832905292510986
1782987867248708000,8.8697080078125,0.6821230053901672,0.6911495923995972,0.23442386090755463
1782987867258783000,8.879782958984375,0.676469087600708,0.5707728862762451,0.2094881534576416
1782987867268857000,8.889857177734376,0.6740098595619202,0.43525880575180054,0.16171614825725555
1782987867278932000,8.899931884765625,0.6808091402053833,0.3208201229572296,0.09003636986017227
1782987867289006000,8.910006103515625,0.6975160837173462,0.21971043944358826,-0.008084389381110668
1782987867299081000,8.9200810546875,0.7237793803215027,0.14227662980556488,-0.11350376158952713
1782987867309155000,8.930155029296875,0.7607625126838684,0.11575714498758316,-0.20742951333522797
1782987867319230000,8.94022998046875,0.7957583069801331,0.1601714789867401,-0.27152329683303833
1782987867329304000,8.950303955078125,0.8277679085731506,0.2297535389661789,-0.29603439569473267
1782987867339379000,8.96037890625,0.8593825697898865,0.2803117632865906,-0.29195335507392883
1782987867349453000,8.970453125,0.8926189541816711,0.2896358370780945,-0.27313265204429626
1782987867359527000,8.98052685546875,0.9312089681625366,0.2968553900718689,-0.21815380454063416
1782987867369602000,8.99060205078125,0.976798415184021,0.355297714471817,-0.1270400583744049
1782987867379676000,9.000676025390625,1.016334891319275,0.46041348576545715,-0.006663850974291563
1782987867389751000,9.0107509765625,1.0440073013305664,0.5635362863540649,0.10869955271482468
1782987867399825000,9.020824951171875,1.063921332359314,0.6279967427253723,0.21258947253227234
1782987867409900000,9.030900146484376,1.0896786451339722,0.6779520511627197,0.2886023223400116
1782987867419974000,9.040973876953124,1.1154907941818237,0.720674455165863,0.3455287218093872
1782987867430049000,9.051049072265625,1.134582281112671,0.7541271448135376,0.37701621651649475
1782987867440123000,9.061122802734374,1.1379519701004028,0.7746015191078186,0.37800025939941406
1782987867450198000,9.071197998046875,1.1376278400421143,0.7782628536224365,0.35507723689079285
1782987867460271900,9.08127197265625,1.1317734718322754,0.7797060012817383,0.30269578099250793
1782987867470346000,9.091345947265625,1.1153030395507812,0.7688617706298828,0.23429225385189056
1782987867480420900,9.1014208984375,1.0974265336990356,0.7395323514938354,0.15466240048408508
1782987867490495000,9.111494873046874,1.0792418718338013,0.7095305323600769,0.07980269938707352
1782987867500569900,9.12156982421875,1.0653537511825562,0.6915621757507324,0.009143712930381298
1782987867510644000,9.13164404296875,1.0564970970153809,0.6886337399482727,-0.04972095414996147
1782987867520718800,9.14171875,1.052802324295044,0.727907121181488,-0.08293057233095169
1782987867530793000,9.15179296875,1.0564647912979126,0.7757063508033752,-0.09427351504564285
1782987867540868000,9.1618681640625,1.0668913125991821,0.813310444355011,-0.08244109153747559
1782987867550942000,9.17194189453125,1.0769492387771606,0.8395222425460815,-0.05644516274333
1782987867561017000,9.18201708984375,1.0815764665603638,0.8491618037223816,-0.039081353694200516
1782987867571091000,9.192091064453125,1.0740268230438232,0.8362808227539062,-0.021663175895810127
1782987867581164800,9.202164794921876,1.0511255264282227,0.8592298626899719,-0.0259466040879488
1782987867591240000,9.212239990234375,1.023786187171936,0.9962810277938843,-0.05239996686577797
1782987867601313800,9.222313720703125,1.004731297492981,1.1499582529067993,-0.10240187495946884
1782987867611389000,9.232388916015625,0.9923096299171448,1.1445763111114502,-0.21511472761631012
1782987867621462800,9.242462890625,0.9751244783401489,0.8744061589241028,-0.38325393199920654
1782987867631538000,9.252537841796874,0.9530997276306152,0.5271400213241577,-0.5685453414916992
1782987867641611800,9.26261181640625,0.9093458652496338,0.3326304852962494,-0.7051428556442261
1782987867651687000,9.27268701171875,0.8414468765258789,0.4043285846710205,-0.7581091523170471
1782987867661761000,9.282760986328125,0.8088012933731079,0.7292957901954651,-0.6678173542022705
1782987867671836000,9.2928359375,0.8377329707145691,1.2841875553131104,-0.4610747992992401
1782987867681910000,9.302909912109374,0.9252950549125671,1.895470380783081,-0.20249144732952118
1782987867691984000,9.31298388671875,1.040456771850586,2.3149776458740234,0.0351349413394928
1782987867702059000,9.32305908203125,1.1603227853775024,2.404064178466797,0.1973600685596466
1782987867712132900,9.3331328125,1.2726846933364868,2.2302663326263428,0.2632807195186615
1782987867722208000,9.3432080078125,1.3441638946533203,1.8626419305801392,0.23383310437202454
1782987867732281900,9.35328173828125,1.3806766271591187,1.4122133255004883,0.13981413841247559
1782987867742357000,9.36335693359375,1.3845916986465454,0.987923264503479,0.01362265832722187
1782987867752430800,9.373430908203124,1.3707631826400757,0.606315553188324,-0.1427898108959198
1782987867762506000,9.383506103515625,1.3706291913986206,0.299124151468277,-0.31785139441490173
1782987867772579800,9.393579833984376,1.3913943767547607,0.08782483637332916,-0.5049294233322144
1782987867782655000,9.403655029296875,1.4292298555374146,-0.021808182820677757,-0.6663936972618103
1782987867792728800,9.413728759765625,1.486199140548706,-0.007424603216350079,-0.7673443555831909
1782987867802803000,9.423802978515624,1.5499720573425293,0.11659348011016846,-0.7901290655136108
1782987867812877800,9.4338779296875,1.599366307258606,0.31959712505340576,-0.7254211902618408
1782987867822952000,9.443951904296876,1.625949740409851,0.5404648184776306,-0.5902785658836365
1782987867833026800,9.45402685546875,1.629502296447754,0.7195233702659607,-0.40283524990081787
1782987867843101000,9.464100830078126,1.6149147748947144,0.8245890736579895,-0.18716076016426086
1782987867853175800,9.47417578125,1.598313808441162,0.859076201915741,0.019584333524107933
1782987867863250000,9.48425,1.5863926410675049,0.7944348454475403,0.17737555503845215
1782987867873324800,9.49432470703125,1.5809658765792847,0.6668795943260193,0.2773990035057068
1782987867883399000,9.50439892578125,1.5815744400024414,0.5490946769714355,0.32040852308273315
1782987867893473800,9.514473876953126,1.5753968954086304,0.4676225483417511,0.30707505345344543
1782987867903548000,9.5245478515625,1.5553845167160034,0.3957406282424927,0.24504683911800385
1782987867913622000,9.5346220703125,1.5333455801010132,0.3238027095794678,0.14589263498783112
1782987867923697000,9.54469677734375,1.5107319355010986,0.25598612427711487,0.03852809593081474
1782987867933771000,9.55477099609375,1.4853094816207886,0.1983208805322647,-0.055844977498054504
1782987867943846000,9.564845947265624,1.4470510482788086,0.12117363512516022,-0.12550367414951324
1782987867953920000,9.574919921875,1.3952237367630005,0.03477611392736435,-0.16126349568367004
1782987867963995000,9.584994873046876,1.3273184299468994,-0.019206160679459572,-0.17482352256774902
1782987867974069000,9.595069091796875,1.2532691955566406,-0.0440857857465744,-0.17418181896209717
1782987867984144000,9.605143798828125,1.1775707006454468,-0.05549450218677521,-0.17812195420265198
1782987867994218000,9.615218017578124,1.0926069021224976,-0.06646332889795303,-0.1955823451280594
1782987868004292900,9.62529296875,0.9970790147781372,-0.05182233452796936,-0.20813728868961334
1782987868014367000,9.635366943359376,0.8910322189331055,0.024072963744401932,-0.21180419623851776
1782987868024441900,9.64544189453125,0.782963752746582,0.1426621824502945,-0.2005656510591507
1782987868034516000,9.655515869140626,0.6775785684585571,0.26117733120918274,-0.1739659607410431
1782987868044590000,9.665590087890624,0.5943968296051025,0.34471485018730164,-0.1406349092721939
1782987868054665000,9.6756650390625,0.5418335795402527,0.37014925479888916,-0.08484625071287155
1782987868064739000,9.685739013671874,0.5251560807228088,0.34913450479507446,-0.019665652886033058
1782987868074814000,9.69581396484375,0.5346490740776062,0.2779950797557831,0.04977273941040039
1782987868084888000,9.70588818359375,0.5630372762680054,0.16988514363765717,0.11065234243869781
1782987868094963200,9.715963134765625,0.5989918112754822,0.05727071315050125,0.1549934297800064
1782987868105037000,9.726037109375,0.6276005506515503,-0.006552208214998245,0.1917772740125656
1782987868115112200,9.7361123046875,0.6399255394935608,0.02183017134666443,0.2109110951423645
1782987868125186000,9.74618603515625,0.6247367262840271,0.17829540371894836,0.22843655943870544
1782987868135261200,9.75626123046875,0.5944587588310242,0.3841954171657562,0.23997843265533447
1782987868145335000,9.7663349609375,0.55576092004776,0.48647409677505493,0.2067834585905075
1782987868155409200,9.7764091796875,0.5127711892127991,0.41380417346954346,0.11418121308088303
1782987868165484000,9.786484130859375,0.4354822337627411,0.16894568502902985,-0.035462070256471634
1782987868175558100,9.79655810546875,0.29808834195137024,-0.08785596489906311,-0.24184325337409973
1782987868185633000,9.806633056640624,0.1381966769695282,-0.1342194527387619,-0.442739874124527
1782987868195707100,9.81670703125,0.009802146814763546,0.08772596716880798,-0.5762671232223511
1782987868205782000,9.826781982421876,-0.04909898340702057,0.5020472407341003,-0.6040633320808411
1782987868215856000,9.836856201171875,-0.01140568032860756,0.9696182608604431,-0.5290715098381042
1782987868225931300,9.84693115234375,0.11090611666440964,1.3350322246551514,-0.3805323541164398
1782987868236005000,9.857005126953124,0.2633114755153656,1.430587887763977,-0.20258265733718872
1782987868246080300,9.867080322265625,0.4024595022201538,1.2177587747573853,-0.036125242710113525
1782987868256154000,9.877154052734374,0.5138906836509705,0.7908052206039429,0.09486623853445053
1782987868266228000,9.88722802734375,0.5961264371871948,0.35745754837989807,0.19468365609645844
1782987868276303000,9.89730322265625,0.6874317526817322,0.0849829688668251,0.26704204082489014
1782987868286377000,9.907376953125,0.7797041535377502,-0.0002336569596081972,0.29175829887390137
1782987868296452000,9.9174521484375,0.8504652380943298,0.07371227443218231,0.26061713695526123
1782987868306526000,9.92752587890625,0.9238057136535645,0.26957231760025024,0.20535387098789215
1782987868316601000,9.93760107421875,0.9818050265312195,0.5410067439079285,0.15024161338806152
1782987868326675000,9.947675048828126,1.022428274154663,0.7793740034103394,0.11323963850736618
1782987868336750000,9.95775,1.0416347980499268,0.9268434047698975,0.11403176188468933
1782987868346824200,9.96782421875,1.0444647073745728,1.0006343126296997,0.16753119230270386
1782987868356899000,9.977899169921875,1.0306146144866943,1.0226417779922485,0.24490712583065033
1782987868366973200,9.98797314453125,1.0085880756378174,0.9949992299079895,0.31829744577407837
1782987868377047000,9.998047119140624,0.9800959229469299,0.9324460029602051,0.3682612180709839
1782987868387122200,10.0081220703125,0.9519902467727661,0.8790453672409058,0.36224034428596497
1782987868397196000,10.018196044921876,0.9326801300048828,0.8403711915016174,0.2881057858467102
1782987868407271200,10.028271240234375,0.9282962679862976,0.8248170018196106,0.15154342353343964
1782987868417345000,10.038344970703125,0.9347764849662781,0.7950681447982788,-0.027753226459026337
1782987868427420200,10.048420166015624,0.9565052390098572,0.7364162802696228,-0.2193428874015808
1782987868437494000,10.058493896484375,0.996398389339447,0.6741394400596619,-0.3693424165248871
1782987868447569200,10.068569091796874,1.0428868532180786,0.6528784036636353,-0.45748239755630493
1782987868457643000,10.07864306640625,1.0880941152572632,0.6734424233436584,-0.4752551317214966
1782987868467718100,10.08871826171875,1.1309127807617188,0.6836037039756775,-0.45920318365097046
1782987868477792000,10.0987919921875,1.180797815322876,0.6492835283279419,-0.42154207825660706
1782987868487866000,10.1088662109375,1.2421280145645142,0.6250429153442383,-0.3696841895580292
1782987868497941000,10.11894091796875,1.3134492635726929,0.6185213923454285,-0.3039315640926361
1782987868508015000,10.12901513671875,1.380906105041504,0.6049139499664307,-0.2335900515317917
1782987868518090000,10.139090087890626,1.438825249671936,0.6087015271186829,-0.14321275055408478
1782987868528164000,10.1491640625,1.486258864402771,0.6648499965667725,-0.0354471355676651
1782987868538239000,10.159239013671876,1.5116065740585327,0.7388890385627747,0.06834474951028824
1782987868548313000,10.16931298828125,1.5182775259017944,0.7926902174949646,0.15425381064414978
1782987868558388000,10.179387939453125,1.511070966720581,0.8557727932929993,0.20985105633735657
1782987868568462000,10.189462158203124,1.5015283823013306,0.962412416934967,0.24876436591148376
1782987868578537000,10.199536865234375,1.487755537033081,1.0668712854385376,0.25841766595840454
1782987868588611000,10.209611083984376,1.4799199104309082,1.142389178276062,0.25232672691345215
1782987868598685000,10.219684814453124,1.4773284196853638,1.174446702003479,0.23976659774780273
1782987868608760000,10.229760009765625,1.482385277748108,1.1715282201766968,0.20339126884937286
1782987868618834000,10.239833984375,1.4935697317123413,1.1540075540542603,0.15307550132274628
1782987868628909000,10.249908935546875,1.517139196395874,1.1237260103225708,0.1037292629480362
1782987868638983000,10.25998291015625,1.5341299772262573,1.1037935018539429,0.053144536912441254
1782987868649058000,10.27005810546875,1.5361284017562866,1.0950589179992676,0.011976327747106552
1782987868659132000,10.2801318359375,1.5354291200637817,1.1159439086914062,-0.012179377488791943
1782987868669207000,10.29020703125,1.5406824350357056,1.188073992729187,-0.01695415936410427
1782987868679281000,10.300281005859375,1.5701721906661987,1.2579964399337769,-0.004156149458140135
1782987868689356000,10.31035595703125,1.6102581024169922,1.3211932182312012,0.010375388897955418
1782987868699430000,10.320429931640625,1.646150827407837,1.3349610567092896,0.019393479451537132
1782987868709504000,10.33050390625,1.6742109060287476,1.3059864044189453,0.021109620109200478
1782987868719579000,10.340578857421875,1.6996716260910034,1.2794053554534912,0.019763628020882607
1782987868729653200,10.3506533203125,1.715994954109192,1.270464301109314,0.013865523040294647
1782987868739728000,10.360727783203124,1.7324049472808838,1.2792624235153198,0.0013105565449222922
1782987868749802200,10.37080224609375,1.7399263381958008,1.3249069452285767,-0.02199183590710163
1782987868759876900,10.380876953125,1.7507140636444092,1.4426175355911255,-0.04826870560646057
1782987868769951200,10.390951171875,1.7626982927322388,1.4413195848464966,-0.08249005675315857
1782987868780025900,10.40102587890625,1.7545543909072876,1.2131953239440918,-0.16102531552314758
1782987868790100200,10.411100341796875,1.7158788442611694,0.8601282835006714,-0.28947967290878296
1782987868800174800,10.4211748046875,1.6747905015945435,0.6253440976142883,-0.38895395398139954
1782987868810249200,10.431249267578124,1.6414504051208496,0.8313255310058594,-0.4074892997741699
1782987868820323000,10.441322998046875,1.6486369371414185,1.2981181144714355,-0.3346756398677826
1782987868830398200,10.451398193359376,1.6956018209457397,1.64313542842865,-0.21325650811195374
1782987868840472000,10.46147216796875,1.745909571647644,1.7529343366622925,-0.07641353458166122
1782987868850547200,10.471547119140626,1.7933039665222168,1.7675483226776123,0.053324222564697266
1782987868860621000,10.48162109375,1.8296278715133667,1.8421683311462402,0.18768712878227234
1782987868870696200,10.4916962890625,1.853357195854187,1.9561965465545654,0.2946263551712036
1782987868880770000,10.50177001953125,1.86164128780365,2.043971061706543,0.3669127821922302
1782987868890845200,10.51184521484375,1.864084243774414,2.0064899921417236,0.38425955176353455
1782987868900919000,10.5219189453125,1.8561142683029175,1.7926188707351685,0.34456267952919006
1782987868910994200,10.531994140625,1.838977336883545,1.4174926280975342,0.2441638708114624
1782987868921068000,10.542068115234375,1.8284794092178345,1.0161641836166382,0.08333856612443924
1782987868931142100,10.55214208984375,1.8347915410995483,0.6822320818901062,-0.09814947098493576
1782987868941217000,10.562217041015625,1.8532878160476685,0.5477827191352844,-0.2597665786743164
1782987868951291100,10.572291015625,1.8585933446884155,0.6001335382461548,-0.39034613966941833
1782987868961366000,10.582365966796875,1.8515965938568115,0.7398120760917664,-0.47767311334609985
1782987868971440000,10.592440185546875,1.8504538536071777,0.876411497592926,-0.5236038565635681
1782987868981515300,10.602515380859375,1.8512349128723145,1.0367000102996826,-0.5003573894500732
1782987868991589000,10.612589111328125,1.8508896827697754,1.2031919956207275,-0.4038441479206085
1782987869001664300,10.622664306640624,1.823430061340332,1.3266468048095703,-0.2505623698234558
1782987869011738000,10.632738037109375,1.7761642932891846,1.3634085655212402,-0.07247944176197052
1782987869021813200,10.642813232421876,1.7287688255310059,1.3200782537460327,0.08468702435493469
1782987869031887000,10.65288720703125,1.6885604858398438,1.2685133218765259,0.21504370868206024
1782987869041961000,10.6629609375,1.658413290977478,1.2306550741195679,0.30067938566207886
1782987869052036000,10.6730361328125,1.6308770179748535,1.2049970626831055,0.3365580141544342
1782987869062110000,10.68310986328125,1.60477614402771,1.1864721775054932,0.336309552192688
1782987869072185000,10.69318505859375,1.568233609199524,1.1559041738510132,0.29789504408836365
1782987869082259000,10.703259033203125,1.5190423727035522,1.116042971611023,0.23236237466335297
1782987869092334000,10.713333984375,1.465920090675354,1.0760585069656372,0.161265566945076
1782987869102408200,10.723408203125,1.3949452638626099,1.054419994354248,0.09004196524620056
1782987869112483000,10.733483154296875,1.312461018562317,1.0270013809204102,0.035270869731903076
1782987869122557200,10.74355712890625,1.22422456741333,0.988896369934082,0.0016201697289943695
1782987869132632000,10.753632080078125,1.151464581489563,0.9779318571090698,0.00042867136653512716
1782987869142706200,10.7637060546875,1.0902997255325317,0.9968027472496033,0.02286473847925663
1782987869152780000,10.773780029296875,1.0300267934799194,1.0071842670440674,0.04989475756883621
1782987869162855200,10.783855224609376,0.9662765264511108,1.006689190864563,0.057574182748794556
1782987869172929000,10.793928955078124,0.902163028717041,0.9815811514854431,0.04256220906972885
1782987869183004200,10.804004150390625,0.834442675113678,0.880833089351654,0.01770438253879547
1782987869193078000,10.814078125,0.7723217606544495,0.7987400889396667,-0.0013641172554343939
1782987869203153200,10.824153076171875,0.7220451235771179,0.7974679470062256,0.0032397150062024593
1782987869213227000,10.83422705078125,0.6894605159759521,0.8111706972122192,0.041085097938776016
1782987869223302100,10.84430224609375,0.6883342862129211,0.8858281970024109,0.10255654156208038
1782987869233376000,10.8543759765625,0.6810018420219421,0.9847675561904907,0.16168804466724396
1782987869243451100,10.864451171875,0.6687542796134949,1.0497287511825562,0.19743718206882477
1782987869253525000,10.87452490234375,0.6624652147293091,1.0362728834152222,0.1975085437297821
1782987869263599000,10.88459912109375,0.6843183040618896,0.9588943719863892,0.2157546877861023
1782987869273674000,10.894674072265625,0.7412329912185669,0.9704439640045166,0.28287434577941895
1782987869283748000,10.904748046875,0.7880077362060547,0.8586472868919373,0.3700796067714691
1782987869293823000,10.914822998046875,0.8027887940406799,0.5038332343101501,0.38388437032699585
1782987869303897000,10.92489697265625,0.7894975543022156,0.2550588548183441,0.3301774263381958
1782987869313972000,10.934971923828124,0.7834415435791016,0.16619980335235596,0.2532932758331299
1782987869324046000,10.945046142578125,0.725191593170166,0.3137635886669159,0.1364244818687439
1782987869334121000,10.955120849609376,0.5630410313606262,0.36341238021850586,-0.06534087657928467
1782987869344195000,10.965195068359375,0.30338671803474426,0.1651676595211029,-0.39909565448760986
1782987869354270000,10.97527001953125,0.053777411580085754,-0.13415460288524628,-0.7844148278236389
1782987869364344000,10.985343994140624,-0.12901709973812103,-0.29787349700927734,-1.096234917640686
1782987869374419200,10.995419189453125,-0.21127068996429443,-0.1023833379149437,-1.2508667707443237
1782987869384493000,11.0054931640625,-0.15720310807228088,0.3572947680950165,-1.213676929473877
1782987869394567000,11.01556689453125,0.03475275635719299,0.8486312031745911,-1.0182865858078003
1782987869404642000,11.02564208984375,0.28300732374191284,1.2441377639770508,-0.7473723292350769
1782987869414716000,11.0357158203125,0.511711835861206,1.4085525274276733,-0.4437461197376251
1782987869424791000,11.045791015625,0.68658047914505,1.349790334701538,-0.1579473912715912
1782987869434865000,11.055864990234374,0.7982132434844971,1.1084890365600586,0.07525523751974106
1782987869444940000,11.06593994140625,0.8512183427810669,0.7618708610534668,0.20547319948673248
1782987869455014000,11.076013916015626,0.869369387626648,0.40850481390953064,0.20592620968818665
1782987869465089000,11.086089111328125,0.8662145733833313,0.169682115316391,0.09385346621274948
1782987869475163000,11.096162841796875,0.8696599006652832,0.09695598483085632,-0.10472779721021652
1782987869485238000,11.106238037109375,0.8910749554634094,0.13456396758556366,-0.3445134162902832
1782987869495312100,11.11631201171875,0.9282636046409607,0.27373889088630676,-0.5748358368873596
1782987869505386200,11.12638623046875,0.9782724380493164,0.4685991406440735,-0.7310031652450562
1782987869515461000,11.136461181640625,1.0476640462875366,0.6912457942962646,-0.7949419617652893
1782987869525535200,11.14653515625,1.1120685338974,0.9087525606155396,-0.7642428874969482
1782987869535610000,11.156610107421875,1.1599035263061523,1.0692037343978882,-0.6742019653320312
1782987869545684200,11.166684326171875,1.1886271238327026,1.1661416292190552,-0.5707329511642456
1782987869555759000,11.176759033203124,1.1964768171310425,1.1575398445129395,-0.49490052461624146
1782987869565833200,11.186833251953125,1.1867024898529053,1.0590437650680542,-0.46619877219200134
1782987869575908000,11.196908203125,1.169824481010437,0.9125743508338928,-0.4833378195762634
1782987869585982200,11.206982177734375,1.1471099853515625,0.7274636626243591,-0.5485217571258545
1782987869596057000,11.21705712890625,1.1296145915985107,0.5068191885948181,-0.6537131667137146
1782987869606131200,11.227131103515624,1.1197477579116821,0.2739010453224182,-0.7822681665420532
1782987869616205000,11.237205078125,1.129699945449829,0.1153113916516304,-0.9111158847808838
1782987869626280200,11.2472802734375,1.1484017372131348,0.0871061161160469,-1.007806420326233
1782987869636354300,11.257354248046875,1.1748427152633667,0.1805575042963028,-1.0519715547561646
1782987869646429200,11.26742919921875,1.1948970556259155,0.3369292914867401,-1.0465933084487915
1782987869656503300,11.27750341796875,1.1934698820114136,0.42192116379737854,-1.042209506034851
1782987869666578200,11.287578125,1.1736677885055542,0.3810417056083679,-1.0646815299987793
1782987869676652300,11.29765234375,1.1215542554855347,0.22736957669258118,-1.1251944303512573
1782987869686727200,11.30772705078125,1.0517172813415527,0.07987215369939804,-1.2027783393859863
1782987869696801300,11.31780126953125,0.9651682376861572,-0.036408111453056335,-1.2369410991668701
1782987869706876200,11.327876220703125,0.8581118583679199,-0.04890420287847519,-1.1557048559188843
1782987869716950300,11.3379501953125,0.7331491708755493,0.08898971974849701,-1.0102025270462036
1782987869727024000,11.348024169921874,0.594075083732605,0.25897160172462463,-0.799292802810669
1782987869737099300,11.358099365234375,0.4696740508079529,0.4062981903553009,-0.5750900506973267
1782987869747173000,11.368173095703124,0.35638317465782166,0.5659405589103699,-0.3764082193374634
1782987869757248300,11.378248291015625,0.2894153296947479,0.6798314452171326,-0.23200443387031555
1782987869767322000,11.388322021484376,0.3231157064437866,0.675682544708252,-0.1489393562078476
1782987869777397200,11.398397216796875,0.48848843574523926,0.6648229956626892,-0.11091472953557968
1782987869787471000,11.40847119140625,0.7425599694252014,0.7311252951622009,-0.10857941210269928
1782987869797546200,11.418546142578125,0.8805835843086243,1.8633520603179932,-0.3067612051963806
1782987869807620000,11.4286201171875,0.9509372711181641,1.4239407777786255,-0.3816174268722534
1782987869817695200,11.4386953125,1.1720569133758545,1.455657720565796,-0.4233662188053131
1782987869827769000,11.44876904296875,1.3938331604003906,1.1676568984985352,-0.38338592648506165
1782987869837843200,11.45884326171875,1.5399749279022217,1.0826900005340576,-0.3696157932281494
1782987869847918000,11.46891796875,1.6106977462768555,0.9881481528282166,-0.3214542269706726
1782987869857992200,11.4789921875,1.6373459100723267,0.9852160215377808,-0.22642411291599274
1782987869868067000,11.489067138671874,1.6127954721450806,0.9579167366027832,-0.07611369341611862
1782987869878141200,11.49914111328125,1.4433625936508179,0.9422773122787476,0.24153722822666168
1782987869888216000,11.509216064453126,1.1999479532241821,0.8229544162750244,0.43624669313430786
1782987869898290200,11.519290283203125,1.0906076431274414,0.6448230147361755,0.43258193135261536
1782987869908365000,11.529364990234376,1.0373059511184692,0.571205198764801,0.27611228823661804
1782987869918439200,11.539439208984374,0.9939472675323486,0.6910067200660706,0.06003726273775101
1782987869928514000,11.54951416015625,0.9500395655632019,0.8700799942016602,-0.1853255331516266
1782987869938588200,11.559588134765624,0.928960919380188,1.0432254076004028,-0.38031578063964844
1782987869948662000,11.569662109375,0.9248866438865662,1.1359405517578125,-0.45704054832458496
1782987869958737200,11.579737060546876,0.9478138089179993,1.0875866413116455,-0.3691421151161194
1782987869968811000,11.58981103515625,0.9873457551002502,0.9657608270645142,-0.1694696545600891
1782987869978886100,11.59988623046875,1.0113564729690552,0.7307307720184326,0.06389223784208298
1782987869988960000,11.6099599609375,1.0455241203308105,0.5750613808631897,0.26739469170570374
1782987869999035100,11.62003515625,1.0538523197174072,0.5518098473548889,0.43286460638046265
1782987870009109000,11.63010888671875,1.033396601676941,0.6564263701438904,0.5269738435745239
1782987870019184000,11.64018408203125,0.9668660759925842,0.7632308602333069,0.5145528316497803
1782987870029258000,11.650258056640626,0.882045328617096,0.8564375638961792,0.38668474555015564
1782987870039332000,11.66033203125,0.8161523342132568,0.9560112953186035,0.18506081402301788
1782987870049407000,11.670406982421875,0.7617066502571106,1.0216962099075317,-0.05914314463734627
1782987870059481000,11.680481201171874,0.7305394411087036,1.0409255027770996,-0.29681456089019775
1782987870069556000,11.690555908203125,0.7311103343963623,0.9826821684837341,-0.4905039966106415
1782987870079630000,11.700630126953126,0.7581272721290588,0.8754579424858093,-0.615196168422699
1782987870089705700,11.710705810546875,0.779212236404419,0.798029899597168,-0.6543940901756287
1782987870099779800,11.72077978515625,0.7848597764968872,0.7554821372032166,-0.6257771253585815
1782987870109854700,11.730854736328125,0.7960366010665894,0.7692098021507263,-0.5083898305892944
1782987870119928800,11.7409287109375,0.7969487309455872,0.8203036189079285,-0.3469236493110657
1782987870130003700,11.751003662109374,0.7874392867088318,0.870441734790802,-0.20038653910160065
1782987870140077800,11.761077880859375,0.7761432528495789,0.8508182168006897,-0.0988689661026001
1782987870150153000,11.771153076171874,0.7763751745223999,0.7974910140037537,-0.03134274482727051
1782987870160226800,11.781226806640625,0.801708996295929,0.7571688890457153,0.016696952283382416
1782987870170300700,11.79130078125,0.838981568813324,0.7107680439949036,0.04354764521121979
1782987870180375800,11.801375732421874,0.896439790725708,0.6432598829269409,0.053651414811611176
1782987870190449700,11.81144970703125,0.9551722407341003,0.5660194158554077,0.05291258543729782
1782987870200524800,11.82152490234375,0.9735680222511292,0.4988113045692444,0.030123114585876465
1782987870210598700,11.8315986328125,0.9493682980537415,0.4275493323802948,-0.026090381667017937
1782987870220673800,11.841673828125,0.9128374457359314,0.35651645064353943,-0.11799314618110657
1782987870230747600,11.85174755859375,0.8843510150909424,0.31564658880233765,-0.20767278969287872
1782987870240822800,11.86182275390625,0.8650489449501038,0.2929908037185669,-0.2907889783382416
1782987870250896600,11.871896728515624,0.8732547760009766,0.35590067505836487,-0.34254956245422363
1782987870260970800,11.881970703125,0.8772050738334656,0.4328729510307312,-0.3610454797744751
1782987870271045600,11.892045654296876,0.7965738773345947,0.4353463649749756,-0.24967682361602783
1782987870281119700,11.90211962890625,0.678423285484314,0.15753020346164703,-0.26371753215789795
1782987870291195000,11.91219482421875,0.6651005148887634,-0.06828097254037857,-0.3189544975757599
1782987870301268700,11.922268798828124,0.6853538751602173,-0.05118827149271965,-0.3653661906719208
1782987870311343900,11.93234375,0.6663181781768799,0.06284791231155396,-0.41446882486343384
1782987870321417700,11.942417724609374,0.6330211758613586,0.11690369248390198,-0.46491390466690063
1782987870331492900,11.952492919921875,0.567649245262146,0.11001744121313095,-0.47411563992500305
1782987870341566700,11.962566650390626,0.5067922472953796,0.0589289553463459,-0.4061605632305145
1782987870351641900,11.972641845703125,0.48084625601768494,-0.13958291709423065,-0.3480856120586395
