time,seconds_elapsed,z,y,x
1782986982502114800,0.06011474609375,-1.172119140625,-0.2061309814453125,0.0556640625
1782986982512189000,0.07018896484375,-1.0533294677734375,-0.1670379638671875,0.150634765625
1782986982522262800,0.0802626953125,-0.7914276123046875,-0.1709136962890625,0.12762451171875
1782986982532338000,0.090337890625,-0.4627532958984375,-0.1832275390625,0.1097564697265625
1782986982542411800,0.100411865234375,-0.103790283203125,-0.1969451904296875,0.1175537109375
1782986982552487000,0.11048681640625,0.2019195556640625,-0.151519775390625,0.1955413818359375
1782986982562560800,0.120560791015625,0.3887481689453125,-0.1283111572265625,0.18719482421875
1782986982572636000,0.130635986328125,0.499298095703125,-0.034149169921875,-0.03936767578125
1782986982582709800,0.140709716796875,0.4773101806640625,0.0262298583984375,-0.081939697265625
1782986982592785000,0.150784912109375,0.3454742431640625,0.0481719970703125,0.021942138671875
1782986982602858800,0.160858642578125,0.1819915771484375,0.135894775390625,0.1389007568359375
1782986982612932900,0.170932861328125,0.0028533935546875,0.1899566650390625,0.2248382568359375
1782986982623007700,0.1810078125,-0.244384765625,0.234100341796875,0.244232177734375
1782986982633081900,0.191081787109375,-0.5213623046875,0.23492431640625,0.1870269775390625
1782986982643156700,0.20115673828125,-0.5340118408203125,0.2581024169921875,0.028839111328125
1782986982653230800,0.21123095703125,-0.430816650390625,0.2302703857421875,-0.055419921875
1782986982663305700,0.2213056640625,-0.2218475341796875,0.15777587890625,-0.059661865234375
1782986982673379800,0.2313798828125,0.0189361572265625,0.1351470947265625,-0.0305023193359375
1782986982683455000,0.241455078125,0.166839599609375,0.1484222412109375,0.0283050537109375
1782986982693528800,0.25152880859375,0.215423583984375,0.1119842529296875,0.022125244140625
1782986982703602700,0.261602783203125,0.248992919921875,0.0364227294921875,-0.0017547607421875
1782986982713677800,0.271677734375,0.262939453125,0.0354461669921875,-0.0395050048828125
1782986982723751700,0.281751708984375,0.2303314208984375,0.0684814453125,-0.0655059814453125
1782986982733826800,0.291826904296875,0.158111572265625,0.0781707763671875,-0.060333251953125
1782986982743900700,0.301900634765625,0.0450439453125,0.06427001953125,-0.043609619140625
1782986982753975800,0.311975830078125,-0.022247314453125,0.012451171875,-0.1024932861328125
1782986982764049700,0.322049560546875,0.0029296875,0.003631591796875,-0.19390869140625
1782986982774124800,0.332124755859375,0.055694580078125,-0.0083770751953125,-0.24951171875
1782986982784198700,0.34219873046875,0.1001129150390625,-0.0142364501953125,-0.2574920654296875
1782986982794273000,0.35227294921875,0.0509490966796875,-0.0035858154296875,-0.194793701171875
1782986982804348000,0.362347900390625,-0.00836181640625,-0.027099609375,-0.1153717041015625
1782986982814422000,0.372422119140625,-0.4549713134765625,-0.3063507080078125,-0.753387451171875
1782986982824497000,0.382496826171875,-0.2194671630859375,-0.242706298828125,-0.553375244140625
1782986982834571000,0.392571044921875,-0.5637054443359375,-0.3130340576171875,-0.380401611328125
1782986982844646000,0.40264599609375,-0.6860198974609375,-0.4046478271484375,-0.2138824462890625
1782986982854720000,0.412719970703125,-0.7661285400390625,-0.4404754638671875,-0.0111236572265625
1782986982864795000,0.422794921875,-1.04833984375,-0.6416168212890625,0.114501953125
1782986982874869000,0.432868896484375,-1.5797576904296875,-1.0044708251953125,0.2529754638671875
1782986982884944000,0.44294384765625,-2.2155914306640625,-1.3990936279296875,0.506622314453125
1782986982895018000,0.45301806640625,-2.683990478515625,-1.78826904296875,0.6517181396484375
1782986982905091800,0.463091796875,-3.1293792724609375,-2.1134796142578125,0.54119873046875
1782986982915167000,0.4731669921875,-3.670166015625,-2.300689697265625,0.3052520751953125
1782986982925240800,0.48324072265625,-3.802215576171875,-2.4923095703125,0.1207122802734375
1782986982935316000,0.49331591796875,-3.6497344970703125,-2.56646728515625,0.0542449951171875
1782986982945390000,0.50339013671875,-3.455047607421875,-2.5011444091796875,0.0238800048828125
1782986982955465000,0.51346484375,-3.3329925537109375,-2.3310699462890625,-0.2416229248046875
1782986982965539000,0.5235390625,-3.3336029052734375,-1.928741455078125,-0.642181396484375
1782986982975614000,0.533614013671875,-3.327239990234375,-1.4510955810546875,-0.8019561767578125
1782986982985688000,0.54368798828125,-3.0753326416015625,-0.983612060546875,-0.7334442138671875
1782986982995763000,0.553762939453125,-2.45745849609375,-0.6713409423828125,-0.5139312744140625
1782986983005837000,0.563837158203125,-1.68243408203125,-0.46319580078125,-0.4447479248046875
1782986983015911000,0.573910888671875,-1.05419921875,-0.3875579833984375,-0.4755859375
1782986983025986000,0.583986083984375,-0.6482391357421875,-0.2996063232421875,-0.381866455078125
1782986983036060000,0.594059814453125,-0.30450439453125,-0.127288818359375,-0.2646636962890625
1782986983046135000,0.604135009765625,0.0351104736328125,-0.021636962890625,-0.00872802734375
1782986983056209000,0.614208984375,0.299957275390625,0.03118896484375,0.1905364990234375
1782986983066284000,0.624283935546875,0.5532073974609375,0.0924835205078125,0.20269775390625
1782986983076358000,0.63435791015625,0.6909637451171875,0.096435546875,0.251983642578125
1782986983086433000,0.64443310546875,0.7720794677734375,0.07135009765625,0.284393310546875
1782986983096507000,0.6545068359375,0.824859619140625,0.051055908203125,0.2722930908203125
1782986983106581000,0.6645810546875,0.7191925048828125,0.0066680908203125,0.1577301025390625
1782986983116655900,0.67465576171875,0.505889892578125,0.0330047607421875,0.0303955078125
1782986983126730000,0.68472998046875,0.1667633056640625,0.0680389404296875,-0.0498504638671875
1782986983136804900,0.694804931640625,-0.18499755859375,0.0555419921875,-0.1195068359375
1782986983146879200,0.704879150390625,-0.365264892578125,0.0185089111328125,-0.2183990478515625
1782986983156954400,0.714954345703125,-0.3848724365234375,-0.0430908203125,-0.340911865234375
1782986983167028200,0.7250283203125,-0.3075408935546875,-0.0864715576171875,-0.371490478515625
1782986983177103400,0.735103271484375,-0.1673126220703125,-0.078643798828125,-0.30908203125
1782986983187177200,0.74517724609375,-0.0692291259765625,-0.062408447265625,-0.229522705078125
1782986983197252400,0.75525244140625,-0.07635498046875,-0.0684814453125,-0.1697540283203125
1782986983207326200,0.765326171875,-0.1473236083984375,-0.047332763671875,-0.1198883056640625
1782986983217400300,0.775400390625,-0.2303619384765625,-0.030517578125,-0.0785980224609375
1782986983227475500,0.785475341796875,-0.2646026611328125,-0.0301513671875,-0.0454559326171875
1782986983237549300,0.79554931640625,-0.2373809814453125,-0.032867431640625,-0.013671875
1782986983247624400,0.80562451171875,-0.176666259765625,-0.0572357177734375,0.01068115234375
1782986983257698300,0.8156982421875,-0.1036224365234375,-0.07470703125,0.02239990234375
1782986983267773400,0.8257734375,-0.0584716796875,-0.0781097412109375,0.0317535400390625
1782986983277847300,0.835847412109375,-0.03692626953125,-0.0927734375,0.0401763916015625
1782986983287922400,0.84592236328125,-0.0130767822265625,-0.1061553955078125,0.0286407470703125
1782986983297996300,0.855996337890625,-0.010498046875,-0.12042236328125,0.0133514404296875
1782986983308070100,0.866070068359375,-0.0349273681640625,-0.129425048828125,0.0002899169921875
1782986983318145300,0.876145263671875,-0.099700927734375,-0.1368865966796875,-0.0015716552734375
1782986983328219100,0.88621923828125,-0.164947509765625,-0.1430206298828125,-0.00799560546875
1782986983338294300,0.896294189453125,-0.2383270263671875,-0.1560516357421875,-0.0115966796875
1782986983348368400,0.906368408203125,-0.300506591796875,-0.1886749267578125,-0.0146331787109375
1782986983358443300,0.916443359375,-0.33917236328125,-0.2187347412109375,-0.03924560546875
1782986983368517400,0.926517333984375,-0.403228759765625,-0.24761962890625,-0.0860748291015625
1782986983378592300,0.93659228515625,-0.5567474365234375,-0.290802001953125,-0.1010589599609375
1782986983388666400,0.946666259765625,-0.7682952880859375,-0.3689727783203125,-0.0876007080078125
1782986983398741200,0.9567412109375,-1.015106201171875,-0.5253143310546875,-0.0874176025390625
1782986983408815400,0.9668154296875,-1.321990966796875,-0.745147705078125,-0.0996856689453125
1782986983418889200,0.97688916015625,-1.63861083984375,-1.039703369140625,-0.2291717529296875
1782986983428964400,0.98696435546875,-1.9977874755859375,-1.417205810546875,-0.4707794189453125
1782986983439038200,0.9970380859375,-2.3392333984375,-1.674896240234375,-0.5084381103515625
1782986983449113300,1.00711328125,-2.756805419921875,-1.8126068115234375,-0.4649810791015625
1782986983459187200,1.017187255859375,-3.2241668701171875,-1.9249114990234375,-0.4803619384765625
1782986983469262300,1.027262451171875,-3.474212646484375,-2.0557098388671875,-0.55059814453125
1782986983479336200,1.037336181640625,-3.457427978515625,-2.1829833984375,-0.59906005859375
1782986983489411300,1.047411376953125,-3.332122802734375,-2.283111572265625,-0.57568359375
1782986983499485200,1.057485107421875,-3.25384521484375,-2.239501953125,-0.632537841796875
1782986983509560300,1.067560302734375,-3.3223419189453125,-2.00372314453125,-0.67413330078125
1782986983519634200,1.07763427734375,-3.4420013427734375,-1.6636505126953125,-0.595703125
1782986983529708300,1.087708251953125,-3.30633544921875,-1.339630126953125,-0.5166168212890625
1782986983539783200,1.097783203125,-2.7985992431640625,-1.0969696044921875,-0.4403228759765625
1782986983549857300,1.107857177734375,-2.2067413330078125,-0.904815673828125,-0.30029296875
1782986983559932200,1.11793212890625,-1.705841064453125,-0.692596435546875,-0.134857177734375
1782986983570006300,1.12800634765625,-1.252166748046875,-0.5010528564453125,-0.0724945068359375
1782986983580081200,1.1380810546875,-0.720184326171875,-0.3529510498046875,-0.05609130859375
1782986983590155300,1.1481552734375,-0.1470794677734375,-0.217864990234375,-0.04974365234375
1782986983600230100,1.158230224609375,0.275665283203125,-0.1172637939453125,-0.0343475341796875
1782986983610304300,1.16830419921875,0.5429534912109375,-0.087677001953125,-0.0246734619140625
1782986983620378400,1.17837841796875,0.7226409912109375,-0.0774078369140625,0.013397216796875
1782986983630453200,1.188453369140625,0.8481597900390625,-0.0753936767578125,0.05462646484375
1782986983640527400,1.19852734375,0.9212188720703125,-0.09735107421875,0.02001953125
1782986983650602200,1.208602294921875,0.9459075927734375,-0.0883026123046875,0.0150299072265625
1782986983660676400,1.21867626953125,0.879150390625,-0.07452392578125,0.020904541015625
1782986983670751200,1.228751220703125,0.71832275390625,-0.0633087158203125,-0.0301666259765625
1782986983680825300,1.238825439453125,0.4798583984375,-0.014617919921875,-0.042755126953125
1782986983690900200,1.248900146484375,0.2170562744140625,0.0443572998046875,-0.02545166015625
1782986983700974300,1.258974365234375,-0.02459716796875,0.08355712890625,-0.05364990234375
1782986983711049200,1.26904931640625,-0.216339111328125,0.0887451171875,-0.11474609375
1782986983721123300,1.279123291015625,-0.3408203125,0.0810089111328125,-0.1548614501953125
1782986983731197400,1.289197509765625,-0.3858795166015625,0.0647430419921875,-0.1368255615234375
1782986983741272300,1.299272216796875,-0.364990234375,0.0382080078125,-0.0928802490234375
1782986983751346400,1.309346435546875,-0.2999420166015625,0.020721435546875,-0.0802459716796875
1782986983761421300,1.31942138671875,-0.2422637939453125,0.021697998046875,-0.0577545166015625
1782986983771495400,1.329495361328125,-0.21063232421875,0.021087646484375,-0.0096435546875
1782986983781570300,1.3395703125,-0.165924072265625,-0.00274658203125,0.0079498291015625
1782986983791644400,1.34964453125,-0.1413116455078125,-0.0294342041015625,0.0101165771484375
1782986983801719300,1.35971923828125,-0.157196044921875,-0.0634918212890625,0.01800537109375
1782986983811793400,1.36979345703125,-0.17156982421875,-0.0875396728515625,0.02081298828125
1782986983821867300,1.3798671875,-0.223297119140625,-0.109344482421875,-0.0175323486328125
1782986983831942400,1.3899423828125,-0.278076171875,-0.1419677734375,-0.1128387451171875
1782986983842016300,1.400016357421875,-0.2943267822265625,-0.12591552734375,-0.2283782958984375
1782986983852091400,1.41009130859375,-0.3022003173828125,-0.105316162109375,-0.239013671875
1782986983862165200,1.420165283203125,-0.357696533203125,-0.042633056640625,-0.1376800537109375
1782986983872240400,1.430240478515625,-0.4357452392578125,-0.019744873046875,-0.0052490234375
1782986983882314200,1.440314208984375,-0.517913818359375,0.0001983642578125,-0.0059661865234375
1782986983892389400,1.450389404296875,-0.571258544921875,0.07745361328125,-0.123321533203125
1782986983902463200,1.460463134765625,-0.6379241943359375,-0.0809478759765625,-0.0225830078125
1782986983912537300,1.470537353515625,-0.7214508056640625,-0.2284698486328125,0.014129638671875
1782986983922612200,1.4806123046875,-0.7696990966796875,-0.2908477783203125,-0.010040283203125
1782986983932686300,1.490686279296875,-0.7743682861328125,-0.371337890625,-0.0399017333984375
1782986983942761200,1.50076123046875,-0.818878173828125,-0.5051422119140625,0.022216796875
1782986983952835300,1.51083544921875,-0.99688720703125,-0.6649017333984375,0.2012481689453125
1782986983962910200,1.52091015625,-1.3019866943359375,-0.902618408203125,0.4093017578125
1782986983972984300,1.530984375,-1.3218841552734375,-1.233489990234375,0.506103515625
1782986983983059500,1.5410595703125,-1.1963653564453125,-1.676910400390625,0.5598907470703125
1782986983993133300,1.55113330078125,-1.202972412109375,-2.2850341796875,0.8105316162109375
1782986984003208400,1.56120849609375,-1.3137664794921875,-2.6392974853515625,1.123016357421875
1782986984013282300,1.5712822265625,-1.4504852294921875,-2.6652984619140625,1.0583343505859375
1782986984023356200,1.581356201171875,-1.5614776611328125,-2.71044921875,0.70208740234375
1782986984033431300,1.591431396484375,-1.793243408203125,-2.8757476806640625,0.32177734375
1782986984043505200,1.601505126953125,-2.23516845703125,-2.7176513671875,-0.1019744873046875
1782986984053580300,1.611580322265625,-2.5748291015625,-1.998626708984375,-0.4385223388671875
1782986984063654100,1.621654052734375,-2.6283721923828125,-1.14764404296875,-0.34515380859375
1782986984073729300,1.631729248046875,-2.394866943359375,-0.5366058349609375,-0.197540283203125
1782986984083803100,1.64180322265625,-2.054473876953125,-0.054107666015625,-0.0373077392578125
1782986984093878300,1.651878173828125,-1.6522979736328125,0.231689453125,0.183837890625
1782986984103952400,1.661952392578125,-1.188934326171875,0.3218231201171875,0.2280731201171875
1782986984114027300,1.67202734375,-0.7915191650390625,0.24346923828125,-0.0365142822265625
1782986984124101400,1.682101318359375,-0.41973876953125,0.1108856201171875,-0.133392333984375
1782986984134175200,1.69217529296875,-0.01226806640625,-0.009124755859375,0.03546142578125
1782986984144250400,1.70225048828125,0.2960662841796875,-0.1032562255859375,0.22332763671875
1782986984154323700,1.71232373046875,0.415069580078125,-0.186004638671875,0.32977294921875
1782986984164398600,1.722398681640625,0.3913726806640625,-0.2379302978515625,0.2703399658203125
1782986984174472700,1.73247265625,0.29815673828125,-0.280517578125,0.0973663330078125
1782986984184547600,1.742547607421875,0.1722564697265625,-0.3193817138671875,-0.0586700439453125
1782986984194621700,1.75262158203125,-0.019195556640625,-0.3214263916015625,-0.1273040771484375
1782986984204696600,1.762696533203125,-0.26226806640625,-0.3098602294921875,-0.1187591552734375
1782986984214770700,1.772770751953125,-0.407928466796875,-0.290069580078125,-0.1034393310546875
1782986984224844800,1.7828447265625,-0.45916748046875,-0.2850189208984375,-0.1441802978515625
1782986984234919700,1.792919677734375,-0.409393310546875,-0.312347412109375,-0.1985015869140625
1782986984244993800,1.802993896484375,-0.3827362060546875,-0.3395233154296875,-0.24383544921875
1782986984255068700,1.813068603515625,-0.42974853515625,-0.340087890625,-0.2663116455078125
1782986984265142800,1.823142822265625,-0.483795166015625,-0.3115692138671875,-0.242706298828125
1782986984275217700,1.8332177734375,-0.4922637939453125,-0.297821044921875,-0.178955078125
1782986984285291800,1.843291748046875,-0.4493255615234375,-0.2946624755859375,-0.119049072265625
1782986984295366700,1.85336669921875,-0.451263427734375,-0.30303955078125,-0.088287353515625
1782986984305440800,1.863440673828125,-0.4788360595703125,-0.3173980712890625,-0.077850341796875
1782986984315515600,1.873515625,-0.515960693359375,-0.3179779052734375,-0.08062744140625
1782986984325589800,1.88358984375,-0.5482940673828125,-0.296600341796875,-0.0317230224609375
1782986984335663900,1.893663818359375,-0.4960479736328125,-0.253875732421875,-0.0235443115234375
1782986984345738800,1.90373876953125,-0.4121246337890625,-0.2036285400390625,-0.0626373291015625
1782986984355812900,1.913812744140625,-0.335052490234375,-0.19891357421875,-0.0711517333984375
1782986984365887700,1.9238876953125,-0.2697906494140625,-0.19305419921875,-0.074737548828125
1782986984375961900,1.9339619140625,-0.1889495849609375,-0.187408447265625,-0.11016845703125
1782986984386036700,1.94403662109375,-0.15631103515625,-0.18450927734375,-0.1297607421875
1782986984396110800,1.95411083984375,-0.1474761962890625,-0.18426513671875,-0.150390625
1782986984406186000,1.96418603515625,-0.1668243408203125,-0.175567626953125,-0.163330078125
1782986984416259800,1.974259765625,-0.2049102783203125,-0.1632843017578125,-0.1708831787109375
1782986984426333700,1.984333740234375,-0.2316436767578125,-0.1419830322265625,-0.1504669189453125
1782986984436408800,1.994408935546875,-0.2765655517578125,-0.1410980224609375,-0.1268768310546875
1782986984446482700,2.004482666015625,-0.392242431640625,-0.179595947265625,-0.104888916015625
1782986984456557800,2.014557861328125,-0.6303558349609375,-0.2523193359375,-0.075714111328125
1782986984466631700,2.024631591796875,-0.999969482421875,-0.3691253662109375,-0.009429931640625
1782986984476706800,2.034706787109375,-1.5503692626953125,-0.619171142578125,0.0176544189453125
1782986984486780700,2.04478076171875,-2.3319244384765625,-0.9618682861328125,-0.0272369384765625
1782986984496855800,2.054855712890625,-2.7985992431640625,-1.3950042724609375,-0.1957244873046875
1782986984506929700,2.0649296875,-3.3578643798828125,-1.6944427490234375,-0.33197021484375
1782986984517004800,2.0750048828125,-4.4376068115234375,-1.6177978515625,0.159820556640625
1782986984527079000,2.085078857421875,-5.1424102783203125,-1.1286773681640625,0.7964935302734375
1782986984537152800,2.09515283203125,-5.5905609130859375,-1.02850341796875,0.9012908935546875
1782986984547228000,2.105227783203125,-5.5659637451171875,-1.069000244140625,1.0024566650390625
1782986984557301800,2.1153017578125,-5.2769775390625,-0.8180694580078125,0.935028076171875
1782986984567377000,2.125376953125,-4.7977142333984375,-0.5374298095703125,0.8116455078125
1782986984577450800,2.13545068359375,-4.04541015625,-0.356536865234375,0.7237396240234375
1782986984587526000,2.14552587890625,-3.2455596923828125,-0.145294189453125,0.66644287109375
1782986984597599700,2.155599853515625,-2.3441009521484375,-0.006134033203125,0.502197265625
1782986984607675000,2.1656748046875,-1.325347900390625,0.162353515625,0.32110595703125
1782986984617748700,2.175748779296875,-0.357025146484375,0.2724151611328125,0.123748779296875
1782986984627822600,2.185822509765625,0.4699859619140625,0.220428466796875,0.0280303955078125
1782986984637897700,2.195897705078125,1.0819244384765625,0.07830810546875,-0.087921142578125
1782986984647971600,2.2059716796875,1.465606689453125,-0.01654052734375,-0.14630126953125
1782986984658046700,2.216046630859375,1.64056396484375,-0.1320648193359375,-0.1793365478515625
1782986984668120800,2.226120849609375,1.6220703125,-0.0955810546875,-0.248687744140625
1782986984678195700,2.23619580078125,1.4894561767578125,0.016082763671875,-0.2431793212890625
1782986984688269800,2.246269775390625,1.2689056396484375,0.086151123046875,-0.239715576171875
1782986984698344700,2.2563447265625,1.0411529541015625,0.0883331298828125,-0.2586669921875
1782986984708418800,2.266418701171875,0.8431396484375,0.0828399658203125,-0.2620391845703125
1782986984718493700,2.27649365234375,0.6474456787109375,0.1071319580078125,-0.265594482421875
1782986984728567800,2.28656787109375,0.481170654296875,0.136444091796875,-0.2807159423828125
1782986984738641700,2.2966416015625,0.3375701904296875,0.168792724609375,-0.2803497314453125
1782986984748716800,2.306716796875,0.1982421875,0.1932373046875,-0.2379150390625
1782986984758790700,2.316790771484375,0.0774688720703125,0.188507080078125,-0.20758056640625
1782986984768865800,2.32686572265625,0.021636962890625,0.16314697265625,-0.164276123046875
1782986984778939600,2.336939697265625,-0.1260833740234375,0.1654510498046875,-0.054595947265625
1782986984789014800,2.347014892578125,-0.1955108642578125,0.1529541015625,0.047027587890625
1782986984799088600,2.357088623046875,-0.241973876953125,0.095001220703125,0.09857177734375
1782986984809162800,2.367162841796875,-0.2672882080078125,0.039703369140625,0.0924530029296875
1782986984819237600,2.377237548828125,-0.221038818359375,0.01910400390625,0.0321197509765625
1782986984829311700,2.387311767578125,-0.1657257080078125,0.0246429443359375,-0.06207275390625
1782986984839386600,2.39738671875,-0.1410064697265625,0.0110321044921875,-0.11688232421875
1782986984849460700,2.407460693359375,-0.140869140625,0.0311737060546875,-0.0976715087890625
1782986984859535600,2.41753564453125,-0.1295013427734375,0.0655517578125,-0.068756103515625
1782986984869609700,2.427609619140625,-0.1146087646484375,0.0509033203125,-0.055206298828125
1782986984879684600,2.4376845703125,-0.0801239013671875,0.0196685791015625,-0.0741729736328125
1782986984889758700,2.4477587890625,-0.0455169677734375,-0.0268402099609375,-0.09649658203125
1782986984899833600,2.45783349609375,-0.022216796875,-0.074432373046875,-0.10205078125
1782986984909907700,2.46790771484375,-0.01214599609375,-0.06646728515625,-0.0742950439453125
1782986984919981800,2.47798193359375,-0.0382232666015625,-0.0465087890625,-0.0149993896484375
1782986984930056700,2.488056640625,-0.13739013671875,-0.035186767578125,-0.01397705078125
1782986984940130800,2.498130859375,-0.30889892578125,-0.052886962890625,-0.016082763671875
1782986984950205700,2.508205810546875,-0.4842376708984375,-0.084747314453125,-0.0627288818359375
1782986984960279800,2.51827978515625,-0.627777099609375,-0.13055419921875,-0.1344146728515625
1782986984970354700,2.528354736328125,-0.8671875,-0.23858642578125,-0.1448516845703125
1782986984980428800,2.5384287109375,-1.20123291015625,-0.4477081298828125,-0.1482086181640625
1782986984990503700,2.548503662109375,-1.55267333984375,-0.73773193359375,-0.1746826171875
1782986985000577800,2.558577880859375,-1.944061279296875,-1.132476806640625,-0.219635009765625
1782986985010652000,2.56865185546875,-2.4872894287109375,-1.4267578125,-0.280242919921875
1782986985020726800,2.578726806640625,-3.3188323974609375,-1.5437164306640625,-0.1577911376953125
1782986985030801000,2.58880078125,-4.359344482421875,-1.47906494140625,0.0959625244140625
1782986985040875800,2.598875732421875,-5.3053741455078125,-1.38055419921875,0.2569427490234375
1782986985050950000,2.608949951171875,-5.70477294921875,-1.3811187744140625,0.0254669189453125
1782986985061024800,2.619024658203125,-5.2879180908203125,-1.4261474609375,-0.244110107421875
1782986985071099000,2.629098876953125,-4.5290985107421875,-1.425567626953125,-0.322662353515625
1782986985081173800,2.639173828125,-4.003875732421875,-1.284637451171875,-0.2689056396484375
1782986985091247900,2.649247802734375,-3.8185272216796875,-1.00543212890625,-0.1961517333984375
1782986985101322800,2.65932275390625,-3.75103759765625,-0.77752685546875,-0.1523895263671875
1782986985111396900,2.66939697265625,-3.3985443115234375,-0.5936737060546875,-0.058624267578125
1782986985121471700,2.6794716796875,-2.5914764404296875,-0.428375244140625,0.0376434326171875
1782986985131545900,2.6895458984375,-1.563720703125,-0.2698516845703125,0.0566864013671875
1782986985141619700,2.69961962890625,-0.59490966796875,-0.118072509765625,0.0101165771484375
1782986985151695000,2.709695068359375,0.1695404052734375,0.024444580078125,-0.0298614501953125
1782986985161769200,2.719769287109375,0.6926116943359375,0.1134796142578125,-0.0656280517578125
1782986985171844000,2.729843994140625,0.9794769287109375,0.0396270751953125,-0.0347747802734375
1782986985181918200,2.739918212890625,1.2362060546875,0.130767822265625,-0.1315460205078125
1782986985191993300,2.749993408203125,1.4662933349609375,0.1448822021484375,-0.1280059814453125
1782986985202067200,2.760067138671875,1.53472900390625,0.168426513671875,-0.1273193359375
1782986985212141000,2.77014111328125,1.440887451171875,0.1932220458984375,-0.1262969970703125
1782986985222216200,2.78021630859375,1.22100830078125,0.2127532958984375,-0.1371307373046875
1782986985232290000,2.7902900390625,0.921356201171875,0.23089599609375,-0.1144256591796875
1782986985242365200,2.800365234375,0.554840087890625,0.238311767578125,-0.0719757080078125
1782986985252439000,2.81043896484375,0.1270904541015625,0.242828369140625,-0.0445404052734375
1782986985262514200,2.82051416015625,-0.2596282958984375,0.205230712890625,-0.036285400390625
1782986985272588000,2.830588134765625,-0.5119781494140625,0.1523284912109375,-0.034454345703125
1782986985282663200,2.8406630859375,-0.60296630859375,0.1160888671875,-0.0357208251953125
1782986985292737000,2.850737060546875,-0.599761962890625,0.0843048095703125,-0.0410919189453125
1782986985302812200,2.860812255859375,-0.4932403564453125,0.0684814453125,-0.0119476318359375
1782986985312886300,2.87088623046875,-0.3504486083984375,0.046661376953125,0.0225982666015625
1782986985322960100,2.880960205078125,-0.2330474853515625,0.0193634033203125,0.03851318359375
1782986985333035300,2.89103515625,-0.1624603271484375,-0.0048065185546875,0.0408935546875
1782986985343109000,2.901109130859375,-0.10687255859375,-0.022552490234375,0.0542449951171875
1782986985353184300,2.911184326171875,-0.0560150146484375,-0.032073974609375,0.0794525146484375
1782986985363258000,2.921258056640625,-0.0249176025390625,-0.040283203125,0.0733184814453125
1782986985373333200,2.931333251953125,-0.025848388671875,-0.0517120361328125,0.0630035400390625
1782986985383407000,2.941406982421875,-0.0328369140625,-0.067108154296875,0.057830810546875
1782986985393482200,2.951482177734375,-0.0349884033203125,-0.0742950439453125,0.0371246337890625
1782986985403556000,2.96155615234375,-0.0349578857421875,-0.07196044921875,0.0178070068359375
1782986985413630000,2.9716298828125,-0.02874755859375,-0.0710601806640625,0.000823974609375
1782986985423705000,2.981705078125,-0.0167388916015625,-0.0660858154296875,-0.005950927734375
1782986985433779200,2.991779296875,-0.0048370361328125,-0.0663909912109375,0.0065765380859375
1782986985443854000,3.00185400390625,-0.0041351318359375,-0.06341552734375,0.0114288330078125
1782986985453928200,3.01192822265625,-0.0240478515625,-0.057464599609375,0.0020904541015625
1782986985464003000,3.022003173828125,-0.0702362060546875,-0.058929443359375,0.009918212890625
1782986985474077200,3.0320771484375,-0.15496826171875,-0.0648040771484375,0.0211944580078125
1782986985484152000,3.042152099609375,-0.2895660400390625,-0.10382080078125,0.00457763671875
1782986985494226200,3.05222607421875,-0.475921630859375,-0.1858062744140625,0.0077056884765625
1782986985504300000,3.062300048828125,-0.7653350830078125,-0.34808349609375,0.004425048828125
1782986985514375200,3.072375244140625,-1.1877899169921875,-0.612152099609375,-0.0079498291015625
1782986985524449000,3.082448974609375,-1.7425994873046875,-0.9660797119140625,0.044342041015625
1782986985534524200,3.092524169921875,-2.443603515625,-1.4719390869140625,0.1613922119140625
1782986985544598000,3.102597900390625,-3.122161865234375,-2.0048828125,0.03839111328125
1782986985554673200,3.112673095703125,-3.744598388671875,-2.230133056640625,-0.148101806640625
1782986985564747000,3.1227470703125,-4.3560028076171875,-2.1285552978515625,-0.00616455078125
1782986985574822100,3.132822265625,-4.990814208984375,-1.882232666015625,0.30267333984375
1782986985584896000,3.14289599609375,-5.5461883544921875,-1.577850341796875,0.434112548828125
1782986985594971100,3.15297119140625,-5.6873626708984375,-1.212921142578125,0.36395263671875
1782986985605045000,3.163044921875,-5.3189697265625,-0.829681396484375,0.2183990478515625
1782986985615119000,3.173119140625,-4.59259033203125,-0.457305908203125,0.1907806396484375
1782986985625194000,3.183194091796875,-3.6983184814453125,-0.2181854248046875,0.2162933349609375
1782986985635268000,3.19326806640625,-2.7957916259765625,-0.16986083984375,0.1177825927734375
1782986985645343000,3.203343017578125,-2.022735595703125,-0.1683349609375,0.0540008544921875
1782986985655417000,3.2134169921875,-1.3123779296875,-0.08251953125,-0.0294036865234375
1782986985665492000,3.223491943359375,-0.6439056396484375,-0.0216522216796875,-0.1037139892578125
1782986985675566000,3.233566162109375,-0.1160888671875,0.0389556884765625,-0.11895751953125
1782986985685641000,3.243640869140625,0.3018646240234375,0.12176513671875,-0.089569091796875
1782986985695715000,3.253715087890625,0.67327880859375,0.156158447265625,-0.0501556396484375
1782986985705789200,3.2637890625,1.0337982177734375,0.111785888671875,-0.0125579833984375
1782986985715864000,3.273864013671875,1.342559814453125,0.0375823974609375,-0.0018768310546875
1782986985725938200,3.283938232421875,1.5100250244140625,-0.0056304931640625,0.014923095703125
1782986985736013000,3.294012939453125,1.4873046875,-0.026031494140625,0.0292205810546875
1782986985746087200,3.304087158203125,1.2667236328125,0.024810791015625,0.0280609130859375
1782986985756162000,3.314162109375,0.954620361328125,0.0993499755859375,0.0403900146484375
1782986985766236200,3.324236083984375,0.615447998046875,0.166900634765625,0.04364013671875
1782986985776311000,3.33431103515625,0.2561187744140625,0.2152252197265625,0.01361083984375
1782986985786385200,3.34438525390625,-0.10601806640625,0.2301788330078125,-0.001953125
1782986985796459300,3.354459228515625,-0.4381561279296875,0.1864166259765625,0.0053863525390625
1782986985806534100,3.3645341796875,-0.5004425048828125,0.1417388916015625,-0.034027099609375
1782986985816608300,3.374608154296875,-0.4224090576171875,0.1110992431640625,-0.0723114013671875
1782986985826683100,3.38468310546875,-0.3207244873046875,0.087371826171875,-0.0635528564453125
1782986985836757200,3.39475732421875,-0.195281982421875,0.088348388671875,-0.0381927490234375
1782986985846832000,3.40483203125,-0.086151123046875,0.06329345703125,-0.0260162353515625
1782986985856906200,3.41490625,-0.0153045654296875,0.0394439697265625,-0.0224456787109375
1782986985866981000,3.424981201171875,-0.01910400390625,0.0122222900390625,0.0085296630859375
1782986985877055200,3.43505517578125,-0.0526123046875,-0.01129150390625,0.044189453125
1782986985887130000,3.445130126953125,-0.087249755859375,-0.052642822265625,0.0587005615234375
1782986985897204200,3.455204345703125,-0.126800537109375,-0.1024322509765625,0.0561981201171875
1782986985907278000,3.465278076171875,-0.1535797119140625,-0.1169281005859375,-0.0135040283203125
1782986985917353200,3.475353271484375,-0.1356353759765625,-0.098114013671875,-0.095977783203125
1782986985927427000,3.485427001953125,-0.0897979736328125,-0.0709686279296875,-0.142913818359375
1782986985937502200,3.495502197265625,-0.050689697265625,-0.049407958984375,-0.1668548583984375
1782986985947576000,3.505576171875,-0.012542724609375,-0.063446044921875,-0.16973876953125
1782986985957651200,3.515651123046875,0.0061798095703125,-0.080078125,-0.1591644287109375
1782986985967725000,3.52572509765625,-0.014190673828125,-0.0736236572265625,-0.11431884765625
1782986985977800200,3.53580029296875,-0.0843963623046875,-0.09759521484375,-0.0742034912109375
1782986985987874000,3.5458740234375,-0.1780548095703125,-0.144683837890625,-0.08709716796875
1782986985997948200,3.5559482421875,-0.304840087890625,-0.1442413330078125,-0.0934906005859375
1782986986008023000,3.56602294921875,-0.5189666748046875,-0.1484527587890625,-0.1034088134765625
1782986986018097200,3.57609716796875,-0.8609771728515625,-0.17083740234375,-0.0784759521484375
1782986986028172000,3.586172119140625,-1.3123931884765625,-0.262298583984375,-0.0129852294921875
1782986986038246100,3.59624609375,-1.809356689453125,-0.4390411376953125,0.0125579833984375
1782986986048321000,3.606321044921875,-2.41253662109375,-0.7128143310546875,0.0531158447265625
1782986986058395100,3.61639501953125,-2.8405914306640625,-1.068023681640625,0.0539703369140625
1782986986068470300,3.62647021484375,-2.905303955078125,-1.3634796142578125,-0.0511016845703125
1782986986078544100,3.636544189453125,-2.946258544921875,-1.526519775390625,0.062164306640625
1782986986088618000,3.646617919921875,-3.2545623779296875,-1.5877838134765625,0.3879547119140625
1782986986098693000,3.656693115234375,-3.609619140625,-1.5878143310546875,0.6441650390625
1782986986108767000,3.66676708984375,-3.7879180908203125,-1.5896148681640625,0.7927398681640625
1782986986118842000,3.676842041015625,-3.7715911865234375,-1.64849853515625,0.9218292236328125
1782986986128916000,3.686916015625,-3.6385040283203125,-1.6202392578125,0.9881134033203125
1782986986138991000,3.6969912109375,-3.41162109375,-1.44085693359375,0.99005126953125
1782986986149065200,3.707065185546875,-3.1124114990234375,-1.1656494140625,0.86419677734375
1782986986159140400,3.717140380859375,-2.866424560546875,-0.7525482177734375,0.667449951171875
1782986986169214500,3.72721435546875,-2.7590484619140625,-0.3658905029296875,0.5152130126953125
1782986986179289300,3.737289306640625,-2.784820556640625,-0.0832977294921875,0.3430938720703125
1782986986189363500,3.747363525390625,-2.537689208984375,0.0321044921875,0.0396575927734375
1782986986199437300,3.757437255859375,-1.9145660400390625,0.063629150390625,-0.232940673828125
1782986986209512400,3.767512451171875,-1.1033477783203125,0.0834503173828125,-0.22314453125
1782986986219586300,3.77758642578125,-0.2466278076171875,0.0366668701171875,-0.0882568359375
1782986986229661400,3.787661376953125,0.431793212890625,-0.012237548828125,-0.1017608642578125
1782986986239735300,3.7977353515625,0.8712615966796875,-0.061614990234375,-0.2272491455078125
1782986986249810400,3.807810546875,1.0877685546875,-0.1142730712890625,-0.3223419189453125
1782986986259884300,3.81788427734375,1.1222381591796875,-0.1144561767578125,-0.3334503173828125
1782986986269959400,3.82795947265625,1.048614501953125,-0.0477142333984375,-0.280609130859375
1782986986280033300,3.838033203125,0.901947021484375,-0.003143310546875,-0.27532958984375
1782986986290107400,3.848107421875,0.7371673583984375,0.017578125,-0.2554473876953125
1782986986300182300,3.858182373046875,0.549102783203125,0.0512542724609375,-0.201385498046875
1782986986310256400,3.86825634765625,0.3436431884765625,0.08026123046875,-0.1735382080078125
1782986986320331300,3.878331298828125,0.1727142333984375,0.09344482421875,-0.143402099609375
1782986986330405400,3.8884052734375,0.07513427734375,0.080780029296875,-0.1031951904296875
1782986986340480300,3.898480224609375,0.030120849609375,0.0619964599609375,-0.075897216796875
1782986986350554400,3.908554443359375,0.00579833984375,0.07769775390625,-0.0776519775390625
1782986986360629200,3.918629150390625,0.012542724609375,0.088653564453125,-0.0635833740234375
1782986986370703400,3.928703369140625,0.0277252197265625,0.088836669921875,-0.0518646240234375
1782986986380777500,3.938777587890625,0.0306396484375,0.09783935546875,-0.025115966796875
1782986986390852400,3.948852294921875,0.01116943359375,0.1016845703125,0.016754150390625
1782986986400926500,3.958926513671875,-0.0387725830078125,0.092926025390625,0.045196533203125
1782986986411001300,3.96900146484375,-0.0936279296875,0.0915069580078125,0.058868408203125
1782986986421075500,3.979075439453125,-0.1380462646484375,0.09759521484375,0.0704193115234375
1782986986431150300,3.989150390625,-0.175994873046875,0.105438232421875,0.082305908203125
1782986986441224400,3.999224365234375,-0.18701171875,0.120147705078125,0.10003662109375
1782986986451299300,4.00929931640625,-0.1878814697265625,0.1263580322265625,0.119842529296875
1782986986461373400,4.01937353515625,-0.176513671875,0.1098175048828125,0.1196441650390625
1782986986471448300,4.0294482421875,-0.1544647216796875,0.0938873291015625,0.1190948486328125
1782986986481522400,4.0395224609375,-0.1627197265625,0.0782623291015625,0.11932373046875
1782986986491596500,4.049596435546875,-0.1950531005859375,0.068634033203125,0.105316162109375
1782986986501671400,4.05967138671875,-0.245025634765625,0.0508270263671875,0.085113525390625
1782986986511745500,4.06974560546875,-0.3029022216796875,0.040863037109375,0.0627288818359375
1782986986521820400,4.0798203125,-0.3733978271484375,0.0097503662109375,0.0352935791015625
1782986986531894500,4.08989453125,-0.462371826171875,-0.0503997802734375,0.018890380859375
1782986986541969400,4.099969482421875,-0.638153076171875,-0.14678955078125,0.034698486328125
1782986986552043500,4.11004345703125,-0.953399658203125,-0.328826904296875,0.063232421875
1782986986562118400,4.120118408203125,-1.4083404541015625,-0.6324310302734375,0.1142425537109375
1782986986572192500,4.130192626953125,-1.8729095458984375,-1.0061187744140625,0.1460418701171875
1782986986582266400,4.140266357421875,-2.288970947265625,-1.386749267578125,0.0968475341796875
1782986986592341500,4.150341552734375,-2.7447662353515625,-1.7335052490234375,0.007415771484375
1782986986602415400,4.160415283203125,-3.3048858642578125,-1.95318603515625,0.0500946044921875
1782986986612490500,4.170490478515625,-3.9403533935546875,-1.982513427734375,0.2544403076171875
1782986986622564400,4.180564453125,-4.5612030029296875,-2.062896728515625,0.3829498291015625
1782986986632639500,4.190639404296875,-4.9994659423828125,-2.0272979736328125,0.358978271484375
1782986986642713300,4.20071337890625,-5.0577545166015625,-1.8929290771484375,0.3484344482421875
1782986986652788500,4.21078857421875,-4.845306396484375,-1.7154388427734375,0.3657989501953125
1782986986662862300,4.2208623046875,-4.3953857421875,-1.5282440185546875,0.3923492431640625
1782986986672936400,4.2309365234375,-3.82586669921875,-1.30084228515625,0.3075103759765625
1782986986683011300,4.24101123046875,-3.2193603515625,-1.0828094482421875,0.1601409912109375
1782986986693085400,4.25108544921875,-2.4286041259765625,-0.855743408203125,-0.0079498291015625
1782986986703160300,4.261160400390625,-1.45343017578125,-0.58648681640625,-0.0243072509765625
1782986986713234400,4.271234375,-0.460418701171875,-0.336395263671875,0.067535400390625
1782986986723309300,4.281309326171875,0.3106231689453125,-0.0946197509765625,0.121795654296875
1782986986733383400,4.291383544921875,0.768707275390625,0.1081390380859375,0.1410980224609375
1782986986743458300,4.301458251953125,1.078765869140625,0.17474365234375,0.0372314453125
1782986986753532400,4.311532470703125,1.3237152099609375,0.17596435546875,-0.119415283203125
1782986986763607300,4.321607177734375,1.516845703125,0.160552978515625,-0.146728515625
1782986986773681400,4.331681396484375,1.6281890869140625,0.15869140625,-0.1195526123046875
1782986986783755300,4.34175537109375,1.58648681640625,0.166595458984375,-0.12164306640625
1782986986793830400,4.351830322265625,1.3146820068359375,0.2046051025390625,-0.110565185546875
1782986986803904300,4.361904296875,0.86669921875,0.267852783203125,-0.083892822265625
1782986986813979400,4.3719794921875,0.3170166015625,0.3353729248046875,0.03448486328125
1782986986824053200,4.38205322265625,-0.15277099609375,0.3124237060546875,-0.01611328125
1782986986834128400,4.39212841796875,-0.417388916015625,0.278594970703125,-0.0258636474609375
1782986986844202200,4.4022021484375,-0.5310516357421875,0.1939544677734375,-0.034088134765625
1782986986854277400,4.41227734375,-0.542938232421875,0.1192626953125,-0.0420684814453125
1782986986864351200,4.422351318359375,-0.486053466796875,0.0628662109375,-0.04364013671875
1782986986874425300,4.43242529296875,-0.40966796875,0.0189056396484375,-0.0512847900390625
1782986986884500200,4.442500244140625,-0.35992431640625,-0.0220489501953125,-0.0575408935546875
1782986986894574300,4.45257421875,-0.3204803466796875,-0.0132293701171875,-0.066497802734375
1782986986904649200,4.462649169921875,-0.3070526123046875,-0.053253173828125,-0.0533599853515625
1782986986914723300,4.472723388671875,-0.2911529541015625,-0.0853271484375,-0.051727294921875
1782986986924798500,4.482798583984375,-0.24383544921875,-0.106842041015625,-0.02044677734375
1782986986934872300,4.492872314453125,-0.1940765380859375,-0.152801513671875,-0.01739501953125
1782986986944947500,4.502947509765625,-0.13653564453125,-0.1773529052734375,-0.03680419921875
1782986986955021300,4.513021240234375,-0.10723876953125,-0.1822357177734375,-0.033111572265625
1782986986965095200,4.52309521484375,-0.1033935546875,-0.18255615234375,-0.042266845703125
1782986986975170300,4.53317041015625,-0.092315673828125,-0.17974853515625,-0.0579376220703125
1782986986985244200,4.543244140625,-0.0706024169921875,-0.1721649169921875,-0.07537841796875
1782986986995319300,4.5533193359375,-0.0452117919921875,-0.166168212890625,-0.086029052734375
1782986987005393200,4.56339306640625,-0.0287322998046875,-0.156890869140625,-0.0952911376953125
1782986987015468300,4.57346826171875,-0.0130615234375,-0.1436614990234375,-0.081512451171875
1782986987025542100,4.583542236328125,-0.0008544921875,-0.1407928466796875,-0.065155029296875
1782986987035617300,4.5936171875,-0.0048675537109375,-0.1409912109375,-0.0604705810546875
1782986987045691400,4.60369140625,-0.028350830078125,-0.143646240234375,-0.058197021484375
1782986987055766300,4.613766357421875,-0.05767822265625,-0.1501922607421875,-0.04840087890625
1782986987065840400,4.62384033203125,-0.0856781005859375,-0.1458282470703125,-0.02947998046875
1782986987075914500,4.63391455078125,-0.1278533935546875,-0.14019775390625,0.00067138671875
1782986987085989400,4.6439892578125,-0.2182159423828125,-0.141845703125,0.0366973876953125
1782986987096063500,4.6540634765625,-0.370330810546875,-0.1981353759765625,0.057647705078125
1782986987106138400,4.664138427734375,-0.631072998046875,-0.297637939453125,0.1063995361328125
1782986987116212500,4.67421240234375,-1.0526275634765625,-0.4512176513671875,0.2452545166015625
1782986987126287400,4.684287353515625,-1.6342315673828125,-0.690185546875,0.375274658203125
1782986987136361500,4.694361572265625,-2.3948516845703125,-0.878326416015625,0.3292388916015625
1782986987146436400,4.704436279296875,-3.134002685546875,-1.020843505859375,0.270965576171875
1782986987156510500,4.714510498046875,-3.8410186767578125,-0.9934234619140625,0.375213623046875
1782986987166584300,4.724584228515625,-4.60675048828125,-0.794921875,0.604827880859375
1782986987176659500,4.734659423828125,-5.166168212890625,-0.8188629150390625,0.72943115234375
1782986987186733300,4.7447333984375,-5.2480316162109375,-1.040252685546875,0.665618896484375
1782986987196808400,4.754808349609375,-5.0236053466796875,-1.1734161376953125,0.6355743408203125
1782986987206882300,4.76488232421875,-4.6830291748046875,-1.13616943359375,0.5825653076171875
1782986987216957400,4.77495751953125,-4.2129364013671875,-0.925994873046875,0.405670166015625
1782986987227031300,4.78503125,-3.6565399169921875,-0.7323760986328125,0.149139404296875
1782986987237106400,4.7951064453125,-3.0895843505859375,-0.5938720703125,-0.0560150146484375
1782986987247180300,4.80518017578125,-2.5209503173828125,-0.4926605224609375,-0.1694488525390625
1782986987257254400,4.81525439453125,-1.8603668212890625,-0.4514007568359375,-0.2576446533203125
1782986987267329300,4.825329345703125,-1.2425537109375,-0.396728515625,-0.2757720947265625
1782986987277403400,4.8354033203125,-0.809967041015625,-0.28851318359375,-0.176483154296875
1782986987287478300,4.845478271484375,-0.5767059326171875,-0.1764984130859375,-0.084930419921875
1782986987297552400,4.855552490234375,-0.489013671875,-0.0707855224609375,-0.0158233642578125
1782986987307627300,4.865627197265625,-0.48516845703125,-0.0210113525390625,0.0621795654296875
1782986987317701400,4.875701416015625,-0.4486083984375,-0.076324462890625,0.0547943115234375
1782986987327776300,4.8857763671875,-0.234283447265625,-0.1205291748046875,-0.089447021484375
1782986987337850400,4.895850341796875,0.1741790771484375,-0.107879638671875,-0.1514739990234375
1782986987347925200,4.90592529296875,0.657318115234375,-0.087890625,-0.134918212890625
1782986987357999400,4.915999267578125,1.0541839599609375,-0.1279754638671875,-0.09527587890625
1782986987368073200,4.9260732421875,1.2720794677734375,-0.1836395263671875,-0.1318817138671875
1782986987378148400,4.9361484375,1.2696990966796875,-0.1613922119140625,-0.092926025390625
1782986987388222200,4.94622216796875,1.0633697509765625,-0.15557861328125,-0.05963134765625
1782986987398297300,4.95629736328125,0.757598876953125,-0.116363525390625,-0.0112762451171875
1782986987408371200,4.96637109375,0.3811798095703125,-0.031585693359375,0.0584259033203125
1782986987418446300,4.9764462890625,0.0251312255859375,0.0176239013671875,0.062408447265625
1782986987428520200,4.986520263671875,-0.2006378173828125,0.05224609375,0.0183563232421875
1782986987438595300,4.99659521484375,-0.26641845703125,0.08746337890625,-0.0090179443359375
1782986987448669200,5.006669189453125,-0.223114013671875,0.104400634765625,-0.0183563232421875
1782986987458744300,5.016744384765625,-0.1231689453125,0.093719482421875,-0.0113983154296875
1782986987468818200,5.026818115234375,-0.0455322265625,0.07733154296875,0.00128173828125
1782986987478892300,5.036892333984375,-0.0287017822265625,0.06488037109375,0.0063323974609375
1782986987488967200,5.04696728515625,-0.045318603515625,0.0540924072265625,0.0141143798828125
1782986987499041300,5.057041259765625,-0.0823516845703125,0.046875,0.0152435302734375
1782986987509115100,5.067115234375,-0.1328887939453125,0.0326690673828125,0.00457763671875
1782986987519189200,5.077189208984375,-0.173095703125,0.009979248046875,-0.016632080078125
1782986987529264000,5.08726416015625,-0.1904449462890625,-0.0109100341796875,-0.0294189453125
1782986987539338200,5.097338134765625,-0.190185546875,-0.0218658447265625,-0.04620361328125
1782986987549413000,5.1074130859375,-0.187103271484375,-0.030059814453125,-0.04766845703125
1782986987559487200,5.1174873046875,-0.1713409423828125,-0.048583984375,-0.048828125
1782986987569562000,5.12756201171875,-0.131591796875,-0.060943603515625,-0.0652008056640625
1782986987579636200,5.13763623046875,-0.07696533203125,-0.0649261474609375,-0.06524658203125
1782986987589710300,5.14771044921875,-0.0298309326171875,-0.070831298828125,-0.05224609375
1782986987599785200,5.15778515625,-0.0277099609375,-0.0735321044921875,-0.0372467041015625
1782986987609859300,5.167859375,-0.0850372314453125,-0.0840606689453125,-0.0283203125
1782986987619934200,5.177934326171875,-0.19390869140625,-0.099456787109375,-0.0103912353515625
1782986987630008300,5.18800830078125,-0.3062591552734375,-0.126800537109375,0.006103515625
1782986987640083200,5.198083251953125,-0.41943359375,-0.1458587646484375,0.039825439453125
1782986987650157300,5.2081572265625,-0.5619964599609375,-0.1679840087890625,0.0860137939453125
1782986987660232200,5.218232177734375,-0.759735107421875,-0.25457763671875,0.118438720703125
1782986987670306300,5.228306396484375,-0.9945220947265625,-0.4437103271484375,0.15753173828125
1782986987680380400,5.23838037109375,-1.26971435546875,-0.7030029296875,0.202484130859375
1782986987690455300,5.248455322265625,-1.5592498779296875,-1.0551300048828125,0.1633453369140625
1782986987700529400,5.258529296875,-1.8573150634765625,-1.324981689453125,0.0382232666015625
1782986987710604300,5.268604248046875,-2.4884796142578125,-1.38836669921875,-0.0137939453125
1782986987720678400,5.278678466796875,-3.4861297607421875,-1.25341796875,0.2003936767578125
1782986987730753300,5.288753173828125,-4.523712158203125,-1.1060791015625,0.4592132568359375
1782986987740827400,5.298827392578125,-5.170623779296875,-1.0078277587890625,0.4302215576171875
1782986987750902300,5.30890234375,-5.2817840576171875,-1.06298828125,0.27490234375
1782986987760976400,5.318976318359375,-4.9355010986328125,-1.117034912109375,0.1890411376953125
1782986987771051300,5.32905126953125,-4.4944000244140625,-0.9470977783203125,0.0887298583984375
1782986987781125400,5.33912548828125,-4.1964569091796875,-0.7380523681640625,-0.0147552490234375
1782986987791199200,5.34919921875,-3.86614990234375,-0.576904296875,-0.075042724609375
1782986987801274400,5.3592744140625,-3.3176116943359375,-0.491943359375,-0.123504638671875
1782986987811348200,5.36934814453125,-2.5268096923828125,-0.42315673828125,-0.1813812255859375
1782986987821423400,5.37942333984375,-1.7525787353515625,-0.3401947021484375,-0.2372894287109375
1782986987831497200,5.389497314453125,-1.1795501708984375,-0.2332305908203125,-0.261749267578125
1782986987841572400,5.399572265625,-0.7498016357421875,-0.1246795654296875,-0.24981689453125
1782986987851646200,5.409646240234375,-0.3697967529296875,-0.0408477783203125,-0.194732666015625
1782986987861721300,5.419721435546875,-0.0166015625,-0.0064239501953125,-0.126495361328125
1782986987871795200,5.429795166015625,0.3231964111328125,-0.0439300537109375,-0.07025146484375
1782986987881869300,5.439869384765625,0.66143798828125,-0.0990142822265625,-0.0390625
1782986987891944200,5.449944091796875,0.9462890625,-0.1348876953125,0.00640869140625
1782986987902018300,5.460018310546875,1.1482086181640625,-0.156341552734375,0.0433349609375
1782986987912093200,5.47009326171875,1.227630615234375,-0.143829345703125,0.07269287109375
1782986987922167300,5.480167236328125,1.146575927734375,-0.1129913330078125,0.0976104736328125
1782986987932242200,5.4902421875,0.8787689208984375,-0.075927734375,0.0938873291015625
1782986987942316300,5.50031640625,0.49786376953125,-0.0236053466796875,0.061676025390625
1782986987952391200,5.51039111328125,0.12005615234375,0.010284423828125,0.0303497314453125
1782986987962465300,5.52046533203125,-0.13470458984375,0.0352630615234375,0.00042724609375
1782986987972540200,5.5305400390625,-0.2337799072265625,0.03546142578125,-0.0265045166015625
1782986987982614300,5.5406142578125,-0.238189697265625,0.0223236083984375,-0.0370941162109375
1782986987992688000,5.550688232421875,-0.2337799072265625,0.0020751953125,-0.0442352294921875
1782986988002763300,5.56076318359375,-0.2490081787109375,-0.015838623046875,-0.0597991943359375
1782986988012837000,5.570837158203125,-0.2893829345703125,-0.0101776123046875,-0.064422607421875
1782986988022912300,5.580912353515625,-0.3045654296875,-0.001190185546875,-0.0762481689453125
1782986988032986000,5.590986083984375,-0.284393310546875,-0.0101776123046875,-0.07916259765625
1782986988043061200,5.601061279296875,-0.215362548828125,-0.0395355224609375,-0.08331298828125
1782986988053135000,5.611135009765625,-0.1130828857421875,-0.0568389892578125,-0.10107421875
1782986988063210200,5.621210205078125,-0.027252197265625,-0.0660400390625,-0.1089630126953125
1782986988073284000,5.6312841796875,0.0180511474609375,-0.0656585693359375,-0.1074981689453125
1782986988083358200,5.641358154296875,0.0276641845703125,-0.064849853515625,-0.0915069580078125
1782986988093433000,5.65143310546875,0.0156402587890625,-0.0662994384765625,-0.06964111328125
1782986988103507200,5.661507080078125,0.00469970703125,-0.06756591796875,-0.0606689453125
1782986988113582000,5.67158203125,0.002349853515625,-0.060333251953125,-0.046051025390625
1782986988123656200,5.68165625,-0.0236663818359375,-0.0445098876953125,-0.0179595947265625
1782986988133731300,5.6917314453125,-0.068267822265625,-0.053955078125,0.00347900390625
1782986988143805200,5.70180517578125,-0.12103271484375,-0.066925048828125,0.014739990234375
1782986988153880000,5.711880126953125,-0.144195556640625,-0.09039306640625,0.023101806640625
1782986988163954000,5.721953857421875,-0.177001953125,-0.1399078369140625,0.02984619140625
1782986988174029000,5.732029052734375,-0.21734619140625,-0.18109130859375,0.0427398681640625
1782986988184103000,5.74210302734375,-0.324859619140625,-0.248931884765625,0.0291595458984375
1782986988194177000,5.752177001953125,-0.548583984375,-0.3670654296875,-0.009185791015625
1782986988204252200,5.762252197265625,-0.9097442626953125,-0.52679443359375,-0.0378875732421875
1782986988214326000,5.772325927734375,-1.4546661376953125,-0.72869873046875,-0.07977294921875
1782986988224401200,5.782401123046875,-2.159210205078125,-0.9506988525390625,-0.1412506103515625
1782986988234475000,5.79247509765625,-2.8287353515625,-1.2517547607421875,-0.2188720703125
1782986988244550100,5.802550048828125,-3.22479248046875,-1.515777587890625,-0.323486328125
1782986988254624300,5.812624267578125,-3.3748779296875,-1.7258758544921875,-0.398956298828125
1782986988264699100,5.82269921875,-3.359039306640625,-1.9014892578125,-0.334930419921875
1782986988274773200,5.832773193359375,-3.187713623046875,-2.00872802734375,-0.1590423583984375
1782986988284847000,5.84284716796875,-3.0137176513671875,-2.0049285888671875,-0.0533905029296875
1782986988294922200,5.852922119140625,-2.9862213134765625,-1.7791900634765625,-0.025421142578125
1782986988304996000,5.86299609375,-3.2118988037109375,-1.4507904052734375,-0.0625457763671875
1782986988315071200,5.8730712890625,-3.6484832763671875,-1.044708251953125,-0.0855560302734375
1782986988325145000,5.88314501953125,-4.0128936767578125,-0.6833953857421875,-0.0548095703125
1782986988335220200,5.89322021484375,-3.8825531005859375,-0.475555419921875,-0.1125946044921875
1782986988345294300,5.90329443359375,-3.1171875,-0.3713836669921875,-0.22564697265625
1782986988355369200,5.913369140625,-2.1086273193359375,-0.2978515625,-0.25531005859375
1782986988365443300,5.923443359375,-1.20941162109375,-0.22698974609375,-0.1810455322265625
1782986988375518200,5.933518310546875,-0.5168304443359375,-0.184906005859375,-0.0987091064453125
1782986988385592300,5.94359228515625,-0.071380615234375,-0.1402587890625,-0.0792388916015625
1782986988395667200,5.953667236328125,0.1441802978515625,-0.0944976806640625,-0.0693511962890625
1782986988405741300,5.9637412109375,0.211273193359375,-0.1357421875,-0.0520477294921875
1782986988415815200,5.973815185546875,0.3397369384765625,-0.2152099609375,-0.0438079833984375
1782986988425890300,5.983890380859375,0.6237640380859375,-0.258087158203125,-0.02484130859375
1782986988435964200,5.993964111328125,0.941864013671875,-0.2687530517578125,-0.01702880859375
1782986988446039300,6.004039306640625,1.1481170654296875,-0.27783203125,-0.0379486083984375
1782986988456113200,6.014113037109375,1.1827392578125,-0.2470550537109375,-0.004058837890625
1782986988466188300,6.024188232421875,0.9712982177734375,-0.161285400390625,0.029998779296875
1782986988476262100,6.03426220703125,0.585357666015625,-0.072479248046875,0.0197906494140625
1782986988486337300,6.044337158203125,0.150299072265625,0.0130615234375,-0.006805419921875
1782986988496411100,6.0544111328125,-0.215362548828125,0.0825042724609375,-0.0301971435546875
1782986988506485200,6.0644853515625,-0.43853759765625,0.1135101318359375,-0.0574188232421875
1782986988516560100,6.07456005859375,-0.5036468505859375,0.1136016845703125,-0.0921173095703125
1782986988526634200,6.08463427734375,-0.4643707275390625,0.093017578125,-0.09332275390625
1782986988536709000,6.094709228515625,-0.3637542724609375,0.05999755859375,-0.08428955078125
1782986988546783200,6.104783203125,-0.2607574462890625,0.0421600341796875,-0.0463409423828125
1782986988556858000,6.114858154296875,-0.18341064453125,0.00933837890625,-0.0228271484375
1782986988566932200,6.12493212890625,-0.1205291748046875,0.0048980712890625,-0.012603759765625
1782986988577007000,6.135007080078125,-0.0872802734375,0.0111083984375,0.0131072998046875
1782986988587081200,6.145081298828125,-0.08819580078125,-0.0135650634765625,0.019989013671875
1782986988597156000,6.155156005859375,-0.09490966796875,-0.0173187255859375,0.0229644775390625
1782986988607230200,6.165230224609375,-0.0664825439453125,-0.0150299072265625,0.0323486328125
1782986988617304000,6.175303955078125,-0.0523529052734375,-0.0111541748046875,0.0203399658203125
1782986988627379200,6.185379150390625,-0.05078125,-0.0135040283203125,0.0091400146484375
1782986988637453000,6.195453125,-0.0327301025390625,-0.0208282470703125,-0.0023345947265625
1782986988647528200,6.205528076171875,0.011810302734375,-0.024688720703125,-0.0183258056640625
1782986988657602000,6.21560205078125,0.06494140625,-0.021453857421875,-0.0311737060546875
1782986988667677200,6.22567724609375,0.07757568359375,-0.0164642333984375,-0.01568603515625
1782986988677751000,6.2357509765625,0.0470123291015625,-0.021697998046875,0.004730224609375
1782986988687826200,6.245826171875,-0.0138702392578125,-0.043121337890625,0.0086822509765625
1782986988697900000,6.255900146484375,-0.1008453369140625,-0.0606842041015625,0.027618408203125
1782986988707974100,6.26597412109375,-0.2266693115234375,-0.0749053955078125,0.07904052734375
1782986988718049000,6.276049072265625,-0.4272613525390625,-0.1057586669921875,0.1235504150390625
1782986988728123100,6.286123046875,-0.731353759765625,-0.1820526123046875,0.1490936279296875
1782986988738198000,6.296197998046875,-1.143035888671875,-0.3120574951171875,0.20599365234375
1782986988748272000,6.306272216796875,-1.509979248046875,-0.5186309814453125,0.2996673583984375
1782986988758347000,6.316346923828125,-1.7937774658203125,-0.775146484375,0.3345184326171875
1782986988768421000,6.326421142578125,-2.106719970703125,-1.08197021484375,0.353363037109375
1782986988778496000,6.33649609375,-2.4405517578125,-1.4059295654296875,0.3134307861328125
1782986988788570000,6.346570068359375,-2.9561309814453125,-1.638214111328125,0.1709136962890625
1782986988798645000,6.35664501953125,-3.567352294921875,-1.6803741455078125,0.19268798828125
1782986988808719000,6.366718994140625,-3.953277587890625,-1.7241363525390625,0.2516632080078125
1782986988818793000,6.37679296875,-4.052703857421875,-1.7895050048828125,0.1945953369140625
1782986988828868000,6.3868681640625,-4.1118011474609375,-1.7404632568359375,0.3057403564453125
1782986988838942000,6.39694189453125,-4.3442230224609375,-1.5146331787109375,0.339111328125
1782986988849017000,6.40701708984375,-4.5541229248046875,-1.0896453857421875,0.2703094482421875
1782986988859091000,6.417091064453125,-4.4368438720703125,-0.74603271484375,0.1227569580078125
1782986988869166000,6.427166015625,-3.9482269287109375,-0.59765625,-0.0959625244140625
1782986988879240000,6.437239990234375,-3.1541595458984375,-0.4553070068359375,-0.2206573486328125
1782986988889315000,6.447315185546875,-2.2248077392578125,-0.34552001953125,-0.2809600830078125
1782986988899389000,6.457388916015625,-1.332000732421875,-0.3031463623046875,-0.333587646484375
1782986988909464000,6.467464111328125,-0.5711212158203125,-0.257781982421875,-0.34210205078125
1782986988919538000,6.477537841796875,-0.0120086669921875,-0.1822052001953125,-0.2711334228515625
1782986988929612000,6.487612060546875,0.2917327880859375,-0.1549072265625,-0.1585235595703125
1782986988939687000,6.49768701171875,0.4143524169921875,-0.1790008544921875,-0.0708465576171875
1782986988949761300,6.50776123046875,0.48016357421875,-0.1904754638671875,-0.05194091796875
1782986988959836000,6.5178359375,0.57647705078125,-0.1803741455078125,-0.047607421875
1782986988969910300,6.52791015625,0.751373291015625,-0.1716766357421875,-0.0566253662109375
1782986988979985200,6.537985107421875,0.9536590576171875,-0.1675567626953125,-0.08367919921875
1782986988990059300,6.548059326171875,1.0950164794921875,-0.1625823974609375,-0.10076904296875
1782986989000134100,6.558134033203125,1.109161376953125,-0.1489410400390625,-0.1113739013671875
1782986989010208300,6.568208251953125,0.953216552734375,-0.104278564453125,-0.0849456787109375
1782986989020282000,6.5782822265625,0.6686859130859375,-0.050567626953125,-0.0555572509765625
1782986989030357200,6.588357177734375,0.365478515625,0.01702880859375,-0.0391845703125
1782986989040431000,6.59843115234375,0.081573486328125,0.06982421875,-0.04486083984375
1782986989050506200,6.60850634765625,-0.1361846923828125,0.0976104736328125,-0.078948974609375
1782986989060580000,6.618580078125,-0.2718963623046875,0.112213134765625,-0.1089935302734375
1782986989070655200,6.6286552734375,-0.313812255859375,0.117919921875,-0.10858154296875
1782986989080729000,6.63872900390625,-0.2904205322265625,0.12451171875,-0.1079864501953125
1782986989090804200,6.64880419921875,-0.265838623046875,0.1142425537109375,-0.10443115234375
1782986989100878300,6.65887841796875,-0.2293243408203125,0.1048126220703125,-0.0975799560546875
1782986989110953200,6.668953125,-0.1806488037109375,0.111663818359375,-0.087982177734375
1782986989121027300,6.67902734375,-0.146728515625,0.110748291015625,-0.045440673828125
1782986989131101200,6.68910107421875,-0.1293182373046875,0.093048095703125,-0.0020904541015625
1782986989141176300,6.69917626953125,-0.139434814453125,0.062744140625,0.043792724609375
1782986989151250200,6.709250244140625,-0.1720733642578125,0.032562255859375,0.0684661865234375
1782986989161324800,6.71932470703125,-0.2107696533203125,0.0083770751953125,0.07269287109375
1782986989171398700,6.729398681640625,-0.23699951171875,-0.0108642578125,0.057403564453125
1782986989181473800,6.739473876953125,-0.2221527099609375,-0.019683837890625,0.019927978515625
1782986989191547600,6.749547607421875,-0.17572021484375,-0.021759033203125,-0.007476806640625
1782986989201622800,6.759622802734375,-0.0958709716796875,-0.0267791748046875,-0.024810791015625
1782986989211697000,6.76969677734375,0.0153350830078125,-0.0119171142578125,-0.02728271484375
1782986989221770800,6.779770751953125,0.0999755859375,-0.01959228515625,-0.0101470947265625
1782986989231846000,6.789845947265625,0.0821990966796875,-0.0486297607421875,-0.0165557861328125
1782986989241919700,6.799919677734375,-0.0748443603515625,-0.0603179931640625,-0.023956298828125
1782986989251995000,6.809994873046875,-0.3475799560546875,-0.0872039794921875,0.0131072998046875
1782986989262068700,6.82006884765625,-0.6441650390625,-0.1724090576171875,0.0731353759765625
1782986989272144000,6.830143798828125,-0.8474273681640625,-0.2957000732421875,0.110595703125
1782986989282217700,6.8402177734375,-0.9598846435546875,-0.441864013671875,0.166168212890625
1782986989292292900,6.85029296875,-0.991973876953125,-0.69464111328125,0.2298583984375
1782986989302366700,6.86036669921875,-0.910186767578125,-1.0132293701171875,0.1909027099609375
1782986989312441900,6.87044189453125,-0.9253692626953125,-1.276123046875,0.036346435546875
1782986989322515700,6.880515625,-1.468017578125,-1.3731231689453125,-0.0039215087890625
1782986989332590800,6.8905908203125,-2.7821807861328125,-1.1870269775390625,0.0722198486328125
1782986989342664700,6.900664794921875,-4.5291900634765625,-0.9007568359375,0.2080535888671875
1782986989352738800,6.91073876953125,-5.934356689453125,-0.7703399658203125,0.420501708984375
1782986989362813700,6.920813720703125,-6.509979248046875,-0.7996826171875,0.3537750244140625
1782986989372887800,6.9308876953125,-6.20556640625,-0.8292694091796875,0.131378173828125
1782986989382962700,6.940962646484375,-5.380218505859375,-0.6796722412109375,0.136199951171875
1782986989393036800,6.951036865234375,-4.6179351806640625,-0.5568084716796875,0.150634765625
1782986989403111700,6.961111572265625,-3.93243408203125,-0.530670166015625,-0.0283050537109375
1782986989413185800,6.971185791015625,-3.220733642578125,-0.5258636474609375,-0.190826416015625
1782986989423260700,6.9812607421875,-2.4800262451171875,-0.45220947265625,-0.1721954345703125
1782986989433334800,6.991334716796875,-1.818817138671875,-0.374725341796875,-0.1313934326171875
1782986989443408600,7.00140869140625,-1.22772216796875,-0.312896728515625,-0.0744781494140625
1782986989453483800,7.01148388671875,-0.6734619140625,-0.23956298828125,0.021240234375
1782986989463557600,7.0215576171875,-0.1560516357421875,-0.165130615234375,0.0772705078125
1782986989473632800,7.0316328125,0.26397705078125,-0.1404571533203125,0.068328857421875
1782986989483706600,7.04170654296875,0.540863037109375,-0.1449737548828125,0.0284271240234375
1782986989493781800,7.05178173828125,0.7754974365234375,-0.1401214599609375,-0.0317840576171875
1782986989503855600,7.061855712890625,0.965301513671875,-0.1422882080078125,-0.0508270263671875
1782986989513930800,7.0719306640625,1.0849151611328125,-0.12640380859375,-0.121429443359375
1782986989524004600,7.082004638671875,1.1015472412109375,-0.0934906005859375,-0.1864013671875
1782986989534079700,7.092079833984375,1.0462493896484375,-0.074493408203125,-0.197052001953125
1782986989544153600,7.102153564453125,0.87945556640625,-0.0231170654296875,-0.213134765625
1782986989554227700,7.112227783203125,0.5362701416015625,0.0148773193359375,-0.2359771728515625
1782986989564302600,7.122302490234375,0.1846923828125,0.0549774169921875,-0.245208740234375
1782986989574376700,7.132376708984375,-0.073577880859375,0.0941619873046875,-0.24176025390625
1782986989584451600,7.14245166015625,-0.2034912109375,0.11468505859375,-0.233642578125
1782986989594525700,7.152525634765625,-0.2222900390625,0.102569580078125,-0.2280426025390625
1782986989604600600,7.1626005859375,-0.1962127685546875,0.1051177978515625,-0.1994781494140625
1782986989614674700,7.1726748046875,-0.1754608154296875,0.0928802490234375,-0.17584228515625
1782986989624749600,7.18274951171875,-0.18170166015625,0.0535888671875,-0.146575927734375
1782986989634823700,7.19282373046875,-0.1736297607421875,0.0333709716796875,-0.0977325439453125
1782986989644897800,7.202897705078125,-0.16265869140625,-0.0031890869140625,-0.0570220947265625
1782986989654972700,7.21297265625,-0.1382293701171875,-0.0331268310546875,-0.024322509765625
1782986989665046800,7.223046875,-0.114776611328125,-0.050537109375,0.00115966796875
1782986989675121700,7.23312158203125,-0.0855712890625,-0.0616607666015625,0.0244140625
1782986989685195800,7.24319580078125,-0.0557708740234375,-0.0731201171875,0.0446319580078125
1782986989695270700,7.253270751953125,-0.0505828857421875,-0.0801544189453125,0.0565032958984375
1782986989705344800,7.2633447265625,-0.0397796630859375,-0.1010894775390625,0.0648193359375
1782986989715419600,7.273419677734375,-0.0187225341796875,-0.1214599609375,0.0764923095703125
1782986989725493800,7.28349365234375,-0.0073089599609375,-0.1277618408203125,0.086181640625
1782986989735568600,7.293568603515625,-0.017120361328125,-0.1399078369140625,0.082275390625
1782986989745642800,7.303642822265625,-0.0268707275390625,-0.15545654296875,0.0689697265625
1782986989755716900,7.313716796875,-0.04815673828125,-0.162750244140625,0.0565338134765625
1782986989765791700,7.323791748046875,-0.073577880859375,-0.16619873046875,0.033966064453125
1782986989775865900,7.333865966796875,-0.125701904296875,-0.165069580078125,0.009429931640625
1782986989785940700,7.343940673828125,-0.26251220703125,-0.149658203125,0.015625
1782986989796014800,7.354014892578125,-0.52337646484375,-0.1301727294921875,0.0486602783203125
1782986989806089700,7.36408984375,-0.8788909912109375,-0.1504669189453125,0.091156005859375
1782986989816163800,7.374163818359375,-1.2218780517578125,-0.255950927734375,0.1208648681640625
1782986989826238700,7.38423876953125,-1.4202423095703125,-0.45635986328125,0.1225738525390625
1782986989836312800,7.394312744140625,-1.5388336181640625,-0.7158355712890625,0.1343231201171875
1782986989846388000,7.404387939453125,-1.815765380859375,-1.0220489501953125,0.055419921875
1782986989856461800,7.4144619140625,-2.3472747802734375,-1.2917633056640625,-0.0550384521484375
1782986989866535700,7.42453564453125,-3.087066650390625,-1.38214111328125,0.02362060546875
1782986989876610800,7.43461083984375,-3.99481201171875,-1.2854461669921875,0.26995849609375
1782986989886684700,7.4446845703125,-4.7391204833984375,-1.2384796142578125,0.416778564453125
1782986989896759800,7.454759765625,-5.1546173095703125,-1.215057373046875,0.376922607421875
1782986989906833700,7.464833740234375,-5.306610107421875,-1.106689453125,0.462921142578125
1782986989916908800,7.47490869140625,-5.195831298828125,-0.9206085205078125,0.6079559326171875
1782986989926982700,7.484982666015625,-4.8270111083984375,-0.7517852783203125,0.663116455078125
1782986989937057800,7.495057861328125,-4.220184326171875,-0.6540679931640625,0.548583984375
1782986989947131600,7.505131591796875,-3.44097900390625,-0.633544921875,0.33721923828125
1782986989957206800,7.515206787109375,-2.573760986328125,-0.6415863037109375,0.101898193359375
1782986989967281000,7.525281005859375,-1.7248077392578125,-0.549102783203125,-0.0791015625
1782986989977354800,7.535354736328125,-1.00579833984375,-0.388092041015625,-0.1996917724609375
1782986989987430000,7.545429931640625,-0.4708099365234375,-0.2083892822265625,-0.3213043212890625
1782986989997503700,7.555503662109375,-0.15106201171875,-0.1171112060546875,-0.3237457275390625
1782986990007579000,7.565578857421875,0.061248779296875,-0.0353546142578125,-0.3139801025390625
1782986990017652700,7.57565283203125,0.3394775390625,0.0443267822265625,-0.2922821044921875
1782986990027728000,7.585727783203125,0.5941925048828125,-0.062347412109375,-0.2119140625
1782986990037801700,7.5958017578125,0.91632080078125,-0.0577392578125,-0.17657470703125
1782986990047876900,7.605876953125,1.214080810546875,-0.05560302734375,-0.1067352294921875
1782986990057950700,7.61595068359375,1.4450531005859375,-0.0771331787109375,0.021881103515625
1782986990068024600,7.626024658203125,1.497528076171875,-0.0893096923828125,0.0493011474609375
1782986990078099700,7.636099609375,1.384613037109375,-0.044586181640625,0.042083740234375
1782986990088173800,7.646173828125,1.1426544189453125,0.04888916015625,0.0497283935546875
1782986990098248700,7.656248779296875,0.711273193359375,0.166717529296875,0.0357208251953125
1782986990108322800,7.66632275390625,0.134918212890625,0.2163238525390625,0.0082244873046875
1782986990118397700,7.676397705078125,-0.269439697265625,0.2532196044921875,-0.0589141845703125
1782986990128471800,7.686471923828125,-0.432098388671875,0.250701904296875,-0.11138916015625
1782986990138546700,7.696546630859375,-0.438079833984375,0.20855712890625,-0.061309814453125
1782986990148620800,7.706620849609375,-0.3647308349609375,0.1582489013671875,0.0229644775390625
1782986990158696000,7.716696044921875,-0.284942626953125,0.1125640869140625,0.0597076416015625
1782986990168770000,7.72677001953125,-0.2448883056640625,0.0711517333984375,0.0692138671875
1782986990178844000,7.736843994140625,-0.2561798095703125,0.032318115234375,0.1025238037109375
1782986990188919000,7.7469189453125,-0.274017333984375,0.0124969482421875,0.123504638671875
1782986990198993000,7.756992919921875,-0.268585205078125,0.006500244140625,0.1139373779296875
1782986990209068000,7.767068115234375,-0.223907470703125,-0.0128631591796875,0.1097259521484375
1782986990219142000,7.777141845703125,-0.1722869873046875,-0.047332763671875,0.0684051513671875
1782986990229217000,7.787217041015625,-0.1421966552734375,-0.0812225341796875,0.05560302734375
1782986990239291000,7.797290771484375,-0.1107025146484375,-0.1048126220703125,0.0583953857421875
1782986990249366000,7.807365966796875,-0.0938262939453125,-0.117919921875,0.0336151123046875
1782986990259439900,7.81743994140625,-0.1148681640625,-0.1246795654296875,0.0130767822265625
1782986990269515000,7.827514892578125,-0.14788818359375,-0.1248016357421875,-0.018402099609375
1782986990279588900,7.8375888671875,-0.162384033203125,-0.1069793701171875,-0.0369110107421875
1782986990289663000,7.8476630859375,-0.1756134033203125,-0.1100921630859375,-0.0321044921875
1782986990299737900,7.85773779296875,-0.189605712890625,-0.1240386962890625,-0.0311279296875
1782986990309812000,7.86781201171875,-0.2144012451171875,-0.153411865234375,-0.015777587890625
1782986990319886800,7.877886962890625,-0.25543212890625,-0.188690185546875,0.01068115234375
1782986990329961000,7.8879609375,-0.313720703125,-0.2265472412109375,0.037506103515625
1782986990340036000,7.8980361328125,-0.419158935546875,-0.2689971923828125,0.047149658203125
1782986990350110000,7.90810986328125,-0.6287841796875,-0.2968597412109375,0.0412750244140625
1782986990360185000,7.91818505859375,-0.929779052734375,-0.364715576171875,0.0266876220703125
1782986990370259000,7.928259033203125,-1.351654052734375,-0.541717529296875,0.000030517578125
1782986990380334000,7.938333984375,-1.8046875,-0.819427490234375,-0.046966552734375
1782986990390408000,7.948407958984375,-2.1473388671875,-1.1767425537109375,-0.05352783203125
1782986990400482000,7.95848193359375,-2.439300537109375,-1.475311279296875,-0.14208984375
1782986990410557000,7.968556884765625,-2.9632568359375,-1.677459716796875,-0.107147216796875
1782986990420631000,7.978631103515625,-3.612060546875,-1.7662353515625,0.0934295654296875
1782986990430706000,7.988705810546875,-4.0670013427734375,-1.82757568359375,0.13226318359375
1782986990440780000,7.998780029296875,-4.167694091796875,-1.89532470703125,0.1437835693359375
1782986990450855000,8.00885498046875,-4.0418243408203125,-1.7180633544921875,0.252410888671875
1782986990460929300,8.01892919921875,-4.1473846435546875,-1.33721923828125,0.19171142578125
1782986990471004000,8.02900390625,-4.3601226806640625,-1.0294647216796875,-0.065643310546875
1782986990481078300,8.039078369140626,-4.123260498046875,-0.883636474609375,-0.423492431640625
1782986990491153000,8.04915283203125,-3.3492431640625,-0.84063720703125,-0.6259613037109375
1782986990501227300,8.059227294921875,-2.19854736328125,-0.8716888427734375,-0.5130767822265625
1782986990511301000,8.069301025390626,-1.12823486328125,-0.8648529052734375,-0.1646728515625
1782986990521376300,8.079376220703125,-0.533294677734375,-0.9527740478515625,0.1537933349609375
1782986990531450000,8.0894501953125,-0.229888916015625,-0.8493499755859375,0.1011810302734375
1782986990541525200,8.099525146484375,-0.054046630859375,-0.5236053466796875,-0.0169677734375
1782986990551599000,8.10959912109375,0.010040283203125,-0.2164154052734375,-0.055450439453125
1782986990561674200,8.11967431640625,0.033782958984375,-0.04656982421875,-0.08587646484375
1782986990571748000,8.129748046875,0.2548370361328125,-0.0081939697265625,-0.14935302734375
1782986990581823200,8.1398232421875,0.6207122802734375,-0.065277099609375,-0.126708984375
1782986990591897000,8.14989697265625,0.9139251708984375,-0.1139373779296875,-0.0560302734375
1782986990601972200,8.15997216796875,0.998138427734375,-0.05694580078125,0.01959228515625
1782986990612046000,8.170046142578125,0.82684326171875,0.0537872314453125,0.0997772216796875
1782986990622120200,8.1801201171875,0.45648193359375,0.1518707275390625,0.103515625
1782986990632195000,8.190195068359374,0.05340576171875,0.2274322509765625,0.051422119140625
1782986990642269200,8.200269287109375,-0.2249908447265625,0.2662506103515625,0.000152587890625
1782986990652344000,8.210343994140626,-0.349609375,0.2823486328125,-0.05126953125
1782986990662418200,8.220418212890625,-0.3494415283203125,0.2702178955078125,-0.0780487060546875
1782986990672493000,8.2304931640625,-0.2497406005859375,0.21820068359375,-0.1232757568359375
1782986990682567200,8.240567138671874,-0.121337890625,0.1463165283203125,-0.1217193603515625
1782986990692642000,8.25064208984375,-0.0158843994140625,0.0760345458984375,-0.091888427734375
1782986990702716200,8.260716064453124,0.062896728515625,0.01824951171875,-0.102447509765625
1782986990712790000,8.2707900390625,0.109649658203125,-0.0096435546875,-0.0919189453125
1782986990722865200,8.280865234375,0.1244964599609375,-0.014739990234375,-0.0674591064453125
1782986990732939000,8.29093896484375,0.135162353515625,-0.0139617919921875,-0.0616607666015625
1782986990743014100,8.30101416015625,0.115203857421875,-0.02099609375,-0.0600738525390625
1782986990753088000,8.311087890625,0.0576934814453125,-0.031036376953125,-0.05267333984375
1782986990763163100,8.3211630859375,-0.0158843994140625,-0.0460052490234375,-0.04736328125
1782986990773237000,8.331237060546876,-0.058319091796875,-0.06341552734375,-0.0551605224609375
1782986990783312100,8.34131201171875,-0.0755615234375,-0.0819244384765625,-0.059295654296875
1782986990793386000,8.351385986328125,-0.07342529296875,-0.0932769775390625,-0.033660888671875
1782986990803461000,8.361461181640625,-0.0428466796875,-0.11578369140625,-0.025787353515625
1782986990813535000,8.371534912109375,-0.0106658935546875,-0.1304779052734375,-0.0233612060546875
1782986990823609000,8.381609130859376,-0.0093994140625,-0.121978759765625,-0.019256591796875
1782986990833684000,8.39168408203125,-0.057891845703125,-0.1157989501953125,-0.01324462890625
1782986990843758000,8.401758056640626,-0.17071533203125,-0.1075897216796875,-0.0004425048828125
1782986990853833000,8.4118330078125,-0.323516845703125,-0.1016082763671875,0.003265380859375
1782986990863907000,8.421906982421875,-0.4636383056640625,-0.0972137451171875,0.0095672607421875
1782986990873982000,8.43198193359375,-0.5732421875,-0.0951080322265625,0.023712158203125
1782986990884056000,8.44205615234375,-0.673797607421875,-0.1063995361328125,0.0326690673828125
1782986990894131000,8.452130859375,-0.788543701171875,-0.15386962890625,0.0657196044921875
1782986990904205000,8.462205078125,-0.99871826171875,-0.2458648681640625,0.111053466796875
1782986990914279000,8.47227880859375,-1.2666015625,-0.4456024169921875,0.045379638671875
1782986990924354000,8.48235400390625,-1.5121917724609375,-0.8135223388671875,0.07855224609375
1782986990934428000,8.492427978515625,-1.805633544921875,-1.2878265380859375,0.1581573486328125
1782986990944503000,8.5025029296875,-2.2274322509765625,-1.5933074951171875,0.0364532470703125
1782986990954577000,8.512576904296875,-2.943267822265625,-1.60552978515625,-0.0259246826171875
1782986990964652000,8.522652099609376,-3.9815521240234375,-1.404998779296875,0.1013031005859375
1782986990974726000,8.532725830078125,-4.9148101806640625,-1.2121734619140625,0.2601776123046875
1782986990984801000,8.542801025390625,-5.254119873046875,-1.147796630859375,0.2975616455078125
1782986990994875000,8.552875,-4.9377593994140625,-1.20147705078125,0.2021636962890625
1782986991004950000,8.562949951171875,-4.3366546630859375,-1.1275634765625,0.1237640380859375
1782986991015023900,8.57302392578125,-3.936676025390625,-0.9495086669921875,-0.0251007080078125
1782986991025099000,8.58309912109375,-3.809478759765625,-0.8060302734375,-0.2750244140625
1782986991035172900,8.5931728515625,-3.7086029052734375,-0.63397216796875,-0.42755126953125
1782986991045247000,8.6032470703125,-3.3343353271484375,-0.534210205078125,-0.4498748779296875
1782986991055321900,8.61332177734375,-2.5460052490234375,-0.4629669189453125,-0.3350067138671875
1782986991065396000,8.62339599609375,-1.63153076171875,-0.38494873046875,-0.1667022705078125
1782986991075470800,8.633470947265625,-0.838592529296875,-0.29473876953125,-0.04815673828125
1782986991085545000,8.643544921875,-0.2428741455078125,-0.1783599853515625,0.029571533203125
1782986991095620000,8.6536201171875,0.175750732421875,-0.0927276611328125,0.0450592041015625
1782986991105694000,8.66369384765625,0.475067138671875,-0.07000732421875,-0.0012054443359375
1782986991115769000,8.67376904296875,0.728912353515625,-0.09173583984375,-0.074859619140625
1782986991125843000,8.683843017578125,0.94219970703125,-0.09979248046875,-0.092681884765625
1782986991135917000,8.6939169921875,1.0941009521484375,-0.08526611328125,-0.0849609375
1782986991145992000,8.703991943359375,1.137237548828125,-0.042205810546875,-0.061859130859375
1782986991156065800,8.714065673828125,1.03466796875,0.0203399658203125,-0.0468597412109375
1782986991166140700,8.724140625,0.8333892822265625,0.091583251953125,-0.052276611328125
1782986991176214800,8.73421484375,0.5445709228515625,0.1573028564453125,-0.054290771484375
1782986991186289700,8.74428955078125,0.2251129150390625,0.224029541015625,-0.038726806640625
1782986991196363800,8.75436376953125,-0.0508270263671875,0.26361083984375,-0.046600341796875
1782986991206438700,8.764438720703126,-0.229217529296875,0.2575531005859375,-0.065277099609375
1782986991216512800,8.7745126953125,-0.300933837890625,0.225341796875,-0.0551300048828125
1782986991226587600,8.784587646484376,-0.2759857177734375,0.16851806640625,-0.0326995849609375
1782986991236661800,8.794661865234374,-0.17974853515625,0.107452392578125,-0.0076141357421875
1782986991246736000,8.80473583984375,-0.102752685546875,0.05609130859375,0.018096923828125
1782986991256810800,8.814810791015624,-0.089324951171875,0.0173187255859375,0.039794921875
1782986991266884900,8.824884765625,-0.0967254638671875,-0.0153961181640625,0.0606231689453125
1782986991276959700,8.834959716796876,-0.09722900390625,-0.0440521240234375,0.076171875
1782986991287033900,8.845033935546875,-0.10455322265625,-0.069854736328125,0.103363037109375
1782986991297108700,8.855108642578125,-0.1193389892578125,-0.1041717529296875,0.1247406005859375
1782986991307182800,8.865182861328124,-0.134979248046875,-0.1352996826171875,0.122100830078125
1782986991317257700,8.8752578125,-0.1427001953125,-0.1543426513671875,0.110809326171875
1782986991327331800,8.885331787109376,-0.1006927490234375,-0.18304443359375,0.079681396484375
1782986991337406700,8.89540673828125,-0.0142822265625,-0.1815338134765625,0.0330657958984375
1782986991347480800,8.905480712890625,0.049774169921875,-0.1767120361328125,0.004241943359375
1782986991357554700,8.9155546875,0.0826873779296875,-0.1739959716796875,-0.0388336181640625
1782986991367629800,8.9256298828125,0.0754547119140625,-0.160125732421875,-0.076263427734375
1782986991377703700,8.93570361328125,0.04132080078125,-0.151336669921875,-0.0960845947265625
1782986991387778800,8.94577880859375,-0.020111083984375,-0.1425018310546875,-0.110137939453125
1782986991397852700,8.955852783203126,-0.1213836669921875,-0.138824462890625,-0.110015869140625
1782986991407927800,8.965927734375,-0.229949951171875,-0.1495361328125,-0.1055755615234375
1782986991418001700,8.976001708984375,-0.3531646728515625,-0.1773223876953125,-0.08135986328125
1782986991428076800,8.986076904296874,-0.534912109375,-0.239959716796875,-0.013763427734375
1782986991438150700,8.996150634765625,-0.8076019287109375,-0.38818359375,0.08624267578125
1782986991448225800,9.006225830078124,-1.245361328125,-0.593658447265625,0.1555938720703125
1782986991458299600,9.016299560546875,-1.851776123046875,-0.88006591796875,0.227386474609375
1782986991468373800,9.026373779296875,-2.3970947265625,-1.2937774658203125,0.30548095703125
1782986991478449000,9.036448974609375,-2.731842041015625,-1.7446136474609375,0.28619384765625
1782986991488522800,9.046522705078125,-2.9715118408203125,-1.9761199951171875,0.186859130859375
1782986991498598000,9.056597900390624,-3.34613037109375,-2.0081634521484375,0.1976776123046875
1782986991508671700,9.066671630859375,-3.961700439453125,-1.8546600341796875,0.2803192138671875
1782986991518747000,9.076746826171876,-4.6437225341796875,-1.6104888916015625,0.358734130859375
1782986991528820700,9.08682080078125,-5.15740966796875,-1.3608245849609375,0.4878692626953125
1782986991538896000,9.096895751953125,-5.2643585205078125,-1.0589141845703125,0.580078125
1782986991548969700,9.1069697265625,-4.9202423095703125,-0.794708251953125,0.5262603759765625
1782986991559044900,9.117044921875,-4.3020782470703125,-0.6348876953125,0.315185546875
1782986991569118700,9.12711865234375,-3.570892333984375,-0.559844970703125,0.103424072265625
1782986991579192600,9.137192626953125,-2.8063812255859375,-0.5031890869140625,0.0023651123046875
1782986991589267700,9.147267822265626,-1.9723663330078125,-0.4295196533203125,-0.1177978515625
1782986991599341600,9.157341552734374,-1.1221923828125,-0.3316192626953125,-0.277008056640625
1782986991609416700,9.167416748046875,-0.354949951171875,-0.2163238525390625,-0.418121337890625
1782986991619490800,9.17749072265625,0.2254638671875,-0.107421875,-0.51983642578125
1782986991629565700,9.187565673828125,0.6133270263671875,-0.0473480224609375,-0.5591278076171875
1782986991639639800,9.197639892578126,0.9069366455078125,-0.022735595703125,-0.5601959228515625
1782986991649714700,9.207714599609375,1.121246337890625,0.0291290283203125,-0.4994049072265625
1782986991659788800,9.217788818359375,1.2537994384765625,0.0783843994140625,-0.4066925048828125
1782986991669863700,9.22786376953125,1.30706787109375,0.127471923828125,-0.26275634765625
1782986991679937800,9.237937744140625,1.218841552734375,0.1804046630859375,-0.181488037109375
1782986991690011600,9.24801171875,0.9969329833984375,0.2103424072265625,-0.1334686279296875
1782986991700086800,9.258086669921875,0.711395263671875,0.257568359375,-0.09014892578125
1782986991710160600,9.26816064453125,0.413970947265625,0.3108673095703125,-0.06390380859375
1782986991720235800,9.27823583984375,0.176788330078125,0.33203125,-0.0373992919921875
1782986991730309600,9.2883095703125,0.0103912353515625,0.3099212646484375,-0.0103759765625
1782986991740384800,9.298384765625,-0.0912322998046875,0.261077880859375,0.0071868896484375
1782986991750458600,9.308458740234375,-0.1245574951171875,0.1771087646484375,0.0333251953125
1782986991760533800,9.31853369140625,-0.1041412353515625,0.0840606689453125,0.07757568359375
1782986991770607600,9.328607666015625,-0.072296142578125,0.00775146484375,0.1166534423828125
1782986991780681700,9.338681640625,-0.069427490234375,-0.0526885986328125,0.1348724365234375
1782986991790756600,9.348756591796874,-0.0695648193359375,-0.0825653076171875,0.1457977294921875
1782986991800830700,9.358830810546875,-0.0624237060546875,-0.0883331298828125,0.1248321533203125
1782986991810905600,9.368905517578124,-0.07220458984375,-0.105804443359375,0.1013336181640625
1782986991820979700,9.378979736328125,-0.08990478515625,-0.1253204345703125,0.0766754150390625
1782986991831054600,9.3890546875,-0.1130218505859375,-0.1363372802734375,0.03839111328125
1782986991841128700,9.399128662109375,-0.1429595947265625,-0.1342315673828125,0.010833740234375
1782986991851203600,9.40920361328125,-0.1504058837890625,-0.1395111083984375,-0.026458740234375
1782986991861277700,9.419277587890624,-0.1080322265625,-0.1393585205078125,-0.0608367919921875
1782986991871352600,9.4293525390625,-0.0538177490234375,-0.135162353515625,-0.0498046875
1782986991881426700,9.4394267578125,-0.0282135009765625,-0.13885498046875,-0.0376739501953125
1782986991891500800,9.449500732421875,-0.04071044921875,-0.1425933837890625,-0.0464019775390625
1782986991901575700,9.45957568359375,-0.0939788818359375,-0.1381072998046875,-0.0452423095703125
1782986991911649800,9.46964990234375,-0.1910247802734375,-0.1281280517578125,-0.037200927734375
1782986991921724700,9.479724609375,-0.293609619140625,-0.1421966552734375,-0.015350341796875
1782986991931798800,9.489798828125,-0.350799560546875,-0.1759033203125,0.0086517333984375
1782986991941873700,9.499873779296875,-0.38140869140625,-0.2218475341796875,0.049957275390625
1782986991951947800,9.50994775390625,-0.464141845703125,-0.2817535400390625,0.1134033203125
1782986991962022700,9.520022705078125,-0.64794921875,-0.420654296875,0.174407958984375
1782986991972096800,9.5300966796875,-0.964599609375,-0.654327392578125,0.20751953125
1782986991982171600,9.540171630859374,-1.3212127685546875,-0.986846923828125,0.2242279052734375
1782986991992245800,9.550245849609375,-1.6248931884765625,-1.4174041748046875,0.121429443359375
1782986992002320000,9.56031982421875,-2.025787353515625,-1.8103179931640625,-0.1045379638671875
1782986992012394800,9.570394775390625,-2.8472442626953125,-1.96185302734375,-0.174896240234375
1782986992022468900,9.58046875,-4.150970458984375,-1.7955322265625,-0.0388641357421875
1782986992032543700,9.590543701171875,-5.2620086669921875,-1.519775390625,0.081878662109375
1782986992042617900,9.600617919921875,-5.536163330078125,-1.3735504150390625,0.124603271484375
1782986992052692700,9.610692626953124,-5.02484130859375,-1.3295135498046875,0.145599365234375
1782986992062766800,9.620766845703125,-4.2837371826171875,-1.3468475341796875,0.10589599609375
1782986992072841700,9.630841796875,-3.78448486328125,-1.33551025390625,0.0796661376953125
1782986992082915800,9.640915771484375,-3.596832275390625,-1.2164306640625,0.11785888671875
1782986992092990700,9.65099072265625,-3.4749755859375,-1.09747314453125,0.1217041015625
1782986992103064800,9.66106494140625,-3.0849151611328125,-1.0198516845703125,0.0497589111328125
1782986992113140000,9.671139892578125,-2.33587646484375,-0.8636016845703125,-0.0571441650390625
1782986992123213800,9.6812138671875,-1.501373291015625,-0.63311767578125,-0.1307220458984375
1782986992133287700,9.69128759765625,-0.8144378662109375,-0.3875732421875,-0.1614990234375
1782986992143362800,9.70136279296875,-0.35467529296875,-0.1738433837890625,-0.144134521484375
1782986992153436700,9.711436767578125,-0.0097198486328125,-0.003021240234375,-0.136322021484375
1782986992163511600,9.721511474609375,0.3447113037109375,0.0666656494140625,-0.1652374267578125
1782986992173585700,9.731585693359374,0.7461090087890625,0.044219970703125,-0.2040252685546875
1782986992183660500,9.74166064453125,1.159454345703125,0.001617431640625,-0.2189788818359375
1782986992193734700,9.751734619140626,1.4801177978515625,-0.0389556884765625,-0.2136688232421875
1782986992203809800,9.761809814453125,1.6038360595703125,0.026519775390625,-0.1469268798828125
1782986992213883600,9.771883544921875,1.4405364990234375,0.0914154052734375,-0.0950927734375
1782986992223958800,9.781958740234375,1.02227783203125,0.19000244140625,-0.0623321533203125
1782986992234032600,9.79203271484375,0.4871368408203125,0.3130645751953125,0.021026611328125
1782986992244106500,9.8021064453125,-0.102813720703125,0.393280029296875,0.0718536376953125
1782986992254181600,9.812181640625,-0.5942230224609375,0.3927764892578125,0.0665130615234375
1782986992264255500,9.82225537109375,-0.81805419921875,0.3374176025390625,0.0559844970703125
1782986992274330600,9.83233056640625,-0.77044677734375,0.2579803466796875,0.0542144775390625
1782986992284404500,9.842404541015625,-0.558319091796875,0.1671295166015625,0.0587921142578125
1782986992294479600,9.852479736328124,-0.3090362548828125,0.0857391357421875,0.04437255859375
1782986992304553500,9.862553466796875,-0.1230316162109375,0.030975341796875,0.020782470703125
1782986992314628600,9.872628662109374,-0.0494842529296875,-0.0124359130859375,-0.0032958984375
1782986992324702700,9.88270263671875,-0.0428619384765625,-0.0482330322265625,-0.0229339599609375
1782986992334777600,9.892777587890626,-0.0564727783203125,-0.0747528076171875,-0.0471038818359375
1782986992344851700,9.902851806640625,-0.0721893310546875,-0.108917236328125,-0.0778656005859375
1782986992354925600,9.912925537109375,-0.08172607421875,-0.134674072265625,-0.0865020751953125
1782986992365000700,9.923000732421874,-0.083526611328125,-0.1548004150390625,-0.08636474609375
1782986992375074600,9.933074462890625,-0.0510406494140625,-0.1686248779296875,-0.087615966796875
1782986992385149700,9.943149658203126,-0.0127716064453125,-0.1691131591796875,-0.076202392578125
1782986992395223600,9.9532236328125,0.0211334228515625,-0.1768646240234375,-0.0580291748046875
1782986992405298700,9.963298583984376,0.0435028076171875,-0.1822357177734375,-0.041259765625
1782986992415372500,9.97337255859375,0.0329742431640625,-0.184112548828125,-0.028076171875
1782986992425447700,9.98344775390625,-0.0097503662109375,-0.1835784912109375,-0.0211944580078125
1782986992435521500,9.993521484375,-0.0645904541015625,-0.1726837158203125,-0.023590087890625
1782986992445596700,10.0035966796875,-0.1354522705078125,-0.157440185546875,-0.016937255859375
1782986992455670500,10.01367041015625,-0.20623779296875,-0.146270751953125,-0.0163116455078125
1782986992465744600,10.02374462890625,-0.274383544921875,-0.1470184326171875,-0.016204833984375
1782986992475819500,10.033819580078125,-0.354248046875,-0.1587982177734375,0.015350341796875
1782986992485893600,10.0438935546875,-0.444854736328125,-0.1958465576171875,0.070068359375
1782986992495968500,10.053968505859375,-0.5683746337890625,-0.2717132568359375,0.098388671875
1782986992506042600,10.064042724609376,-0.8093109130859375,-0.40081787109375,0.136138916015625
1782986992516117500,10.074117431640625,-1.19879150390625,-0.636627197265625,0.15203857421875
1782986992526191600,10.084191650390625,-1.6548614501953125,-0.9154510498046875,0.0971527099609375
1782986992536266500,10.0942666015625,-2.09197998046875,-1.2705230712890625,0.11181640625
1782986992546340600,10.104340576171875,-2.402618408203125,-1.701446533203125,0.074951171875
1782986992556415500,10.11441552734375,-2.548004150390625,-2.0066375732421875,-0.056610107421875
1782986992566489600,10.124489501953125,-2.8076324462890625,-2.1370391845703125,-0.0909271240234375
1782986992576563700,10.134563720703126,-3.224029541015625,-2.0876312255859375,-0.0825042724609375
1782986992586638600,10.144638671875,-3.5599365234375,-1.968994140625,-0.0888824462890625
1782986992596712700,10.154712646484375,-3.742919921875,-1.85076904296875,-0.0877227783203125
1782986992606787600,10.16478759765625,-3.852874755859375,-1.6593475341796875,-0.05096435546875
1782986992616861700,10.17486181640625,-3.9996795654296875,-1.429443359375,0.087432861328125
1782986992626936600,10.1849365234375,-4.195587158203125,-1.2912139892578125,0.2462158203125
1782986992637010700,10.1950107421875,-4.1473541259765625,-1.2615966796875,0.2918853759765625
1782986992647085600,10.20508544921875,-3.552886962890625,-1.2086334228515625,0.157928466796875
1782986992657159700,10.21515966796875,-2.5560150146484375,-1.065948486328125,-0.0322723388671875
1782986992667234600,10.225234619140625,-1.454986572265625,-0.8603973388671875,-0.1385650634765625
1782986992677308700,10.23530859375,-0.4601287841796875,-0.618499755859375,-0.187469482421875
1782986992687382800,10.2453828125,0.29388427734375,-0.37322998046875,-0.1656036376953125
1782986992697457700,10.255457763671876,0.7884521484375,-0.2819366455078125,-0.111907958984375
1782986992707531800,10.26553173828125,1.1404266357421875,-0.2715911865234375,-0.0854339599609375
1782986992717606700,10.275606689453125,1.41741943359375,-0.2381591796875,-0.07171630859375
1782986992727680800,10.2856806640625,1.613616943359375,-0.1444854736328125,-0.0311737060546875
1782986992737755600,10.295755615234375,1.5660858154296875,0.0057525634765625,-0.0364532470703125
1782986992747829800,10.305829833984374,1.163299560546875,0.1673736572265625,-0.0612945556640625
1782986992757904600,10.315904541015625,0.5452423095703125,0.3017425537109375,-0.015106201171875
1782986992767978800,10.325978759765626,-0.04693603515625,0.425048828125,-0.005828857421875
1782986992778053600,10.3360537109375,-0.4623260498046875,0.4603729248046875,-0.03582763671875
1782986992788127700,10.346127685546875,-0.612213134765625,0.4019927978515625,-0.0633697509765625
1782986992798201600,10.35620166015625,-0.4945068359375,0.302459716796875,-0.078521728515625
1782986992808276700,10.36627685546875,-0.2802886962890625,0.2223358154296875,-0.0955047607421875
1782986992818350600,10.3763505859375,-0.1036376953125,0.1649169921875,-0.1202545166015625
1782986992828425700,10.38642578125,0.00128173828125,0.1207427978515625,-0.1204986572265625
1782986992838499600,10.39649951171875,0.0390777587890625,0.0801544189453125,-0.095550537109375
1782986992848574700,10.40657470703125,0.0382843017578125,0.041595458984375,-0.0749664306640625
1782986992858648600,10.416648681640625,0.027679443359375,0.000762939453125,-0.0349884033203125
1782986992868723700,10.4267236328125,-0.0099029541015625,-0.0357666015625,-0.0175323486328125
1782986992878797600,10.436797607421875,-0.0745697021484375,-0.064117431640625,-0.004150390625
1782986992888872700,10.446872802734376,-0.11065673828125,-0.0887908935546875,0.0093841552734375
1782986992898946600,10.456946533203125,-0.11114501953125,-0.1209564208984375,0.0216217041015625
1782986992909020700,10.467020751953125,-0.1026763916015625,-0.153900146484375,0.0401763916015625
1782986992919095600,10.477095458984374,-0.1068115234375,-0.1843719482421875,0.04278564453125
1782986992929169700,10.487169677734375,-0.14312744140625,-0.2056884765625,0.0323333740234375
1782986992939244500,10.49724462890625,-0.203033447265625,-0.2095489501953125,0.0228271484375
1782986992949318700,10.507318603515625,-0.2610321044921875,-0.216796875,-0.0037994384765625
1782986992959393800,10.517393798828126,-0.3223724365234375,-0.2268829345703125,-0.04315185546875
1782986992969467600,10.527467529296874,-0.3868560791015625,-0.209014892578125,-0.0501861572265625
1782986992979542800,10.537542724609375,-0.4276275634765625,-0.221466064453125,-0.06976318359375
1782986992989616600,10.54761669921875,-0.4499359130859375,-0.2303009033203125,-0.0809173583984375
1782986992999691800,10.55769189453125,-0.4763641357421875,-0.2288360595703125,-0.0672607421875
1782986993009765600,10.567765625,-0.497039794921875,-0.241455078125,-0.065093994140625
1782986993019839500,10.577839599609375,-0.522552490234375,-0.235321044921875,-0.0183563232421875
1782986993029914600,10.58791455078125,-0.598175048828125,-0.3167877197265625,0.03460693359375
1782986993039988500,10.597988525390624,-0.67578125,-0.494110107421875,0.0311431884765625
1782986993050063600,10.608063720703125,-0.76434326171875,-0.685546875,0.0031585693359375
1782986993060137500,10.618137451171876,-0.8011627197265625,-0.952606201171875,-0.027740478515625
1782986993070212600,10.628212646484375,-0.819549560546875,-1.1750946044921875,-0.0953216552734375
