time,seconds_elapsed,z,y,x
1782986982518484700,0.076484619140625,0.11644425243139267,-0.32474371790885925,1.4460105895996094
1782986982528559900,0.086559814453125,-0.06099631264805794,-0.8541040420532227,2.165004014968872
1782986982538633700,0.0966337890625,-0.22392664849758148,-1.014793872833252,2.3520331382751465
1782986982548708900,0.106708984375,-0.1842147409915924,-0.7477723956108093,2.0003440380096436
1782986982558782700,0.11678271484375,-0.06072581931948662,-0.33680933713912964,1.2574342489242554
1782986982568856800,0.12685693359375,-0.22988100349903107,0.012513751164078712,0.3158380091190338
1782986982578931700,0.136931640625,-0.39552003145217896,0.21652813255786896,-0.5180163383483887
1782986982589005800,0.147005859375,-0.4554300010204315,0.11725152283906937,-1.0696340799331665
1782986982599080700,0.157080810546875,-0.40947210788726807,-0.060142435133457184,-1.3839011192321777
1782986982609154800,0.16715478515625,-0.21920111775398254,-0.21269270777702332,-1.4675811529159546
1782986982619229700,0.177229736328125,0.0483432337641716,-0.19967225193977356,-1.1101592779159546
1782986982629303800,0.1873037109375,0.2716299295425415,-0.01613772101700306,-0.38025543093681335
1782986982639378700,0.197378662109375,0.2753114700317383,-0.11359557509422302,0.33885425329208374
1782986982649452800,0.207452880859375,0.2130514234304428,-0.0933503657579422,0.9101705551147461
1782986982659527000,0.21752685546875,0.184346005320549,0.02700880356132984,1.1405222415924072
1782986982669601800,0.227601806640625,0.2612348794937134,0.11221485584974289,1.078867793083191
1782986982679676000,0.237676025390625,0.4229108691215515,0.11258397251367569,0.9050398468971252
1782986982689750800,0.247750732421875,0.5078111290931702,0.035396426916122437,0.7286943197250366
1782986982699825000,0.257824951171875,0.51499342918396,-0.08718035370111465,0.5342894196510315
1782986982709899800,0.267899658203125,0.48050323128700256,-0.30736681818962097,0.33794593811035156
1782986982719974000,0.277973876953125,0.45401355624198914,-0.5353757739067078,0.21429859101772308
1782986982730048800,0.288048828125,0.45311522483825684,-0.7230116724967957,0.2052113115787506
1782986982740123000,0.298122802734375,0.47609856724739075,-0.6782404780387878,0.3509237766265869
1782986982750197000,0.308197021484375,0.43151482939720154,-0.423631489276886,0.5159520506858826
1782986982760272000,0.31827197265625,0.3035203814506531,-0.12483653426170349,0.5789815783500671
1782986982770346000,0.328345947265625,0.10711085796356201,0.062288228422403336,0.5419009923934937
1782986982780420900,0.3384208984375,-0.1452140510082245,-0.005143806338310242,0.4610591232776642
1782986982790495000,0.348494873046875,-0.2745788097381592,-0.10608625411987305,0.45786052942276
1782986982800569900,0.35856982421875,-0.31270304322242737,-0.2281157523393631,0.47343015670776367
1782986982810644000,0.36864404296875,-0.9242456555366516,0.06347821652889252,0.6843120455741882
1782986982820718800,0.37871875,-0.8943879008293152,0.0930693969130516,0.44849520921707153
1782986982830793000,0.38879296875,-0.7655653953552246,0.430736243724823,0.46885332465171814
1782986982840867800,0.398867919921875,-0.6565084457397461,0.19998691976070404,0.6488617062568665
1782986982850942000,0.40894189453125,-0.42232638597488403,-0.02298893965780735,0.7016186118125916
1782986982861015800,0.419015869140625,-0.18822412192821503,-0.07899069041013718,0.6724117398262024
1782986982871091000,0.429091064453125,-0.1329573094844818,0.4224271774291992,0.6469969749450684
1782986982881164800,0.439164794921875,-0.032484766095876694,0.7764790058135986,0.6070391535758972
1782986982891240000,0.449239990234375,0.11626458168029785,0.25440484285354614,0.5049744844436646
1782986982901313800,0.459313720703125,0.282019704580307,-0.6151697039604187,0.5143003463745117
1782986982911389000,0.469388916015625,0.4069947898387909,-1.0459847450256348,0.700758159160614
1782986982921462800,0.479462890625,0.4827241599559784,-1.3290917873382568,0.8065122961997986
1782986982931538000,0.489537841796875,0.547023355960846,-1.7254447937011719,0.6121605634689331
1782986982941611800,0.49961181640625,0.6718978881835938,-1.9475915431976318,0.06357525289058685
1782986982951687000,0.50968701171875,0.5053231716156006,-1.7716302871704102,-0.7181081771850586
1782986982961760800,0.5197607421875,0.11472666263580322,-1.2985130548477173,-1.2089966535568237
1782986982971835000,0.5298349609375,-0.11339595913887024,-0.5612555146217346,-1.135455846786499
1782986982981910000,0.539909912109375,-0.10390950739383698,0.16707801818847656,-0.5498592257499695
1782986982991983900,0.54998388671875,0.13215219974517822,0.5210729241371155,0.3035720884799957
1782986983002059000,0.56005908203125,0.3037830591201782,0.45874375104904175,0.9900844097137451
1782986983012132900,0.5701328125,0.21434418857097626,0.37904322147369385,1.3464597463607788
1782986983022208000,0.5802080078125,0.09658347070217133,0.8033119440078735,1.4410091638565063
1782986983032281900,0.59028173828125,-0.04336971789598465,1.2842241525650024,1.4065933227539062
1782986983042357000,0.60035693359375,-0.07816045731306076,1.469161868095398,1.3868705034255981
1782986983052430800,0.610430908203125,-0.13082413375377655,1.3055592775344849,1.316282868385315
1782986983062504700,0.620504638671875,-0.2677159309387207,0.675309419631958,1.185828447341919
1782986983072579800,0.630579833984375,-0.3696127235889435,-0.06023339927196503,0.9689204692840576
1782986983082653700,0.64065380859375,-0.37907496094703674,-0.646564245223999,0.5233011841773987
1782986983092728800,0.650728759765625,-0.3910304009914398,-1.1171129941940308,-0.11903974413871765
1782986983102803000,0.660802978515625,-0.42627519369125366,-1.3400580883026123,-0.7603209614753723
1782986983112877800,0.6708779296875,-0.4602411091327667,-1.3684728145599365,-1.291031002998352
1782986983122952000,0.680951904296875,-0.4452587068080902,-1.319329023361206,-1.4936211109161377
1782986983133026800,0.69102685546875,-0.3981807231903076,-1.1922540664672852,-1.3022973537445068
1782986983143101000,0.701100830078125,-0.38623112440109253,-1.1618045568466187,-0.8786691427230835
1782986983153175300,0.71117529296875,-0.4639257490634918,-1.1283104419708252,-0.44882717728614807
1782986983163250200,0.721250244140625,-0.527095377445221,-1.018193006515503,-0.1931447982788086
1782986983173324300,0.73132421875,-0.5447993874549866,-0.826736569404602,-0.2175075113773346
1782986983183399200,0.741399169921875,-0.5538618564605713,-0.638086199760437,-0.39222925901412964
1782986983193473300,0.751473388671875,-0.5910585522651672,-0.4693697690963745,-0.5409722328186035
1782986983203548200,0.761548095703125,-0.6079925298690796,-0.37986811995506287,-0.5877493023872375
1782986983213622300,0.771622314453125,-0.6148151755332947,-0.3549700379371643,-0.5060036778450012
1782986983223697200,0.781697265625,-0.5984711050987244,-0.3338431715965271,-0.37126609683036804
1782986983233771300,0.791771240234375,-0.5668313503265381,-0.3268384635448456,-0.250378280878067
1782986983243846100,0.80184619140625,-0.5628187656402588,-0.35552579164505005,-0.14665666222572327
1782986983253920300,0.811920166015625,-0.5776598453521729,-0.4542049169540405,-0.07894519716501236
1782986983263994000,0.821994140625,-0.5942513346672058,-0.5556175112724304,-0.02321908064186573
1782986983274069200,0.8320693359375,-0.6154948472976685,-0.613496720790863,0.01958119496703148
1782986983284143000,0.84214306640625,-0.6371080279350281,-0.6445243954658508,0.01282289158552885
1782986983294218200,0.85221826171875,-0.6613874435424805,-0.6380918025970459,-0.034272413700819016
1782986983304292000,0.8622919921875,-0.6708422303199768,-0.6198350191116333,-0.07506963610649109
1782986983314367200,0.8723671875,-0.6543508172035217,-0.6133354902267456,-0.05417119339108467
1782986983324441000,0.882441162109375,-0.6201318502426147,-0.6731271743774414,0.013623034581542015
1782986983334516200,0.89251611328125,-0.5691446661949158,-0.7255256175994873,0.13680708408355713
1782986983344590000,0.902590087890625,-0.5199036002159119,-0.7393335700035095,0.2948768734931946
1782986983354665200,0.912665283203125,-0.4803645610809326,-0.7326619029045105,0.3869132995605469
1782986983364739000,0.922739013671875,-0.49846261739730835,-0.7175998687744141,0.414848268032074
1782986983374813400,0.9328134765625,-0.5270237922668457,-0.6669592261314392,0.4433521330356598
1782986983384888000,0.94288818359375,-0.5526077151298523,-0.5425251722335815,0.4908434748649597
1782986983394962400,0.95296240234375,-0.60031658411026,-0.40637075901031494,0.5898611545562744
1782986983405037300,0.963037353515625,-0.5879456996917725,-0.34072837233543396,0.7383901476860046
1782986983415111400,0.973111328125,-0.5717357397079468,-0.34785300493240356,0.8846880793571472
1782986983425186300,0.983186279296875,-0.5836555361747742,-0.28524208068847656,0.933115541934967
1782986983435260400,0.993260498046875,-0.5003677606582642,-0.08677567541599274,0.7244376540184021
1782986983445335300,1.003335205078125,-0.36276671290397644,0.14145348966121674,0.517102062702179
1782986983455409400,1.013409423828125,-0.232408806681633,0.2577783167362213,0.5307803153991699
1782986983465483300,1.023483154296875,-0.15745998919010162,0.3085418939590454,0.5129560828208923
1782986983475558400,1.033558349609375,-0.10131726413965225,0.26585641503334045,0.207630455493927
1782986983485632300,1.04363232421875,-0.056568436324596405,0.20753532648086548,-0.4154552221298218
1782986983495707400,1.053707275390625,-0.02265017293393612,0.24834205210208893,-1.3079484701156616
1782986983505781200,1.06378125,-0.03478512912988663,0.49604156613349915,-1.988818645477295
1782986983515856400,1.0738564453125,-0.12671665847301483,0.7877230644226074,-2.0231802463531494
1782986983525930500,1.083930419921875,-0.18515333533287048,1.1909302473068237,-1.4900188446044922
1782986983536005400,1.09400537109375,-0.2439020276069641,1.2811583280563354,-0.811961829662323
1782986983546079500,1.10407958984375,-0.2405722737312317,1.1517727375030518,-0.18514502048492432
1782986983556154400,1.114154296875,-0.1323978751897812,0.9336329102516174,0.4060748517513275
1782986983566228500,1.124228515625,-0.024300165474414825,0.7664324641227722,0.957405686378479
1782986983576302300,1.13430224609375,0.08957420289516449,0.6634787321090698,1.3137407302856445
1782986983586377500,1.14437744140625,0.14710193872451782,0.5984430313110352,1.3456685543060303
1782986983596451300,1.154451416015625,0.1118725836277008,0.5668454170227051,1.2397387027740479
1782986983606526500,1.1645263671875,-0.049582090228796005,0.49193575978279114,1.1710642576217651
1782986983616600300,1.174600341796875,-0.20483896136283875,0.3305814266204834,1.0929265022277832
1782986983626675500,1.184675537109375,-0.3540925979614258,0.11767473071813583,0.9110062122344971
1782986983636749300,1.194749267578125,-0.519969642162323,-0.0902882069349289,0.5863446593284607
1782986983646824400,1.204824462890625,-0.6260180473327637,-0.28264859318733215,0.10630322247743607
1782986983656898300,1.214898193359375,-0.6677737832069397,-0.3940267860889435,-0.48123911023139954
1782986983666973400,1.224973388671875,-0.7508119344711304,-0.5072470903396606,-1.0095295906066895
1782986983677047300,1.23504736328125,-0.8269984722137451,-0.5894774794578552,-1.3880749940872192
1782986983687121400,1.245121337890625,-0.8647237420082092,-0.5503615140914917,-1.5413031578063965
1782986983697196300,1.2551962890625,-0.9262319207191467,-0.4030904173851013,-1.5155223608016968
1782986983707270400,1.2652705078125,-1.025736927986145,-0.19686374068260193,-1.364743709564209
1782986983717345300,1.27534521484375,-1.1677091121673584,0.0550074428319931,-1.1470531225204468
1782986983727419400,1.28541943359375,-1.2669187784194946,0.2761278450489044,-0.9043136835098267
1782986983737494300,1.295494384765625,-1.323074221611023,0.40172278881073,-0.6828561425209045
1782986983747568400,1.305568359375,-1.358583927154541,0.42999011278152466,-0.5519303679466248
1782986983757642200,1.315642333984375,-1.339809775352478,0.42028066515922546,-0.4956943392753601
1782986983767717400,1.32571728515625,-1.2381327152252197,0.4412359893321991,-0.4766399562358856
1782986983777791200,1.335791259765625,-1.1157268285751343,0.4780067503452301,-0.49400195479393005
1782986983787866400,1.345866455078125,-1.0057060718536377,0.5089990496635437,-0.47885069251060486
1782986983797940200,1.355940185546875,-0.88078773021698,0.4897366762161255,-0.40093082189559937
1782986983808015400,1.366015380859375,-0.7568524479866028,0.4608280658721924,-0.26444223523139954
1782986983818089200,1.376089111328125,-0.6944392919540405,0.49921736121177673,-0.05746416375041008
1782986983828164400,1.386164306640625,-0.7402169108390808,0.5385200381278992,0.2668297588825226
1782986983838238200,1.39623828125,-0.8040801286697388,0.3084258437156677,0.6534613370895386
1782986983848313300,1.406313232421875,-0.8288813829421997,-0.2079552412033081,1.0449845790863037
1782986983858387200,1.41638720703125,-0.912290096282959,-0.518868625164032,1.447916030883789
1782986983868461300,1.42646142578125,-0.8969430923461914,-0.7830062508583069,1.7881591320037842
1782986983878536200,1.4365361328125,-0.9393523335456848,-0.8952556848526001,2.0092837810516357
1782986983888610300,1.4466103515625,-1.118886947631836,-0.8140923976898193,2.176907777786255
1782986983898685200,1.456685302734375,-1.1490745544433594,-0.4365937411785126,2.2843177318573
1782986983908759300,1.46675927734375,-1.024093508720398,0.018484555184841156,2.325561285018921
1782986983918834200,1.476834228515625,-0.7972843647003174,0.37547823786735535,2.2827441692352295
1782986983928908300,1.486908203125,-0.5726291537284851,0.590569257736206,2.1290876865386963
1782986983938983200,1.496983154296875,-0.3865187466144562,0.7578291296958923,1.9710946083068848
1782986983949057300,1.507057373046875,-0.19674243032932281,1.229620337486267,2.036364793777466
1782986983959132200,1.517132080078125,-0.012651062570512295,1.7572925090789795,2.254920482635498
1782986983969206300,1.527206298828125,-0.01027179416269064,1.1690033674240112,2.150861978530884
1782986983979280100,1.537280029296875,-0.18757200241088867,-0.017066990956664085,1.8017387390136719
1782986983989355300,1.547355224609375,-0.2700767517089844,-0.8292354941368103,1.5372796058654785
1782986983999429000,1.55742919921875,-0.0058625685051083565,-1.210195779800415,1.169295072555542
1782986984009504300,1.567504150390625,0.4451802372932434,-1.7689440250396729,0.5380967855453491
1782986984019578000,1.577578125,0.7771224975585938,-2.4959397315979004,-0.23176151514053345
1782986984029653200,1.5876533203125,0.9222115278244019,-2.837615728378296,-1.2104166746139526
1782986984039727000,1.59772705078125,0.8047741055488586,-2.4601223468780518,-2.367990732192993
1782986984049802200,1.60780224609375,0.7239261269569397,-2.013944387435913,-3.2707571983337402
1782986984059876000,1.6178759765625,0.6771332621574402,-1.4336860179901123,-3.426974058151245
1782986984069951200,1.627951171875,0.36959484219551086,-1.056384801864624,-2.858815908432007
1782986984080025000,1.638025146484375,0.015403719618916512,-0.778428316116333,-2.03078293800354
1782986984090099500,1.648099365234375,-0.007933028042316437,-0.38346362113952637,-1.4191817045211792
1782986984100174000,1.658174072265625,0.09290118515491486,0.13826622068881989,-1.1023635864257812
1782986984110248400,1.66824853515625,-0.0438326932489872,0.7519158124923706,-0.9204038381576538
1782986984120323000,1.678322998046875,-0.2223305106163025,1.1728906631469727,-0.7266858816146851
1782986984130397400,1.6883974609375,-0.18584281206130981,1.0185306072235107,-0.5428526401519775
1782986984140472000,1.69847216796875,0.009005671367049217,0.34721842408180237,-0.48732027411460876
1782986984150546000,1.7085458984375,0.27964702248573303,-0.4134024679660797,-0.513785719871521
1782986984160620800,1.718620849609375,0.5531067252159119,-0.937736451625824,-0.6665528416633606
1782986984170695000,1.72869482421875,0.7282735109329224,-1.1335076093673706,-0.9169301986694336
1782986984180768800,1.738768798828125,0.7881162166595459,-1.1341454982757568,-1.1728715896606445
1782986984190844000,1.748843994140625,0.7309059500694275,-1.093774437904358,-1.3591288328170776
1782986984200917800,1.758917724609375,0.6216268539428711,-0.8265886902809143,-1.4458903074264526
1782986984210993000,1.768992919921875,0.5217266082763672,-0.44456541538238525,-1.4333622455596924
1782986984221066800,1.779066650390625,0.3695906698703766,-0.09533140063285828,-1.3684781789779663
1782986984231142000,1.789141845703125,0.12669946253299713,0.06296582520008087,-1.3160524368286133
1782986984241215700,1.7992158203125,-0.17054206132888794,0.17148493230342865,-1.3219355344772339
1782986984251291000,1.809290771484375,-0.4348040819168091,0.33552074432373047,-1.368619441986084
1782986984261364700,1.81936474609375,-0.6113558411598206,0.5232816338539124,-1.4446241855621338
1782986984271440000,1.82943994140625,-0.7245804071426392,0.665949821472168,-1.5591169595718384
1782986984281513700,1.839513671875,-0.8233765959739685,0.6347925662994385,-1.6755554676055908
1782986984291587800,1.849587890625,-0.91949063539505,0.4575469493865967,-1.6879639625549316
1782986984301662700,1.859662841796875,-1.0469335317611694,0.19675202667713165,-1.5453211069107056
1782986984311736800,1.86973681640625,-1.164551019668579,-0.08859263360500336,-1.236466884613037
1782986984321811700,1.879811767578125,-1.1713262796401978,-0.2802737355232239,-0.8506729602813721
1782986984331885800,1.8898857421875,-1.1369669437408447,-0.4173618257045746,-0.5142738819122314
1782986984341960700,1.899960693359375,-1.121158242225647,-0.43963631987571716,-0.280141681432724
1782986984352034800,1.910034912109375,-1.1080557107925415,-0.3427899181842804,-0.13197004795074463
1782986984362109700,1.920109619140625,-1.1045222282409668,-0.2771263122558594,-0.07049554586410522
1782986984372183800,1.930183837890625,-1.1394224166870117,-0.2775886356830597,-0.06768244504928589
1782986984382257700,1.940257568359375,-1.193362832069397,-0.2901459336280823,-0.07084256410598755
1782986984392332800,1.950332763671875,-1.2593317031860352,-0.2849850058555603,-0.06541317701339722
1782986984402406700,1.96040673828125,-1.3251005411148071,-0.23084646463394165,-0.022116100415587425
1782986984412481800,1.970481689453125,-1.368738055229187,-0.1372627168893814,0.060435499995946884
1782986984422555600,1.9805556640625,-1.3798877000808716,-0.07735710591077805,0.13214077055454254
1782986984432630800,1.990630859375,-1.3289741277694702,-0.14241893589496613,0.1662774384021759
1782986984442704600,2.00070458984375,-1.230122685432434,-0.3488171398639679,0.18698377907276154
1782986984452779800,2.01077978515625,-1.104914903640747,-0.5126001834869385,0.15404073894023895
1782986984462853600,2.020853515625,-1.075986385345459,-0.6656036972999573,0.004828761797398329
1782986984472927700,2.030927734375,-1.1267677545547485,-0.48742759227752686,-0.33901891112327576
1782986984483002600,2.041002685546875,-1.0902705192565918,0.7092615962028503,-0.8092919588088989
1782986984493076700,2.05107666015625,-1.2866981029510498,1.315110206604004,-1.2227386236190796
1782986984503151600,2.061151611328125,-1.9121160507202148,1.521573543548584,-1.6659293174743652
1782986984513225700,2.071225830078125,-1.7545112371444702,1.2199487686157227,-1.83511483669281
1782986984523300600,2.081300537109375,-1.117057204246521,1.0967384576797485,-1.3914663791656494
1782986984533374700,2.091374755859375,-0.634991466999054,1.0953850746154785,-0.5928038358688354
1782986984543449600,2.10144970703125,-0.38070914149284363,0.505616307258606,0.02333948388695717
1782986984553523700,2.111523681640625,-0.1612207591533661,-0.005611552856862545,0.4982764422893524
1782986984563598600,2.1215986328125,0.10870571434497833,-0.10379087924957275,0.8225234746932983
1782986984573672700,2.131672607421875,0.15113626420497894,-0.0598340779542923,1.1139163970947266
1782986984583746600,2.14174658203125,0.1517155021429062,0.21017423272132874,1.7012454271316528
1782986984593821700,2.15182177734375,0.17120930552482605,0.720434308052063,2.4170982837677
1782986984603895600,2.1618955078125,0.2725183665752411,1.3191454410552979,3.075294017791748
1782986984613970700,2.171970703125,0.3724457621574402,1.7278780937194824,3.4935224056243896
1782986984624044500,2.18204443359375,0.5308184623718262,1.763794183731079,3.603830099105835
1782986984634119700,2.19211962890625,0.6844492554664612,1.5789049863815308,3.3467729091644287
1782986984644193500,2.202193603515625,0.9074450731277466,1.3105453252792358,2.7049341201782227
1782986984654268700,2.2122685546875,0.9516652822494507,0.9171292781829834,1.9138432741165161
1782986984664342500,2.222342529296875,0.8021559715270996,0.4520569443702698,1.1973106861114502
1782986984674417700,2.232417724609375,0.617272138595581,0.12871113419532776,0.5718654990196228
1782986984684491500,2.242491455078125,0.37317928671836853,-0.14380456507205963,0.09429087489843369
1782986984694566000,2.25256591796875,0.03577596694231033,-0.46801432967185974,-0.207952082157135
1782986984704640800,2.262640869140625,-0.2870081663131714,-0.7727945446968079,-0.4070529639720917
1782986984714715000,2.27271484375,-0.582032322883606,-1.023383378982544,-0.6037202477455139
1782986984724789800,2.282789794921875,-0.8805956244468689,-1.2275222539901733,-0.8017559051513672
1782986984734864000,2.29286376953125,-1.1976202726364136,-1.3179194927215576,-1.0165417194366455
1782986984744938800,2.302938720703125,-1.4598994255065918,-1.2630633115768433,-1.2212231159210205
1782986984755012900,2.313012939453125,-1.6733264923095703,-1.177429437637329,-1.3872348070144653
1782986984765087700,2.323087646484375,-1.7829183340072632,-1.069143295288086,-1.532105565071106
1782986984775161900,2.333161865234375,-1.6883636713027954,-0.9849069118499756,-1.5225086212158203
1782986984785235700,2.343235595703125,-1.448603630065918,-1.0879507064819336,-1.3982322216033936
1782986984795310800,2.353310791015625,-1.1199032068252563,-1.2170573472976685,-1.156212329864502
1782986984805384700,2.363384765625,-0.7945536375045776,-1.339409351348877,-0.8797589540481567
1782986984815459800,2.3734599609375,-0.5709301233291626,-1.4906468391418457,-0.6896308064460754
1782986984825534000,2.383533935546875,-0.5241300463676453,-1.6398471593856812,-0.6128741502761841
1782986984835608800,2.39360888671875,-0.580935537815094,-1.674278974533081,-0.5705887675285339
1782986984845683000,2.403682861328125,-0.6243550181388855,-1.5827466249465942,-0.5048323273658752
1782986984855757800,2.4137578125,-0.5898450016975403,-1.3641527891159058,-0.4236395061016083
1782986984865832000,2.42383203125,-0.5433855056762695,-1.1551640033721924,-0.34153926372528076
1782986984875905800,2.43390576171875,-0.5434411764144897,-0.9865500330924988,-0.29759684205055237
1782986984885981000,2.44398095703125,-0.5974346995353699,-0.9033966660499573,-0.28601381182670593
1782986984896054800,2.4540546875,-0.6740530729293823,-0.9349197149276733,-0.330796480178833
1782986984906130000,2.4641298828125,-0.7267459630966187,-1.0364761352539062,-0.4611448347568512
1782986984916203800,2.474203857421875,-0.7488678097724915,-1.1872289180755615,-0.6339917182922363
1782986984926279000,2.48427880859375,-0.7888951301574707,-1.3434782028198242,-0.7068088054656982
1782986984936352800,2.494352783203125,-0.8335297107696533,-1.3888331651687622,-0.6355902552604675
1782986984946428000,2.504427978515625,-0.9171038269996643,-1.3307551145553589,-0.5016336441040039
1782986984956501800,2.514501708984375,-1.0254335403442383,-1.4433341026306152,-0.42403262853622437
1782986984966575900,2.524575927734375,-1.0628912448883057,-1.5298711061477661,-0.37399357557296753
1782986984976650800,2.534650634765625,-1.0151392221450806,-1.3854278326034546,-0.3419136703014374
1782986984986724900,2.544724853515625,-0.935818612575531,-1.113199234008789,-0.4033767282962799
1782986984996799700,2.5547998046875,-0.880824863910675,-0.7536205649375916,-0.5433538556098938
1782986985006873900,2.564873779296875,-0.9457435011863708,-0.34731897711753845,-0.8591997623443604
1782986985016948700,2.57494873046875,-0.9553329944610596,0.15682272613048553,-1.3393735885620117
1782986985027022800,2.58502294921875,-0.8411037921905518,0.31981247663497925,-1.4882421493530273
1782986985037097700,2.59509765625,-0.6944839954376221,0.0037834038957953453,-0.677445113658905
1782986985047171800,2.605171875,-0.6480795741081238,-0.4349963665008545,0.7813609838485718
1782986985057246700,2.615246826171875,-0.5426671504974365,-0.8143759369850159,1.6632741689682007
1782986985067320800,2.62532080078125,-0.40429773926734924,-0.6762970089912415,1.413942575454712
1782986985077394700,2.635394775390625,-0.32555368542671204,-0.02489262819290161,0.4951399862766266
1782986985087469800,2.6454697265625,-0.3240621089935303,0.7768562436103821,-0.11877673119306564
1782986985097543700,2.655543701171875,-0.4085535705089569,1.2465447187423706,0.13326749205589294
1782986985107618800,2.665618896484375,-0.5250903367996216,1.2640783786773682,0.9489622712135315
1782986985117692700,2.675692626953125,-0.5274911522865295,1.0514670610427856,1.7222435474395752
1782986985127767800,2.685767822265625,-0.40762484073638916,0.8430370092391968,2.1941678524017334
1782986985137841700,2.695841552734375,-0.2202083319425583,0.7302678227424622,2.2861645221710205
1782986985147916800,2.705916748046875,-0.06961439549922943,0.6641098260879517,2.067654609680176
1782986985157991200,2.7159912109375,0.016462430357933044,0.6963218450546265,1.7664134502410889
1782986985168065000,2.72606494140625,-0.0038199443370103836,0.7450399398803711,1.613543152809143
1782986985178140200,2.73614013671875,-0.16374996304512024,0.622138261795044,1.4024394750595093
1782986985188214000,2.746214111328125,-0.33797013759613037,0.23259447515010834,0.9397428631782532
1782986985198289200,2.7562890625,-0.5454854965209961,-0.1809648871421814,0.2585635781288147
1782986985208363000,2.766363037109375,-0.7005224823951721,-0.4624911844730377,-0.533888578414917
1782986985218438100,2.776438232421875,-0.8370795249938965,-0.6051084995269775,-1.2772051095962524
1782986985228512000,2.786511962890625,-0.945904552936554,-0.7315243482589722,-1.8312699794769287
1782986985238587100,2.796587158203125,-1.011588454246521,-0.9510079622268677,-2.131136178970337
1782986985248661000,2.806660888671875,-1.015812873840332,-1.0716948509216309,-2.1225311756134033
1782986985258735000,2.816735107421875,-0.9646775126457214,-0.9764031767845154,-1.8205220699310303
1782986985268810000,2.82681005859375,-0.8735864758491516,-0.7431026101112366,-1.3361091613769531
1782986985278884000,2.836884033203125,-0.7902335524559021,-0.418083518743515,-0.8662950992584229
1782986985288959000,2.846958984375,-0.7106265425682068,-0.10881034284830093,-0.4544907212257385
1782986985299033000,2.857033203125,-0.6647229790687561,0.07773689925670624,-0.22341462969779968
1782986985309108000,2.86710791015625,-0.6652357578277588,0.10972672700881958,-0.14509430527687073
1782986985319182000,2.87718212890625,-0.7011463642120361,0.01530089508742094,-0.13381820917129517
1782986985329257000,2.887257080078125,-0.7385934591293335,-0.12839655578136444,-0.14245876669883728
1782986985339331000,2.8973310546875,-0.7816078066825867,-0.27886277437210083,-0.16564184427261353
1782986985349406200,2.90740625,-0.8161717653274536,-0.3806616961956024,-0.21515604853630066
1782986985359480000,2.91747998046875,-0.8187806010246277,-0.47013112902641296,-0.2548600435256958
1782986985369554000,2.927553955078125,-0.7794646620750427,-0.5146132707595825,-0.2618262469768524
1782986985379629000,2.937629150390625,-0.7058074474334717,-0.5317578911781311,-0.23850147426128387
1782986985389703000,2.947702880859375,-0.6377086639404297,-0.4813964068889618,-0.19558192789554596
1782986985399778000,2.957778076171875,-0.563112199306488,-0.3508045971393585,-0.14780162274837494
1782986985409852000,2.967851806640625,-0.5014918446540833,-0.22423695027828217,-0.10797178745269775
1782986985419927000,2.977927001953125,-0.4672499895095825,-0.12173587828874588,-0.07381008565425873
1782986985430001000,2.9880009765625,-0.44700396060943604,-0.04833778366446495,-0.05635138973593712
1782986985440076000,2.998075927734375,-0.4590094983577728,-0.02540796808898449,-0.05479716882109642
1782986985450150000,3.00814990234375,-0.4937334358692169,-0.06692000478506088,-0.06726054847240448
1782986985460224300,3.018224365234375,-0.5301856994628906,-0.15252944827079773,-0.08327572792768478
1782986985470299000,3.028298828125,-0.5599496364593506,-0.2571304738521576,-0.11957601457834244
1782986985480373200,3.038373291015625,-0.5857580900192261,-0.40053609013557434,-0.19787001609802246
1782986985490448100,3.0484482421875,-0.6016827821731567,-0.5853054523468018,-0.34257638454437256
1782986985500522200,3.058522216796875,-0.630500078201294,-0.6719266176223755,-0.5539077520370483
1782986985510597000,3.06859716796875,-0.6621764898300171,-0.5962050557136536,-0.8022018671035767
1782986985520671200,3.078671142578125,-0.6716424226760864,-0.3072555363178253,-0.9307028651237488
1782986985530746000,3.08874609375,-0.6148911714553833,0.3827289640903473,-0.7892434597015381
1782986985540820200,3.0988203125,-0.5694120526313782,0.8957123756408691,-0.4447859227657318
1782986985550894000,3.10889404296875,-0.5641880035400391,1.2458665370941162,-0.09912050515413284
1782986985560969200,3.11896923828125,-0.3721407949924469,1.343759298324585,0.0984295904636383
1782986985571043000,3.12904296875,-0.013234639540314674,1.1553128957748413,0.23408369719982147
1782986985581118200,3.1391181640625,0.2556663453578949,0.9132784008979797,0.6025962233543396
1782986985591192000,3.149192138671875,0.2935415208339691,0.4624585509300232,1.2056435346603394
1782986985601267200,3.15926708984375,0.019502514973282814,0.12475083023309708,1.6696860790252686
1782986985611341300,3.16934130859375,-0.3061537742614746,0.005625005811452866,1.612921953201294
1782986985621416200,3.179416259765625,-0.43838000297546387,-0.03521430492401123,1.118525505065918
1782986985631490300,3.189490234375,-0.45965689420700073,-0.0026520376559346914,0.6767984628677368
1782986985641565200,3.199565185546875,-0.2543790936470032,0.19805176556110382,0.6311510801315308
1782986985651639300,3.209639404296875,0.12090308219194412,0.5153284072875977,0.8485797047615051
1782986985661713200,3.219713134765625,0.46073946356773376,0.8485218286514282,1.2096487283706665
1782986985671788300,3.229788330078125,0.7109778523445129,1.1316587924957275,1.5803444385528564
1782986985681862100,3.239862060546875,0.8143132925033569,1.2788625955581665,1.8660880327224731
1782986985691937300,3.249937255859375,0.7083738446235657,1.2299399375915527,1.975130319595337
1782986985702011100,3.26001123046875,0.4397149980068207,0.930736780166626,1.8416603803634644
1782986985712086300,3.270086181640625,0.10193178802728653,0.39915376901626587,1.4377448558807373
1782986985722160000,3.28016015625,-0.20179827511310577,-0.16667473316192627,0.7931618690490723
1782986985732235300,3.2902353515625,-0.4450848698616028,-0.6640670895576477,0.020459918305277824
1782986985742309000,3.30030908203125,-0.6460784077644348,-1.0477758646011353,-0.7395734786987305
1782986985752383200,3.31038330078125,-0.8083297610282898,-1.3598694801330566,-1.3745076656341553
1782986985762458000,3.3204580078125,-0.9362389445304871,-1.6569572687149048,-1.8193495273590088
1782986985772532200,3.3305322265625,-0.9956405162811279,-1.8698797225952148,-1.9989030361175537
1782986985782607000,3.340607177734375,-0.9726166725158691,-1.8559558391571045,-1.8384231328964233
1782986985792681200,3.35068115234375,-0.863473653793335,-1.4247328042984009,-1.2903461456298828
1782986985802756000,3.360756103515625,-0.7055793404579163,-1.1394679546356201,-0.762617826461792
1782986985812830200,3.370830322265625,-0.5873886346817017,-0.8779613375663757,-0.4403455853462219
1782986985822905000,3.380905029296875,-0.5107311606407166,-0.5708514451980591,-0.3176113963127136
1782986985832979200,3.390979248046875,-0.47601595520973206,-0.30768734216690063,-0.3739352822303772
1782986985843053000,3.401052978515625,-0.4981417655944824,-0.1818854659795761,-0.5233830809593201
1782986985853128200,3.411128173828125,-0.540216863155365,-0.19833052158355713,-0.6821775436401367
1782986985863202000,3.4212021484375,-0.5532229542732239,-0.2841298580169678,-0.7942308783531189
1782986985873277200,3.431277099609375,-0.5415037870407104,-0.40460389852523804,-0.8327195048332214
1782986985883351000,3.44135107421875,-0.48153606057167053,-0.5179171562194824,-0.7707788944244385
1782986985893426200,3.45142626953125,-0.32299482822418213,-0.5844270586967468,-0.6257907152175903
1782986985903500000,3.4615,-0.17441439628601074,-0.5383959412574768,-0.42696893215179443
1782986985913575200,3.4715751953125,-0.10432860255241394,-0.4107232391834259,-0.23513668775558472
1782986985923649000,3.48164892578125,-0.09443283081054688,-0.2575294077396393,-0.11321958154439926
1782986985933723100,3.49172314453125,-0.13965155184268951,-0.10396058112382889,-0.06722432374954224
1782986985943798000,3.501798095703125,-0.23583348095417023,-0.009595735929906368,-0.07300817221403122
1782986985953872100,3.5118720703125,-0.3749532401561737,0.014733850955963135,-0.1377645581960678
1782986985963947000,3.521947021484375,-0.49124017357826233,-0.007304074242711067,-0.2553359270095825
1782986985974021000,3.532021240234375,-0.5741691589355469,0.017188575118780136,-0.39516589045524597
1782986985984096000,3.542095947265625,-0.6170851588249207,0.01919020712375641,-0.4851815402507782
1782986985994170000,3.552170166015625,-0.6594814658164978,-0.031024878844618797,-0.5138716101646423
1782986986004245000,3.562244873046875,-0.6771230101585388,-0.140883207321167,-0.5065668225288391
1782986986014319000,3.572319091796875,-0.6368874907493591,-0.2153632938861847,-0.44065386056900024
1782986986024394000,3.58239404296875,-0.5518224239349365,-0.17132419347763062,-0.2582915127277374
1782986986034468000,3.592468017578125,-0.5149664282798767,-0.07541687041521072,0.06906553357839584
1782986986044542000,3.6025419921875,-0.4639267325401306,0.3436847925186157,0.6901394724845886
1782986986054617000,3.6126171875,-0.4224075675010681,1.0798664093017578,1.4011731147766113
1782986986064691000,3.62269091796875,-0.5636004209518433,1.6332919597625732,1.5855504274368286
1782986986074766000,3.63276611328125,-0.7063952684402466,1.966684341430664,1.1177676916122437
1782986986084840000,3.64283984375,-0.7698679566383362,2.0683114528656006,0.4752489924430847
1782986986094915000,3.6529150390625,-0.7891358733177185,1.8706152439117432,0.1214393824338913
1782986986104989000,3.662989013671875,-0.7273934483528137,1.4518851041793823,0.08371304720640182
1782986986115064000,3.67306396484375,-0.44998952746391296,0.9527522325515747,0.050476524978876114
1782986986125138000,3.683137939453125,0.08899407833814621,0.6600266098976135,-0.2919743061065674
1782986986135212300,3.69321240234375,0.8279381990432739,0.8790385723114014,-0.9187844395637512
1782986986145287000,3.703286865234375,1.4664124250411987,0.7909452319145203,-1.481652021408081
1782986986155361500,3.713361572265625,1.892939805984497,0.20791217684745789,-1.7128078937530518
1782986986165436200,3.723436279296875,2.1530189514160156,-0.6544350981712341,-1.4148555994033813
1782986986175510500,3.733510498046875,2.3131814002990723,-1.0307867527008057,-0.3980875313282013
1782986986185585200,3.743585205078125,2.1690526008605957,-1.1212886571884155,1.151044249534607
1782986986195659500,3.753659423828125,1.7337160110473633,-1.05083167552948,2.604928731918335
1782986986205734400,3.763734375,1.4033170938491821,-0.8211343288421631,3.4220259189605713
1782986986215808500,3.77380859375,1.2547166347503662,-0.4953230321407318,3.4748377799987793
1782986986225883400,3.78388330078125,1.0865840911865234,-0.22703008353710175,2.969492197036743
1782986986235957500,3.79395751953125,0.7606871724128723,-0.14371009171009064,2.229656219482422
1782986986246031400,3.80403125,0.34173887968063354,-0.21069231629371643,1.492615818977356
1782986986256106500,3.8141064453125,-0.060822855681180954,-0.27023881673812866,0.8713497519493103
1782986986266180400,3.824180419921875,-0.3541516661643982,-0.3019796907901764,0.3239407539367676
1782986986276255500,3.83425537109375,-0.6051190495491028,-0.30783602595329285,-0.14056947827339172
1782986986286329300,3.844329345703125,-0.7987127900123596,-0.3734491169452667,-0.5064464807510376
1782986986296404500,3.854404541015625,-0.9149715900421143,-0.5229995846748352,-0.7477372884750366
1782986986306478300,3.864478271484375,-0.964972198009491,-0.6906932592391968,-0.8268861770629883
1782986986316553500,3.874553466796875,-0.9126548767089844,-0.8109962344169617,-0.7457330226898193
1782986986326627600,3.884627685546875,-0.7915716171264648,-0.8558752536773682,-0.5516240000724792
1782986986336701400,3.894701416015625,-0.6496070027351379,-0.8138718605041504,-0.3358455300331116
1782986986346776600,3.904776611328125,-0.5217481255531311,-0.5948758721351624,-0.16795876622200012
1782986986356850400,3.914850341796875,-0.4366423785686493,-0.32896989583969116,-0.10638652741909027
1782986986366925600,3.924925537109375,-0.4175565540790558,-0.11491058766841888,-0.11612224578857422
1782986986376999400,3.93499951171875,-0.4422732889652252,0.03999282419681549,-0.16909478604793549
1782986986387074600,3.945074462890625,-0.46319934725761414,0.15319767594337463,-0.22378599643707275
1782986986397148400,3.9551484375,-0.48382773995399475,0.17320038378238678,-0.23262053728103638
1782986986407223600,3.9652236328125,-0.5065455436706543,0.1102219671010971,-0.18377123773097992
1782986986417297400,3.97529736328125,-0.5294098854064941,0.06290780007839203,-0.08351325988769531
1782986986427371300,3.985371337890625,-0.5577594637870789,0.02354814112186432,0.040484584867954254
1782986986437446400,3.9954462890625,-0.5850377678871155,-0.02538418583571911,0.13317783176898956
1782986986447520300,4.005520263671875,-0.5935913324356079,-0.1047772765159607,0.18571561574935913
1782986986457595400,4.015595458984375,-0.5985985994338989,-0.1866907924413681,0.1897662729024887
1782986986467669500,4.02566943359375,-0.5993496179580688,-0.3358056843280792,0.1666708141565323
1782986986477744400,4.035744384765625,-0.5972721576690674,-0.5132284164428711,0.14712461829185486
1782986986487818500,4.045818603515625,-0.5979424715042114,-0.6934834122657776,0.13365541398525238
1782986986497893400,4.055893310546875,-0.6017806529998779,-0.8136844038963318,0.12082792818546295
1782986986507967500,4.065967529296875,-0.5912308096885681,-0.8419274687767029,0.10516800731420517
1782986986518042400,4.07604248046875,-0.5866058468818665,-0.8256253600120544,0.07442618906497955
1782986986528116500,4.086116455078125,-0.5667216181755066,-0.8434166312217712,0.006823974195867777
1782986986538190300,4.0961904296875,-0.5151551961898804,-0.7554401755332947,-0.11852732300758362
1782986986548265500,4.106265380859375,-0.42306146025657654,-0.3812093436717987,-0.293155312538147
1782986986558339300,4.11633935546875,-0.2763122618198395,0.30630582571029663,-0.33861449360847473
1782986986568414500,4.12641455078125,-0.14724697172641754,0.7377384901046753,-0.18575863540172577
1782986986578488300,4.13648828125,-0.2123701125383377,0.6727187633514404,0.02489558793604374
1782986986588563500,4.1465634765625,-0.45215553045272827,0.5124433636665344,0.011409874074161053
1782986986598637300,4.15663720703125,-0.5857810378074646,0.5401206016540527,-0.3773524761199951
1782986986608712400,4.16671240234375,-0.4472000300884247,0.6611140966415405,-0.8070356249809265
1782986986618786300,4.176786376953125,-0.13811108469963074,0.5809780359268188,-0.7007896304130554
1782986986628860400,4.1868603515625,0.17706604301929474,0.4636854827404022,-0.013383256271481514
1782986986638935300,4.196935302734375,0.4311980903148651,0.5228337645530701,0.6254675388336182
1782986986649009400,4.207009521484375,0.5392367243766785,0.7982405424118042,0.8523901700973511
1782986986659084300,4.217084228515625,0.5210241079330444,0.9284395575523376,0.7651068568229675
1782986986669158400,4.227158447265625,0.4078565835952759,0.916900098323822,0.752427339553833
1782986986679233300,4.2372333984375,0.2876106798648834,0.9782946109771729,1.084976077079773
1782986986689307400,4.247307373046875,0.17830468714237213,0.974846601486206,1.5850179195404053
1782986986699382300,4.25738232421875,0.23259465396404266,0.9099028706550598,1.9602041244506836
1782986986709456400,4.267456298828125,0.40553662180900574,0.6453686952590942,1.9841161966323853
1782986986719531300,4.27753125,0.5381430387496948,0.26679497957229614,1.6266777515411377
1782986986729605400,4.28760546875,0.7013372778892517,0.08580814301967621,1.1739087104797363
1782986986739679200,4.29767919921875,0.8008859157562256,-0.06224988400936127,0.8535098433494568
1782986986749754400,4.30775439453125,0.730845034122467,-0.21729618310928345,0.666702389717102
1782986986759828200,4.317828125,0.5844115614891052,-0.19971971213817596,0.41408705711364746
1782986986769903400,4.3279033203125,0.40748924016952515,-0.12222571671009064,-0.09067625552415848
1782986986779977200,4.337977294921875,0.19869200885295868,-0.1204020157456398,-0.7772133946418762
1782986986790052400,4.34805224609375,-0.04447510465979576,-0.3856685757637024,-1.4476425647735596
1782986986800126200,4.358126220703125,-0.26109209656715393,-0.79872065782547,-1.9223252534866333
1782986986810201300,4.368201416015625,-0.32502421736717224,-0.9839032888412476,-2.0361905097961426
1782986986820275200,4.378275146484375,-0.3418993651866913,-1.0553027391433716,-1.8234150409698486
1782986986830349600,4.388349609375,-0.3510749936103821,-1.0825767517089844,-1.4945926666259766
1782986986840424200,4.398424072265625,-0.36360517144203186,-1.0475202798843384,-1.1983100175857544
1782986986850498600,4.40849853515625,-0.34760141372680664,-0.936367392539978,-1.0241118669509888
1782986986860573200,4.4185732421875,-0.31466445326805115,-0.7488647699356079,-0.9935042262077332
1782986986870647600,4.4286474609375,-0.3031286895275116,-0.5358899235725403,-1.043035864830017
1782986986880722200,4.43872216796875,-0.3047909438610077,-0.3079589009284973,-1.1059329509735107
1782986986890796500,4.448796630859375,-0.3188369870185852,-0.15116848051548004,-1.1454784870147705
1782986986900871200,4.45887109375,-0.37297818064689636,-0.029768697917461395,-1.0772205591201782
1782986986910945500,4.468945556640625,-0.4407463073730469,0.0331314392387867,-0.968024492263794
1782986986921019400,4.479019287109375,-0.43987756967544556,0.06377127766609192,-0.8538583517074585
1782986986931094500,4.489094482421875,-0.4175903797149658,0.06144927069544792,-0.7089692950248718
1782986986941168400,4.49916845703125,-0.39370137453079224,0.029632728546857834,-0.5887535214424133
1782986986951243500,4.509243408203125,-0.35954418778419495,-0.02858849987387657,-0.48653122782707214
1782986986961317400,4.5193173828125,-0.3375162184238434,-0.08257506787776947,-0.36669275164604187
1782986986971392500,4.529392578125,-0.3327542245388031,-0.14214758574962616,-0.23748283088207245
1782986986981466400,4.53946630859375,-0.3439382016658783,-0.1758761703968048,-0.13907891511917114
1782986986991541500,4.54954150390625,-0.36528050899505615,-0.2014015018939972,-0.07121012359857559
1782986987001615400,4.559615478515625,-0.4085979461669922,-0.2111625373363495,-0.03099137917160988
1782986987011689500,4.569689453125,-0.45636066794395447,-0.19851012527942657,-0.016416430473327637
1782986987021764400,4.579764404296875,-0.5011809468269348,-0.14391127228736877,-0.0058992281556129456
1782986987031838500,4.58983837890625,-0.5531338453292847,-0.097590371966362,0.017929138615727425
1782986987041913300,4.599913330078125,-0.6324478983879089,-0.07726602256298065,0.07266068458557129
1782986987051987500,4.609987548828125,-0.7268394231796265,-0.0814162939786911,0.1575249880552292
1782986987062062300,4.620062255859375,-0.8269672393798828,-0.10428722947835922,0.2104787677526474
1782986987072136400,4.630136474609375,-0.9096813201904297,-0.16578572988510132,0.20291724801063538
1782986987082211300,4.64021142578125,-0.9130139946937561,-0.20371395349502563,0.1500447392463684
1782986987092285400,4.650285400390625,-0.8588346838951111,-0.15456344187259674,0.04855485260486603
1782986987102360600,4.660360595703125,-0.7775982618331909,-0.13979114592075348,-0.12525764107704163
1782986987112434400,4.670434326171875,-0.6653329730033875,-0.04090477153658867,-0.350388765335083
1782986987122508300,4.68050830078125,-0.5245340466499329,0.04238790646195412,-0.5187877416610718
1782986987132583400,4.69058349609375,-0.4720876216888428,0.14826427400112152,-0.549552857875824
1782986987142657300,4.7006572265625,-0.48483288288116455,0.24548503756523132,-0.6088153719902039
1782986987152732200,4.710732177734375,-0.3665533661842346,0.37279319763183594,-0.8158077001571655
1782986987162806300,4.72080615234375,-0.05796804279088974,0.7564862370491028,-0.8364686369895935
1782986987172881400,4.73088134765625,0.23844577372074127,1.0467023849487305,-0.36443209648132324
1782986987182955300,4.740955322265625,0.4064696133136749,0.6487647891044617,0.3077627718448639
1782986987193030400,4.751030517578125,0.5778493285179138,-0.0874280259013176,0.6901048421859741
1782986987203104300,4.761104248046875,0.7350945472717285,-0.47330722212791443,0.5313360095024109
1782986987213179400,4.771179443359375,0.8237704038619995,-0.4537726640701294,0.023608064278960228
1782986987223253200,4.781253173828125,0.740018904209137,-0.2292778193950653,-0.47438523173332214
1782986987233327000,4.7913271484375,0.5370442271232605,0.17160461843013763,-0.6743953227996826
1782986987243402200,4.80140234375,0.34711331129074097,0.7579630613327026,-0.5965973138809204
1782986987253476000,4.81147607421875,0.20365311205387115,1.2148981094360352,-0.4887451231479645
1782986987263551200,4.82155126953125,0.1372067928314209,1.4996916055679321,-0.447975218296051
1782986987273625000,4.831625,0.16432416439056396,1.661236047744751,-0.4222874343395233
1782986987283700200,4.8417001953125,0.20505419373512268,1.649729609489441,-0.3356906771659851
1782986987293774300,4.8517744140625,0.25022968649864197,1.4335664510726929,-0.07308835536241531
1782986987303849200,4.86184912109375,0.37710273265838623,1.053741455078125,0.45517081022262573
1782986987313923300,4.87192333984375,0.5899547934532166,0.7430094480514526,1.2515302896499634
1782986987323997200,4.8819970703125,0.6239138245582581,0.47894230484962463,2.1006898880004883
1782986987334072300,4.892072265625,0.47974148392677307,0.3114396035671234,2.645756721496582
1782986987344146200,4.902146240234375,0.22341465950012207,0.21779875457286835,2.630728244781494
1782986987354221300,4.91222119140625,-0.05225714296102524,0.16801415383815765,2.0573503971099854
1782986987364295200,4.922295166015625,-0.3487897217273712,0.09219174087047577,1.0894372463226318
1782986987374370300,4.932370361328125,-0.5588183403015137,-0.06981846690177917,0.05473577603697777
1782986987384444200,4.942444091796875,-0.7316209077835083,-0.28945791721343994,-0.7586432099342346
1782986987394519300,4.952519287109375,-0.8383215665817261,-0.5591576099395752,-1.233958125114441
1782986987404593200,4.96259326171875,-0.83945631980896,-0.7924336194992065,-1.327010154724121
1782986987414667300,4.972667236328125,-0.7794430255889893,-0.9321361184120178,-1.0814900398254395
1782986987424742100,4.9827421875,-0.7166702747344971,-0.9517794847488403,-0.6630826592445374
1782986987434816300,4.992816162109375,-0.6662827730178833,-0.8801966309547424,-0.28006651997566223
1782986987444891100,5.00289111328125,-0.6415961384773254,-0.7729686498641968,-0.07973417639732361
1782986987454965200,5.01296533203125,-0.6206700801849365,-0.6953476071357727,-0.09594696760177612
1782986987465040100,5.0230400390625,-0.5656070113182068,-0.6367458701133728,-0.23209288716316223
1782986987475114200,5.0331142578125,-0.4781911373138428,-0.580535888671875,-0.39129504561424255
1782986987485189000,5.043189208984375,-0.35402700304985046,-0.5172293186187744,-0.4961567223072052
1782986987495263200,5.05326318359375,-0.21532346308231354,-0.4818153977394104,-0.5184913277626038
1782986987505338000,5.063338134765625,-0.09922473132610321,-0.5122604370117188,-0.44921058416366577
1782986987515411200,5.0734111328125,-0.024844510480761528,-0.6177163124084473,-0.31916069984436035
1782986987525486300,5.083486328125,0.003797519486397505,-0.7589687705039978,-0.17274543642997742
1782986987535560200,5.093560302734375,0.0024251926224678755,-0.9157200455665588,-0.035480521619319916
1782986987545635300,5.10363525390625,-0.006740084849298,-1.0160413980484009,0.10058349370956421
1782986987555709400,5.11370947265625,-0.039534781128168106,-1.0647772550582886,0.2380121946334839
1782986987565784300,5.123784423828125,-0.09426311403512955,-1.07206130027771,0.3181905448436737
1782986987575858400,5.1338583984375,-0.15151095390319824,-1.0198756456375122,0.3099086284637451
1782986987585933300,5.143933349609375,-0.19314154982566833,-0.9497424960136414,0.20106858015060425
1782986987596007400,5.15400732421875,-0.2169448882341385,-0.8810026049613953,0.05203142762184143
1782986987606081300,5.164081298828125,-0.22665834426879883,-0.8134586215019226,-0.05312928557395935
1782986987616156400,5.174156494140625,-0.2202526330947876,-0.7318766713142395,-0.06177390366792679
1782986987626230300,5.184230224609375,-0.1946561187505722,-0.629378080368042,0.010597976855933666
1782986987636305400,5.194305419921875,-0.11486834287643433,-0.45144590735435486,0.13778895139694214
1782986987646379300,5.204379150390625,0.023776277899742126,-0.18221312761306763,0.2662736475467682
1782986987656454400,5.214454345703125,0.1953405737876892,0.11930650472640991,0.3791288137435913
1782986987666528300,5.2245283203125,0.38778719305992126,0.35242176055908203,0.4408472776412964
1782986987676603400,5.234603271484375,0.605429470539093,0.5436995625495911,0.4401484727859497
1782986987686677200,5.24467724609375,0.7607608437538147,0.6924946904182434,0.23685823380947113
1782986987696751400,5.25475146484375,0.7580977082252502,0.6094802021980286,-0.2925291955471039
1782986987706826200,5.264826171875,0.6783614158630371,0.5882413387298584,-1.063029170036316
1782986987716900400,5.274900390625,0.6369543075561523,0.6846722960472107,-1.653066635131836
1782986987726975200,5.284975341796875,0.5772002339363098,0.5259075164794922,-1.4387142658233643
1782986987737049300,5.29504931640625,0.47275641560554504,-0.12220947444438934,-0.5760110020637512
1782986987747124200,5.305124267578125,0.4307324290275574,-0.6331397294998169,0.08842680603265762
1782986987757198300,5.3151982421875,0.46125438809394836,-0.7886006832122803,0.06484291702508926
1782986987767273200,5.325273193359375,0.5116246938705444,-0.7929436564445496,-0.3276224732398987
1782986987777347300,5.335347412109375,0.5734012722969055,-0.6832096576690674,-0.5157455205917358
1782986987787422200,5.345422119140625,0.5746251940727234,-0.5158030986785889,-0.2716742753982544
1782986987797496300,5.355496337890625,0.5402621626853943,-0.31075647473335266,0.21613934636116028
1782986987807570200,5.365570068359375,0.49731093645095825,-0.13421742618083954,0.5586218237876892
1782986987817645300,5.375645263671875,0.44332706928253174,-0.018430376425385475,0.7228776216506958
1782986987827719200,5.38571923828125,0.3554195463657379,0.0416843555867672,0.848538875579834
1782986987837794300,5.395794189453125,0.25491929054260254,0.13044725358486176,1.0204627513885498
1782986987847868200,5.4058681640625,0.20326507091522217,0.2694488763809204,1.2315480709075928
1782986987857944300,5.4159443359375,0.21301090717315674,0.4090113043785095,1.4703404903411865
1782986987868018200,5.42601806640625,0.20484378933906555,0.4836868643760681,1.6825547218322754
1782986987878092300,5.43609228515625,0.11579781770706177,0.4372679889202118,1.7261788845062256
1782986987888167200,5.446167236328125,-0.0035609775222837925,0.39636316895484924,1.5182125568389893
1782986987898241300,5.4562412109375,-0.170244500041008,0.38135918974876404,1.0437777042388916
1782986987908316200,5.466316162109375,-0.35619837045669556,0.23350563645362854,0.41056862473487854
1782986987918390300,5.476390380859375,-0.5053181052207947,-0.039108578115701675,-0.2288544774055481
1782986987928465400,5.48646533203125,-0.5975157618522644,-0.30139508843421936,-0.7184420228004456
1782986987938539300,5.496539306640625,-0.642015278339386,-0.48457396030426025,-0.904373288154602
1782986987948614400,5.506614501953125,-0.6408376693725586,-0.5309040546417236,-0.7550702691078186
1782986987958688300,5.516688232421875,-0.5992774367332458,-0.4088284969329834,-0.43288424611091614
1782986987968763400,5.526763427734375,-0.5099892020225525,-0.22521886229515076,-0.16898798942565918
1782986987978837200,5.536837158203125,-0.3907962441444397,-0.0654425173997879,-0.04711562395095825
1782986987988911000,5.5469111328125,-0.2640513479709625,-0.0374121256172657,-0.001671086298301816
1782986987998986200,5.556986328125,-0.14455318450927734,-0.11431968212127686,0.04013148695230484
1782986988009060000,5.56706005859375,-0.040801651775836945,-0.21315523982048035,0.11826324462890625
1782986988019135200,5.57713525390625,0.015699440613389015,-0.3400724530220032,0.22085513174533844
1782986988029209000,5.587208984375,0.0639893040060997,-0.42877447605133057,0.3377413749694824
1782986988039284200,5.5972841796875,0.10426269471645355,-0.47474411129951477,0.4398762583732605
1782986988049358300,5.6073583984375,0.10637866705656052,-0.5039102435112,0.4986133873462677
1782986988059433200,5.61743310546875,0.07716751843690872,-0.47632867097854614,0.4884382486343384
1782986988069507300,5.62750732421875,0.023623142391443253,-0.3897622525691986,0.4307287335395813
1782986988079581200,5.637581298828125,-0.028729543089866638,-0.3044303059577942,0.38284218311309814
1782986988089656300,5.64765625,-0.05724257975816727,-0.20990943908691406,0.35526639223098755
1782986988099730200,5.657730224609375,-0.08621937781572342,-0.13213741779327393,0.33725595474243164
1782986988109805300,5.667805419921875,-0.12710422277450562,-0.11332466453313828,0.3251613974571228
1782986988119879200,5.677879150390625,-0.15465115010738373,-0.16534951329231262,0.3149995803833008
1782986988129954300,5.687954345703125,-0.177700012922287,-0.23198473453521729,0.3326832354068756
1782986988140028200,5.698028076171875,-0.20260989665985107,-0.34134024381637573,0.3629077076911926
1782986988150103000,5.70810302734375,-0.23803161084651947,-0.497291624546051,0.36774417757987976
1782986988160177200,5.71817724609375,-0.23981620371341705,-0.5724175572395325,0.3431946337223053
1782986988170252000,5.728251953125,-0.18748953938484192,-0.5673047304153442,0.23444606363773346
1782986988180326100,5.738326171875,-0.13311125338077545,-0.5424470901489258,0.07542099803686142
1782986988190400000,5.74839990234375,-0.05676250159740448,-0.5422659516334534,-0.08456408977508545
1782986988200475100,5.75847509765625,0.08232402056455612,-0.5653611421585083,-0.2907513380050659
1782986988210549000,5.768549072265625,0.23389393091201782,-0.6259154081344604,-0.4457938075065613
1782986988220624100,5.7786240234375,0.34770968556404114,-0.4841436445713043,-0.32068249583244324
1782986988230698000,5.788697998046875,0.3563383221626282,-0.0887022316455841,0.2543092668056488
1782986988240773000,5.798773193359375,0.26860740780830383,0.09755685180425644,1.0078957080841064
1782986988250847000,5.808846923828125,0.1336371898651123,0.2145141214132309,1.5118632316589355
1782986988260922000,5.818922119140625,0.01877184398472309,0.2769274413585663,1.5593719482421875
1782986988270996000,5.828995849609375,-0.03231567144393921,0.24743591248989105,1.2102848291397095
1782986988281070300,5.8390703125,0.0006412147777155042,0.2334149181842804,0.5639891624450684
1782986988291145000,5.84914501953125,0.11869834363460541,0.4356451630592346,-0.4433441162109375
1782986988301219300,5.85921923828125,0.1920095831155777,0.7412591576576233,-1.5916190147399902
1782986988311294000,5.8692939453125,0.15056484937667847,0.8273229002952576,-2.1491901874542236
1782986988321368300,5.879368408203125,0.06416177749633789,0.7319484353065491,-1.6479289531707764
1782986988331443000,5.88944287109375,0.013467893935739994,0.5936294794082642,-0.5527297258377075
1782986988341517300,5.899517333984375,0.05271703004837036,0.4721161127090454,0.34291476011276245
1782986988351592000,5.909592041015625,0.15388980507850647,0.5333732962608337,0.7547539472579956
1782986988361666300,5.919666259765625,0.2574918568134308,0.9085373282432556,0.7173088788986206
1782986988371741200,5.9297412109375,0.3152005970478058,1.3289246559143066,0.44494083523750305
1782986988381815300,5.939815185546875,0.29538002610206604,1.5440484285354614,0.18618144094944
1782986988391890200,5.94989013671875,0.20764775574207306,1.5011793375015259,0.14055438339710236
1782986988401964300,5.95996435546875,0.06765390187501907,1.2331358194351196,0.4775923490524292
1782986988412038100,5.9700380859375,-0.11181137710809708,0.8159253001213074,1.0260231494903564
1782986988422113300,5.98011328125,-0.2765081822872162,0.39282914996147156,1.33184015750885
1782986988432187100,5.990187255859375,-0.4153367877006531,0.10351869463920593,1.153327465057373
1782986988442262300,6.00026220703125,-0.5384214520454407,-0.05255692079663277,0.540256917476654
1782986988452336000,6.010336181640625,-0.6019484996795654,-0.1654663383960724,-0.30335676670074463
1782986988462411300,6.020411376953125,-0.6111305356025696,-0.3404533267021179,-1.0369796752929688
1782986988472485000,6.030485107421875,-0.643580973148346,-0.63006991147995,-1.4424184560775757
1782986988482560300,6.040560302734375,-0.6841771602630615,-0.8609446883201599,-1.498822808265686
1782986988492634000,6.050634033203125,-0.7164681553840637,-0.90636146068573,-1.2754542827606201
1782986988502708200,6.060708251953125,-0.7366048693656921,-0.8347133994102478,-0.8879424333572388
1782986988512783000,6.070783203125,-0.7547290921211243,-0.7214025259017944,-0.5166732668876648
1782986988522857200,6.080857177734375,-0.7440594434738159,-0.5692462921142578,-0.25707122683525085
1782986988532932000,6.09093212890625,-0.7169650793075562,-0.4108220338821411,-0.13523779809474945
1782986988543006200,6.101006103515625,-0.644942581653595,-0.28322678804397583,-0.1283886730670929
1782986988553081000,6.1110810546875,-0.5678578019142151,-0.1801908314228058,-0.18028424680233002
1782986988563155200,6.1211552734375,-0.49835675954818726,-0.09898519515991211,-0.2599761486053467
1782986988573230000,6.13122998046875,-0.42946532368659973,-0.06722229719161987,-0.34863632917404175
1782986988583304200,6.14130419921875,-0.39823096990585327,-0.08876567333936691,-0.34916338324546814
1782986988593379000,6.151379150390625,-0.3702481687068939,-0.13588155806064606,-0.3175354301929474
1782986988603453200,6.161453125,-0.3359602391719818,-0.20493651926517487,-0.27547240257263184
1782986988613527000,6.171527099609375,-0.3012947738170624,-0.24195289611816406,-0.21567247807979584
1782986988623602200,6.181602294921875,-0.2736000120639801,-0.23069384694099426,-0.12858417630195618
1782986988633676000,6.191676025390625,-0.254139244556427,-0.1859910935163498,-0.03582388535141945
1782986988643751200,6.201751220703125,-0.24621020257472992,-0.12463612109422684,-0.0027317136991769075
1782986988653825000,6.211824951171875,-0.25438016653060913,-0.08737100660800934,-0.06014144793152809
1782986988663900200,6.221900146484375,-0.2580907344818115,-0.07814741134643555,-0.17394870519638062
1782986988673974000,6.23197412109375,-0.2607734203338623,-0.11840085685253143,-0.26075661182403564
1782986988684049200,6.242049072265625,-0.28383055329322815,-0.22921259701251984,-0.29659396409988403
1782986988694123000,6.252123046875,-0.29706141352653503,-0.3594813048839569,-0.3116673529148102
1782986988704197000,6.262197021484375,-0.27069851756095886,-0.4128020405769348,-0.3239043056964874
1782986988714272000,6.27227197265625,-0.1843007504940033,-0.3699544370174408,-0.302966833114624
1782986988724346000,6.28234619140625,-0.052093178033828735,-0.3046920597553253,-0.20447060465812683
1782986988734421000,6.2924208984375,0.13831722736358643,-0.06327839940786362,-0.02242409996688366
1782986988744495000,6.3024951171875,0.39211195707321167,0.14684608578681946,0.08994292467832565
1782986988754570000,6.312570068359375,0.5880333185195923,0.3083229959011078,0.03665131330490112
1782986988764644000,6.32264404296875,0.7297963500022888,0.5366150140762329,-0.09536051005125046
1782986988774719200,6.33271923828125,0.805143415927887,0.6888678073883057,-0.2901676893234253
1782986988784793000,6.34279296875,0.834499716758728,0.8732695579528809,-0.49919041991233826
1782986988794868200,6.3528681640625,0.9873023629188538,1.0787684917449951,-0.5329797267913818
1782986988804942000,6.362942138671875,1.0777639150619507,1.1135939359664917,-0.4235410690307617
1782986988815016000,6.373015869140625,1.0630561113357544,0.7110599875450134,-0.4325431287288666
1782986988825091000,6.383091064453125,1.0573680400848389,0.15245339274406433,-0.8451728224754333
1782986988835165000,6.3931650390625,0.9491816163063049,-0.021260280162096024,-1.3325748443603516
1782986988845240000,6.403239990234375,0.7964791655540466,-0.0991193950176239,-1.4108926057815552
1782986988855314000,6.41331396484375,0.5937646627426147,-0.33013734221458435,-0.9305932521820068
1782986988865389000,6.42338916015625,0.31205442547798157,-0.5752474665641785,-0.0951995998620987
1782986988875463000,6.433462890625,0.1294931322336197,-0.5693268179893494,0.6366028785705566
1782986988885538000,6.4435380859375,0.09723372757434845,-0.2655658721923828,1.00520658493042
1782986988895612200,6.453612060546875,0.16787567734718323,0.31850263476371765,1.0404667854309082
1782986988905687000,6.46368701171875,0.28176388144493103,0.9328909516334534,0.8291001319885254
1782986988915761200,6.47376123046875,0.3727392554283142,1.389654517173767,0.5231815576553345
1782986988925835000,6.4838349609375,0.41681402921676636,1.5592443943023682,0.36433494091033936
1782986988935910100,6.49391015625,0.4504651129245758,1.3632080554962158,0.46814200282096863
1782986988945984000,6.50398388671875,0.4161529541015625,0.9561907052993774,0.7627224922180176
1782986988956059100,6.51405908203125,0.32294762134552,0.49739232659339905,1.0476973056793213
1782986988966133000,6.524133056640625,0.15833552181720734,0.10047532618045807,1.1058484315872192
1782986988976208100,6.5342080078125,-0.022261157631874084,-0.2101026028394699,0.8589619398117065
1782986988986282000,6.544281982421875,-0.17499211430549622,-0.45810121297836304,0.34012570977211
1782986988996357000,6.554357177734375,-0.29561305046081543,-0.6459111571311951,-0.322219580411911
1782986989006431000,6.564430908203125,-0.353208988904953,-0.7342876195907593,-0.9187948703765869
1782986989016505300,6.57450537109375,-0.39541715383529663,-0.7641735076904297,-1.2979540824890137
1782986989026580000,6.584580078125,-0.40409746766090393,-0.7519437670707703,-1.4269410371780396
1782986989036654300,6.594654296875,-0.408115029335022,-0.6768811345100403,-1.308682918548584
1782986989046729000,6.60472900390625,-0.45208171010017395,-0.5737901329994202,-1.022335410118103
1782986989056803300,6.61480322265625,-0.5290087461471558,-0.4197706878185272,-0.6748932600021362
1782986989066878200,6.624878173828125,-0.6180403828620911,-0.2845769226551056,-0.39349696040153503
1782986989076952300,6.634952392578125,-0.7238357663154602,-0.19110140204429626,-0.22409868240356445
1782986989087027200,6.645027099609375,-0.8098849058151245,-0.049314435571432114,-0.13084837794303894
1782986989097101300,6.655101318359375,-0.8835594654083252,0.052498120814561844,-0.11280341446399689
1782986989107176200,6.66517626953125,-0.9032708406448364,0.08629203587770462,-0.16313715279102325
1782986989117250300,6.675250244140625,-0.8709465265274048,0.13501916825771332,-0.2415459007024765
1782986989127324200,6.68532421875,-0.8176342844963074,0.13855743408203125,-0.32316404581069946
1782986989137399300,6.6953994140625,-0.7260136008262634,0.06508097052574158,-0.37539222836494446
1782986989147473200,6.70547314453125,-0.6239767074584961,-0.05698768049478531,-0.352490097284317
1782986989157547800,6.7155478515625,-0.5043229460716248,-0.163850799202919,-0.22179581224918365
1782986989167622000,6.725621826171875,-0.4165656566619873,-0.26397421956062317,-0.01685091108083725
1782986989177696800,6.73569677734375,-0.3927769958972931,-0.3237681984901428,0.21197916567325592
1782986989187771000,6.74577099609375,-0.4267043471336365,-0.3044690787792206,0.41402119398117065
1782986989197845800,6.755845703125,-0.488284170627594,-0.27008798718452454,0.5110419988632202
1782986989207919900,6.765919921875,-0.5194522142410278,-0.2283754199743271,0.4007304310798645
1782986989217993700,6.77599365234375,-0.5287575721740723,-0.2275713086128235,0.12491302937269211
1782986989228068900,6.78606884765625,-0.5501248836517334,-0.3476998507976532,-0.16327828168869019
1782986989238142700,6.796142822265625,-0.5896788835525513,-0.6261965036392212,-0.3488607406616211
1782986989248217900,6.8062177734375,-0.606281042098999,-0.9069607853889465,-0.3377918303012848
1782986989258291700,6.816291748046875,-0.5844545960426331,-0.8997691869735718,-0.08586423099040985
1782986989268366800,6.826366943359375,-0.5605692267417908,-0.7713539600372314,0.24458399415016174
1782986989278440700,6.836440673828125,-0.5169399380683899,-0.6078517436981201,0.4765797257423401
1782986989288515800,6.846515869140625,-0.3955751955509186,-0.3763141334056854,0.5788581967353821
1782986989298589700,6.856589599609375,-0.2449158877134323,-0.530411958694458,0.3526931405067444
1782986989308664800,6.866664794921875,-0.09928011894226074,-0.7434735894203186,-0.4732838571071625
1782986989318738700,6.87673876953125,0.16836676001548767,-0.35163161158561707,-2.0000338554382324
1782986989328813800,6.886813720703125,0.42116865515708923,0.8665387630462646,-3.434537649154663
1782986989338887700,6.8968876953125,0.6553646326065063,1.7468531131744385,-3.6292879581451416
1782986989348961800,6.9069619140625,0.5890817642211914,1.2480305433273315,-2.4206864833831787
1782986989359036700,6.91703662109375,0.15892630815505981,0.030247887596488,-0.6186491250991821
1782986989369110800,6.92711083984375,-0.18656665086746216,-1.0206847190856934,0.5332748293876648
1782986989379185700,6.937185546875,-0.1049879938364029,-1.4875823259353638,0.8520409464836121
1782986989389259800,6.947259765625,0.2924368679523468,-1.37437903881073,0.8828380107879639
1782986989399334700,6.957334716796875,0.6498269438743591,-1.0454806089401245,1.0194275379180908
1782986989409408800,6.96740869140625,0.7835541367530823,-0.615813672542572,1.216298222541809
1782986989419483600,6.977483642578125,0.7576107382774353,-0.21076010167598724,1.3034342527389526
1782986989429557800,6.987557861328125,0.6923534274101257,0.11227040737867355,1.345441460609436
1782986989439631600,6.997631591796875,0.6482502222061157,0.35268959403038025,1.3819425106048584
1782986989449706800,7.007706787109375,0.6510921120643616,0.5223559141159058,1.385032296180725
1782986989459780600,7.017780517578125,0.6417308449745178,0.7104156017303467,1.3305460214614868
1782986989469855700,7.027855712890625,0.6509326100349426,0.9252307415008545,1.3695586919784546
1782986989479929600,7.0379296875,0.6351467967033386,0.9319272637367249,1.476090669631958
1782986989490004700,7.048004638671875,0.5149168372154236,0.6327584385871887,1.5631766319274902
1782986989500078600,7.05807861328125,0.3191813826560974,0.20557449758052826,1.4562962055206299
1782986989510153700,7.06815380859375,0.07579322904348373,-0.17993777990341187,1.1225718259811401
1782986989520227600,7.0782275390625,-0.15706157684326172,-0.361329048871994,0.6192221641540527
1782986989530302700,7.088302734375,-0.3436381220817566,-0.5147694945335388,0.01764894649386406
1782986989540376600,7.09837646484375,-0.4830203652381897,-0.7443673610687256,-0.5667632222175598
1782986989550450700,7.10845068359375,-0.5831109881401062,-0.8949790000915527,-0.8973150253295898
1782986989560525600,7.118525634765625,-0.6548186540603638,-0.9571280479431152,-0.920992910861969
1782986989570599700,7.128599609375,-0.676917552947998,-0.8599509000778198,-0.707969605922699
1782986989580674600,7.138674560546875,-0.6393158435821533,-0.6758977174758911,-0.4769448935985565
1782986989590748700,7.148748779296875,-0.5940288305282593,-0.4808296859264374,-0.36532729864120483
1782986989600823600,7.158823486328125,-0.5452626347541809,-0.2934696078300476,-0.3921670913696289
1782986989610897700,7.168897705078125,-0.5348299741744995,-0.09704817086458206,-0.4567330479621887
1782986989620972500,7.17897265625,-0.5784574151039124,0.0551077276468277,-0.48316606879234314
1782986989631046700,7.189046630859375,-0.617266833782196,0.15541088581085205,-0.4504469931125641
1782986989641120800,7.199120849609375,-0.6318783164024353,0.23366084694862366,-0.3724287450313568
1782986989651195600,7.209195556640625,-0.6228435039520264,0.27753162384033203,-0.279988557100296
1782986989661269800,7.219269775390625,-0.6115731596946716,0.33921411633491516,-0.1986396610736847
1782986989671344600,7.2293447265625,-0.6022734045982361,0.4082570970058441,-0.1478949934244156
1782986989681418800,7.239418701171875,-0.6029676795005798,0.43696412444114685,-0.10671614110469818
1782986989691493600,7.24949365234375,-0.6019580960273743,0.4255831241607666,-0.04256298765540123
1782986989701567700,7.259567626953125,-0.587986171245575,0.38140860199928284,0.04554491117596626
1782986989711642600,7.269642578125,-0.5607500076293945,0.3327140510082245,0.11563131958246231
1782986989721716700,7.279716796875,-0.4967058300971985,0.33237117528915405,0.1559503823518753
1782986989731791600,7.28979150390625,-0.4144783616065979,0.3737276494503021,0.1861381083726883
1782986989741865700,7.29986572265625,-0.3261524438858032,0.40323764085769653,0.19937779009342194
1782986989751939800,7.30993994140625,-0.24308711290359497,0.4417107105255127,0.21281211078166962
1782986989762015000,7.320014892578125,-0.19082461297512054,0.4391220211982727,0.2097594439983368
1782986989772088800,7.3300888671875,-0.18581652641296387,0.3310176432132721,0.17026902735233307
1782986989782164000,7.3401640625,-0.20142318308353424,0.13038155436515808,0.13693806529045105
1782986989792237800,7.35023779296875,-0.23077735304832458,-0.0976441502571106,0.17504577338695526
1782986989802313000,7.36031298828125,-0.19454096257686615,-0.15080063045024872,0.33230456709861755
1782986989812386800,7.37038671875,-0.03138824924826622,0.1462680548429489,0.5680094957351685
1782986989822462000,7.3804619140625,0.2462814450263977,0.46363651752471924,0.7081962823867798
1782986989832535800,7.390535888671875,0.500596284866333,0.5095137357711792,0.6153313517570496
1782986989842611000,7.40061083984375,0.5277800559997559,0.46086668968200684,0.28409355878829956
1782986989852684800,7.410684814453125,0.26577985286712646,0.3575083315372467,-0.24868537485599518
1782986989862758700,7.420758544921875,-0.08188746869564056,0.18891243636608124,-0.7723251581192017
1782986989872833800,7.430833740234375,-0.2160026580095291,0.1384628415107727,-0.9642705917358398
1782986989882908000,7.440907958984375,-0.25154662132263184,0.23156780004501343,-0.7514970302581787
1782986989892982800,7.450982666015625,-0.3007921874523163,0.254011869430542,-0.3322262763977051
1782986989903057000,7.461056884765625,-0.27963125705718994,0.06620902568101883,0.003911092411726713
1782986989913131800,7.4711318359375,-0.21763260662555695,-0.2638927102088928,0.20014984905719757
1782986989923206000,7.481205810546875,-0.03618346527218819,-0.44703805446624756,0.3848227858543396
1782986989933280800,7.49128076171875,0.17794986069202423,-0.544740617275238,0.655426025390625
1782986989943355000,7.50135498046875,0.30665984749794006,-0.6625257730484009,0.983273983001709
1782986989953429800,7.5114296875,0.3244239091873169,-0.7723822593688965,1.238206386566162
1782986989963503900,7.52150390625,0.356555700302124,-0.7633143067359924,1.298598289489746
1782986989973577700,7.53157763671875,0.4184243679046631,-0.5009289979934692,1.2253395318984985
1782986989983652900,7.54165283203125,0.4315362274646759,-0.07588760554790497,1.1801567077636719
1782986989993726700,7.551726806640625,0.4858652651309967,0.5736720561981201,1.3725109100341797
1782986990003801900,7.5618017578125,0.4287945330142975,1.0928504467010498,1.742641806602478
1782986990013875700,7.571875732421875,0.26891645789146423,1.3331453800201416,2.1005616188049316
1782986990023950800,7.581950927734375,0.07683666050434113,1.4749447107315063,2.3608179092407227
1782986990034024700,7.592024658203125,-0.19207362830638885,1.182334065437317,2.314293146133423
1782986990044099800,7.602099853515625,-0.489014595746994,0.48230886459350586,1.9052257537841797
1782986990054173700,7.612173583984375,-0.6771154999732971,-0.46968838572502136,1.1524276733398438
1782986990064247800,7.622247802734375,-0.7742244601249695,-1.1689287424087524,0.20890027284622192
1782986990074322700,7.63232275390625,-0.7806269526481628,-1.459749460220337,-0.7704636454582214
1782986990084396800,7.642396728515625,-0.731697142124176,-1.6433944702148438,-1.6395432949066162
1782986990094471700,7.6524716796875,-0.7058013677597046,-1.6970633268356323,-2.119232654571533
1782986990104545800,7.6625458984375,-0.6392715573310852,-1.3405425548553467,-2.0014145374298096
1782986990114620700,7.67262060546875,-0.5718288421630859,-0.9213988184928894,-1.5736812353134155
1782986990124694800,7.68269482421875,-0.5382599830627441,-0.5844448208808899,-1.1037732362747192
1782986990134769700,7.692769775390625,-0.5179398059844971,-0.3653140962123871,-0.7360604405403137
1782986990144843800,7.70284375,-0.48096194863319397,-0.20692434906959534,-0.5795683860778809
1782986990154919200,7.712919189453125,-0.42321476340293884,-0.13629624247550964,-0.615267813205719
1782986990164993000,7.722992919921875,-0.35842379927635193,-0.14583328366279602,-0.6917913556098938
1782986990175067000,7.73306689453125,-0.28727585077285767,-0.227352112531662,-0.6852181553840637
1782986990185142000,7.74314208984375,-0.20071008801460266,-0.29665136337280273,-0.60582035779953
1782986990195216000,7.7532158203125,-0.08956757932901382,-0.31830447912216187,-0.4840984344482422
1782986990205291000,7.763291015625,0.03366342931985855,-0.3004016876220703,-0.3736206889152527
1782986990215364900,7.77336474609375,0.12964321672916412,-0.26405593752861023,-0.30279046297073364
1782986990225440000,7.78343994140625,0.20588865876197815,-0.19651328027248383,-0.25034478306770325
1782986990235513900,7.793513916015625,0.26968497037887573,-0.14165696501731873,-0.2215099334716797
1782986990245589000,7.803589111328125,0.282034307718277,-0.17943212389945984,-0.21527156233787537
1782986990255663000,7.8136630859375,0.25141674280166626,-0.1830521672964096,-0.18873289227485657
1782986990265738000,7.823738037109375,0.17188070714473724,-0.1382203847169876,-0.11287663131952286
1782986990275812000,7.83381201171875,0.08121871948242188,-0.08853460103273392,-0.04387705773115158
1782986990285886000,7.843885986328125,0.007352135609835386,-0.00794275850057602,0.01909344457089901
1782986990295961000,7.853961181640625,-0.027051378041505814,0.06889769434928894,0.0916731059551239
1782986990306035000,7.864034912109375,-0.032052185386419296,0.08355610817670822,0.1686345934867859
1782986990316110000,7.874110107421875,-0.01378316804766655,0.052795540541410446,0.2743532955646515
1782986990326184000,7.884183837890625,0.025662871077656746,-0.01363467425107956,0.3800745904445648
1782986990336259000,7.894259033203125,0.08405134081840515,-0.18993167579174042,0.4995378851890564
1782986990346333000,7.9043330078125,0.11138815432786942,-0.4771600663661957,0.6296870112419128
1782986990356408000,7.914407958984375,0.11297513544559479,-0.7291273474693298,0.7655934691429138
1782986990366482000,7.92448193359375,0.16384541988372803,-0.630922794342041,0.9933826327323914
1782986990376557000,7.93455712890625,0.1900533139705658,-0.041326604783535004,1.1691279411315918
1782986990386631000,7.944630859375,0.040692608803510666,0.6133039593696594,1.0940426588058472
1782986990396705000,7.954705078125,-0.333842396736145,0.8291712403297424,0.7504285573959351
1782986990406780000,7.96477978515625,-0.5194655060768127,1.0755844116210938,0.3833564817905426
1782986990416854000,7.97485400390625,-0.31957051157951355,1.165000081062317,0.21063290536403656
1782986990426929000,7.984928955078125,-0.0468473918735981,0.7900062203407288,0.44725823402404785
1782986990437003000,7.9950029296875,0.286428838968277,-0.08143150806427002,0.7343014478683472
1782986990447078000,8.005077880859375,0.7133620381355286,-0.6479741930961609,0.3629532754421234
1782986990457152300,8.01515234375,1.0455714464187622,-0.26539939641952515,-0.2738516628742218
1782986990467227000,8.025226806640624,1.07345449924469,0.4169578552246094,-0.39367181062698364
1782986990477301200,8.03530126953125,0.7153445482254028,0.7126222848892212,0.24476486444473267
1782986990487376000,8.0453759765625,0.29632338881492615,0.6860612630844116,1.0039016008377075
1782986990497450200,8.0554501953125,0.1160002276301384,0.7118369340896606,1.0981067419052124
1782986990507524000,8.065524169921876,0.4419139325618744,0.8556153178215027,0.680604100227356
1782986990517599200,8.07559912109375,1.3599793910980225,0.7980606555938721,0.394428551197052
1782986990527673000,8.085673095703125,2.2424094676971436,0.7114812731742859,0.37844714522361755
1782986990537748200,8.095748291015624,2.500401020050049,0.7032049298286438,0.3403434455394745
1782986990547822000,8.105822021484375,2.0669660568237305,0.7531862258911133,0.3833959698677063
1782986990557897200,8.115897216796874,1.30771803855896,0.8594421148300171,0.7271085977554321
1782986990567971000,8.12597119140625,0.513175368309021,0.7525230050086975,1.0195419788360596
1782986990578046200,8.136046142578126,-0.1018017828464508,0.4766139090061188,0.9674387574195862
1782986990588120000,8.1461201171875,-0.5274352431297302,0.15425001084804535,0.5060791969299316
1782986990598195200,8.1561953125,-0.7152818441390991,-0.08720867335796356,-0.2279238998889923
1782986990608269000,8.16626904296875,-0.6926515102386475,-0.16485461592674255,-0.9053573608398438
1782986990618343200,8.17634326171875,-0.5831074118614197,-0.20253488421440125,-1.268677830696106
1782986990628418000,8.18641796875,-0.46387186646461487,-0.21975302696228027,-1.2749440670013428
1782986990638492200,8.1964921875,-0.37704136967658997,-0.2595328986644745,-1.07433021068573
1782986990648567000,8.206567138671875,-0.3405801057815552,-0.305329293012619,-0.8054549098014832
1782986990658641200,8.21664111328125,-0.32052382826805115,-0.315456748008728,-0.5417606830596924
1782986990668716000,8.226716064453125,-0.32922694087028503,-0.32201653718948364,-0.38203373551368713
1782986990678790100,8.2367900390625,-0.28949177265167236,-0.30116769671440125,-0.32701921463012695
1782986990688865000,8.246864990234375,-0.17122727632522583,-0.23757927119731903,-0.33021485805511475
1782986990698939100,8.256939208984376,-0.04095982387661934,-0.15979045629501343,-0.38651329278945923
1782986990709013000,8.267012939453124,0.10520057380199432,-0.052556686103343964,-0.47523385286331177
1782986990719088000,8.277088134765625,0.22715631127357483,0.09245989471673965,-0.5853837728500366
1782986990729162000,8.287161865234374,0.2638886570930481,0.16629555821418762,-0.7306290864944458
1782986990739237000,8.297237060546875,0.23134618997573853,0.1535792350769043,-0.8421484231948853
1782986990749311000,8.30731103515625,0.15367543697357178,0.029144570231437683,-0.8703436255455017
1782986990759386000,8.31738623046875,0.06571708619594574,-0.13539829850196838,-0.8092387318611145
1782986990769460000,8.3274599609375,-0.004255163948982954,-0.2900662124156952,-0.6851423978805542
1782986990779535000,8.33753515625,-0.03132406622171402,-0.3850387930870056,-0.5254464745521545
1782986990789609000,8.34760888671875,-0.01818314753472805,-0.3951476812362671,-0.4109436273574829
1782986990799684000,8.35768408203125,-0.0006867109914310277,-0.3787229061126709,-0.3957872986793518
1782986990809758000,8.367758056640625,0.013199813663959503,-0.35826751589775085,-0.4390491247177124
1782986990819832000,8.37783203125,0.012720444239675999,-0.35770025849342346,-0.5367064476013184
1782986990829907000,8.387906982421875,0.006732934154570103,-0.3966331481933594,-0.6073365807533264
1782986990839981000,8.39798095703125,-0.006577012129127979,-0.5037124752998352,-0.5872557759284973
1782986990850056000,8.408055908203124,-0.01816566102206707,-0.5849360227584839,-0.43343883752822876
1782986990860130000,8.418130126953125,-0.01636882685124874,-0.6547760963439941,-0.17991229891777039
1782986990870205000,8.428204833984376,0.018134381622076035,-0.6400061845779419,0.08368101716041565
1782986990880279000,8.438279052734375,0.10364209115505219,-0.537346601486206,0.2669520378112793
1782986990890354200,8.448354248046876,0.2755354046821594,-0.3895847499370575,0.3424530327320099
1782986990900428000,8.458427978515624,0.5252173542976379,-0.23964717984199524,0.33279135823249817
1782986990910502000,8.468501953125,0.6757173538208008,-0.08016239106655121,0.32330843806266785
1782986990920577000,8.478576904296874,0.7824115753173828,0.013950789347290993,0.26036062836647034
1782986990930651000,8.48865087890625,0.8487007021903992,-0.03489027917385101,0.056645821779966354
1782986990940726000,8.49872607421875,0.853863537311554,0.04945309832692146,-0.42766252160072327
1782986990950800000,8.5087998046875,0.9550940990447998,0.5772853493690491,-1.1355327367782593
1782986990960875000,8.518875,1.0618945360183716,1.2906945943832397,-1.4183436632156372
1782986990970948900,8.528948974609374,1.101469874382019,1.488120675086975,-0.7728279232978821
1782986990981024000,8.53902392578125,1.0458683967590332,1.0169774293899536,0.32536330819129944
1782986990991097900,8.549097900390626,0.9045441746711731,0.33787819743156433,0.7441416382789612
1782986991001173000,8.559173095703125,0.7497660517692566,0.13889026641845703,0.061248812824487686
1782986991011247000,8.5692470703125,0.561921238899231,0.34748438000679016,-0.8639917969703674
1782986991021322000,8.579322021484375,0.3526868224143982,0.5249633193016052,-1.1443302631378174
1782986991031396000,8.58939599609375,0.23898501694202423,0.7028349041938782,-0.6264416575431824
1782986991041470000,8.599469970703124,0.23103760182857513,0.9683347940444946,0.2900005578994751
1782986991051545000,8.609545166015625,0.35708296298980713,1.1672955751419067,1.0330795049667358
1782986991061619000,8.619618896484376,0.5127721428871155,1.188635230064392,1.4125231504440308
1782986991071694000,8.629694091796875,0.6047329306602478,1.0144953727722168,1.507009744644165
1782986991081768000,8.639767822265625,0.6024320125579834,0.7192834615707397,1.4345417022705078
1782986991091843000,8.649843017578124,0.49166545271873474,0.4270346760749817,1.3104647397994995
1782986991101917000,8.6599169921875,0.2834097146987915,0.17021194100379944,1.2921006679534912
1782986991111992000,8.669991943359374,0.031745702028274536,-0.18263296782970428,1.3351010084152222
1782986991122066000,8.68006591796875,-0.15195727348327637,-0.5018181204795837,1.2400645017623901
1782986991132140000,8.69014013671875,-0.2199869304895401,-0.6114832758903503,0.8985152244567871
1782986991142215000,8.70021484375,-0.17939023673534393,-0.4452535808086395,0.37107911705970764
1782986991152288800,8.710288818359375,-0.08103425800800323,-0.19410201907157898,-0.18833647668361664
1782986991162363600,8.72036376953125,0.001049692160449922,-0.07706673443317413,-0.6415933966636658
1782986991172437800,8.730437744140625,0.007358614820986986,-0.10175195336341858,-0.91148442029953
1782986991182512600,8.7405126953125,-0.00761767104268074,-0.11708590388298035,-0.9829647541046143
1782986991192586800,8.750586669921875,-0.026470016688108444,-0.09697099030017853,-0.877054750919342
1782986991202661600,8.76066162109375,-0.04846906289458275,-0.04631100967526436,-0.6482388973236084
1782986991212735700,8.77073583984375,-0.05035509541630745,0.04413331300020218,-0.397113561630249
1782986991222810600,8.780810546875,-0.03404296934604645,0.17968660593032837,-0.2464185655117035
1782986991232884700,8.790884765625,-0.009507200680673122,0.2511686086654663,-0.25301480293273926
1782986991242958800,8.800958740234375,0.006957526318728924,0.25291645526885986,-0.32877427339553833
1782986991253033700,8.81103369140625,0.018166255205869675,0.27128687500953674,-0.39943525195121765
1782986991263107800,8.82110791015625,0.006748218555003405,0.2791503965854645,-0.42938968539237976
1782986991273182700,8.8311826171875,-0.011771420016884804,0.23516277968883514,-0.44160470366477966
1782986991283256800,8.8412568359375,-0.022628862410783768,0.1394711285829544,-0.4150979816913605
1782986991293332000,8.85133203125,-0.047144126147031784,-0.012777195312082767,-0.3183508813381195
1782986991303405800,8.86140576171875,-0.07326681166887283,-0.18267248570919037,-0.17027594149112701
1782986991313481000,8.87148095703125,-0.0744473859667778,-0.31416651606559753,0.008431032299995422
1782986991323554800,8.881554931640625,-0.05696319788694382,-0.38265156745910645,0.15373310446739197
1782986991333630000,8.8916298828125,-0.036889273673295975,-0.38235247135162354,0.19828462600708008
1782986991343703800,8.901703857421875,-0.005748930852860212,-0.31101009249687195,0.17021916806697845
1782986991353777700,8.911777587890626,0.0249619223177433,-0.2232450693845749,0.12445197999477386
1782986991363852800,8.921852783203125,0.0601971410214901,-0.08835089951753616,0.09456971287727356
1782986991373926700,8.9319267578125,0.08724945038557053,0.05268723890185356,0.060615796595811844
1782986991384001800,8.942001708984375,0.07228408008813858,0.13413895666599274,0.030907170847058296
1782986991394075600,8.95207568359375,0.03381970152258873,0.17583195865154266,0.053105294704437256
1782986991404150800,8.96215087890625,-0.023326408118009567,0.1545594185590744,0.14131104946136475
1782986991414225000,8.972224853515625,-0.06423282623291016,0.10370698571205139,0.213764026761055
1782986991424299800,8.9822998046875,-0.03672876954078674,0.1494254618883133,0.2010176181793213
1782986991434374000,8.992373779296875,0.049030330032110214,0.22084940969944,0.09274157136678696
1782986991444448800,9.00244873046875,0.14043614268302917,0.2921220064163208,-0.02939046174287796
1782986991454523000,9.01252294921875,0.1844102442264557,0.2604067623615265,0.03580887243151665
1782986991464596700,9.0225966796875,0.1255221664905548,-0.024186357855796814,0.2833249270915985
1782986991474671900,9.032671875,0.06953010708093643,-0.31407156586647034,0.34757405519485474
1782986991484745700,9.042745849609375,0.18131282925605774,-0.26384302973747253,-0.14018601179122925
1782986991494820900,9.05282080078125,0.4302559792995453,0.07991119474172592,-0.8669018745422363
1782986991504894700,9.062894775390625,0.7990502715110779,0.5314387083053589,-1.2740452289581299
1782986991514968600,9.072968505859375,1.2136318683624268,0.952901303768158,-1.2603024244308472
1782986991525042700,9.083042724609374,1.473860263824463,1.3153252601623535,-0.9970057606697083
1782986991535117800,9.093117919921875,1.4192054271697998,1.5038855075836182,-0.6278026103973389
1782986991545191700,9.103191650390626,1.1010881662368774,1.385095238685608,-0.17350618541240692
1782986991555266800,9.113266845703125,0.6587615609169006,0.7874569296836853,0.4259147346019745
1782986991565340700,9.123340576171875,0.2504092752933502,-0.0038774432614445686,1.0731462240219116
1782986991575415800,9.133415771484374,0.07511191815137863,-0.5374123454093933,1.6609361171722412
1782986991585489700,9.14348974609375,0.21248522400856018,-0.5799307227134705,2.084763765335083
1782986991595563800,9.153563720703126,0.5806576609611511,-0.19488666951656342,2.2939114570617676
1782986991605638700,9.163638671875,0.9010423421859741,0.2927098870277405,2.3003594875335693
1782986991615712800,9.173712646484375,1.0222196578979492,0.8062320947647095,2.2260069847106934
1782986991625787600,9.18378759765625,0.9436529874801636,1.269653558731079,2.1446478366851807
1782986991635861800,9.19386181640625,0.7057828903198242,1.565415620803833,2.0069055557250977
1782986991645936600,9.2039365234375,0.41067561507225037,1.6310553550720215,1.7355847358703613
1782986991656010800,9.2140107421875,0.14260812103748322,1.445538878440857,1.320888876914978
1782986991666085600,9.224085693359376,-0.06764524430036545,0.9996484518051147,0.7890761494636536
1782986991676159700,9.23415966796875,-0.25579074025154114,0.40772584080696106,0.18716955184936523
1782986991686233900,9.24423388671875,-0.4398154318332672,-0.1092565655708313,-0.3553485572338104
1782986991696308700,9.254308837890624,-0.5551280975341797,-0.49690502882003784,-0.7518792152404785
1782986991706382800,9.2643828125,-0.609791100025177,-0.6982365250587463,-0.9350447654724121
1782986991716457700,9.274457763671874,-0.6181591153144836,-0.7160083651542664,-0.9388940930366516
1782986991726531800,9.28453173828125,-0.5846636891365051,-0.6262747645378113,-0.8600872159004211
1782986991736606700,9.294606689453126,-0.5330057740211487,-0.4826686382293701,-0.7573118805885315
1782986991746680800,9.304680908203125,-0.46753832697868347,-0.3713229298591614,-0.6639909744262695
1782986991756755700,9.314755615234375,-0.3504263162612915,-0.32760971784591675,-0.6127135753631592
1782986991766829800,9.324829833984374,-0.17036281526088715,-0.34157881140708923,-0.6056756377220154
1782986991776904700,9.33490478515625,0.013125058263540268,-0.40456414222717285,-0.6104966998100281
1782986991786978800,9.344978759765626,0.1863919198513031,-0.47731050848960876,-0.6121931672096252
1782986991797053000,9.355052978515625,0.30900636315345764,-0.5724667310714722,-0.606339693069458
1782986991807127800,9.3651279296875,0.3967441916465759,-0.6641117334365845,-0.5510567426681519
1782986991817202000,9.375201904296874,0.4451870918273926,-0.705094039440155,-0.46497589349746704
1782986991827276800,9.38527685546875,0.4276736080646515,-0.7057989835739136,-0.3622298240661621
1782986991837351000,9.395350830078126,0.3735043704509735,-0.6430299282073975,-0.22863243520259857
1782986991847425800,9.40542578125,0.29897046089172363,-0.5488488674163818,-0.07722053676843643
1782986991857500700,9.415500732421876,0.22216634452342987,-0.4563155174255371,0.01806223951280117
1782986991867575600,9.425575439453125,0.17393623292446136,-0.356950044631958,0.029695194214582443
1782986991877649700,9.435649658203126,0.14438313245773315,-0.3284464180469513,-0.03232201188802719
1782986991887723800,9.445723876953124,0.11231440305709839,-0.32576486468315125,-0.09511535614728928
1782986991897798700,9.455798583984375,0.082176573574543,-0.35055628418922424,-0.10958091169595718
1782986991907872800,9.465872802734374,0.06443779170513153,-0.3846721947193146,-0.03465074300765991
1782986991917947600,9.47594775390625,0.09150810539722443,-0.3439777195453644,0.13255612552165985
1782986991928021800,9.486021728515626,0.12920941412448883,-0.2577003538608551,0.3129653036594391
1782986991938096600,9.4960966796875,0.16251714527606964,-0.1694675087928772,0.4180873930454254
1782986991948170800,9.506170654296875,0.2399410903453827,-0.03371446579694748,0.4484631419181824
1782986991958245600,9.51624560546875,0.3222797214984894,0.19331613183021545,0.43021100759506226
1782986991968319700,9.52631982421875,0.4083693325519562,0.41800835728645325,0.43912461400032043
1782986991978394600,9.53639453125,0.5453400611877441,0.7525316476821899,0.42148080468177795
1782986991988468700,9.54646875,0.5903483033180237,1.0260478258132935,0.11722981184720993
1782986991998542800,9.55654296875,0.44029438495635986,0.9940925240516663,-0.7041783332824707
1782986992008617700,9.56661767578125,0.23899725079536438,0.9999620914459229,-1.566548228263855
1782986992018691800,9.57669189453125,0.1744384914636612,1.0208600759506226,-1.6498829126358032
1782986992028766700,9.5867666015625,0.1899130642414093,0.6673574447631836,-0.6439470052719116
1782986992038840800,9.5968408203125,0.23960569500923157,0.15380683541297913,0.590193510055542
1782986992048916000,9.606916015625,0.204398974776268,0.04419086501002312,0.9159524440765381
1782986992058989800,9.61698974609375,0.030796824023127556,0.13007284700870514,0.4399455487728119
1782986992069065000,9.62706494140625,-0.1504581868648529,0.16963569819927216,-0.21597638726234436
1782986992079138800,9.637138916015624,-0.19288428127765656,0.11926642060279846,-0.5106886029243469
1782986992089214000,9.6472138671875,-0.07757474482059479,0.03802189230918884,-0.1948874592781067
1782986992099287800,9.657287841796874,0.1624397188425064,0.06973197311162949,0.4909554421901703
1782986992109363000,9.667363037109375,0.45783570408821106,0.27517780661582947,1.064082384109497
1782986992119436800,9.677436767578126,0.6891313791275024,0.5843207240104675,1.3571929931640625
1782986992129510700,9.6875107421875,0.7221378087997437,0.7631139159202576,1.4397321939468384
1782986992139585800,9.697585693359375,0.6040416955947876,0.7379774451255798,1.5219895839691162
1782986992149659600,9.70765966796875,0.41972488164901733,0.6789559125900269,1.6757715940475464
1782986992159734800,9.71773486328125,0.20337161421775818,0.632347822189331,1.892689824104309
1782986992169808600,9.72780859375,0.007197577506303787,0.5328289270401001,2.0407145023345947
1782986992179883800,9.7378837890625,-0.14508488774299622,0.42554038763046265,1.8908474445343018
1782986992189957600,9.74795751953125,-0.2811274230480194,0.2335570901632309,1.3263832330703735
1782986992200032800,9.75803271484375,-0.39502787590026855,0.025501899421215057,0.39806753396987915
1782986992210106600,9.768106689453125,-0.48277080059051514,-0.1949271410703659,-0.6759374141693115
1782986992220181800,9.778181640625,-0.5575762987136841,-0.4566437005996704,-1.516398549079895
1782986992230255600,9.788255615234375,-0.6026705503463745,-0.7603268623352051,-1.9103041887283325
1782986992240329700,9.798329833984376,-0.5509293675422668,-0.8447213768959045,-1.8313788175582886
1782986992250404600,9.808404541015625,-0.42797067761421204,-0.7104754447937012,-1.3435475826263428
1782986992260478700,9.818478759765625,-0.30721086263656616,-0.5204492807388306,-0.6768601536750793
1782986992270553600,9.8285537109375,-0.21159566938877106,-0.4155425727367401,-0.1389697790145874
1782986992280627700,9.838627685546875,-0.14279048144817352,-0.3771950304508209,0.10483693331480026
1782986992290702600,9.84870263671875,-0.1112365573644638,-0.41184088587760925,0.07372695207595825
1782986992300776700,9.858776611328125,-0.11804953962564468,-0.4971741735935211,-0.11616179347038269
1782986992310851600,9.8688515625,-0.14283186197280884,-0.5518991947174072,-0.2877809405326843
1782986992320925700,9.87892578125,-0.15958517789840698,-0.5173652768135071,-0.36456072330474854
1782986992331000600,9.88900048828125,-0.14973628520965576,-0.42800208926200867,-0.3772115409374237
1782986992341074700,9.89907470703125,-0.16050858795642853,-0.3419979214668274,-0.3537202775478363
1782986992351148500,9.9091484375,-0.1830301433801651,-0.26719504594802856,-0.2657185196876526
1782986992361223700,9.9192236328125,-0.2168169766664505,-0.18490667641162872,-0.1332482099533081
1782986992371297500,9.929297607421875,-0.253303587436676,-0.1416928917169571,-0.02593693695962429
1782986992381372700,9.93937255859375,-0.2987976670265198,-0.130559042096138,0.030694089829921722
1782986992391446500,9.949446533203124,-0.33304351568222046,-0.15349870920181274,0.04210679978132248
1782986992401521700,9.959521728515625,-0.35575592517852783,-0.18635064363479614,0.013345754705369473
1782986992411595500,9.969595458984376,-0.35140326619148254,-0.22517499327659607,0.0054545411840081215
1782986992421670700,9.979670654296875,-0.32244065403938293,-0.2946249544620514,0.03835652396082878
1782986992431744500,9.98974462890625,-0.29355815052986145,-0.33701634407043457,0.08899946510791779
1782986992441819600,9.999819580078125,-0.26390910148620605,-0.3195560872554779,0.1572248935699463
1782986992451893500,10.0098935546875,-0.23269125819206238,-0.31605643033981323,0.24414567649364471
1782986992461967600,10.019967529296874,-0.21482518315315247,-0.3368038833141327,0.36320674419403076
1782986992472042500,10.03004248046875,-0.19895300269126892,-0.3496645390987396,0.4715212285518646
1782986992482116600,10.04011669921875,-0.13288389146327972,-0.3439709544181824,0.519874095916748
1782986992492191500,10.05019140625,-0.04458332061767578,-0.32307446002960205,0.48730313777923584
1782986992502265600,10.060265625,0.08725513517856598,-0.3272959291934967,0.4279941916465759
1782986992512340500,10.070340576171875,0.20503954589366913,-0.2601933181285858,0.5204067230224609
1782986992522414600,10.08041455078125,0.21615470945835114,-0.22414232790470123,0.7568808197975159
1782986992532489500,10.090489501953124,0.1885896623134613,-0.15352541208267212,1.035498023033142
1782986992542563600,10.1005634765625,0.057112328708171844,-0.2142547070980072,1.1333885192871094
1782986992552638500,10.110638427734376,-0.12468995898962021,-0.4747403562068939,0.7176082730293274
1782986992562712600,10.120712646484375,-0.21175329387187958,-0.43486133217811584,0.04610880836844444
1782986992572786700,10.13078662109375,-0.14646244049072266,-0.1408020257949829,-0.4953262209892273
1782986992582861600,10.140861572265624,-0.008530869148671627,0.1513708531856537,-0.8014514446258545
1782986992592935700,10.150935791015625,-0.012525077909231186,0.25347378849983215,-1.1176655292510986
1782986992603010600,10.161010498046876,-0.0873417854309082,0.48582908511161804,-1.6196800470352173
1782986992613084700,10.171084716796875,-0.09542874246835709,0.74275141954422,-2.0032265186309814
1782986992623159600,10.18115966796875,-0.046566057950258255,0.5747040510177612,-1.683034896850586
1782986992633233700,10.191233642578124,0.06321663409471512,0.0004692482762038708,-0.6362413763999939
1782986992643308500,10.20130859375,0.2218596488237381,-0.46667003631591797,0.5674586296081543
1782986992653382700,10.211382568359374,0.40588727593421936,-0.46350833773612976,1.4353694915771484
1782986992663457500,10.22145751953125,0.5478108525276184,0.014303778298199177,1.8784143924713135
1782986992673531600,10.23153173828125,0.6314541101455688,0.6425725221633911,1.974043607711792
1782986992683605800,10.241605712890625,0.6779022216796875,1.1834710836410522,1.8505825996398926
1782986992693680600,10.2516806640625,0.6329874396324158,1.416581392288208,1.7359737157821655
1782986992703754800,10.261754638671874,0.49944666028022766,1.2463436126708984,1.670632243156433
1782986992713829600,10.27182958984375,0.327900767326355,0.9046509861946106,1.4147213697433472
1782986992723903700,10.28190380859375,0.19752581417560577,0.5208261013031006,0.7469703555107117
1782986992733978600,10.291978515625,0.01987113058567047,0.16504615545272827,-0.2505382299423218
1782986992744052700,10.302052734375,-0.22509725391864777,-0.1557171791791916,-1.0965746641159058
1782986992754127600,10.312127685546875,-0.40192291140556335,-0.38220810890197754,-1.4228681325912476
1782986992764201700,10.32220166015625,-0.49825069308280945,-0.5102143287658691,-1.2804151773452759
1782986992774276600,10.332276611328124,-0.5305537581443787,-0.49723944067955017,-0.8619507551193237
1782986992784350700,10.342350830078125,-0.5435212850570679,-0.4635961055755615,-0.41763678193092346
1782986992794424600,10.352424560546876,-0.5375893712043762,-0.4987484812736511,-0.16383089125156403
1782986992804499700,10.362499755859375,-0.5063481330871582,-0.5057249069213867,-0.15297798812389374
1782986992814573600,10.372573486328125,-0.4661969542503357,-0.40688860416412354,-0.30027979612350464
1782986992824648700,10.382648681640624,-0.42026063799858093,-0.2632155120372772,-0.487034410238266
1782986992834722600,10.39272265625,-0.37493735551834106,-0.1018228828907013,-0.6188547611236572
1782986992844797700,10.402797607421874,-0.3430161774158478,-0.013428663834929466,-0.6679430603981018
1782986992854871600,10.41287158203125,-0.3253929615020752,-0.03362314775586128,-0.6640790700912476
1782986992864946700,10.42294677734375,-0.33628591895103455,-0.12323694676160812,-0.6228024959564209
1782986992875020800,10.433020751953125,-0.35479170083999634,-0.20372672379016876,-0.5226449966430664
1782986992885095700,10.443095703125,-0.36184924840927124,-0.25864091515541077,-0.396200567483902
1782986992895169800,10.453169677734374,-0.3445269763469696,-0.2856738567352295,-0.30388420820236206
1782986992905243600,10.46324365234375,-0.2972992956638336,-0.3135359287261963,-0.26505303382873535
1782986992915318800,10.47331884765625,-0.24372553825378418,-0.3692165017127991,-0.26704132556915283
1782986992925392600,10.483392578125,-0.19596919417381287,-0.40046197175979614,-0.26707348227500916
1782986992935467800,10.4934677734375,-0.15098494291305542,-0.4100671708583832,-0.2341003566980362
1782986992945541600,10.503541748046874,-0.17175719141960144,-0.4731786251068115,-0.15716280043125153
1782986992955616800,10.51361669921875,-0.24192722141742706,-0.55652916431427,-0.038233477622270584
1782986992965690600,10.523690673828124,-0.3080584406852722,-0.5590956211090088,0.12134074419736862
1782986992975765800,10.533765869140625,-0.3735101521015167,-0.5266698002815247,0.30283835530281067
1782986992985839600,10.543839599609376,-0.4109746217727661,-0.5038337707519531,0.4656951129436493
1782986992995914800,10.553914794921875,-0.42025813460350037,-0.42703166604042053,0.6565284729003906
1782986993005988600,10.563988525390625,-0.40010929107666016,-0.2991008758544922,0.7473340034484863
1782986993016062700,10.574062744140624,-0.30452629923820496,-0.1350986361503601,0.7436431050300598
1782986993026137600,10.5841376953125,-0.21524390578269958,0.08251425623893738,0.7543163895606995
1782986993036211700,10.594211669921876,-0.21291577816009521,0.09256928414106369,0.8074731230735779
1782986993046286600,10.60428662109375,-0.28856852650642395,-0.06038380414247513,0.8891194462776184
1782986993056360700,10.614360595703126,-0.42198917269706726,-0.22876137495040894,0.8274717926979065
1782986993066435600,10.624435546875,-0.5930705070495605,-0.44754815101623535,0.3990926742553711
