time,seconds_elapsed,z,y,x
1782987325328944000,0.071944091796875,0.06646832216382026,0.015956826533935962,-0.003881207081209868
1782987325339018000,0.08201806640625,0.058087447309494014,0.017690792453382162,0.007085935106384568
1782987325349092000,0.092092041015625,0.06242693781852722,0.013333985483366995,-0.0028890999044757335
1782987325359167000,0.1021669921875,0.07693769372999668,0.003455455949809402,0.008269354470982216
1782987325369241300,0.112241455078125,0.051346740877628326,-0.002055726953409612,0.01622797619209159
1782987325379315200,0.122315185546875,0.05538286452591419,0.006754698424600064,-0.0056634782549459485
1782987325389390300,0.132390380859375,0.06301087518632412,0.0055478799181059,0.010876810722751542
1782987325399464200,0.142464111328125,0.06390753176510333,0.0029704123792238532,0.010071503955544903
1782987325409539300,0.152539306640625,0.0645060821801424,0.002662990397866815,-0.008472334263753146
1782987325419613200,0.16261328125,0.06331073491573333,-0.0011170213311910628,-0.0017938611468300222
1782987325429687000,0.17268701171875,0.06854805104732513,0.013246690792404115,-0.005491925646900199
1782987325439762700,0.1827626953125,0.07094225270748138,0.008921557602286339,0.0010551076766569167
1782987325449836500,0.19283642578125,0.07168927168250083,0.014723302683606743,0.009426680413098075
1782987325459910400,0.202910400390625,0.07797872721552848,0.011929032322578132,0.02693021123264916
1782987325469985500,0.212985595703125,0.06256605402827263,0.008241502916254103,0.009080465357890352
1782987325480059400,0.223059326171875,0.07229600540399551,0.007355148535780608,0.0051345590100158
1782987325490134500,0.233134521484375,0.0663099167317152,0.021658490507956592,-0.010619310564035549
1782987325500208400,0.24320849609375,0.05942600243687629,0.01248151510618627,-0.016484663500054737
1782987325510282500,0.253282470703125,0.04505845438838005,0.010458356981817633,0.011585401950101368
1782987325520357600,0.263357666015625,0.06825637462437152,0.007978468065895139,0.013355580827244556
1782987325530431500,0.273431396484375,0.05583353090286255,0.005931910799629986,0.009234505142131819
1782987325540506600,0.283506591796875,0.08456219725906848,0.008721925110649316,0.010458745140885002
1782987325550580500,0.29358056640625,0.08486264151036739,0.021937965036462993,0.008966693651955574
1782987325560654300,0.303654296875,0.061220484638214105,0.015527403874415903,-0.00798750988887623
1782987325570729500,0.3137294921875,0.07558452555537223,0.005726067762915045,0.02030618084985763
1782987325580803300,0.32380322265625,0.06211714121699333,0.014542977680638431,0.0013561912487726657
1782987325590878500,0.33387841796875,0.07004618065059184,0.016259060883522032,0.00018736666510812936
1782987325600952300,0.343952392578125,0.07033961063921451,0.012732567257806658,0.005282223852397874
1782987325611026400,0.3540263671875,0.06315642113685607,0.020184052307531238,0.005018307652627118
1782987325621101300,0.364101318359375,0.06869242795407772,0.021644206254277376,0.010618753441609442
1782987325631175400,0.374175537109375,0.056419221836328505,0.00879824174987152,-0.00987744725474622
1782987325641250600,0.38425048828125,0.04654080190062523,0.013581530503649264,0.00016242402009665965
1782987325651324400,0.394324462890625,0.0570119270324707,0.012689568366296589,-0.00047903395490720866
1782987325661398500,0.4043984375,0.04234510377645492,0.028132600159198044,0.017080633798940106
1782987325671473400,0.414473388671875,0.047127661877870555,0.012646551208477467,-0.0009221472130622714
1782987325681547500,0.424547607421875,0.05056874224245548,0.029496947314962742,-0.006010798421851359
1782987325691621600,0.43462158203125,0.06852583921551704,-0.0011865977023728191,0.010684000697545706
1782987325701696500,0.444696533203125,0.06552958000898361,-0.00789468050627038,0.023605806917138396
1782987325711770600,0.4547705078125,0.07390753225386143,0.008188384489528834,-0.0010424947902560233
1782987325721845500,0.464845458984375,0.06896890680789947,0.02219360203165561,-0.007122079565422609
1782987325731919600,0.474919677734375,0.04727145426273346,0.014399623687192796,0.010817901876056565
1782987325741993500,0.484993408203125,0.056548985695838924,0.01991760165737942,0.007153835543710738
1782987325752068600,0.495068603515625,0.06567571048140526,0.013435966286808251,0.001087808936438523
1782987325762142500,0.505142578125,0.06881751563847065,0.014010971429478377,-0.007511791269062086
1782987325772217600,0.515217529296875,0.059091655915975566,0.017167115639150143,0.002345270784781314
1782987325782291500,0.52529150390625,0.060441316959261894,0.012534597000293433,-0.006409944674116559
1782987325792365600,0.535365478515625,0.07001637003421783,0.009915007352735847,-0.004203187310881913
1782987325802440400,0.5454404296875,0.07824702276289462,0.0076911755571141835,0.010194312917883508
1782987325812514600,0.5555146484375,0.08063713276982307,0.010809782501682639,0.0014893252423033116
1782987325822589400,0.56558935546875,0.06013678105473518,0.012905841465480624,0.006713357200636528
1782987325832663600,0.57566357421875,0.0718085141479969,0.005704367387760431,0.007223708742414601
1782987325842737400,0.5857373046875,0.06761807672083378,0.018110369572322815,0.01814197942013852
1782987325852812500,0.5958125,0.07764204260706901,0.003499843080807477,0.018465507719502783
1782987325862886400,0.605886474609375,0.06507189936935902,0.010783716478664428,0.005737155412510037
1782987325872960500,0.61596044921875,0.054144847163558,0.005422499972768127,0.0017429164108820258
1782987325883035400,0.626035400390625,0.05354454318284988,0.013257340050581842,0.018876029315730555
1782987325893109500,0.636109619140625,0.06013035131394863,0.004654365144483745,0.008359850332606583
1782987325903184400,0.646184326171875,0.06821078191697597,0.01816209975956008,0.00790714726219885
1782987325913258500,0.656258544921875,0.053092123240232464,0.015268917335011064,-0.013095911544328554
1782987325923332400,0.666332275390625,0.05847498532235622,0.016904190386645496,-0.011418520950595848
1782987325933407500,0.676407470703125,0.08151742273569107,0.0038465924255549904,0.019390691706445067
1782987325943481300,0.6864814453125,0.06969488299489021,0.0004753258941695094,0.007062453766097314
1782987325953556500,0.696556396484375,0.056526189342141146,0.006001815964374691,0.02136053504126612
1782987325963630300,0.70663037109375,0.06535188535451888,0.008278912317194045,0.002605355626228265
1782987325973704700,0.71670458984375,0.05786942064464092,0.0010909005092456937,0.008672765906411223
1782987325983779300,0.726779296875,0.06385434027314185,0.005121069340780377,-0.004280015406757593
1782987325993853700,0.736853759765625,0.05726677857637405,0.025617767794057725,-0.0020223772396566345
1782987326003928300,0.74692822265625,0.047236382949352264,0.0031261509302072227,0.002765861683874391
1782987326014002700,0.757002685546875,0.06639233431816101,0.0017319383591413496,-0.0023750129024963824
1782987326024076500,0.76707666015625,0.06893675810396671,-0.0017908837384544311,-0.004152790564205497
1782987326034151700,0.777151611328125,0.07013268989026546,-0.006490348399989306,-0.0028151350525440644
1782987326044225500,0.7872255859375,0.07985913413465022,0.004115253299102187,0.0031580895715858787
1782987326054299600,0.797299560546875,0.049182840842008586,0.01531971594048664,0.01668902696573641
1782987326064374500,0.80737451171875,0.050825931873917575,0.00683682375010103,-0.0005973950709914788
1782987326074448600,0.81744873046875,0.05965045884251594,-0.002012435800954699,-0.011605051932064816
1782987326084523500,0.8275234375,0.061301148658990855,0.02048908140240237,0.005022600235254504
1782987326094597600,0.83759765625,0.05696048910617828,0.00844542799051851,-0.00522228295924142
1782987326104671500,0.84767138671875,0.06174830790460109,0.007979198718257249,0.01302286000784952
1782987326114746600,0.85774658203125,0.04842997664809227,0.00523585482686758,0.0027912746863439676
1782987326124820500,0.867820556640625,0.0565109917730093,-0.00011463935561478137,-0.0060492992347572
1782987326134895600,0.8778955078125,0.057255672660470006,0.005281191805936396,0.010328739252779632
1782987326144969500,0.887969482421875,0.060550038030743596,0.004474971723277122,-0.0007034994937013834
1782987326155043600,0.898043701171875,0.06713000094294548,0.018236096577532588,0.0032950229573994873
1782987326165118500,0.908118408203125,0.08059504719376563,0.011253197153937071,0.010393767313007264
1782987326175192600,0.918192626953125,0.07071721177995205,0.0068367872174829245,-0.002710510200867429
1782987326185267500,0.928267333984375,0.05426175154149532,-0.0035895123919472095,0.012690650645107961
1782987326195341600,0.938341552734375,0.06278992591202259,-0.0024252543855458495,0.01998139217516873
1782987326205415400,0.94841552734375,0.05875380226373672,-0.0005937463757582008,0.0014163102384423837
1782987326215490600,0.958490478515625,0.06503799709975719,-0.0015375300318934023,0.0015860727482009678
1782987326225564400,0.968564453125,0.07536357628107071,0.012220361685659736,-0.0006347953387768939
1782987326235639600,0.9786396484375,0.06578384703099727,0.011951481616403907,-0.006030037411861121
1782987326245713400,0.98871337890625,0.06069032328426838,0.015464439907111226,-0.0032876525016967205
1782987326255787500,0.99878759765625,0.05635024825334549,-0.006717435154132544,0.013957962600607424
1782987326265862400,1.0088623046875,0.05276186837255954,-0.0016963738554157317,0.015420148674235678
1782987326275936500,1.0189365234375,0.069072367182374,0.013747114595212042,0.01459026002162136
1782987326286010600,1.0290107421875,0.0638350510507822,0.01433463215958327,0.009838480650959536
1782987326296085500,1.03908544921875,0.05859948848485946,0.0024268070218153295,-0.0048750130246859045
1782987326306159600,1.04915966796875,0.06727788498103618,0.006722038264013826,-0.010210186340450308
1782987326316234500,1.059234375,0.06637596770524978,0.005496898649539798,0.003361347925569862
1782987326326308600,1.06930859375,0.0563496637314558,-0.0008996887860819696,-0.00880682234854903
1782987326336382500,1.079382568359375,0.07475567351579665,-0.006557221357431263,-0.0010669807775411755
1782987326346457600,1.08945751953125,0.06892039149105549,0.008857205395493655,0.00585835237307474
1782987326356531500,1.099531494140625,0.06098842944800854,0.010159848959278314,0.0040641943987226115
1782987326366606600,1.109606689453125,0.06816986538469791,0.01551441652867943,-0.0005217771180905401
1782987326376680700,1.1196806640625,0.06008709669411182,0.004046864238008856,0.003428102152002975
1782987326386754600,1.129754638671875,0.04916004448831081,0.0010396269797347485,0.006393436497310176
1782987326396829700,1.13982958984375,0.06501812335550784,0.01168700372762978,0.0036671533385757354
1782987326406903600,1.149903564453125,0.056336804249882695,0.011135580389946699,0.004111915131122805
1782987326416978700,1.159978759765625,0.05603460643291473,0.010108995554875582,0.008588393824896774
1782987326427052500,1.170052490234375,0.06920154651999473,0.020674027781561015,0.0011255562640959396
1782987326437126000,1.1801259765625,0.056181321427226066,0.016250640115048735,0.012366423659422435
1782987326447201000,1.190200927734375,0.055578094837069505,0.007237568304408341,0.01323633379517123
1782987326457275100,1.200275146484375,0.06365501830875873,0.008022398539166897,0.006780417387746274
1782987326467349000,1.210348876953125,0.05662088188827037,0.0061950369815342125,-0.0002998049304820597
1782987326477424000,1.220424072265625,0.07113514493107795,0.005420034021046012,0.008819914725562558
1782987326487498000,1.230498046875,0.057962944146990776,0.007957991533447057,-0.0077739630363183095
1782987326497573000,1.240572998046875,0.0640963323354721,0.020798768406081945,-0.004074231735547073
1782987326507647000,1.25064697265625,0.05361994650661945,0.00773455804111436,-0.00835790497069247
1782987326517720800,1.260720947265625,0.04508475787341595,0.007645929909590631,-0.0004899161085253582
1782987326527796000,1.2707958984375,0.05645195506215095,0.014440065295435487,0.0013312166377203538
1782987326537869800,1.280869873046875,0.06019172611236572,0.006331029652431607,-0.011756753628747537
1782987326547945000,1.290945068359375,0.058097968703508376,-0.0021660919927060603,-0.010385894533805548
1782987326558018800,1.301018798828125,0.0548071104645729,0.0032432927701622244,0.02413415990648791
1782987326568093200,1.31109326171875,0.053310734426975245,-0.00018078166069462895,-0.006761429559485986
1782987326578168000,1.32116796875,0.06557984889149665,0.011455752255022525,-0.006838860443560406
1782987326588242200,1.3312421875,0.05973989069163799,0.0006590666969306766,0.0040920413868734615
1782987326598317000,1.341317138671875,0.07036123794913292,0.011150229969806968,-0.005436546764429658
1782987326608391200,1.35139111328125,0.06287935776114463,0.002171644950658083,0.008332405203254893
1782987326618465000,1.361465087890625,0.06018412732779979,0.002118015067279339,0.004990748358843848
1782987326628540200,1.3715400390625,0.04911094464957714,0.010197057430818677,0.00560979813921731
1782987326638614000,1.381614013671875,0.07006079369783401,0.0015467545179650188,0.00626099205694627
1782987326648688000,1.391688232421875,0.06750994017124176,0.0081631769830361,0.0034994412220083174
1782987326658763000,1.401762939453125,0.05912906531691551,0.0037324827929027375,0.000008498400286771356
1782987326668837000,1.411837158203125,0.058981765800714486,0.0038460444362834094,0.011995667818002402
1782987326678912000,1.421912109375,0.06616437078118324,-0.003211034468375146,-0.008155158073361963
1782987326688986000,1.431986083984375,0.07768763531446457,-0.006598813743144274,0.0016763905133120715
1782987326699060000,1.44206005859375,0.06676818189322949,0.009707246353570372,0.00853834413809236
1782987326709135000,1.452135009765625,0.06422492715120315,-0.0017732932828366755,0.012843845612555742
1782987326719209000,1.462208984375,0.07395254043936729,0.007108443765714764,-0.008858931561699137
1782987326729284000,1.4722841796875,0.074100424477458,0.010487674407847225,0.0020198473558528346
1782987326739358000,1.48235791015625,0.06048223349153995,0.009401194345392286,0.0064680132705951104
1782987326749432000,1.49243212890625,0.07170622281730174,0.002287910007778555,0.007250943809212185
1782987326759507000,1.5025068359375,0.06287935776114463,0.01164285405864939,0.009739061697362921
1782987326769581000,1.5125810546875,0.06467559352815151,0.0023998642159625888,0.005292640215135179
1782987326779656000,1.522656005859375,0.07634732662141322,0.0037460729268379506,-0.0005284945532446726
1782987326789730000,1.53272998046875,0.0709586193203926,-0.0030455234420485792,-0.01062590926818084
1782987326799804000,1.542803955078125,0.0702092622578144,0.015735420601908117,-0.010406220369203948
1782987326809879000,1.552879150390625,0.07020867773592472,0.007800682079885155,0.008799429059959948
1782987326819953000,1.562952880859375,0.05524433283805847,0.00955581865152344,0.002670255822292529
1782987326830027000,1.573027099609375,0.0636217005610466,0.0019906988931819797,-0.007246272200671955
1782987326840102000,1.583101806640625,0.06437047310173512,-0.002899045909754932,-0.012729183424054644
1782987326850176000,1.593176025390625,0.06512216825187206,0.008919256047345697,0.0013711148232687263
1782987326860251000,1.6032509765625,0.05345043515861034,0.0012881766470149159,0.012686463093757629
1782987326870325000,1.613324951171875,0.058088616353273385,0.001270038202125579,0.007780255779786967
1782987326880399000,1.623399169921875,0.06481763234734535,0.004066080395132303,0.005234649250470101
1782987326890474000,1.633473876953125,0.05778349592685699,-0.005850424794945865,0.006060259020188823
1782987326900548000,1.643548095703125,0.05718436098992824,-0.010823354369308799,-0.012803002145513892
1782987326910623000,1.653623046875,0.057038815039396285,0.004439370686933398,0.011900052823266014
1782987326920697000,1.663697021484375,0.05749415759146213,0.017091109527181833,-0.0006014410584466532
1782987326930771200,1.673771240234375,0.05330255112051963,0.020613621097523717,0.011480320440698414
1782987326940846000,1.68384619140625,0.06617196956574917,-0.012271379486843943,0.013086577460402623
1782987326950920200,1.693920166015625,0.0552472554475069,0.00278460748353973,-0.016030037900619208
1782987326960995000,1.7039951171875,0.062280807346105575,0.01599872944690287,0.009892083134874701
1782987326971069200,1.714069091796875,0.06033727206289768,0.006649831544328481,0.007184459010837599
1782987326981143000,1.72414306640625,0.05106149419546127,0.00250451190052554,0.01015807256072294
1782987326991218200,1.73421826171875,0.05764087258577347,0.0030709136116318404,-0.006533794816071167
1782987327001292000,1.7442919921875,0.05389584083855152,0.00018584142830222844,0.020402782225282863
1782987327011366100,1.7543662109375,0.05449439125359058,0.00007080021388828753,-0.004512234993744642
1782987327021441000,1.76444091796875,0.07050503033399581,0.006940631184447556,-0.0032084315193351355
1782987327031515100,1.77451513671875,0.07184884615838527,-0.013263240068405865,-0.0019696561051532626
1782987327041590000,1.784590087890625,0.06451368096470833,-0.008578242323640734,0.009234272246691398
1782987327051664100,1.7946640625,0.06989478948116302,0.00034371713744476434,0.006520862269261851
1782987327061738000,1.804738037109375,0.067947747066617,0.0011782317328266798,0.0033264136095065623
1782987327071813000,1.814813232421875,0.06256196237504481,-0.004017820806615054,0.0005214574576821178
1782987327081887000,1.824886962890625,0.06226385621130466,-0.00009228139333426951,0.007620895933033898
1782987327091962000,1.834962158203125,0.06450666670203209,0.01787027720613405,0.009774763198406434
1782987327102036000,1.845035888671875,0.08320084577798843,0.0024854784064926205,0.021879289085208437
1782987327112110000,1.855110107421875,0.053720484271645545,-0.0017895137652754784,0.01591318832160905
1782987327122185000,1.86518505859375,0.07541384516358375,-0.0000481682569719851,-0.003628707324597053
1782987327132259000,1.875259033203125,0.07197276479899883,0.01687087263893336,-0.012836817650147714
1782987327142334000,1.885333984375,0.055960372152924535,0.009326868733856826,0.016897532316995784
1782987327152408000,1.895407958984375,0.06074760642945766,0.0020185184818692506,0.007591747470363043
1782987327162482000,1.90548193359375,0.050126259171962735,0.013548523283191024,-0.0014655242416076362
1782987327172557000,1.91555712890625,0.07227671618163585,0.017016875247191636,-0.004648538191895932
1782987327182631000,1.925630859375,0.053425885239243506,0.016055044477712364,-0.017177226041210813
1782987327192705300,1.935705322265625,0.08649228853881359,0.005615173000656068,-0.020779547682381234
1782987327202780000,1.94577978515625,0.06853402252197265,0.0023468371207825836,0.020446388471568933
1782987327212854300,1.955854248046875,0.05940086799561977,-0.009506810144335031,0.013106318773911333
1782987327222929000,1.965928955078125,0.05700608181357383,0.006926456528622657,0.010785698373196645
1782987327233003300,1.976003173828125,0.05386310761272907,0.0035095059582963585,-0.005043163532670587
1782987327243077000,1.9860771484375,0.06972469361126422,-0.0014263430086895823,0.006523597649042494
1782987327253152300,1.99615234375,0.0465332031160593,-0.00016151070464402435,0.0023856849935604257
1782987327263226000,2.00622607421875,0.06493921290040015,0.010604578785784542,-0.00808685121065937
1782987327273301200,2.01630126953125,0.06943009457886219,0.003013301672879606,0.020364057650091125
1782987327283375000,2.026375,0.06074760642945766,-0.00845406795470044,-0.008147536455909722
1782987327293449000,2.036448974609375,0.061796238699555396,0.0037202626321464773,0.0028557410575682294
1782987327303524000,2.046524169921875,0.06568798544108867,0.007078907143976539,-0.0018002954541938379
1782987327313598000,2.056597900390625,0.07122808391153812,0.005115717312227934,0.008000684464280493
1782987327323673000,2.066673095703125,0.07556874346435069,-0.0022946320095099506,-0.002689800772978924
1782987327333747200,2.076747314453125,0.058062312868237494,0.01945917209908366,0.017618293472751973
1782987327343821000,2.086821044921875,0.05461889441609382,0.006113076052814722,0.015490021872939541
1782987327353896200,2.096896240234375,0.06344868208169936,-0.014466989834979176,-0.0031582768012536687
1782987327363970000,2.106969970703125,0.05956278055906295,0.012320205330941825,0.004005646311631426
1782987327374044000,2.1170439453125,0.059713002684712406,0.0032124227078631517,0.0030750600637868045
1782987327384119000,2.127119140625,0.06016250001788139,0.0003819667886011302,-0.0027554224882507697
1782987327394193000,2.13719287109375,0.06180792913734912,0.0024734409088268874,0.008987325448030605
1782987327404268000,2.14726806640625,0.05402794278562069,-0.0030116211724467573,0.002803362416359596
1782987327414342000,2.157341796875,0.07273322777748108,-0.00373600819054991,-0.0034758411507122217
1782987327424416000,2.167416015625,0.07512626039385795,-0.0024060747610405086,0.015584828583500347
1782987327434491100,2.1774912109375,0.06899287220537662,0.0024351547250524162,0.0039916497523197906
1782987327444565000,2.18756494140625,0.06195932030677795,0.0007716054270043969,0.010198276706947944
1782987327454640000,2.19764013671875,0.07976561063230037,-0.0035849275483749803,0.0007808162133442237
1782987327464714000,2.2077138671875,0.061361354413628576,0.009623568391799927,-0.02272288660276681
1782987327474788000,2.2177880859375,0.057769467401504515,0.0015337489059194921,-0.011133931855554691
1782987327484863000,2.227863037109375,0.0609159487336874,0.005580814073327929,0.00019072309939656404
1782987327494937000,2.23793701171875,0.0482020131111145,-0.0045015674692578615,0.0060816945338621736
1782987327505012200,2.24801220703125,0.048500119274854654,0.001026383905671537,-0.010198537001851946
1782987327515086000,2.258086181640625,0.05089490545690059,0.008051807296741754,-0.009214471567678264
1782987327525160200,2.26816015625,0.07229308279454708,-0.0024186967805959283,-0.0012670105614000931
1782987327535235000,2.278235107421875,0.061819619575142856,0.014692925811652094,0.0021219240574166178
1782987327545309200,2.28830908203125,0.05837912373244762,0.0009816497148014604,-0.0013485970307840034
1782987327555384000,2.298384033203125,0.07095102053582668,-0.0002925714720971882,0.008848798326752148
1782987327565458200,2.308458251953125,0.05120002588331699,0.01605062403092161,0.004846239021350629
1782987327575532300,2.3185322265625,0.045962125229835504,-0.0025398937411606312,0.006976570147508755
1782987327585607200,2.328607177734375,0.06137655198276042,-0.0011181355760432779,0.013432390656811184
1782987327595681300,2.338681396484375,0.07858546093702316,0.008370937982201575,0.00941527310309466
1782987327605755100,2.348755126953125,0.0812801068484783,0.014524729637894779,0.016099216979579067
1782987327615830300,2.358830322265625,0.061978609529137606,-0.008602353851590305,-0.002433209363138303
1782987327625904000,2.368904052734375,0.06482347756624221,0.0047910884677432476,-0.0034917465393198652
1782987327635979300,2.378979248046875,0.0588373888939619,0.0034153248688206074,0.005665519514982589
1782987327646053000,2.38905322265625,0.06152794315218925,0.0001625153516419232,0.005439140580315143
1782987327656127200,2.399127197265625,0.06362520769238472,0.0029861579376272854,0.010301896911626682
1782987327666202000,2.4092021484375,0.06782090581655502,0.001009852895978838,0.008293858724576421
1782987327676276200,2.419276123046875,0.07275953126251697,0.020933318038564176,-0.001997850153176114
1782987327686351000,2.42935107421875,0.059440030962228774,-0.0011219715009443462,-0.010599423120054416
1782987327696425200,2.43942529296875,0.06467676257193088,0.0051347142736427485,0.0033339484619908035
1782987327706499000,2.4494990234375,0.06303074893057346,0.013174867665208876,0.013682643657410516
1782987327716574200,2.45957421875,0.05764145710766315,0.005868727636616677,0.0050758693590294566
1782987327726648000,2.46964794921875,0.071107087880373,-0.005584083742648363,-0.005078668670891784
1782987327736723200,2.47972314453125,0.05793780970573425,0.010974818603973835,0.017038210296165198
1782987327746797000,2.489797119140625,0.0742483085155487,0.0018606245064176619,-0.005128398697287775
1782987327756871200,2.49987109375,0.06332125630974769,0.0008529635675251484,0.013097660543420351
1782987327766946000,2.509946044921875,0.05449263768792152,-0.002418459318578243,0.0167019503793912
1782987327777020200,2.520020263671875,0.05643792653679847,0.005348740616813302,0.011463428671401925
1782987327787094000,2.530093994140625,0.05973112286329269,0.000015033172350376844,-0.004333599624363705
1782987327797169200,2.540169189453125,0.046263738524913785,-0.005215725354291498,0.0071643112719524645
1782987327807243000,2.550242919921875,0.06796236011385917,-0.00817978105796501,-0.0019781499388627707
1782987327817318100,2.560318115234375,0.0510515573233366,0.017493187522049994,0.00842604743661359
1782987327827392000,2.57039208984375,0.05329319877028465,0.004777480067498982,0.005027527572121471
1782987327837466000,2.580466064453125,0.06630699412226676,0.005697809782810509,0.006288017061189748
1782987327847541000,2.590541015625,0.06062134970128536,-0.004741933830082416,0.000977649393118918
1782987327857615400,2.600615478515625,0.042965866023302074,0.01656553301680833,-0.02065958826425485
1782987327867690000,2.61068994140625,0.0607762480020523,0.007712547138705849,-0.008456661770585924
1782987327877764400,2.620764404296875,0.061224576291441915,-0.005329999383725225,0.008972936163074336
1782987327887838200,2.630838134765625,0.051798576298356054,-0.011273198762349784,-0.006945764017291366
1782987327897913300,2.640913330078125,0.06601473317742347,0.00939905718723312,0.00637915224363096
1782987327907987200,2.6509873046875,0.07618599857985973,-0.009334558849968016,0.007786694653728045
1782987327918062300,2.661062255859375,0.06570961275100708,0.008393971797917038,0.01061170721289236
1782987327928136200,2.67113623046875,0.061516837236285205,0.00781226291982457,0.0003837842863518745
1782987327938210300,2.681210205078125,0.06031681379675865,0.01228904300769791,0.006020922523643821
1782987327948285200,2.69128515625,0.07079144605994224,0.0025625256980769335,0.006938169799302704
1782987327958359300,2.701359375,0.061816112443804735,0.003146864924672991,-0.008094080102466978
1782987327968433200,2.71143310546875,0.050744098809361454,-0.0017318835602141915,-0.00934306181683205
1782987327978508300,2.72150830078125,0.06825169844925404,-0.0030918833344243464,-0.0005620588961290196
1782987327988582100,2.73158203125,0.05583177733719349,0.0028820582423359155,-0.009621065907459706
1782987327998657300,2.7416572265625,0.07318798580765724,-0.012590491905994712,0.010802448578597978
1782987328008731100,2.751731201171875,0.07737608514726162,-0.010253408994246274,0.019055934193590654
1782987328018805200,2.76180517578125,0.06704641431272029,0.005702577289473265,-0.013674090458196586
1782987328028880100,2.771880126953125,0.07243336804807186,-0.0023606464504264293,-0.009528670349693857
1782987328038954200,2.781954345703125,0.05432429538369178,-0.004578651293460279,-0.020181933415681124
1782987328049029000,2.792029052734375,0.0353179816186428,-0.0037852541597560045,-0.005605094564636238
1782987328059103200,2.802103271484375,0.0526765281766653,0.004002860699500888,0.00898892831664998
1782987328069177000,2.812177001953125,0.06045534548461437,0.004196647972241044,0.011141567172738722
1782987328079252200,2.822252197265625,0.06554653114378452,0.009254826410952955,0.00807796921788249
1782987328089326000,2.832326171875,0.064200961753726,-0.004144424594659358,-0.008561551483743823
1782987328099401200,2.842401123046875,0.06764613377153873,-0.00029735724506899715,-0.0017010089313378557
1782987328109475000,2.85247509765625,0.0577700519233942,-0.005410681670811027,0.005555953626707196
1782987328119549200,2.862549072265625,0.07078852345049381,0.009252670986484735,0.011897879132488742
1782987328129624000,2.8726240234375,0.07258300565183162,-0.0033675767369568347,0.0024900769497966393
1782987328139698200,2.8826982421875,0.06854454391598701,0.008209609940648078,0.013609916347917169
1782987328149772300,2.892772216796875,0.055821255943179125,0.008030216519441455,0.003944034051196649
1782987328159847200,2.90284716796875,0.06808920136392116,-0.01274425769560039,-0.0030326913599390535
1782987328169921300,2.91292138671875,0.07227730070352553,-0.002665237153880298,0.023273360092379153
1782987328179996200,2.92299609375,0.06509001954793929,0.005052278420887887,0.014961235058750025
1782987328190070300,2.9330703125,0.05222001658082008,0.01082079708604142,0.02249668576461263
1782987328200144100,2.94314404296875,0.06792787332236766,-0.003704261345416307,0.0012133989443304017
1782987328210219300,2.95321923828125,0.06687982557415961,-0.00730641402322799,-0.0009744208229938521
1782987328220293000,2.963293212890625,0.05999298866987228,0.003322605084069073,-0.005856662739487365
1782987328230368300,2.9733681640625,0.06433481726646423,-0.00034426512671634554,0.007968627091892994
1782987328240442400,2.9834423828125,0.06463759960532188,0.009353409680910408,0.001874890493787825
1782987328250516200,2.99351611328125,0.0641921939253807,0.007579203082621097,-0.015053648882824927
1782987328260591400,3.00359130859375,0.06583353139162063,-0.007399060742743313,0.014321064858534372
1782987328270665200,3.013665283203125,0.07256546999514102,0.0007662899310700595,0.006185456302436068
1782987328280740400,3.023740234375,0.05969429798424244,-0.0047180780304595825,0.00044699484882876274
1782987328290814200,3.033814208984375,0.0520621956706047,0.001250548050366342,-0.004195378463761881
1782987328300888000,3.04388818359375,0.056552492827177045,-0.005418773645721376,0.003216098802560009
1782987328310963200,3.053963134765625,0.0646364305615425,0.011951445083785801,0.013686749010370113
1782987328321037000,3.064037109375,0.052666006782650945,0.003617679040506482,-0.00035116979153826833
1782987328331112200,3.0741123046875,0.055357730084657664,0.0075723166841082275,0.01192936111614108
1782987328341186000,3.08418603515625,0.0625409195870161,0.0001388422151096165,0.016646178771276027
1782987328351260200,3.09426025390625,0.07645546317100524,-0.0021698000534437593,0.008047391416528262
1782987328361335300,3.104335205078125,0.046532618594169614,0.007167206481937319,-0.00496514812670648
1782987328371409200,3.1144091796875,0.054012745216488835,0.010199432050995529,-0.005941162685165181
1782987328381483000,3.12448291015625,0.06897358298301696,0.003505505636613816,0.00017429255440365522
1782987328391558100,3.13455810546875,0.05595394241213798,0.008997015724983065,0.0037186049645999445
1782987328401632000,3.144632080078125,0.04862520695924759,-0.006850377351418137,0.020580088720680213
1782987328411707100,3.15470703125,0.04862286887168884,-0.0036509054566733535,0.0032106874085031448
1782987328421781000,3.164781005859375,0.0676256755053997,-0.0009828735575079918,0.007625567541574127
1782987328431855000,3.174855224609375,0.06987082408368588,-0.0011121624929830431,0.0021083613229449837
1782987328441930200,3.18493017578125,0.05835165120363235,-0.0018634923169389367,0.020818911578389814
1782987328452004400,3.19500439453125,0.06404080275595188,-0.0014381430443376302,0.012722297025541774
1782987328462079200,3.205079345703125,0.050123921084403986,-0.0015960004871711133,-0.009592045308952218
1782987328472153300,3.2151533203125,0.07301730541586876,0.011064487915113568,0.009147347448486835
1782987328482227200,3.225227294921875,0.06687865653038025,-0.0036022074767388403,-0.0018441756951157002
1782987328492302300,3.23530224609375,0.0676256755053997,-0.014704451852664351,0.008115269020968116
1782987328502376200,3.245376220703125,0.055951604324579234,0.014696268546208738,0.007284298089542425
1782987328512450600,3.255450439453125,0.051609775727987285,0.0023258856642991302,-0.000653098180447705
1782987328522525200,3.265525146484375,0.06507365293502808,0.012684472066070884,0.015343032883992417
1782987328532599600,3.275599609375,0.07614625109136104,0.0134659960988909,0.005146788303926586
1782987328542674200,3.285674072265625,0.07405190916061401,-0.004188081073295324,-0.015873577830428257
1782987328552748500,3.29574853515625,0.07285597737431526,0.015753230253234506,-0.011270970272645354
1782987328562822400,3.305822509765625,0.06836392665207386,-0.0027599479663185772,0.017167668194998986
1782987328572897500,3.3158974609375,0.057739656785130496,0.0025025026065297424,0.005530727853905409
1782987328582971400,3.325971435546875,0.061326867622137064,0.005947382363397628,-0.007789694894989952
1782987328593046500,3.336046630859375,0.05877893670499324,-0.014441617931704967,0.006329627713211812
1782987328603120400,3.346120361328125,0.07044891623258591,-0.00506296421168372,0.009664325093873776
1782987328613194500,3.356194580078125,0.055932899624109265,0.000996956881787628,-0.0033552424117689952
1782987328623269400,3.366269287109375,0.07403963420093058,-0.0039324075454846025,0.008459442816139199
1782987328633343500,3.376343505859375,0.06356675550341606,-0.0028171763125807046,0.0031494267745176326
1782987328643418400,3.38641845703125,0.05833294650316238,0.001222673662751913,-0.012523139457940122
1782987328653492500,3.396492431640625,0.052043490970134734,-0.0007832593321800232,-0.004708730246801861
1782987328663566300,3.40656640625,0.07209025369882584,0.006822046306077391,0.015699764766637234
1782987328673641500,3.416641357421875,0.07238952890634537,0.01732776782726869,-0.001181026478111744
1782987328683715300,3.42671533203125,0.06685761374235152,0.010190700755268334,-0.005849146153312176
1782987328693790500,3.43679052734375,0.07239771221280097,-0.013026070311665534,-0.022562759571033528
1782987328703864300,3.4468642578125,0.07045417692959308,0.001257562313042581,-0.003498527906555682
1782987328713938400,3.4569384765625,0.07404547941982746,-0.0006829042302444576,-0.005941724374168552
1782987328724013300,3.467013427734375,0.06641513067185878,0.006549476442392915,0.003526224197656847
1782987328734087400,3.47708740234375,0.07374854229986667,0.0015019472618587313,0.011700397498742677
1782987328744161300,3.487161376953125,0.059085226175189014,-0.009653598203882575,-0.0051453041663160545
1782987328754236400,3.497236328125,0.05429448476731777,0.005803644777461886,-0.004090187356504612
1782987328764310300,3.507310302734375,0.05653904882371425,0.013131375583354383,0.00710441147799138
1782987328774385400,3.517385498046875,0.04830839609503746,0.022076788985263555,-0.004813181568542495
1782987328784459300,3.527459228515625,0.06850538094937801,0.002916216240264475,0.0015779031414771452
1782987328794533400,3.537533447265625,0.07374094351530075,-0.001498750657774508,0.0009449800993781536
1782987328804608300,3.547608154296875,0.060572249862551684,-0.003024206659384072,0.0092594340874115
1782987328814682400,3.557682373046875,0.058922144567966454,-0.005592577576357871,0.013352073695906437
1782987328824757200,3.56775732421875,0.06715104373097419,0.0003457446977496147,-0.004893128636688925
1782987328834831400,3.577831298828125,0.052637949731945986,0.009955138433724642,0.001598735866951756
1782987328844905500,3.587905517578125,0.05503273591399192,0.014341189764533191,-0.0013562597474316134
1782987328854980400,3.59798046875,0.0818161134213209,-0.0005238046783953904,-0.018793967922311274
1782987328865054500,3.608054443359375,0.07268763507008552,-0.005184215971175581,0.017858563935454003
1782987328875129300,3.61812939453125,0.0512912112981081,0.0058239386468194425,0.0001799185775918886
1782987328885203500,3.628203369140625,0.07313830144703387,0.010895433224830775,0.0015873057240620254
1782987328895277300,3.63827734375,0.056526773864030835,-0.006686364162433892,0.014399135063425637
1782987328905352400,3.6483525390625,0.05727379283905029,-0.002534870506171137,0.004324037211574614
1782987328915426300,3.65842626953125,0.05473112261891365,-0.00441535049052909,0.00015170626325998455
1782987328925500400,3.66850048828125,0.0635644174158573,0.015529796760901807,0.006410090804588981
1782987328935575600,3.678575439453125,0.0565326190829277,0.0037794272071681916,0.002576773419138044
1782987328945649400,3.6886494140625,0.0454570983171463,-0.0073863473916426295,-0.0018210459812777115
1782987328955724500,3.698724609375,0.07134381924569606,-0.0037023981818929312,0.011636364952358416
1782987328965798400,3.70879833984375,0.055334349209070204,0.0033607451373711228,0.002987824738328345
1782987328975872300,3.718872314453125,0.06445990495085716,0.006859437440708279,0.014492882328061386
1782987328985947400,3.728947509765625,0.06550912174284458,-0.011773165907431393,0.0030355317709967492
1782987328996021200,3.739021240234375,0.052937809461355206,0.0042826640215702354,0.00985504819327034
1782987329006096400,3.749096435546875,0.05697744024097919,0.005753065367694944,0.0022810555753065274
1782987329016170200,3.759170166015625,0.06714987468719483,-0.0030298692151904103,-0.008444660805538295
1782987329026244400,3.769244384765625,0.05158931746184826,-0.0028442469825968146,-0.008609637542325072
1782987329036319200,3.7793193359375,0.0569768557190895,-0.012974997711554168,0.0022857454501558094
1782987329046393300,3.789393310546875,0.06296119082570076,-0.007931596716865897,-0.006251945667387918
1782987329056468500,3.799468505859375,0.06116553958058357,0.0038508667418733237,-0.0031210683297133073
1782987329066542300,3.809542236328125,0.0656564212590456,0.007184413345064968,0.004148634978896007
1782987329076616200,3.8196162109375,0.05772387469410896,0.0032558417244814334,0.008707512992806732
1782987329086691300,3.82969140625,0.06490764871835708,0.007804846798349171,0.0034372946720337494
1782987329096765200,3.83976513671875,0.06744973441660404,-0.003332907282374799,0.010583161538420245
1782987329106839300,3.84983935546875,0.07104279047250747,0.0015272095672786235,0.003111642914242111
1782987329116914200,3.8599140625,0.05772270565032959,0.018147632842790334,0.016658654660359023
1782987329126988300,3.86998828125,0.05726853214204311,0.00776338227679953,-0.008759284279239363
1782987329137063200,3.880063232421875,0.061010641279816626,0.0009353811539709567,-0.014307018066872842
1782987329147137300,3.89013720703125,0.05203238505423069,-0.0019014497071504592,0.006742071838467381
1782987329157211400,3.90021142578125,0.06131108553111553,0.00489668600037694,0.005586230033962056
1782987329167286300,3.910286376953125,0.07163374210298061,-0.0037582565549761056,-0.01693094139625318
1782987329177360400,3.9203603515625,0.07193301731050014,0.012301043972745536,-0.001797532674949616
1782987329187435300,3.930435302734375,0.05786532899141311,0.011771960331033915,0.009443366686417721
1782987329197509400,3.94050927734375,0.06414543217420578,-0.0044387861650437115,0.0037519135791575535
1782987329207583500,3.95058349609375,0.050530163797736165,-0.005155738795362412,0.0006417959017213433
1782987329217658400,3.960658447265625,0.06295183847546577,0.0034438568435609337,-0.013596280548209324
1782987329227732500,3.970732421875,0.06220657306611538,0.008363101735617965,-0.013874444469041191
1782987329237807400,3.980807373046875,0.06325520533621311,0.004373758104816079,-0.003896632979204878
1782987329247881500,3.990881591796875,0.04903554132580757,0.004533003787137568,0.01428409841558896
1782987329257955300,4.000955322265625,0.0684837536394596,0.0015011252779513597,0.008170063381548971
1782987329268030500,4.011030517578125,0.06369535031914711,-0.018059625765774398,0.0029821895819855853
1782987329278104300,4.021104248046875,0.05591536396741867,0.005905662113521248,0.00016362502991687505
1782987329288179500,4.031179443359375,0.05905600008070468,0.002561046127043664,-0.0030450302517041564
1782987329298253300,4.04125341796875,0.06504091970920563,0.002514558370504528,0.005166611815826036
1782987329308327400,4.051327392578125,0.06339549058973788,0.013298019120842218,0.008766956129041499
1782987329318402300,4.06140234375,0.06668751787245274,0.010021134608332068,-0.00020366934593766926
1782987329328476400,4.071476318359375,0.08733341553807258,0.002083309080079198,0.0005955136411590501
1782987329338550300,4.08155029296875,0.07970189774632454,-0.0001556106868200004,0.0032726923945825544
1782987329348625400,4.09162548828125,0.05516249977350235,0.011237926519569008,0.009218179628415963
1782987329358699300,4.10169921875,0.056658291289210315,-0.0003131028034724295,0.0023104186671087518
1782987329368774400,4.1117744140625,0.05486439360976219,-0.0256864491160959,-0.007188724194001406
1782987329378848300,4.12184814453125,0.05935819789767265,-0.008293105239327997,0.0036254056892357765
1782987329388922400,4.13192236328125,0.06698796212375163,0.0002963525980710983,0.015216648291656747
1782987329398997200,4.141997314453125,0.06863222219944,0.00903977715447545,0.014405870764888822
1782987329409071400,4.1520712890625,0.06803425630629062,-0.004271174513176083,-0.005005457304208539
1782987329419146200,4.162146240234375,0.07117898407280444,-0.0036030111943371594,0.01680106337231118
1782987329429220400,4.172220458984375,0.0698299075514078,-0.009986885278858245,0.0132897992817685
1782987329439294500,4.18229443359375,0.07087503269016743,0.004118833495676517,0.015216273832321166
1782987329449369600,4.19236962890625,0.0641442631304264,-0.0005272387444972992,0.008932275359123014
1782987329459443500,4.202443359375,0.05696516528129577,-0.0011408953971229494,0.005389163958746939
1782987329469518600,4.2125185546875,0.05861059440076351,-0.00743415032243356,0.005761440470395609
1782987329479592400,4.222592529296875,0.0710328536003828,-0.009451591092068702,-0.009296423363243229
1782987329489666800,4.232666748046875,0.06699146925508975,-0.009218056330829859,-0.010274081889516673
1782987329499741400,4.242741455078125,0.07641746924817562,-0.013740374327171593,-0.01247763351551257
1782987329509815800,4.25281591796875,0.07746259438693523,-0.002580499746184796,0.017351545995078047
1782987329519889700,4.2628896484375,0.07162497427463531,0.0016903094408102332,-0.0015329543214756994
1782987329529964800,4.27296484375,0.07476444134414195,0.004265639821533113,0.005905041059013455
1782987329540038700,4.28303857421875,0.08912965130507945,0.0020420272216200826,-0.003322253457619808
1782987329550113800,4.29311376953125,0.059951487615704534,0.002843972987961024,0.019390965701080856
1782987329560187600,4.303187744140625,0.05291735119521618,-0.00286824891269207,0.003646407378069125
1782987329570261800,4.31326171875,0.06832943986058235,-0.007547419704869389,-0.0038226772604277354
1782987329580336600,4.323336669921875,0.07416647545099259,-0.0049440505397506055,0.003502194868098013
1782987329590410800,4.33341064453125,0.06892857479751109,0.0008716134690679609,0.005131102111027575
1782987329600485600,4.343485595703125,0.07461188113093375,0.013359302587714046,0.0012326699003810061
1782987329610559700,4.353559814453125,0.06458791524469852,0.0007034538279287516,0.0018390108962310478
1782987329620633600,4.363633544921875,0.05964695171117782,0.008683291867002844,0.008667728971689938
1782987329630708700,4.373708740234375,0.06697919429540634,-0.0008993782588280737,-0.002251491554104723
1782987329640782600,4.383782470703125,0.06069733754694461,0.002612337922863662,0.006743081052042544
1782987329650857700,4.393857666015625,0.05186988796889782,0.01090126017741859,0.0025910576728172597
1782987329660931600,4.403931640625,0.07222294016778469,0.0029308475538156924,0.007233956141793169
1782987329671005700,4.414005615234375,0.07835749740004538,0.004886694329325109,0.011603878321708179
1782987329681080600,4.42408056640625,0.041544308787584305,0.015568977993819861,0.01218044523380231
1782987329691154700,4.43415478515625,0.05964812075495719,-0.006828823106735944,-0.0001994772280100733
1782987329701228500,4.444228515625,0.04932429513931274,-0.007841927405726165,0.0019253968383185565
1782987329711303700,4.4543037109375,0.06129588796198368,-0.009331764104682951,-0.004599735180684365
1782987329721377500,4.46437744140625,0.06398819578588008,-0.00518900174414739,0.012625302924471907
1782987329731452700,4.47445263671875,0.06293780995011329,-0.0042493280075490475,-0.014462793150474317
1782987329741526500,4.484526611328125,0.049318449920415876,0.0041870033610612156,0.00463246383992955
1782987329751600600,4.4946005859375,0.049614802518486975,0.004094868098199368,0.01019945031730458
1782987329761675500,4.504675537109375,0.06951251216530799,-0.003858666455838829,0.010430240565608255
1782987329771749600,4.51474951171875,0.061280690392851826,0.009683098293002694,0.00436780785464216
1782987329781824500,4.524824462890625,0.06277765095233917,-0.010613931136019527,0.008215847885189578
1782987329791898600,4.534898681640625,0.07295183896422386,0.0011636369518935679,0.006445353914215229
1782987329801972700,4.54497265625,0.07564590035378932,-0.0016590923186391591,0.0008880988129880278
1782987329812047600,4.555047607421875,0.0716039314866066,-0.009227956670336424,0.016428677262808195
1782987329822121700,4.565121826171875,0.07100187394022942,-0.008327117106784134,-0.01202588485975284
1782987329832196600,4.575196533203125,0.04870528645813465,0.007227722763828933,0.002725187180191278
1782987329842270700,4.585270751953125,0.06561316663920878,0.0061326575361192225,-0.009769475101935677
1782987329852344800,4.5953447265625,0.06336626449525357,0.005005315740313381,-0.0036388405595440417
1782987329862419700,4.605419677734375,0.053641573816537856,-0.005697864581737667,-0.004976290575228632
1782987329872493800,4.615493896484375,0.0597784691363573,-0.0034104842969216406,0.010035825287387706
1782987329882568700,4.625568603515625,0.06291910524964332,-0.00795059367828071,-0.007178527026972733
1782987329892642800,4.635642822265625,0.06606207945048809,-0.0022117577653378248,-0.008076407448458485
1782987329902716700,4.645716552734375,0.060524903589487075,-0.0010458192585036158,-0.001042458257637918
1782987329912791800,4.655791748046875,0.05019231014549732,-0.01842831294769421,-0.008910136592551134
1782987329922865700,4.66586572265625,0.06126081664860248,-0.007086432863306254,-0.006446038900804705
1782987329932939800,4.675939697265625,0.06395137090682983,-0.013663290502969175,-0.008756179006700403
1782987329943014700,4.6860146484375,0.04749006544947624,-0.003666212623659521,-0.004315287649538368
1782987329953088800,4.6960888671875,0.056018824341893196,0.006796948397438973,-0.0018194065800402313
1782987329963163600,4.70616357421875,0.06679156276881694,-0.007979673642292618,0.005152491958928294
1782987329973237800,4.71623779296875,0.05916238306462764,-0.00041124768201261755,-0.00809427189871203
1782987329983311600,4.7263115234375,0.06500175674259662,0.007787749533075839,-0.014593593623023478
1782987329993386800,4.73638671875,0.05707213278710842,-0.011145754724089055,0.022466729017766193
1782987330003460600,4.746460693359375,0.059165305674076074,-0.006100983756221831,0.021009009056701323
1782987330013535700,4.75653564453125,0.07562310400009155,0.0008467347561381756,-0.0005039857330732048
1782987330023609600,4.766609619140625,0.07457447172999382,-0.009817446996085345,-0.004728001202852465
1782987330033683700,4.77668359375,0.07995908737778663,0.00011321458350867033,0.010824185486370697
1782987330043758600,4.786758544921875,0.060654667448997494,-0.0002070303468033671,-0.001702570700761862
1782987330053832700,4.796832763671875,0.06873568257391452,-0.005105743907485157,0.0015392972972942515
1782987330063907600,4.806907470703125,0.06319850671291351,-0.010349745508190244,-0.00033716866564936933
1782987330073981700,4.816981689453125,0.0732248106867075,0.0032952604194171724,-0.0015941555899567901
1782987330084055600,4.8270556640625,0.06768763482570647,0.0016494659737683831,0.0010039528781548143
1782987330094130700,4.837130615234375,0.07815525282621383,-0.007258775489218532,0.007527203467325307
1782987330104204500,4.84720458984375,0.06708323919177055,-0.008278711387794464,0.004457294502691366
1782987330114278700,4.857278564453125,0.06408522641956806,-0.01806090440740809,-0.0022350838419981298
1782987330124353500,4.867353515625,0.07650280944406986,-0.014558029119297862,-0.013444076528027652
1782987330134427600,4.877427734375,0.0651245063394308,0.0010669899106957018,0.0036880682624410837
1782987330144502500,4.88750244140625,0.06242401520907879,-0.006366502824611962,-0.006184944845782593
1782987330154577000,4.897576904296875,0.07544365577995776,-0.01352041143355891,0.0031664235750911754
1782987330164650800,4.907650634765625,0.06497253064811229,-0.0009559855505824089,-0.004315926970355212
1782987330174726000,4.917725830078125,0.06871405526399613,-0.009471921494044362,-0.00445270052596461
1782987330184799700,4.9277998046875,0.06347381652295589,-0.005070690860413014,-0.001388627647073008
1782987330194875000,4.937875,0.059735214516520495,0.004289495621155947,0.0012936793726170434
1782987330204948700,4.94794873046875,0.06392565194368362,-0.004667005430348217,-0.0033568041811930013
1782987330215022600,4.958022705078125,0.07634206592440605,-0.0010420929314568638,-0.005996272139577195
1782987330225097700,4.96809765625,0.061226329857110975,0.0018731734607368706,0.0022660589355742557
1782987330235171600,4.978171630859375,0.07499240488111972,0.00874024621862918,0.010489062647335231
1782987330245246700,4.988246826171875,0.06392039124667644,0.0010168854249641298,-0.0013814900868106632
1782987330255320600,4.998320556640625,0.053146483775973315,-0.004970536687877029,-0.011399140396690927
1782987330265394700,5.008394775390625,0.060627779442071913,-0.0028865334880538284,0.0034209189259679987
1782987330275469800,5.0184697265625,0.058229486128687856,-0.008853972258791327,0.0020588641919894145
1782987330285543700,5.028543701171875,0.062567223072052,0.0009811930570751428,-0.00409100477383472
1782987330295618800,5.038618896484375,0.06136778415441513,0.0023805201946757735,0.003987535266205668
1782987330305692700,5.048692626953125,0.05553250212967396,-0.0056945035808719695,0.0016979812906123698
1782987330315766500,5.0587666015625,0.057476621934771537,-0.006801935099810362,0.0031936769081978124
1782987330325841700,5.068841552734375,0.05673077200353145,-0.005611464939918369,0.010664104120410047
1782987330335915500,5.07891552734375,0.07064882271885871,0.0002787256098352372,0.004266311108390801
1782987330345989600,5.08898974609375,0.06107143155634403,-0.0059051323905587195,0.004500339059974066
1782987330356064500,5.099064453125,0.060471127575635907,-0.009970354269165545,-0.0022408103298861533
1782987330366138600,5.109138671875,0.06870061126053333,-0.007402732270862907,0.0012910901233088225
1782987330376213500,5.119213623046875,0.06481003356277942,-0.005134403746388853,-0.015264921579905784
1782987330386287600,5.12928759765625,0.0648106180846691,-0.0006060213354416191,-0.014871104523306712
1782987330396361500,5.139361572265625,0.05972352407872677,-0.0016476941417902706,0.011182602436025627
1782987330406436600,5.1494365234375,0.06076864921748638,0.0062185457212850445,-0.015863143201381897
1782987330416510500,5.159510498046875,0.050292263388633726,0.011567432468570768,-0.007130180673487484
1782987330426585600,5.169585693359375,0.061364861544966696,0.011556034291721879,-0.0040932195638073605
1782987330436659500,5.179659423828125,0.0642050534069538,0.0009583236381411552,0.013678410440287551
1782987330446733800,5.18973388671875,0.04520341581702232,-0.005500022188387811,-0.0019194602878764271
1782987330456808400,5.199808349609375,0.061817281487584114,-0.0034930480138398706,-0.016457510631647892
1782987330466882800,5.2098828125,0.05972586216628551,0.0017382219694554804,0.010698435648274607
1782987330476957400,5.21995751953125,0.0678045392036438,-0.009966901936754584,-0.015856384667032396
1782987330487031800,5.23003173828125,0.051642508953809736,-0.014212594948802143,0.00011524214381352067
1782987330497105700,5.240105712890625,0.07109189031124115,0.0013416603999212384,0.018123050957382654
1782987330507180800,5.250180908203125,0.05612403828203678,0.009695665513630956,-0.019121533075976183
1782987330517254700,5.260254638671875,0.04849018240272999,-0.011625373200885952,0.005978252425696701
1782987330527328800,5.270328857421875,0.05103460618853569,-0.011930804154556244,-0.0018246124781202524
1782987330537403600,5.280403564453125,0.07033668802976607,-0.012746814978867769,0.0007155278582125902
1782987330547477800,5.290477783203125,0.05597030902504921,-0.008129037251416593,0.00463829992567189
1782987330557552600,5.300552734375,0.057016603207588196,-0.012814856980089098,-0.0004149100769776851
1782987330567626800,5.310626708984375,0.05462473963499069,-0.009869706906285136,-0.01237521432065405
1782987330577700600,5.32070068359375,0.05028408008217811,-0.002302815315965563,0.0024299579601269215
1782987330587775700,5.330775634765625,0.06375146442055701,-0.0006460976175032556,-0.003603856011130847
1782987330597849600,5.340849609375,0.07812018151283263,-0.015594386429712176,0.004491493599815294
1782987330607924700,5.3509248046875,0.0667500617146492,-0.009241546804271639,-0.005123389162030071
1782987330617998600,5.36099853515625,0.05971884790360927,0.002655263749137521,-0.0033898616340011355
1782987330628072700,5.37107275390625,0.06331131943762303,-0.00025393822845071553,-0.0025754947775043545
1782987330638147600,5.381147705078125,0.0648112026065588,0.005436601563356816,-0.0034358972993912174
1782987330648221700,5.3912216796875,0.06960252853631974,-0.0030754436562769115,0.0007086597260087728
1782987330658296600,5.401296630859375,0.06047638827264309,-0.00660736237578094,0.013831938767875545
1782987330668370700,5.41137060546875,0.0491039303869009,-0.007086962586268782,0.0073267398586263875
1782987330678444500,5.421444580078125,0.05374152705967426,0.0032219577211886645,0.006517670231754891
1782987330688519700,5.431519775390625,0.051046881148219106,-0.0047400341339409345,-0.01951698040065821
1782987330698593500,5.441593505859375,0.06407002885043621,0.0026344949557445944,0.0022726576397195455
1782987330708668700,5.451668701171875,0.07215104397535324,-0.005678611891996115,0.007783593947766348
1782987330718742500,5.461742431640625,0.05659399388134479,-0.016090115791093557,-0.0028027185289654878
1782987330728816400,5.47181640625,0.05659165579378605,0.005981741290725767,-0.013551500691566616
1782987330738891500,5.4818916015625,0.05794073231518268,0.011903021098487078,-0.011164208262809552
1782987330748965400,5.49196533203125,0.06273147372305393,0.0005002776723355054,-0.00832985705314204
1782987330759040500,5.50204052734375,0.059141340276598925,0.0001055244673974812,0.016172935236338525
1782987330769114600,5.512114501953125,0.05330547372996807,0.0014249182365834712,0.02124016463118605
1782987330779188700,5.522188720703125,0.07290799982249736,0.011457871146872639,-0.0027840229616500436
1782987330789263600,5.532263671875,0.06542670415639877,0.005331752949394286,0.006983689441462047
1782987330799337700,5.542337646484375,0.048967736786603926,-0.0003349675754085183,-0.0018439382330980151
1782987330809411600,5.55241162109375,0.05629764128327369,-0.007455193110462278,-0.002903918447694741
1782987330819486700,5.56248681640625,0.05554828422069549,0.013722053219191729,-0.007654734270554036
1782987330829560600,5.572560546875,0.05689560717642307,-0.0015163411133922635,-0.014369274214701726
1782987330839635700,5.5826357421875,0.07590308998525143,-0.0061671625939197835,0.0036060525347944346
1782987330849709600,5.59270947265625,0.05510463210642338,0.00795274910274893,0.0028314422999508675
1782987330859783700,5.60278369140625,0.05480769498646259,0.00876771874744445,0.008805648738192394
1782987330869858600,5.612858642578125,0.06617547669708729,-0.001556234732363373,0.019305812734854405
1782987330879932700,5.6229326171875,0.0649807139545679,-0.009356551486067474,0.011044029648974538
1782987330890007800,5.6330078125,0.07665010896027087,-0.0005888875375501811,0.003436481821280904
1782987330900081700,5.64308154296875,0.07021510747671127,0.009116660049278288,-0.0002014317230787128
1782987330910155500,5.653155517578125,0.057499418288469314,0.004290427202917635,-0.02000239386400208
1782987330920230700,5.663230712890625,0.06513385868966579,-0.002606693633366376,-0.0077495957800419995
1782987330930304500,5.673304443359375,0.06393792690336704,-0.011953308247309178,-0.006499764682305976
1782987330940379600,5.683379638671875,0.06498246752023697,-0.005044825766794383,0.007832214295887388
1782987330950453500,5.69345361328125,0.06288812558948993,-0.007119293953292072,-0.009511627883347681
1782987330960527600,5.703527587890625,0.057502340897917746,0.0013105346092954276,-0.00473551322245039
1782987330970602500,5.7136025390625,0.055555298483371734,-0.002069499750435352,-0.0010928550043143332
1782987330980676600,5.723676513671875,0.07141805352568625,0.012334653981402516,-0.010899862804776056
1782987330990750500,5.73375048828125,0.07142039161324501,-0.004312328507471829,0.00046331122939009215
1782987331000825600,5.74382568359375,0.06273848798573017,0.0015661350718699394,-0.011447427384671754
1782987331010899500,5.7538994140625,0.06288637202382087,-0.00327863807817921,-0.015534938726900144
1782987331020974600,5.763974609375,0.05465513477325439,0.0012985153779387472,-0.0068834850365761665
1782987331031048400,5.77404833984375,0.05734919616281986,0.007500329160131514,0.012172051864792591
1782987331041122600,5.78412255859375,0.06304010128080845,-0.002623480371385813,0.0004002833300037309
1782987331051197400,5.794197509765625,0.06528700342476368,0.011073237477149814,-0.009689062242908403
1782987331061271600,5.804271484375,0.06872516117990017,0.0009281111629679798,0.005536801401665434
1782987331071346400,5.814346435546875,0.058253451526165005,0.0014732691566459834,-0.018978334346157498
1782987331081420500,5.824420654296875,0.06977963866889476,-0.00046000046087428927,-0.017437913670856505
1782987331091494700,5.83449462890625,0.06559387741684913,-0.0017576938549056648,-0.0037332773773465304
1782987331101569500,5.844569580078125,0.05586684865057468,-0.005519019149802625,-0.011812730732839553
1782987331111643600,5.8546435546875,0.05990472586452961,-0.0014550028475932776,-0.00824729333622381
1782987331121718500,5.864718505859375,0.05766249989569187,-0.006899111863970756,-0.0008965880801202729
1782987331131792600,5.874792724609375,0.05227963781356811,-0.010167959200497716,-0.0070372051604092115
1782987331141866800,5.88486669921875,0.07712240264713764,0.012279380130209029,0.004503508264594711
1782987331151941600,5.894941650390625,0.054825815165042875,-0.0026795214075595137,0.004222819026536308
1782987331162015700,5.905015625,0.06290507672429084,0.01033783587468788,0.008077083301893434
1782987331172089600,5.915089599609375,0.06440320632755756,0.008315444935299456,-0.019036818501166997
1782987331182164700,5.925164794921875,0.06201251179873943,0.016657650013361124,-0.008262034247629344
1782987331192238600,5.935238525390625,0.05617839881777763,0.02106649769786745,0.0004199013459263369
1782987331202313700,5.945313720703125,0.06186696584820747,-0.0005452127926051616,-0.0005606021579820662
1782987331212386600,5.955386474609375,0.06785305452048779,0.0014177395771257579,0.008107816366874613
1782987331222461700,5.965461669921875,0.06381225469708442,-0.00023749855030328034,-0.01681555312196724
1782987331232535600,5.97553564453125,0.06186696584820747,0.0014527926241979002,0.002790306571964174
1782987331242609400,5.985609375,0.06545826833844184,0.006400679088849574,-0.002946803174773231
1782987331252684500,5.9956845703125,0.06784896286725997,-0.017094287864957005,-0.023242311933566816
1782987331262758700,6.005758544921875,0.057525721773505206,-0.011925415593385696,-0.002268191527156159
1782987331272833500,6.01583349609375,0.06934533890485763,0.002226717872451991,-0.0016302224171813576
1782987331282907600,6.02590771484375,0.058125441232323646,0.018349329427350312,-0.005403041787049733
1782987331292981500,6.0359814453125,0.05738251391053199,0.013794479134585707,-0.009782759275194257
1782987331303056600,6.046056640625,0.054990065816044806,-0.004826945232413709,-0.00724071467614267
1782987331313130500,6.056130615234375,0.04541384369730949,-0.0064590216799639165,-0.021575008909008465
1782987331323204600,6.06620458984375,0.054987727728486056,-0.0013563465123996139,0.0024117692828876896
1782987331333279500,6.076279541015625,0.06710662006735801,-0.017106836819276213,0.00018457648640032856
1782987331343353600,6.086353515625,0.05588263074159622,-0.0020522746209986507,0.011600891780178061
1782987331353428500,6.096428466796875,0.06156593707501888,0.011119487771671264,-0.005241257087769918
1782987331363502600,6.106502685546875,0.08116846316754818,-0.0008444514675065874,-0.006603891777060926
1782987331373576700,6.11657666015625,0.06964695219993591,0.003212203512154519,-0.0017769693775335326
1782987331383651800,6.12665185546875,0.06470715771019458,-0.006889869111590087,0.000637439387012273
1782987331393725700,6.1367255859375,0.06724865888655185,-0.0014436046707443893,-0.0005952670459868386
1782987331403800800,6.14680078125,0.07592880894839764,0.00011047463715076445,-0.016006702690804377
1782987331413874700,6.156874755859375,0.06949439198672772,0.006983209950849414,0.002367450650548562
1782987331423948500,6.166948486328125,0.06515723956525325,0.006782170953415334,-0.001338468362414278
1782987331434023700,6.177023681640625,0.06710428197979927,-0.003326641938369721,0.001677751353336498
1782987331444097300,6.18709716796875,0.06964578315615653,0.0027007833912968634,-0.015300116190873085
1782987331454172200,6.197172119140625,0.07488193024396896,-0.011395144641585647,-0.009328622299525887
1782987331464246300,6.207246337890625,0.07158698035180568,-0.00967719827517867,0.013944623628421686
1782987331474320100,6.217320068359375,0.054526539957523344,-0.010799662966467439,0.013166446896735578
1782987331484395300,6.227395263671875,0.04779343231022358,-0.000025152707565575835,0.014764735239115543
1782987331494469000,6.23746923828125,0.05003741184473037,-0.004697893758956343,0.004052691190596669
1782987331504543200,6.247543212890625,0.07697276504337787,-0.0018408786263316868,-0.0028157241410110144
1782987331514618000,6.2576181640625,0.0736819068044424,-0.006675057317130267,0.0013360937422374263
1782987331524692200,6.267692138671875,0.06245733295679092,0.005201075774431229,-0.009391070243599824
1782987331534767000,6.27776708984375,0.05407587358057499,0.013487148484773934,0.009871254975977354
1782987331544841200,6.28784130859375,0.06574877571761607,-0.0005385638561099768,-0.013694521324872038
1782987331554915000,6.2979150390625,0.06948679320216178,-0.016064396827947348,-0.018883390638278798
1782987331564990200,6.307990234375,0.054819969946146005,0.0034461218658834694,-0.005993975151213817
1782987331575064000,6.31806396484375,0.06798983264267444,-0.004131528580468148,-0.0069697659473866224
1782987331585140200,6.32814013671875,0.053473816034197805,-0.0023814335101284083,0.0027524724793387577
1782987331595214000,6.338214111328125,0.06005962416529655,-0.0011477452630177139,0.004041005319380201
1782987331605288200,6.3482880859375,0.05392565145492553,-0.007237330842390656,-0.012088360203290358
1782987331615363300,6.35836328125,0.06933949368596076,-0.008532631349936128,-0.007095867411931976
1782987331625437200,6.368437255859375,0.0871492911428213,0.002667794437147677,-0.007615374941122717
1782987331635511000,6.378510986328125,0.07443418647646903,0.008368143236916512,0.0018495825225953012
1782987331645586200,6.388586181640625,0.05827332527041435,0.0083498403952457,0.00010158351121935993
1782987331655660000,6.398659912109375,0.05303425557315349,-0.006830320944078266,-0.0016000373414717614
1782987331665735200,6.408735107421875,0.044801849278807634,-0.004770228342805057,-0.0007084953292272985
1782987331675809000,6.41880908203125,0.06934124725162982,0.014633907367102801,0.00347501916680485
1782987331685883400,6.42888330078125,0.05692249518334865,-0.00011849354682490229,0.003976095990161411
1782987331695958000,6.4389580078125,0.05183832378685474,0.010762947685271501,-0.01163153808019124
1782987331706032400,6.449032470703125,0.05498071346580982,-0.0016579415411688387,0.0027363798610633237
1782987331716107000,6.45910693359375,0.07023965739607811,-0.016006437829323112,0.015362733098305761
1782987331726181400,6.469181396484375,0.05991466273665428,0.005966890781465918,0.004338531527807936
1782987331736255200,6.479255126953125,0.042855975908041,0.003728993927873671,0.0004722754205577075
1782987331746330400,6.489330322265625,0.0648544572263956,0.002274666933715343,-0.00023006416251882908
1782987331756404200,6.499404296875,0.06964110698103905,0.0025204766546376048,-0.0024609421868575735
1782987331766479400,6.509479248046875,0.06246084008812904,-0.017770214365143328,-0.003673172087408602
1782987331776553200,6.51955322265625,0.06590425854027271,-0.0006542991902679205,-0.0012134172106394543
1782987331786627300,6.52962744140625,0.07039280213117599,0.0012610694443807005,-0.0033301308033987878
1782987331796702200,6.5397021484375,0.0644102205902338,0.012037388067878782,0.0037236738653620705
1782987331806776300,6.5497763671875,0.05288637153506279,-0.0009039813687093556,-0.0022251789359143005
1782987331816851200,6.559851318359375,0.06395546256005763,-0.005867375929746776,-0.02511899709221907
1782987331826925300,6.56992529296875,0.082513448035717,-0.005591371999960393,-0.018018001414020546
1782987331836999200,6.579999267578125,0.06979600528180599,-0.005075202638749033,0.004343308167625218
1782987331847074300,6.59007421875,0.04989420398175716,0.003139540134742856,0.002943592870957218
1782987331857148200,6.600148193359375,0.06845043589174747,0.004694624089635909,-0.010243339691380969
1782987331867222300,6.61022216796875,0.04960018947124481,0.008240151209384202,-0.008556724611576647
1782987331877297200,6.620297119140625,0.07563479443788527,-0.007877236181125045,0.012580792495887725
1782987331887371300,6.630371337890625,0.07159633270204067,-0.007784479863755404,0.0118176854691701
1782987331897446100,6.640446044921875,0.05767477485537529,-0.003077818276453763,0.004169732565851882
1782987331907520300,6.650520263671875,0.06769581813216209,0.0021332857016474007,0.011894951956463045
1782987331917594000,6.660593994140625,0.07457797886133194,0.009249291719309985,-0.010285155839379877
1782987331927669200,6.670669189453125,0.05467267042994499,0.0020852453088387847,-0.016019059848878532
1782987331937743000,6.6807431640625,0.0652946022093296,-0.003667144205421209,-0.0019594680712791157
1782987331947818200,6.690818359375,0.04673720125555992,0.004901179512403905,-0.01479103872415144
1782987331957892000,6.70089208984375,0.07187748773097992,-0.0032438590257428583,-0.004333814253495075
1782987331967966200,6.71096630859375,0.06709142249822617,0.001841061289422214,0.0016437942848075181
1782987331978041000,6.721041015625,0.054818800902366634,0.010169584902003407,-0.005433870750153437
1782987331988115200,6.731115234375,0.06319792219102383,0.004167147883120924,0.0045615722944959995
1782987331998190000,6.741190185546875,0.055717795568704605,0.005879650889430195,0.0029201845959061757
1782987332008264200,6.75126416015625,0.06245499486923217,0.0019518829864449798,0.0031915488831931725
1782987332018338300,6.76133837890625,0.06739303579330444,0.01230491643026471,-0.013299562623957172
1782987332028413200,6.7714130859375,0.04809212299585342,-0.008523242467083036,-0.01332802610003855
1782987332038487300,6.7814873046875,0.0799690242499113,-0.00490472317636013,0.007855266377911903
1782987332048562200,6.791562255859375,0.07697627217471599,-0.0018910744436085223,-0.0022097667376510797
1782987332058636300,6.80163623046875,0.06126081664860248,0.005611099613737315,0.008953062418824993
1782987332068710400,6.81171044921875,0.06185936706364154,-0.0027666517017409203,-0.019755214169900864
1782987332078785300,6.821785400390625,0.07038578786849975,-0.003033997401036322,-0.0023863106146454808
1782987332088859400,6.831859375,0.05946224279403686,0.006243369635287672,0.009253730432409792
1782987332098934300,6.841934326171875,0.0726280138373375,0.012740019911900161,-0.011596055774856359
1782987332109008400,6.85200830078125,0.07696750434637069,0.004790485679544508,0.004900613256823271
1782987332119082200,6.862082275390625,0.05751461585760116,-0.004344404146168381,-0.0011717608928447588
1782987332129157400,6.872157470703125,0.06888707374334335,-0.0008874686253257095,0.0005692421221639961
1782987332139231200,6.882231201171875,0.07023439669907093,-0.009916706119477748,-0.012244473213609308
1782987332149305300,6.892305419921875,0.07292787356674671,0.00028088103430345653,0.004108060939912684
1782987332159380200,6.902380126953125,0.07771569236516952,0.0035466048319824036,-0.004413793287682347
1782987332169454300,6.912454345703125,0.06589490619003772,-0.009863021437171845,-0.00035759953232482073
1782987332179529200,6.922529296875,0.06663958707749844,0.0043713104194030164,-0.005502373975678347
1782987332189603300,6.932603271484375,0.05676233618557453,-0.001991265148762613,-0.003378742018365301
1782987332199677200,6.94267724609375,0.06035013154447078,0.00745649001840502,-0.004758948896965012
1782987332209752300,6.95275244140625,0.07172258943021297,0.0005777268227189779,0.004246081171114929
1782987332219826200,6.962826171875,0.07112637710273266,-0.013404237707983702,0.01866624075626023
1782987332229901300,6.9729013671875,0.052127077600359915,0.005600212893541902,0.009516107695642859
1782987332239975200,6.98297509765625,0.06125497142970562,-0.003793309602048248,-0.015551844195928423
1782987332250049300,6.99304931640625,0.06319792219102383,-0.0013330387020483612,0.0001126939937006682
1782987332260124200,7.003124267578125,0.06619067426621913,-0.0012092479255981742,-0.005864115393580869
1782987332270198300,7.0131982421875,0.07741758620142936,0.004495996244996786,-0.0002379141088342294
1782987332280273200,7.023273193359375,0.053176878914237016,-0.00007995163472369313,0.006339546319027431
1782987332290347300,7.03334716796875,0.06679623894393444,0.011097951793298125,-0.015432405367610045
1782987332300421000,7.043421142578125,0.05991407821476459,0.010531751011591404,0.014708452174346893
1782987332310496300,7.053496337890625,0.06814648450911044,0.009407751950342208,0.008945057208882645
1782987332320570000,7.063570068359375,0.06500409483015537,-0.004821921997424215,-0.00297089643641375
1782987332330644200,7.073644287109375,0.06155716924667358,0.010100245992839336,-0.016949262504233047
1782987332340719000,7.083718994140625,0.05856617073714733,-0.004659242249000817,-0.010291754543525166
1782987332350793500,7.09379345703125,0.05602408503890037,0.003937339448928833,-0.005519384475983679
1782987332360868000,7.1038681640625,0.062309448918700217,-0.003984503058902919,-0.025019295010832138
1782987332370942500,7.1139423828125,0.07068915472924708,0.009785353091079741,-0.014802720028790644
1782987332381017000,7.12401708984375,0.06889291896224022,-0.009398308268561958,0.0022198451736709104
1782987332391091500,7.134091552734375,0.0504892472654581,-0.004155731439962983,-0.01460505116537679
1782987332401165300,7.144165283203125,0.06694646106958389,0.0005317322565242648,-0.008464242288842797
1782987332411240400,7.154240478515625,0.06544774694442748,0.0008730747737921774,-0.002773761862539686
1782987332421314300,7.164314208984375,0.06410159303247928,-0.0013424458512105047,0.0110089263695525
1782987332431388200,7.17438818359375,0.05886544594466686,-0.0012884323753416538,-0.0012730978088919072
1782987332441463300,7.18446337890625,0.07517536023259162,0.001084616898931563,0.006893147914065048
1782987332451537200,7.194537109375,0.07502572262883186,-0.0036872736779972907,-0.0010915261303307488
1782987332461612300,7.2046123046875,0.054227849271893495,-0.006461999088339507,-0.00046056214987765995
1782987332471686100,7.21468603515625,0.06380407139062881,-0.00035573636880144473,-0.01572319130799733
1782987332481760000,7.224760009765625,0.04554711468815803,0.00015131810419261456,-0.010061352454288863
1782987332491835100,7.234835205078125,0.058116088882088655,0.0028368308611214157,-0.015663195615913717
1782987332501909000,7.244908935546875,0.07517828284204006,0.01393443559454754,-0.029084649320179595
1782987332511984000,7.254984130859375,0.06440379084944725,0.01107807804904878,-0.0032557458263589066
1782987332522058000,7.26505810546875,0.05886719951033592,-0.0014849961270578206,-0.003252900848723948
1782987332532132000,7.275132080078125,0.05138473480045795,-0.004741440639737993,-0.000010681224218569696
1782987332542207000,7.28520703125,0.05063362417221069,0.004712397208344191,-0.01752570155216381
1782987332552281000,7.295281005859375,0.06185352184474468,-0.0021433504379354414,0.006570843457407318
1782987332562356200,7.305356201171875,0.0660439592719078,0.009072784374933689,-0.0024298803283134473
1782987332572430000,7.31543017578125,0.06305003815293311,-0.000733355775848031,-0.01026555152318906
1782987332582504000,7.32550390625,0.06394669473171234,-0.0061620662936940785,-0.003246078382292762
1782987332592579000,7.3355791015625,0.05945756661891937,0.0002916398903355002,0.0016457213804125786
1782987332602653000,7.34565283203125,0.06468962205350398,-0.008769161785859615,-0.0010696293923538177
1782987332612728000,7.35572802734375,0.07441255916655064,-0.004852883391268551,0.005333780509699136
1782987332622802000,7.365802001953125,0.07455985868275165,0.01209198606563732,-0.009063199129258282
1782987332632876000,7.3758759765625,0.0666319882929325,0.013967716809641569,0.002343713581934571
1782987332642951000,7.385950927734375,0.05735328781604766,0.0008854958639480173,-0.004467003045952878
1782987332653025000,7.39602490234375,0.0622884061306715,0.010809946898464113,-0.006932790371286682
1782987332663099100,7.40609912109375,0.07560439929962158,0.0065504445567727086,-0.008756014609918929
1782987332673174000,7.416174072265625,0.07305763742625714,0.008539682145230472,0.010351873533194883
1782987332683248000,7.426248046875,0.06647708999216556,-0.007453530876338482,0.005370500357472338
1782987332693323000,7.436322998046875,0.05840484269559383,-0.0038257140343077476,0.0038508165095234286
1782987332703397000,7.446397216796875,0.06963058558702469,0.002454243018012494,-0.012346093257446773
1782987332713471200,7.45647119140625,0.07142799039781093,-0.0060079351779073475,0.0057862872172845525
1782987332723546000,7.466546142578125,0.05212590855658054,0.006613280659914017,0.017118993047950788
1782987332733620200,7.4766201171875,0.06693710871934891,0.003964099591691046,-0.006027690191147849
1782987332743695000,7.486695068359375,0.0712771837502718,0.00520345039460808,-0.0019246296533383428
1782987332753769200,7.496769287109375,0.06110241121649742,0.0016647366081364453,0.0039845167586347085
1782987332763843000,7.506843017578125,0.06260229438543319,0.011099632293730973,0.008000871693948284
1782987332773918200,7.516918212890625,0.06948796224594116,0.021661668845731764,-0.007274881807225756
1782987332783992000,7.526991943359375,0.06903788039088249,0.006813004483096301,-0.011018548147846013
1782987332794067200,7.537067138671875,0.06783844147324562,0.003877225025836378,0.006428516943845898
1782987332804141000,7.54714111328125,0.06020633915960789,-0.007786708353459835,-0.013094276709668338
1782987332814215200,7.557215087890625,0.0658960752338171,0.013141202857624738,-0.004097699376102537
1782987332824290000,7.5672900390625,0.060357730329036706,0.01416687437724322,-0.00921074067405425
1782987332834364200,7.5773642578125,0.06275193198919296,-0.014707794587220996,-0.009511522852070629
1782987332844439000,7.58743896484375,0.051232174587249754,0.005285593986418098,-0.009696081072161905
1782987332854513200,7.59751318359375,0.05766776059269905,0.00043672918314114213,-0.019545676772180012
1782987332864587000,7.6075869140625,0.06544833146631718,-0.0022829598380252718,0.011472644024319014
1782987332874662100,7.617662109375,0.0738297908425331,0.005093030556384473,-0.001620682837278582
1782987332884736000,7.627736083984375,0.054822892555594444,-0.001596037019789219,-0.00600484817167744
1782987332894810000,7.63781005859375,0.07412731248438358,-0.010260222327522934,-0.010337539047165773
1782987332904885000,7.647885009765625,0.0684404990196228,-0.007769556289259344,-0.012467787974933161
1782987332914959000,7.657958984375,0.05347966125309467,0.013587101727910339,0.004141620716219768
1782987332925034000,7.668033935546875,0.07263561262190342,-0.006961345178913325,0.004284586550598032
1782987332935108000,7.678108154296875,0.05213409186303615,0.013816544835921376,0.002536423142440617
1782987332945182200,7.68818212890625,0.07697393408715725,-0.003348360579833388,-0.0034578031705226747
1782987332955257000,7.698257080078125,0.05901742163598537,0.012804810510110108,-0.007918673303211107
1782987332965331200,7.708331298828125,0.05632745189964771,-0.003840546277258545,-0.012300080424943008
1782987332975406000,7.718406005859375,0.07173895604312419,-0.008676898658834397,0.006657448595203459
1782987332985480200,7.728480224609375,0.06306055954694748,0.008862173831555992,0.009742751491791568
1782987332995554300,7.73855419921875,0.05168342548608779,-0.0035387868517078457,-0.0034007985865464434
1782987333005629200,7.748629150390625,0.053476738643646236,-0.0025573928652331233,-0.010281817671400495
1782987333015703300,7.758703369140625,0.06170563780665397,-0.009504015399049968,0.0018355996630154549
1782987333025778200,7.768778076171875,0.07427636556625365,-0.005402078239247202,-0.01437564915656112
1782987333035852300,7.778852294921875,0.05946282731592655,-0.011363744856324047,-0.00232385810399428
1782987333045926100,7.788926025390625,0.06739186674952506,-0.002715579101629555,-0.019606334617966785
1782987333056001300,7.799001220703125,0.062001405882835384,0.009121975545212626,0.002639098065625876
1782987333066075100,7.8090751953125,0.059304421883821484,0.011225724625121801,-0.00213476527268067
1782987333076150300,7.819150390625,0.06798515646755694,-0.005012421334534883,-0.007811550533771514
1782987333086224100,7.82922412109375,0.0646937137067318,-0.00636703254757449,-0.009249437849782407
1782987333096298200,7.83929833984375,0.06304653102159499,0.0015372195046395062,0.007114284418034367
1782987333106373000,7.849373046875,0.06574117693305015,-0.0011247845125384628,-0.008606998060666955
1782987333116447200,7.859447265625,0.04958090024888515,-0.008140983417537063,0.008456890099449083
1782987333126522000,7.869522216796875,0.07202712533473968,-0.0024433928304351863,-0.006066232103249058
1782987333136596200,7.87959619140625,0.06902911256253719,0.016352493054326622,-0.008358690421981736
1782987333146670000,7.889670166015625,0.061845338538289066,0.003574040828179568,0.002465376333380118
1782987333156745200,7.8997451171875,0.061547232374548906,0.006916537922807038,-0.013343287601252085
1782987333166819000,7.909819091796875,0.08115326559841632,0.009007208325434475,-0.01378125432683155
1782987333176894200,7.919894287109375,0.06619125878810882,-0.010484094211272894,0.0007480966872535646
1782987333186968000,7.929968017578125,0.06529518673121928,0.0005179229268804192,-0.011711037623765878
1782987333197042200,7.940042236328125,0.05601940886378288,-0.005096537687722593,-0.003773339959676377
1782987333207117000,7.950116943359375,0.06050502984523773,-0.018410722492076457,0.0065492709464160725
1782987333217191200,7.960191162109375,0.06244681156277656,-0.0019034224685281515,0.0008425746042514219
1782987333227265000,7.97026513671875,0.058553311255574225,-0.011295574990939349,0.00419907282476779
1782987333237340200,7.980340087890625,0.07860358111560345,-0.0038714163395576176,-0.0011146375778596847
1782987333247414000,7.9904140625,0.07845452803373336,0.010189677841961384,-0.0019471109132049604
1782987333257489200,8.0004892578125,0.06020049394071102,0.0018895218073390423,-0.016906405176618136
1782987333267563000,8.01056298828125,0.06603752953112126,-0.0033315007765777407,-0.02082269727094099
1782987333277637000,8.02063720703125,0.05930675997138023,-0.00007797887334600091,0.01873179397287313
1782987333287712000,8.0307119140625,0.04958148477077484,-0.008555208507925271,0.008699005459365434
1782987333297786000,8.0407861328125,0.04897942722439766,0.0038929157853126524,-0.0017663520853966473
1782987333307861000,8.050861083984374,0.06947802537381649,-0.0006747757227160037,-0.011766553503554314
1782987333317935000,8.06093505859375,0.06005144085884094,0.003082731913588941,0.0039712188856443386
1782987333328009200,8.07100927734375,0.07606383350491523,-0.004640701945312321,0.01159774084186647
1782987333338084000,8.081083984375,0.058254036048054694,-0.0046035665390081705,0.006825087646534666
1782987333348158200,8.091158203125,0.056608606928586956,-0.0017276092438958583,-0.012259086260851471
1782987333358233000,8.101233154296875,0.06259703368842602,-0.0036917123910970985,-0.001838631870318204
1782987333368307200,8.11130712890625,0.06185293732285499,-0.010245791943371295,0.003499454921740107
1782987333378381000,8.121381103515626,0.06110708739161491,0.00003854191210120916,-0.006370498579717241
1782987333388456200,8.131456298828125,0.07502221549749374,0.004461619051359594,0.013413014669483527
1782987333398530000,8.141530029296876,0.06798924812078476,0.0006163052674382925,-0.0039865260526305065
1782987333408605200,8.151605224609375,0.05691431187689304,-0.02036329959826544,-0.01860653732512146
1782987333418679300,8.16167919921875,0.05810790557563304,-0.008391231851559131,-0.0008078320844331756
1782987333428753200,8.171753173828124,0.06499006630480289,0.014450623222067952,-0.005459046290605328
1782987333438828300,8.181828369140625,0.05316986465156078,-0.0022614969248883426,-0.03105695860672276
1782987333448902700,8.191902587890626,0.06708849988877773,0.0029654987420886752,-0.0030884675346314907
1782987333458976800,8.201976806640625,0.06514379556179047,-0.002384136923868209,-0.001140913663432002
1782987333469051600,8.2120517578125,0.06544423981308936,-0.004252689008414745,0.006839572829613462
1782987333479125800,8.222125732421874,0.0726274293154478,-0.0013748137508518992,-0.008820321150938979
1782987333489200600,8.23220068359375,0.06290098507106304,0.0021064159610308707,-0.005025043354090303
1782987333499274800,8.242274658203126,0.058712885731458664,0.0060675381443463265,0.008326760913757607
1782987333509348600,8.2523486328125,0.0685883830577135,0.005419358167611062,0.0033403416701592503
1782987333519423700,8.262423828125,0.06619476591944694,-0.0025120558861643073,0.00037353232039604334
1782987333529497600,8.27249755859375,0.058412441480159755,-0.005077321530599147,0.006015374132269062
1782987333539572700,8.28257275390625,0.07771686140894889,-0.016101422636397182,-0.010971635699621401
1782987333549646600,8.292646484375,0.06470014344751834,0.007178239332605153,-0.0202111412438564
1782987333559720700,8.302720703125,0.07098433828353881,0.007426076613832265,-0.008468498338852078
1782987333569795600,8.312795654296876,0.06470014344751834,-0.0006097841951064765,-0.004500900748977438
1782987333579869700,8.32286962890625,0.056173722642660136,0.0005616524707525968,-0.0027031077791238203
1782987333589944600,8.332944580078125,0.06186170515120029,-0.006150795981008559,0.0011590110091259703
1782987333600018700,8.343018798828124,0.0654559302508831,0.008927293223328888,0.002524431310547516
1782987333610092500,8.353092529296875,0.061118193307518956,0.023997893240954724,-0.017912581977900115
1782987333620167700,8.363167724609376,0.05902151328921318,0.0009265219940803944,0.0025811071009607983
1782987333630241500,8.373241455078125,0.06097147831320762,0.005105890037957579,-0.012216881953785196
1782987333640316700,8.383316650390626,0.08117021673321724,-0.005195376686006784,0.022434904540819114
1782987333650390500,8.393390625,0.07040156995952129,0.00398187271039933,-0.01293695812295191
1782987333660464600,8.403464599609375,0.06456511889100075,-0.000688219726178795,0.0013266546270344405
1782987333670539500,8.41353955078125,0.06067395667135715,0.012780351922288536,0.004249624835071153
1782987333680613600,8.423613525390625,0.05962649344503879,0.007823697629291564,-0.0018151870626490563
1782987333690688500,8.4336884765625,0.05618599760234356,-0.006357607132103294,-0.01488305068942718
1782987333700762600,8.4437626953125,0.06486439409852028,-0.006400222431123257,-0.009615343986148946
1782987333710836700,8.453836669921875,0.07100070489645004,-0.0012682298375293612,-0.004828296939283609
1782987333720911600,8.46391162109375,0.05453881491720676,0.0022570764780975878,0.004708511051093228
1782987333730985700,8.47398583984375,0.06097147831320762,-0.000836286427360028,0.0033240435559069737
1782987333741060600,8.484060546875,0.05752922890484333,0.0016769202362745999,0.01798139116410166
1782987333751134700,8.494134765625,0.05782791959047317,-0.002364080516528338,0.0013635708376299588
1782987333761208800,8.504208740234375,0.057681789118051524,-0.0047620267700403925,-0.006590977496560663
1782987333771283700,8.51428369140625,0.06381985348165035,-0.0013933723208494483,-0.005714893348352052
1782987333781357800,8.52435791015625,0.06935702934265137,-0.0006196845346130431,0.0002118983181659132
1782987333791431700,8.534431640625,0.059632923185825346,0.009377612540405244,-0.01065158713213168
1782987333801506800,8.5445068359375,0.07085165181457996,0.0037009916760958727,-0.016928676373930647
1782987333811580700,8.55458056640625,0.05513502724468708,-0.006805643160548061,-0.008027330442611127
1782987333821655800,8.56465576171875,0.06635843204855918,-0.006175017106812447,-0.019600626396387814
1782987333831729700,8.574729736328125,0.0669587360292673,0.015630023998674004,-0.006097896749991923
1782987333841803500,8.584803466796876,0.06681143651306629,0.0073286989202722905,-0.004580153697379865
1782987333851878700,8.594878662109375,0.07309855395853519,0.008490911100059747,0.0006764379568397999
1782987333861952500,8.604952392578125,0.06621463966369628,-0.009185542300716042,0.00319006474558264
1782987333872027600,8.615027587890625,0.05124912572205066,0.0003000423924997449,-0.004113554532360285
1782987333882101800,8.625101806640625,0.056338557815551756,-0.0035106202031485734,-0.008595686648786068
1782987333892175600,8.635175537109374,0.052450902727246285,-0.00295837488155812,0.005257555202022195
1782987333902250800,8.645250732421875,0.05080664265155792,-0.002450187897402793,0.0004592972079757601
1782987333912324600,8.65532470703125,0.059034957292675966,0.0012630422057583928,0.006179254890512674
1782987333922399700,8.665399658203125,0.06636544631123542,0.005645677736774087,-0.005733835510839708
1782987333932473600,8.6754736328125,0.057688803380727766,-0.00035918870121240615,-0.011226044285530224
1782987333942547500,8.68554736328125,0.05425123014748096,-0.0010978051740676163,0.003961998966149986
1782987333952622600,8.69562255859375,0.056796822977066036,0.015275803733523934,-0.012009262518514878
1782987333962696400,8.705696533203126,0.06248246739804744,-0.00016646087439730763,-0.013604737849300726
1782987333972771600,8.715771484375,0.07071253560483455,0.00535635766768828,-0.013459940817439928
1782987333982845400,8.725845458984375,0.05799392380714416,0.00975442822985351,-0.004555781874526292
1782987333992919800,8.735919921875,0.06128244395852089,0.014842417284939437,-0.007706304627587087
1782987334002994700,8.74599462890625,0.08043781080543995,0.0056320693365298205,-0.001808606624812819
1782987334013068800,8.75606884765625,0.053202597877383226,0.006764288236852735,-0.006713649461581372
1782987334023143700,8.766143798828125,0.04676701187193393,0.0038930071168579157,-0.008559039866249077
1782987334033217800,8.7762177734375,0.0717564916998148,0.0029855368831194933,-0.018576562311965972
1782987334043291600,8.786291748046875,0.06591887158751487,0.006181264184508472,-0.0014333618379430845
1782987334053366800,8.79636669921875,0.061876318198442457,-0.008566424021683634,-0.00003434066101908684
1782987334063440600,8.806440673828124,0.06681845077574253,0.0005760280559770763,-0.028751001485600135
1782987334073515800,8.816515869140625,0.06083177758157253,0.0011148659067228435,-0.0013081965217366814
1782987334083589600,8.826589599609376,0.06801555160582065,0.002226133350562304,-0.011542846016585825
1782987334093663700,8.836663818359375,0.05829144544899463,0.005151300082262605,-0.005439049248769879
1782987334103738600,8.846738525390625,0.047369069418311115,-0.002914097348414361,0.002858700199634768
1782987334113812700,8.856812744140624,0.0552951862424612,-0.011769001188967376,-0.00015641440441831945
1782987334123887900,8.866887939453125,0.0644189884185791,0.016195932519435883,-0.009624481707252561
1782987334133961700,8.876961669921876,0.06591185732483863,0.012924089508224278,0.005696179514727555
1782987334144035600,8.88703564453125,0.07264730305969715,-0.00007317483406513929,-0.00010577106256969273
1782987334154110700,8.89711083984375,0.061875149154663085,-0.0008865187772549688,-0.013604687616950831
1782987334164184600,8.9071845703125,0.06067571023702621,-0.012338288976904005,0.005018672978808172
1782987334174258700,8.9172587890625,0.0503501310557127,-0.0055716991851106285,-0.011896632456895895
1782987334184333600,8.92733349609375,0.06605915684103965,-0.0002760769950225949,-0.0035093278617830946
1782987334194407700,8.93740771484375,0.07623626746237278,-0.000216474028583616,-0.016836116419383325
1782987334204482600,8.947482666015626,0.06845745015442371,0.0017052147489972412,-0.020744229773827828
1782987334214556700,8.957556640625,0.04900514618754387,-0.004703793776780367,0.0017832529878476634
1782987334224630500,8.967630615234375,0.05963409222960472,0.0019330321555025875,0.005123448527534492
1782987334234705700,8.97770556640625,0.06546995877623557,-0.0021517164074815807,-0.011055889050127006
1782987334244779500,8.987779541015625,0.058439914008975025,-0.005506890320591628,-0.002102625701902434
1782987334254854700,8.997854736328126,0.0576917259901762,-0.0005440437488257885,-0.006334609849005937
1782987334264928500,9.007928466796875,0.056495794203877445,-0.0024485073969699443,-0.002486779881012626
1782987334275002600,9.018002685546875,0.07789338701963425,-0.00890131853185594,-0.0009516244692960754
1782987334285077500,9.028077392578124,0.054850365084409713,0.006994023605808615,-0.013229401730885729
1782987334295151600,9.038151611328125,0.03898877908587456,0.0028539463927038013,0.00462753193648532
1782987334305226500,9.0482265625,0.05918751750588417,0.005335625406913459,0.007923596073500811
1782987334315300600,9.058300537109375,0.055745268097519875,0.002719049700349569,0.007571252671605907
1782987334325374700,9.068374755859375,0.06053542498350143,0.003107007838319987,-0.011188612051703966
1782987334335449600,9.07844970703125,0.06787292826473712,0.009484287785273045,-0.0027133414787705984
1782987334345523700,9.088523681640625,0.05829962875545024,0.00397060239771381,-0.008351187535538337
1782987334355598600,9.0985986328125,0.05964695171117782,0.0014488471014425157,0.0036193184417439624
1782987334365672700,9.108672607421875,0.06623100627660751,0.004251556497253477,0.00934324904649984
1782987334375746800,9.118746826171876,0.06652677435278892,0.001150156415812671,-0.015921810019481925
1782987334385821700,9.12882177734375,0.06802256586849689,0.0017094890653155744,-0.009782421348476782
1782987334395895800,9.138895751953125,0.052908583366870876,0.007827917146682739,-0.01394208461146336
1782987334405969700,9.1489697265625,0.051564183020591736,0.008639233529567717,0.005583955878484994
1782987334416044800,9.159044921875,0.06323182446062564,-0.00021413594102486966,-0.003925744909257628
1782987334426118700,9.16911865234375,0.06832125655412674,-0.0016238200758583842,-0.003831897179922089
1782987334436193800,9.17919384765625,0.06293605638444423,0.005930449494905769,-0.015928760350076482
1782987334446268200,9.18926806640625,0.045430794832110405,-0.0007251724693924189,-0.008891769818798639
1782987334456343300,9.19934326171875,0.07984978178441524,0.004734389844443649,0.0032485489005921408
1782987334466417200,9.209417236328125,0.06548690991103649,0.012314469709899276,-0.009037649129470809
1782987334476491300,9.2194912109375,0.06922668096125126,0.007596939668711274,-0.009848125262139365
1782987334486566100,9.229566162109375,0.05441138914525508,0.0027534634266048667,0.0006486275013070554
1782987334496640300,9.23964013671875,0.05545592976212501,-0.008879618156701326,0.005414723091688938
1782987334506714000,9.249714111328124,0.06772504422664642,0.0009178272309713065,0.0025067997557343914
1782987334516789200,9.259789306640625,0.051560091367363926,-0.006715316262282431,-0.00010051493213977664
1782987334526863000,9.269863037109374,0.04991524676978588,0.0005577252143062651,-0.004121609974652529
1782987334536938200,9.279938232421875,0.06607610797584057,0.009683280956093221,-0.023031724223075433
1782987334547012000,9.29001220703125,0.07400456288754939,0.006426562448777258,-0.005726360023859888
1782987334557086200,9.300086181640625,0.05380465542376041,-0.01164137448761612,-0.00032010336641687896
1782987334567161000,9.3101611328125,0.05724573578834533,-0.001467204742040485,-0.005581293563940562
1782987334577235200,9.320235107421874,0.06727203976213932,0.014554869047831744,-0.0000656536813126877
1782987334587310000,9.33031005859375,0.05978899053037166,-0.005719820685219019,-0.006831069862749427
1782987334597384200,9.34038427734375,0.06323123993873596,-0.0006192644095048308,-0.009620810179132968
1782987334607458000,9.3504580078125,0.05829202997088432,0.007537994289398193,-0.02467054093866609
1782987334617533200,9.360533203125,0.06322831732928752,0.009123911773972213,-0.01433987915685866
1782987334627607000,9.37060693359375,0.0777384887188673,0.0032233094280585644,-0.007003421621816232
1782987334637682200,9.38068212890625,0.06277239025533199,0.01589212726727128,0.011259357466665097
1782987334647756000,9.390756103515624,0.05529167911112308,-0.009693765817489474,-0.0008652065611677244
1782987334657830100,9.400830078125,0.0636690468341112,-0.005431486996822059,-0.012261707476200536
1782987334667905000,9.410905029296876,0.05319441457092762,0.007874258772749453,-0.017071637641731648
1782987334677979100,9.420979248046875,0.05423837066590786,0.0028403197261504826,-0.028433989691990427
1782987334688054000,9.431053955078125,0.06067044954001903,0.01591934406775981,-0.0016224090034840627
1782987334698128100,9.441128173828124,0.0629115064650774,-0.0071353135063312945,-0.027562568019167517
1782987334708202200,9.4512021484375,0.06051613576114177,0.00793324068468064,-0.0027490795124322175
1782987334718277000,9.461277099609376,0.05797112745344638,0.00670417381376028,0.0014809821056434884
1782987334728351200,9.471351318359375,0.0557224717438221,-0.00019543124055489898,-0.005028856446105056
1782987334738426000,9.481426025390626,0.0733773708999157,0.007504968802630901,0.004192912512039766
1782987334748500200,9.491500244140624,0.06769172647893429,-0.0005706942937336862,-0.005322647194331512
1782987334758574000,9.501573974609375,0.06260813960433007,-0.002689768806938082,-0.005011046794778667
1782987334768649200,9.511649169921874,0.07038403430283069,0.0011518917151726782,-0.008968328486615792
1782987334778723000,9.52172314453125,0.0685842914044857,-0.004841046823002398,0.0023274474337231367
1782987334788798200,9.531798095703126,0.06992927627265452,0.005726195627078413,-0.0016625994499772786
1782987334798872300,9.541872314453125,0.055713703915476795,0.005144852075167,0.01263219388956204
1782987334808946200,9.5519462890625,0.060499184626340866,0.0008474836748093366,-0.004842677091085352
1782987334819021300,9.562021240234374,0.07246551675200462,0.0024771672358736394,-0.021303653754875994
1782987334829095200,9.57209521484375,0.0507680642068386,0.0032041846024803817,-0.001961591529706493
1782987334839170300,9.58217041015625,0.059448214268684386,-0.00043490255223587154,0.0011709023763192816
1782987334849244200,9.592244140625,0.07470891176462173,-0.01489076820500195,-0.012211479692882858
1782987334859318000,9.602318115234375,0.06034253275990486,-0.0031124877310357985,-0.006223071199352853
1782987334869393200,9.61239306640625,0.07305763742625714,0.0026938604601658878,0.009046978646819479
1782987334879467000,9.622467041015625,0.05884323411285877,-0.004731960425339639,0.004107914809440262
1782987334889541000,9.632541015625,0.05539923113882542,-0.0033215091055259108,-0.0107846252275398
1782987334899616000,9.642615966796875,0.06198737735748291,-0.0026922530249692497,-0.01397980910623446
1782987334909690000,9.652690185546875,0.06318272462189198,0.014643935570772737,-0.007081875419197603
1782987334919765200,9.66276513671875,0.06407821215689181,0.001529785116855055,0.00549003051733598
1782987334929839000,9.672839111328125,0.06661795976758003,0.006442052278853952,0.0101160372170154
1782987334939913000,9.682912841796876,0.05554068543612957,0.0052498285532929,0.013751836436102166
1782987334949988000,9.692988037109375,0.0667629211962223,-0.006444591295812279,-0.006483082975563593
1782987334960062000,9.70306201171875,0.07110241170525551,0.007161927518621086,-0.01948108253679238
1782987334970137000,9.71313720703125,0.06152794315218925,-0.00007996990103274583,-0.012103703902894631
1782987334980211000,9.7232109375,0.06048164896965026,0.0023790771562606093,-0.01509918222471606
1782987334990285000,9.73328515625,0.06392039124667644,0.021414507417939602,0.011360890745534561
1782987335000360000,9.74335986328125,0.04835574236810207,0.005001899940520525,-0.007854229764873162
1782987335010434000,9.75343408203125,0.05194353772699833,-0.004103946453798562,-0.004281234682886861
1782987335020509000,9.763509033203125,0.05418985534906387,-0.0010719766130670905,-0.012111288987728766
1782987335030583000,9.7735830078125,0.057630935713648794,-0.002459576780255884,-0.014896654523094183
1782987335040657200,9.7836572265625,0.06945698258578777,-0.009002952275425195,-0.0007728429694427177
1782987335050732000,9.79373193359375,0.047608723393082614,-0.005163447177782655,-0.019607028737710787
1782987335060806100,9.80380615234375,0.06706219640374184,-0.006920501711871475,-0.008421663522440939
1782987335070881000,9.813881103515625,0.06481646330356597,0.0036415348401293156,-0.010803768319427035
1782987335080955100,9.823955078125,0.046859366330504415,0.009277074775379151,-0.005960552372224629
1782987335091029200,9.834029296875,0.041920156362652776,0.006546663430798798,-0.009884867942798883
1782987335101104000,9.844104248046875,0.048505964493751524,-0.012678827776573597,-0.0016683168047107754
1782987335111178200,9.85417822265625,0.05613514419794082,-0.022173381227534265,-0.010246700692246667
1782987335121253000,9.864253173828125,0.043413609790802,-0.004760218405444175,-0.00009844627263955771
1782987335131327200,9.8743271484375,0.05238952792882919,0.010400105722248554,0.0039347273667342956
1782987335141401000,9.884401123046874,0.05867489180862903,-0.010682210599258541,0.001460706502594985
1782987335151476200,9.894476318359375,0.06765256351232528,0.0059027577703818675,-0.008185320316185242
1782987335161550000,9.904550048828124,0.07034311777055263,0.004776384088955819,-0.0005073513005161657
1782987335171625200,9.914625244140625,0.07124386600255966,-0.005424892859254032,-0.0059258783510653295
1782987335181699000,9.924698974609376,0.06525660828649997,0.007106142210774123,-0.002479436824773438
1782987335191773200,9.934773193359375,0.0640612610220909,0.0050496115397661925,-0.02030076945580076
1782987335201848000,9.94484814453125,0.07468319280147552,-0.003125913468189537,0.0116727149073733
1782987335211921200,9.954921142578126,0.06525368567705155,-0.007385488875117152,-0.00414086266439408
1782987335221996000,9.96499609375,0.055223874571919435,0.009215133721381425,0.003761348127783276
1782987335232070100,9.975070068359376,0.05731587841510773,0.006973419209197163,-0.010368568939669058
1782987335242144000,9.98514404296875,0.06808686327636242,-0.002577321408409625,0.0014924990135012195
1782987335252219100,9.99521923828125,0.06539163284301758,0.0024733678435906767,0.0020945930924965066
1782987335262293000,10.00529296875,0.06913140389323234,0.009026260085776448,-0.0014420063687022775
1782987335272368000,10.0153681640625,0.074814710226655,-0.0024569829643703994,-0.012534555901098064
1782987335282442000,10.02544189453125,0.055209261524677276,-0.005702650354709476,0.0017385005306685343
1782987335292516400,10.035516357421875,0.06747779146730899,0.004098119501210749,-0.0028629608162213114
1782987335302591000,10.045591064453125,0.0568552751660347,-0.007800828210357576,0.0008708508506650105
1782987335312665300,10.055665283203124,0.05910159278810024,-0.009251995133049785,0.000713271969044581
1782987335322740000,10.065739990234375,0.06703413935303687,0.0015950506391003727,-0.0020238750769989563
1782987335332814300,10.075814453125,0.07571370489299296,-0.0029951084290631112,-0.010188116072537378
1782987335342888200,10.08588818359375,0.07032382854819297,0.004664137619826942,-0.006880882087536156
1782987335352963300,10.09596337890625,0.07571136680543422,-0.0038714711384847758,-0.003933494390873238
1782987335363037200,10.106037109375,0.056707975649833674,-0.0010359006526879965,0.0027957773315254596
1782987335373112300,10.1161123046875,0.06075228260457515,-0.0010618936104699968,0.00411565972447861
1782987335383186200,10.126186279296874,0.0552168603092432,-0.003991042397543788,-0.016586575804837047
1782987335393260000,10.136260009765625,0.07182429623901844,-0.008102660701144486,-0.013243845814769156
1782987335403335200,10.146335205078126,0.06598550708293914,0.004531524216104299,-0.004066614684672095
1782987335413409300,10.1564091796875,0.05805471408367156,-0.001197977612912655,-0.01681040658939164
1782987335423484200,10.166484130859375,0.06554010140299797,-0.011517930771037936,0.003371746021998115
1782987335433558300,10.176558349609374,0.06823591635823249,-0.005875047779548913,0.0007912919415859505
1782987335443632000,10.186632080078125,0.06240414146482944,-0.010180014964472501,-0.004302432734542526
1782987335453706500,10.19670654296875,0.0438490785986185,-0.009438695077877491,-0.004040087437350303
1782987335463780400,10.2067802734375,0.07856792528033256,-0.001991466078162193,-0.013533910235948859
1782987335473855500,10.21685546875,0.06450491313636303,-0.0035581126066856084,-0.008337464970862492
1782987335483929300,10.226929443359374,0.06510872424840927,0.0016073986640200019,-0.0240831923376536
1782987335494003500,10.23700341796875,0.07692834137976169,0.004555507879890501,-0.02715496903238818
1782987335504078300,10.247078369140626,0.08036591461300849,-0.008304010225832463,-0.0049342232654802495
1782987335514152400,10.25715234375,0.06824293062090873,-0.004645816511847078,-0.002972860064636916
1782987335524226300,10.267226318359375,0.07033727255165577,-0.0023948044483549894,0.012104311257670633
1782987335534301400,10.277301513671874,0.05402911182940006,0.0015762363407760857,0.0175236191929318
1782987335544375300,10.287375244140625,0.05837035590410232,0.010634078874904663,-0.0021117177572334183
1782987335554450400,10.297450439453126,0.07692308068275451,-0.0032280769347213206,0.0005858781631337478
1782987335564524300,10.307524169921875,0.0686889208227396,-0.005932878914009779,-0.002654761425638571
1782987335574598700,10.3175986328125,0.05405483079254627,0.0105722291524522,-0.02280524939028546
1782987335584673300,10.32767333984375,0.03385726141631603,0.0034527708023786544,-0.052167683605384076
1782987335594747600,10.33774755859375,0.09176818311512469,-0.02386042099902406,0.032825228654569945
1782987335604822300,10.347822265625,0.029225509962439535,-0.010007416610233485,0.0053010061846813184
1782987335614896600,10.357896728515625,0.09342238006293774,0.0069422934185713525,-0.02375177299277857
1782987335624970500,10.367970458984376,0.050178866142034526,-0.006777366914134472,0.012060641079302877
1782987335635045600,10.378045654296875,0.0693295568138361,-0.0045953284336253996,-0.02074080027430318
1782987335645119500,10.388119384765625,0.061246788123250004,-0.012398786992486565,-0.008579589463933371
1782987335655194600,10.398194580078124,0.0782914464265108,-0.015295403483137487,-0.0013487340281018987
1782987335665268500,10.4082685546875,0.066910805234313,0.0005205898080021142,-0.010989938541292212
1782987335675342600,10.418342529296876,0.04701309558749198,0.006736833974346518,0.0059639818717492745
