time,seconds_elapsed,z,y,x
1782987325328944000,0.071944091796875,-0.0003443547757342458,-0.001293308800086379,0.001442784327082336
1782987325339018000,0.08201806640625,0.00020257546566426754,0.00010553328320384026,-0.0013850810937583447
1782987325349092000,0.092092041015625,-0.00010129122529178858,0.0007425614167004824,-0.00014804271631874144
1782987325359167000,0.1021669921875,-0.0003700386150740087,-0.00030469405464828014,-0.0011483990820124745
1782987325369241300,0.112241455078125,-0.00002169713843613863,0.0014159742277115583,-0.0035556303337216377
1782987325379315200,0.122315185546875,0.0004790842067450285,0.00008121645078063011,-0.0012852890649810433
1782987325389390300,0.132390380859375,-0.0009635501774027944,0.00006390595808625221,-0.0006791535997763276
1782987325399464200,0.142464111328125,-0.000020507141016423702,-0.000461918069049716,-0.000288017385173589
1782987325409539300,0.152539306640625,0.00025619519874453545,-0.0001412734854966402,0.0015668743290007114
1782987325419613200,0.16261328125,-0.0007689379272051156,0.0014787099789828062,-0.0005365734687075019
1782987325429687000,0.17268701171875,-0.001650976832024753,0.0010603272821754217,-0.00219092913903296
1782987325439762700,0.1827626953125,0.000549058779142797,-0.0002915281802415848,0.00175378262065351
1782987325449836500,0.19283642578125,0.0004910018760710955,0.0009276669006794691,-0.0007495887111872435
1782987325459910400,0.202910400390625,0.0007863108767196536,-0.0004161922261118889,0.0030612852424383163
1782987325469985500,0.212985595703125,-0.0006754982750862837,0.003400383982807398,-0.0014138903934508562
1782987325480059400,0.223059326171875,0.00025000295136123896,0.00023143342696130276,0.0017545778537169099
1782987325490134500,0.233134521484375,0.000883568893186748,-0.0002655124990269542,-0.0013296289835125208
1782987325500208400,0.24320849609375,-0.0023479419760406017,-0.0018636755412444472,-0.0005740760243497789
1782987325510282500,0.253282470703125,0.0017277597216889262,0.0023164222948253155,0.0017876152414828539
1782987325520357600,0.263357666015625,-0.0007939737988635898,0.0024475515820086002,0.0011879440862685442
1782987325530431500,0.273431396484375,0.0012406812747940421,0.0014659103471785784,0.0005581064615398645
1782987325540506600,0.283506591796875,0.0017839178908616304,0.0003088356461375952,0.002112907823175192
1782987325550580500,0.29358056640625,-0.00043795746751129627,-0.00026028184220194817,-0.0010184372076764703
1782987325560654300,0.303654296875,0.0006550198886543512,-0.0010571684688329697,0.0007716919644735754
1782987325570729500,0.3137294921875,-0.00025871070101857185,-0.0027133882977068424,-0.0005737369647249579
1782987325580803300,0.32380322265625,-0.0016440888866782188,0.00022764410823583603,-0.0005353160086087883
1782987325590878500,0.33387841796875,-0.00039693055441603065,0.0013480361085385084,-0.0024972667451947927
1782987325600952300,0.343952392578125,-0.0014338905457407236,-0.000252012861892581,-0.002234305953606963
1782987325611026400,0.3540263671875,0.001144049339927733,-0.0014080910477787256,0.0006735997158102691
1782987325621101300,0.364101318359375,-0.0006609109696000814,-0.000046416884288191795,-0.0011646556667983532
1782987325631175400,0.374175537109375,-0.0003772843047045171,-0.0015026333276182413,-0.0024688055273145437
1782987325641250600,0.38425048828125,-0.0014208353823050857,-0.001454414101317525,0.0009980767499655485
1782987325651324400,0.394324462890625,0.000726471422240138,-0.002359089907258749,-0.0010176697978749871
1782987325661398500,0.4043984375,0.00011894700583070517,-0.00018756440840661526,-0.0020103466231375933
1782987325671473400,0.414473388671875,0.0004694190574809909,-0.0008147387998178601,-0.0017882389947772026
1782987325681547500,0.424547607421875,-0.000032590702176094055,-0.0009463470196351409,0.003297124058008194
1782987325691621600,0.43462158203125,-0.0008363326778635383,0.0009263877291232347,-0.0003154537989757955
1782987325701696500,0.444696533203125,-0.001142541179433465,0.001664917217567563,0.00006611007847823203
1782987325711770600,0.4547705078125,0.001077203662134707,-0.0013471178244799376,0.0022224716376513243
1782987325721845500,0.464845458984375,-0.000804500246886164,-0.00186567020136863,-0.0021383108105510473
1782987325731919600,0.474919677734375,0.0012695696204900742,-0.0019261239795014262,-0.00017050112364813685
1782987325741993500,0.484993408203125,-0.00014093925710767508,-0.0007500080391764641,0.0009803490247577429
1782987325752068600,0.495068603515625,0.000047079985961318016,-0.0005896857473999262,0.0006908634677529335
1782987325762142500,0.505142578125,-0.0010276346001774073,-0.0014532150235027075,0.0035427522379904985
1782987325772217600,0.515217529296875,0.00044056610204279423,-0.0016902362694963813,0.0007933048182167113
1782987325782291500,0.52529150390625,-0.0012395428493618965,-0.00044400617480278015,-0.000562051311135292
1782987325792365600,0.535365478515625,0.00013331673108041286,0.0012087516952306032,0.0006044132169336081
1782987325802440400,0.5454404296875,-0.001519027166068554,-0.0003832235233858228,0.0009103322518058121
1782987325812514600,0.5555146484375,0.0003129612887278199,-0.00006524217315018177,-0.0002729102270677686
1782987325822589400,0.56558935546875,0.0009312317706644535,-0.00019812770187854767,0.0027770288288593292
1782987325832663600,0.57566357421875,0.003020747797563672,0.002020818181335926,0.0011700772447511554
1782987325842737400,0.5857373046875,-0.0004060145001858473,-0.0005596345290541649,0.0009572335402481258
1782987325852812500,0.5958125,0.0006222318625077605,0.0017562501598149538,0.0017987923929467797
1782987325862886400,0.605886474609375,0.00012601306661963463,0.00019995123147964478,-0.0013353469548746943
1782987325872960500,0.61596044921875,0.0012661123182624578,-0.0006495971465483308,-0.0004716838011518121
1782987325883035400,0.626035400390625,-0.0016628977609798312,-0.0009264695690944791,-0.0014188589993864298
1782987325893109500,0.636109619140625,-0.00005301693454384804,0.0006738239899277687,0.0013708022888749838
1782987325903184400,0.646184326171875,-0.001780795631930232,0.0021361024118959904,-0.0024969838559627533
1782987325913258500,0.656258544921875,-0.002825021045282483,0.0025880406610667706,-0.001716411323286593
1782987325923332400,0.666332275390625,-0.0004893532604910433,-0.001304288161918521,0.0007247888715937734
1782987325933407500,0.676407470703125,0.0008094704244285822,-0.0000347592867910862,0.0021823367569595575
1782987325943481300,0.6864814453125,-0.00032719981390982866,-0.0012677648337557912,0.0009718703222461045
1782987325953556500,0.696556396484375,-0.0005732759018428624,0.0013439971953630447,-0.0016880949260666966
1782987325963630300,0.70663037109375,0.000652974471449852,-0.002168502891436219,-0.00003203065716661513
1782987325973704700,0.71670458984375,-0.0019417433068156242,-0.00019243755377829075,0.0022633480839431286
1782987325983779300,0.726779296875,0.0006900118896737695,0.0004865294322371483,0.0010293095838278532
1782987325993853700,0.736853759765625,0.0011150523787364364,-0.0014695622958242893,0.0006279711960814893
1782987326003928300,0.74692822265625,0.0000553355785086751,-0.00031760556157678366,0.0007676141103729606
1782987326014002700,0.757002685546875,0.0009581472259014845,0.0007631052285432816,-0.00037434935802593827
1782987326024076500,0.76707666015625,0.001465837238356471,-0.0003294950583949685,-0.00004525925760390237
1782987326034151700,0.777151611328125,-0.0014564492739737034,0.00048543233424425125,0.0016479785554111004
1782987326044225500,0.7872255859375,-0.0018126488430425525,-0.0016006589867174625,-0.0004026844399049878
1782987326054299600,0.797299560546875,0.0001535629853606224,0.0013266876339912415,-0.002015494741499424
1782987326064374500,0.80737451171875,-0.0010259244590997696,0.0022853813134133816,-0.001827687956392765
1782987326074448600,0.81744873046875,0.0021528247743844986,0.00013887370005249977,0.0019574628677219152
1782987326084523500,0.8275234375,0.0003863374004140496,-0.001230318215675652,0.0017932760529220104
1782987326094597600,0.83759765625,-0.00031806877814233303,0.002449105028063059,-0.000290647498331964
1782987326104671500,0.84767138671875,-0.0005028952145949006,-0.00035766814835369587,0.0016005547950044274
1782987326114746600,0.85774658203125,0.0007796832360327244,0.000009848037734627724,-0.00027058215346187353
1782987326124820500,0.867820556640625,0.0011139651760458946,-0.00011812569573521614,-0.0019313925877213478
1782987326134895600,0.8778955078125,-0.0026078023947775364,-0.0005610095104202628,0.0009615992312319577
1782987326144969500,0.887969482421875,-0.0013819425366818905,0.0005336585454642773,-0.001225275220349431
1782987326155043600,0.898043701171875,0.00036429218016564846,0.0005626869387924671,-0.00008730643457965925
1782987326165118500,0.908118408203125,0.0020556915551424026,-0.0015410007908940315,-0.000027589259843807667
1782987326175192600,0.918192626953125,0.0022575592156499624,-0.0013540468644350767,0.002714933827519417
1782987326185267500,0.928267333984375,-0.000050428323447704315,0.0006191369611769915,0.0012183631770312786
1782987326195341600,0.938341552734375,-0.00042034132638946176,0.0005853148177266121,0.0008521784911863506
1782987326205415400,0.94841552734375,-0.0004364382475614548,0.0004074219614267349,0.0016752885421738029
1782987326215490600,0.958490478515625,-0.0016614922787994146,0.0017813467420637608,0.00031015212880447507
1782987326225564400,0.968564453125,-0.0007725373143330216,-0.0014161725994199514,-0.00042950757779181004
1782987326235639600,0.9786396484375,-0.0005128791090101004,0.0012043779715895653,-0.0002007420116569847
1782987326245713400,0.98871337890625,0.0005481458501890302,-0.0006237972993403673,0.00010142881365027279
1782987326255787500,0.99878759765625,0.002281597349792719,-0.00004802178591489792,-0.0020631884690374136
1782987326265862400,1.0088623046875,-0.0014432163443416357,-0.0006597964093089104,0.0012492042733356357
1782987326275936500,1.0189365234375,0.0016561704687774181,0.0000760350376367569,-0.0015290053561329842
1782987326286010600,1.0290107421875,0.0004957541823387146,0.0006336313672363758,-0.0014460068196058273
1782987326296085500,1.03908544921875,0.00012717267964035273,-0.00019700848497450352,0.000008345443347934633
1782987326306159600,1.04915966796875,0.00015731144230812788,-0.0021592825651168823,0.0002964765881188214
1782987326316234500,1.059234375,-0.002880556508898735,0.001854633679613471,-0.002254565479233861
1782987326326308600,1.06930859375,-0.0005496048834174871,0.000893767923116684,0.001254294766113162
1782987326336382500,1.079382568359375,0.0002048686146736145,-0.00017575756646692753,-0.0015137948794290423
1782987326346457600,1.08945751953125,-0.00004357274156063795,-0.0021447939798235893,0.0008196307462640107
1782987326356531500,1.099531494140625,0.0012565824436023831,0.0012584596406668425,0.00014238891890272498
1782987326366606600,1.109606689453125,-0.0005903675919398665,0.00047703832387924194,-0.001289554638788104
1782987326376680700,1.1196806640625,-0.0016076951287686825,0.00013775145635008812,-0.001319648465141654
1782987326386754600,1.129754638671875,-0.0014958094106987119,-0.00014614558313041925,0.0003380730049684644
1782987326396829700,1.13982958984375,0.0001106093404814601,0.0015902353916317225,-0.0012153488351032138
1782987326406903600,1.149903564453125,-0.0018532865215092897,0.0008353604935109615,-0.001384962466545403
1782987326416978700,1.159978759765625,-0.0005800291546620429,0.00037117162719368935,-0.0025333177763968706
1782987326427052500,1.170052490234375,0.00014033995103091002,-0.0016084101516753435,0.0008008197764866054
1782987326437126000,1.1801259765625,-0.001249563880264759,0.00044728396460413933,0.0007595407660119236
1782987326447201000,1.190200927734375,-0.0011879527010023594,-0.00040474836714565754,0.0012002342846244574
1782987326457275100,1.200275146484375,-0.0016524080419912934,0.0014821011573076248,-0.0017630651127547026
1782987326467349000,1.210348876953125,-0.0008517922833561897,0.0006069175433367491,0.0013567800633609295
1782987326477424000,1.220424072265625,0.0005098819965496659,-0.0004719289718195796,-0.0030062769073992968
1782987326487498000,1.230498046875,-0.0004339587758295238,0.001048327423632145,0.000505266129039228
1782987326497573000,1.240572998046875,0.000315188430249691,0.002334634307771921,-0.0005911572370678186
1782987326507647000,1.25064697265625,-0.0005898457602597773,0.0009881195146590471,-0.0000013639655662700534
1782987326517720800,1.260720947265625,-0.0017573755467310548,0.0007265969179570675,-0.002460793126374483
1782987326527796000,1.2707958984375,0.0001854390138760209,0.0002295258454978466,-0.0012643284862861037
1782987326537869800,1.280869873046875,0.0006179363699629903,0.0008617602288722992,-0.00023155460075940937
1782987326547945000,1.290945068359375,-0.0024153837002813816,-0.0024624457582831383,0.0006566366064362228
1782987326558018800,1.301018798828125,0.0013442006893455982,-0.000054948264732956886,0.0011913992930203676
1782987326568093200,1.31109326171875,-0.0012252724263817072,0.0016456327866762877,0.0003684095572680235
1782987326578168000,1.32116796875,-0.00013177841901779175,0.0011771826539188623,-0.001500863116234541
1782987326588242200,1.3312421875,-0.0008066496229730546,-0.0007160023087635636,0.0002232430997537449
1782987326598317000,1.341317138671875,-0.00031955738086253405,-0.00026646070182323456,-0.0007022054051049054
1782987326608391200,1.35139111328125,-0.0014244131743907928,0.0004982876125723124,0.0017816839972510934
1782987326618465000,1.361465087890625,-0.0024763618130236864,0.002326813992112875,-0.0019392846152186394
1782987326628540200,1.3715400390625,-0.0006178202456794679,0.00015021278522908688,0.0001630632032174617
1782987326638614000,1.381614013671875,-0.0022596591152250767,0.000039425212889909744,-0.00036317744525149465
1782987326648688000,1.391688232421875,0.0002172013046219945,-0.0008179463911801577,-0.0012347183655947447
1782987326658763000,1.401762939453125,-0.0009415401145815849,-0.0004698712145909667,0.0005892806220799685
1782987326668837000,1.411837158203125,0.00007833901327103376,-0.0010080267675220966,0.0011606743792071939
1782987326678912000,1.421912109375,-0.000887589470949024,-0.000586448353715241,0.0007196549559012055
1782987326688986000,1.431986083984375,-0.0003868156345561147,-0.0015478625427931547,0.002060702070593834
1782987326699060000,1.44206005859375,0.00014182180166244507,-0.0007486478425562382,-0.0003140388580504805
1782987326709135000,1.452135009765625,0.0021160526666790247,0.0009093305561691523,0.00040223950054496527
1782987326719209000,1.462208984375,-0.00040409661596640944,-0.0013873795978724957,-0.001238267752341926
1782987326729284000,1.4722841796875,-0.0010354347759857774,-0.000987278064712882,-0.000236687294091098
1782987326739358000,1.48235791015625,0.0003811005735769868,-0.0004991206806153059,0.0009833067888393998
1782987326749432000,1.49243212890625,-0.0015582058113068342,-0.0007338215364143252,0.0003415985556785017
1782987326759507000,1.5025068359375,0.00008363300003111362,0.0005823126994073391,-0.0005553540540859103
1782987326769581000,1.5125810546875,0.0006783630233258009,-0.000017496757209300995,0.0007593989721499383
1782987326779656000,1.522656005859375,-0.0009160714689642191,0.0014927817974239588,-0.0013514225138351321
1782987326789730000,1.53272998046875,0.0009251919109374285,-0.0005940048722550273,0.0015066192718222737
1782987326799804000,1.542803955078125,-0.0006982711493037641,-0.000272028730250895,-0.0013560125371441245
1782987326809879000,1.552879150390625,-0.001386802177876234,-0.0005946530727669597,-0.00020294447313062847
1782987326819953000,1.562952880859375,0.0002957830438390374,-0.00017493893392384052,-0.0014631522353738546
1782987326830027000,1.573027099609375,0.0008991844952106476,-0.001540816854685545,-0.0007637887611053884
1782987326840102000,1.583101806640625,0.0005084987496957183,0.0011673516128212214,0.00314333476126194
1782987326850176000,1.593176025390625,-0.0010069322306662798,-0.0005488295573741198,-0.0017865969566628337
1782987326860251000,1.6032509765625,0.00024448707699775696,0.0005103095900267363,0.0014046690193936229
1782987326870325000,1.613324951171875,0.00012013607192784548,-0.00028954900335520506,-0.0007389025995507836
1782987326880399000,1.623399169921875,0.0009377265814691782,-0.00048529135528951883,-0.0021106968633830547
1782987326890474000,1.633473876953125,0.000990229775197804,0.0015100582968443632,-0.0004915542667731643
1782987326900548000,1.643548095703125,0.0013606754364445806,0.00011935550719499588,0.003488007467240095
1782987326910623000,1.653623046875,0.0007014709990471601,-0.0053964098915457726,0.002763640834018588
1782987326920697000,1.663697021484375,0.00012676080223172903,0.002182680182158947,0.0001875651942100376
1782987326930771200,1.673771240234375,-0.000657739641610533,-0.001529341097921133,0.000031207655410980806
1782987326940846000,1.68384619140625,0.0007870252011343837,-0.0003836492542177439,-0.0012023685267195106
1782987326950920200,1.693920166015625,-0.0005869222222827375,-0.00047672668006271124,0.001326504279859364
1782987326960995000,1.7039951171875,0.0009657006012275815,0.0008282223716378212,0.0013906863750889897
1782987326971069200,1.714069091796875,0.0004076617769896984,-0.0015150317922234535,0.0011876029893755913
1782987326981143000,1.72414306640625,0.0009389624465256929,-0.0011722829658538103,-0.0014782212674617767
1782987326991218200,1.73421826171875,-0.0013836119323968887,-0.00003747735172510147,-0.004204248543828726
1782987327001292000,1.7442919921875,0.0013610419118776917,0.0010658702813088894,0.0011556294048205018
1782987327011366100,1.7543662109375,0.00329054263420403,0.0007827684748917818,0.0021716072224080563
1782987327021441000,1.76444091796875,-0.0002634456614032388,0.000875446479767561,-0.0012034167302772403
1782987327031515100,1.77451513671875,-0.0006811677594669163,-0.0016308105550706387,-0.00019749061902984977
1782987327041590000,1.784590087890625,-0.0008500121766701341,0.0007660344708710909,-0.0015570343239232898
1782987327051664100,1.7946640625,-0.0022593443281948566,-0.0003511393442749977,-0.0014192948583513498
1782987327061738000,1.804738037109375,0.002235805382952094,0.0007471484132111073,0.0011605091858655214
1782987327071813000,1.814813232421875,-0.0006195461028255522,0.00108806393109262,0.00023266885546036065
1782987327081887000,1.824886962890625,0.00037780776619911194,-0.0008310099365189672,-0.0009220777428708971
1782987327091962000,1.834962158203125,0.002941589104011655,0.01068814005702734,-0.004303759429603815
1782987327102036000,1.845035888671875,0.002878205617889762,0.001087444368749857,0.0004395970609039068
1782987327112110000,1.855110107421875,0.003077106084674597,0.0033225170336663723,-0.00023969041649252176
1782987327122185000,1.86518505859375,0.001703181304037571,0.003674320410937071,-0.0008660659077577293
1782987327132259000,1.875259033203125,0.00007305736653506756,-0.0017605447210371494,-0.000362717779353261
1782987327142334000,1.885333984375,0.00040914828423410654,0.00254552043043077,-0.0022032284177839756
1782987327152408000,1.895407958984375,0.0009900734294205904,-0.007277242839336395,0.0016755429096519947
1782987327162482000,1.90548193359375,0.00009738176595419645,-0.004618609324097633,-0.000036603305488824844
1782987327172557000,1.91555712890625,-0.0005111685022711754,-0.008478144183754921,0.001189355505630374
1782987327182631000,1.925630859375,0.0007663499563932419,0.002751606982201338,-0.002369160298258066
1782987327192705300,1.935705322265625,-0.0012732737231999636,-0.002310308860614896,-0.0025823162868618965
1782987327202780000,1.94577978515625,0.0022689970210194588,0.0015054682735353708,-0.000977761927060783
1782987327212854300,1.955854248046875,-0.0018539329757913947,-0.0000899038277566433,-0.001344227697700262
1782987327222929000,1.965928955078125,0.0004963066894561052,0.0017838962376117706,-0.0000017282363842241466
1782987327233003300,1.976003173828125,0.0005337938200682402,0.0010060688946396112,0.0007157290820032358
1782987327243077000,1.9860771484375,0.0008853311883285642,0.00032989238388836384,0.0015112152323126793
1782987327253152300,1.99615234375,0.0016782786697149277,-0.0005140294088050723,-0.0008465892751701176
1782987327263226000,2.00622607421875,0.0004795897984877229,-0.0012988629750907421,0.00008924549911171198
1782987327273301200,2.01630126953125,-0.0007569274748675525,0.0023049097508192062,0.0008024811977520585
1782987327283375000,2.026375,-0.0013175229541957378,0.0021882629953324795,0.00008369405259145424
1782987327293449000,2.036448974609375,-0.00023634033277630806,-0.0005774465389549732,-0.000662979728076607
1782987327303524000,2.046524169921875,0.001310689956881106,0.000041205668821930885,0.0033988733775913715
1782987327313598000,2.056597900390625,-0.0001733996905386448,-0.0006083872867748141,0.0002707833191379905
1782987327323673000,2.066673095703125,0.0006266138516366482,-0.0003934701671823859,0.0018790662288665771
1782987327333747200,2.076747314453125,-0.0004950750153511763,0.003235005773603916,0.0012833927758038044
1782987327343821000,2.086821044921875,-0.00033581798197701573,0.0014882383402436972,-0.0004109102301299572
1782987327353896200,2.096896240234375,-0.0017052913317456841,0.0009397426620125771,-0.0012088838266208768
1782987327363970000,2.106969970703125,0.0003021995071321726,-0.002386012813076377,0.0018827798776328564
1782987327374044000,2.1170439453125,-0.0008690205868333578,-0.002471135463565588,0.0015758919762447476
1782987327384119000,2.127119140625,0.0007003801874816418,-0.00023727607913315296,-0.0011847408022731543
1782987327394193000,2.13719287109375,-0.002810619305819273,0.000811111880466342,0.0017338433535769582
1782987327404268000,2.14726806640625,-0.0016683894209563732,-0.0014270085375756025,0.0023338536266237497
1782987327414342000,2.157341796875,0.00005871732719242573,0.0007471155840903521,0.0005245170323178172
1782987327424416000,2.167416015625,-0.0003636600449681282,-0.0005559691926464438,-0.00022942385112401098
1782987327434491100,2.1774912109375,-0.0012024481547996402,0.0002253674902021885,-0.00014787865802645683
1782987327444565000,2.18756494140625,-0.0012778156669810414,0.0029314053244888783,-0.002531407866626978
1782987327454640000,2.19764013671875,-0.0014770962297916412,0.0014511854387819767,0.000914141011890024
1782987327464714000,2.2077138671875,-0.00002886925358325243,0.0004429128021001816,-0.0010547339916229248
1782987327474788000,2.2177880859375,-0.0017266867216676474,-0.0005959967384114861,0.00010047110845334828
1782987327484863000,2.227863037109375,-0.0033328391145914793,-0.00037788390181958675,0.002862701890990138
1782987327494937000,2.23793701171875,-0.0025435539428144693,0.0020557581447064877,0.001379186986014247
1782987327505012200,2.24801220703125,0.0006889909273013473,0.0002525316085666418,0.00044548267032951117
1782987327515086000,2.258086181640625,-0.0017725896323099732,-0.0010709086200222373,-0.0007355146226473153
1782987327525160200,2.26816015625,-0.0015504820039495826,0.00017092330381274223,0.0007119133952073753
1782987327535235000,2.278235107421875,-0.0013579836813732982,0.002283239271491766,0.0010248800972476602
1782987327545309200,2.28830908203125,-0.00040909938979893923,0.0009252931922674179,0.0004821278271265328
1782987327555384000,2.298384033203125,-0.00033029948826879263,-0.002694426802918315,-0.00006715142808388919
1782987327565458200,2.308458251953125,0.00105827278457582,0.0010174871422350407,-0.002014454687014222
1782987327575532300,2.3185322265625,-0.0012432597577571869,-0.000980858807452023,0.0009421988506801426
1782987327585607200,2.328607177734375,-0.00024191115517169237,0.0003509880043566227,0.0022127931006252766
1782987327595681300,2.338681396484375,0.00021124316845089197,-0.0002220978494733572,-0.0012717589270323515
1782987327605755100,2.348755126953125,0.0013681203126907349,-0.000941950362175703,0.00044331682147458196
1782987327615830300,2.358830322265625,-0.001384792965836823,0.0009322052355855703,0.0015867562033236027
1782987327625904000,2.368904052734375,0.0002919331891462207,-0.0023040680680423975,0.00109753361903131
1782987327635979300,2.378979248046875,-0.0003166755777783692,0.002177464310079813,-0.0014877511421218514
1782987327646053000,2.38905322265625,-0.0025015329010784626,0.0006048679351806641,-0.000668030115775764
1782987327656127200,2.399127197265625,-0.0018957527354359627,0.0010192906484007835,0.0008295120787806809
1782987327666202000,2.4092021484375,-0.0014366238610818982,0.0016459324397146702,0.0015459024580195546
1782987327676276200,2.419276123046875,0.0013949554413557053,-0.0006231506122276187,0.000657635391689837
1782987327686351000,2.42935107421875,0.0006095892749726772,-0.0004886609967797995,-0.00027100887382403016
1782987327696425200,2.43942529296875,-0.0006183140794746578,-0.00123195955529809,-0.0002713875728659332
1782987327706499000,2.4494990234375,-0.00021484517492353916,0.0011395853944122791,-0.0025811472442001104
1782987327716574200,2.45957421875,-0.0007073686574585736,0.0001478344202041626,-0.0025470766704529524
1782987327726648000,2.46964794921875,-0.0012360061518847942,-0.0004678883124142885,-0.0025579954963177443
1782987327736723200,2.47972314453125,0.0004692107904702425,0.0011619206052273512,-0.0007759635336697102
1782987327746797000,2.489797119140625,-0.0006423926679417491,0.001899882685393095,0.00020674290135502815
1782987327756871200,2.49987109375,-0.000124756945297122,0.00021010683849453926,0.0014169109053909779
1782987327766946000,2.509946044921875,0.000598291284404695,-0.0005877763032913208,0.0003260801895521581
1782987327777020200,2.520020263671875,0.00013654341455549002,-0.002977957483381033,0.0002827051794156432
1782987327787094000,2.530093994140625,-0.0007966282428242266,0.0017645994666963816,-0.0014717853628098965
1782987327797169200,2.540169189453125,0.001300651696510613,-0.0009266556007787585,-0.002316403668373823
1782987327807243000,2.550242919921875,-0.0015926064224913716,-0.0007117385976016521,0.0003315774374641478
1782987327817318100,2.560318115234375,0.00008454255294054747,-0.0012446381151676178,-0.0025527130346745253
1782987327827392000,2.57039208984375,-0.0008840491063892841,0.0019274530932307243,-0.0014200706500560045
1782987327837466000,2.580466064453125,0.001256164745427668,0.0012986240908503532,0.0010234960354864597
1782987327847541000,2.590541015625,0.0007640124531462789,-0.001382380141876638,-0.0008745388477109373
1782987327857615400,2.600615478515625,-0.0006229536375030875,-0.001029389095492661,-0.0015558841405436397
1782987327867690000,2.61068994140625,0.0007195459911599755,-0.0008381741354241967,0.0008787775877863169
1782987327877764400,2.620764404296875,0.00045699067413806915,0.00010815635323524475,-0.0014217623975127935
1782987327887838200,2.630838134765625,0.002003222005441785,0.0003739397507160902,0.002417450537905097
1782987327897913300,2.640913330078125,-0.00009405298624187708,0.00058967643417418,-0.0015402933349832892
1782987327907987200,2.6509873046875,0.00022685795556753874,-0.0009954371489584446,-0.0015597344608977437
1782987327918062300,2.661062255859375,0.0002674886491149664,-0.0018135071732103825,-0.001543222926557064
1782987327928136200,2.67113623046875,-0.0005594228277914226,-0.00042147282510995865,-0.0025770619977265596
1782987327938210300,2.681210205078125,-0.0003861915902234614,-0.0010604761773720384,-0.001114690792746842
1782987327948285200,2.69128515625,-0.001247457810677588,0.001531844725832343,0.0015812271740287542
1782987327958359300,2.701359375,-0.00021559325978159904,0.0026019751094281673,0.0009221804793924093
1782987327968433200,2.71143310546875,-0.0013357187854126096,-0.0005336307222023606,0.0017909037414938211
1782987327978508300,2.72150830078125,0.00031857704743742943,0.0007868485990911722,0.0008237818838097155
1782987327988582100,2.73158203125,-0.00023695838171988726,-0.001576440641656518,-0.0017112811328843236
1782987327998657300,2.7416572265625,0.00013781373854726553,0.0005450055468827486,0.00236079515889287
1782987328008731100,2.751731201171875,-0.0018230717396363616,0.001682974398136139,-0.0007130253361538053
1782987328018805200,2.76180517578125,-0.00003184308297932148,-0.0006067325593903661,-0.0008667676011100411
1782987328028880100,2.771880126953125,-0.0011229402152821422,0.00003162701614201069,-0.0007469253614544868
1782987328038954200,2.781954345703125,0.0005928518949076533,-0.00021982588805258274,-0.0004649229522328824
1782987328049029000,2.792029052734375,-0.0007408591918647289,-0.00243717385455966,-0.0009653308661654592
1782987328059103200,2.802103271484375,-0.0014147600159049034,-0.0002603295724838972,-0.00036170787643641233
1782987328069177000,2.812177001953125,-0.001717028790153563,-0.0013173382030799985,0.000180778035428375
1782987328079252200,2.822252197265625,0.0014293689746409655,-0.0014504955615848303,-0.0008862083777785301
1782987328089326000,2.832326171875,0.0009771641343832016,-0.0013279900886118412,0.0023141123820096254
1782987328099401200,2.842401123046875,-0.0004720335709862411,-0.000605632783845067,0.0005016825161874294
1782987328109475000,2.85247509765625,-0.0009764363057911396,-0.0012538462178781629,-0.0008528011385351419
1782987328119549200,2.862549072265625,-0.0014076931402087212,-0.0007930400315672159,-0.00131369533482939
1782987328129624000,2.8726240234375,-0.002496127039194107,-0.0013746743788942695,-0.00008411386079387739
1782987328139698200,2.8826982421875,0.00020030245650559664,-0.0020753969438374043,-0.000726048368960619
1782987328149772300,2.892772216796875,0.0009806087473407388,0.00003409292548894882,-0.0005175229161977768
1782987328159847200,2.90284716796875,-0.0020599106792360544,-0.0008809497812762856,-0.0012745121493935585
1782987328169921300,2.91292138671875,-0.00013764109462499619,-0.0024338390212506056,-0.0009767707670107484
1782987328179996200,2.92299609375,0.0007866043597459793,-0.0004434644943103194,-0.002467536833137274
1782987328190070300,2.9330703125,-0.001775889191776514,-0.00012388522736728191,0.0002827095449902117
1782987328200144100,2.94314404296875,-0.0018954609986394644,0.0013901242054998875,-0.0005856230854988098
1782987328210219300,2.95321923828125,-0.0004685392486862838,0.0006609507836401463,-0.0005113208899274468
1782987328220293000,2.963293212890625,0.000318269245326519,0.0006518478039652109,-0.0019958761986345053
1782987328230368300,2.9733681640625,-0.0003344715805724263,-0.00021181534975767136,0.0002675444120541215
1782987328240442400,2.9834423828125,-0.0007588191656395793,-0.00208064797334373,0.001962006092071533
1782987328250516200,2.99351611328125,-0.00015987420920282602,-0.00015305192209780216,-0.00028250605100765824
1782987328260591400,3.00359130859375,-0.000003839493729174137,0.0010615852661430836,-0.0017661508172750473
1782987328270665200,3.013665283203125,-0.00038227462209761143,-0.00022658577654510736,-0.002376547083258629
1782987328280740400,3.023740234375,-0.0005469184252433479,-0.0006380076520144939,-0.0033164285123348236
1782987328290814200,3.033814208984375,-0.00032081606332212687,-0.0003256188938394189,0.001376327476464212
1782987328300888000,3.04388818359375,-0.00018499826546758413,-0.00016731885261833668,0.002437301678583026
1782987328310963200,3.053963134765625,-0.0013139122165739536,0.0015056789852678776,0.0010857473826035857
1782987328321037000,3.064037109375,-0.0008042099070735276,0.000901863444596529,-0.0009637715411372483
1782987328331112200,3.0741123046875,0.002131126122549176,-0.0007724660681560636,0.0015100387390702963
1782987328341186000,3.08418603515625,-0.0011220942251384258,0.000766190467402339,-0.0006476303096860647
1782987328351260200,3.09426025390625,-0.002258464926853776,0.00009747082367539406,0.0023979605175554752
1782987328361335300,3.104335205078125,0.00042631512042135,-0.00041435379534959793,0.0028445629868656397
1782987328371409200,3.1144091796875,0.00013230217155069113,-0.0010681598214432597,-0.002182153519243002
1782987328381483000,3.12448291015625,-0.0019566453993320465,-0.0004484197124838829,-0.0011087501188740134
1782987328391558100,3.13455810546875,-0.0006317227962426841,0.0002778242342174053,0.0013251127675175667
1782987328401632000,3.144632080078125,-0.0017084417631849647,0.002187929581850767,-0.0013207703595981002
1782987328411707100,3.15470703125,0.0003962544724345207,-0.0005428757285699248,-0.0012238313211128116
1782987328421781000,3.164781005859375,-0.0022314265370368958,-0.0006683188257738948,-0.00020828495325986296
1782987328431855000,3.174855224609375,-0.00026974210049957037,0.0019034957513213158,-0.00006287635187618434
1782987328441930200,3.18493017578125,-0.0026568539906293154,0.0014499514363706112,0.002489577978849411
1782987328452004400,3.19500439453125,-0.0003683997201733291,0.00048135966062545776,-0.0012913118116557598
1782987328462079200,3.205079345703125,0.00039810920134186745,-0.0004405452637001872,-0.0008899786625988781
1782987328472153300,3.2151533203125,-0.00048419611994177103,-0.0006043297471478581,0.00039473018841817975
1782987328482227200,3.225227294921875,0.0008169215871021152,-0.0015978333540260792,-0.000459189061075449
1782987328492302300,3.23530224609375,0.00027922948356717825,0.0019473666325211525,-0.0004642490530386567
1782987328502376200,3.245376220703125,-0.00029184576123952866,-0.0001816831063479185,-0.001486979890614748
1782987328512450600,3.255450439453125,-0.0022567259147763252,-0.00037662649992853403,-0.001983925700187683
1782987328522525200,3.265525146484375,0.0022410331293940544,0.0012577467132359743,-0.00066179852001369
1782987328532599600,3.275599609375,-0.0007273261435329914,0.0019674792420119047,-0.0002860264794435352
1782987328542674200,3.285674072265625,-0.0000890000956133008,-0.0003576877061277628,0.0001440945197828114
1782987328552748500,3.29574853515625,-0.0011524002766236663,0.0009224938694387674,0.000015730161976534873
1782987328562822400,3.305822509765625,-0.0005482439883053303,0.002486115787178278,0.00009291212336393073
1782987328572897500,3.3158974609375,0.00043286453001201153,0.0019878381863236427,0.0009187583927996457
1782987328582971400,3.325971435546875,-0.002785873133689165,0.00011008395813405514,-0.0010179721284657717
1782987328593046500,3.336046630859375,-0.0015496338019147515,0.0010320702567696571,-0.0009708341094665229
1782987328603120400,3.346120361328125,-0.001355599844828248,-0.000266292248852551,-0.0014801450306549668
1782987328613194500,3.356194580078125,-0.00006662996020168066,-0.00154221267439425,0.002650950336828828
1782987328623269400,3.366269287109375,-0.000226853066124022,-0.00047926383558660746,-0.0015603543724864721
1782987328633343500,3.376343505859375,0.0021891666110605,-0.001531212474219501,0.002143569989129901
1782987328643418400,3.38641845703125,-0.0016654954524710774,-0.0014985508751124144,0.0011906150029972196
1782987328653492500,3.396492431640625,0.002063462743535638,-0.0001629756297916174,-0.0023106427397578955
1782987328663566300,3.40656640625,-0.0026944102719426155,0.001992643577978015,-0.0011685139033943415
1782987328673641500,3.416641357421875,-0.0009377892129123211,0.0023865250404924154,0.002167361555621028
1782987328683715300,3.42671533203125,-0.0016137755010277033,-0.0005054710200056434,0.004591473378241062
1782987328693790500,3.43679052734375,0.0008421916281804442,0.000905471621081233,0.0013927505351603031
1782987328703864300,3.4468642578125,0.0008525976445525885,-0.0012604190269485116,-0.0016394838457927108
1782987328713938400,3.4569384765625,-0.0016044346848502755,-0.0007091446314007044,0.0026902833487838507
1782987328724013300,3.467013427734375,-0.0010406114161014557,-0.001132019329816103,-0.00040639328653924167
1782987328734087400,3.47708740234375,-0.0014435476623475552,0.0006874522659927607,0.0006279784720391035
1782987328744161300,3.487161376953125,-0.00036646740045398474,-0.00011239433661103249,0.00009852497169049457
1782987328754236400,3.497236328125,-0.001937998691573739,-0.0012714019976556301,0.0010101250372827053
1782987328764310300,3.507310302734375,-0.0004412207053974271,0.0008763368241488934,0.0006681721424683928
1782987328774385400,3.517385498046875,-0.0016468337271362543,-0.0007268860936164856,-0.00024289527209475636
1782987328784459300,3.527459228515625,-0.000634272990282625,0.000820426968857646,-0.0008819096838124096
1782987328794533400,3.537533447265625,0.001177741913124919,0.0004784769844263792,-0.0005072029307484627
1782987328804608300,3.547608154296875,0.0011728336103260517,-0.00016564875841140747,-0.0011131877545267344
1782987328814682400,3.557682373046875,-0.002250127261504531,0.00038296240381896496,-0.00425305450335145
1782987328824757200,3.56775732421875,-0.00013708381447941065,-0.0012116489233449101,0.000060587739426409826
1782987328834831400,3.577831298828125,-0.0013341746525838971,-0.0021517446730285883,-0.0012033485108986497
1782987328844905500,3.587905517578125,0.000856855302117765,0.0011178473941981792,-0.0009226270485669374
1782987328854980400,3.59798046875,-0.001177799771539867,-0.0005122735165059566,0.0006081579485908151
1782987328865054500,3.608054443359375,0.001966053619980812,-0.00016747252084314823,-0.00009241404040949419
1782987328875129300,3.61812939453125,0.0013508633710443974,-0.0007834617281332612,-0.0003779049147851765
1782987328885203500,3.628203369140625,-0.0008101110579445958,0.00041034421883523464,0.0013418718008324504
1782987328895277300,3.63827734375,-0.0012258305214345455,0.0019528470002114773,-0.0022291608620435
1782987328905352400,3.6483525390625,0.0000011129304766654968,0.0007433188147842884,0.001330276601947844
1782987328915426300,3.65842626953125,-0.0010958430357277393,-0.0004987794673070312,0.002833098405972123
1782987328925500400,3.66850048828125,0.0000659282086417079,0.000985409365966916,0.0012347918236628175
1782987328935575600,3.678575439453125,-0.0010006678057834506,0.0007478552870452404,-0.0012416817480698228
1782987328945649400,3.6886494140625,-0.0013847346417605877,-0.0019996678456664085,0.0001990379678318277
1782987328955724500,3.698724609375,-0.0007434454746544361,-0.0022577280178666115,0.002380699384957552
1782987328965798400,3.70879833984375,-0.0015011630021035671,-0.00018202629871666431,-0.0013148430734872818
1782987328975872300,3.718872314453125,0.0012512140674516559,0.0000017317943274974823,-0.0003923241456504911
1782987328985947400,3.728947509765625,-0.0007195228827185929,-0.0005402753595262766,0.0003741178661584854
1782987328996021200,3.739021240234375,-0.0009421631693840027,-0.0021102088503539562,-0.00007089637801982462
1782987329006096400,3.749096435546875,-0.0007559768273495138,0.003551815403625369,-0.00013970052532386035
1782987329016170200,3.759170166015625,0.00018944533076137304,-0.001782496110536158,-0.0025131097063422203
1782987329026244400,3.769244384765625,0.00014542881399393082,-0.001385329756885767,0.000055733882618369535
1782987329036319200,3.7793193359375,-0.0011792274890467525,-0.0009752030018717051,-0.0012854341184720397
1782987329046393300,3.789393310546875,0.00015194329898804426,0.0013660341501235962,0.0007287958869710565
1782987329056468500,3.799468505859375,-0.0008046641014516354,-0.0013059151824563742,0.0009490393567830324
1782987329066542300,3.809542236328125,-0.000755244167521596,0.00004604272544384003,-0.0020373163279145956
1782987329076616200,3.8196162109375,0.0011052401969209313,0.001688414253294468,0.0006703196559101343
1782987329086691300,3.82969140625,0.00008406839333474636,0.0014410843141376972,-0.00021402721176855266
1782987329096765200,3.83976513671875,0.0012974045239388943,-0.0009861206635832787,-0.00034612001036293805
1782987329106839300,3.84983935546875,0.00022038118913769722,-0.000019178492948412895,0.0016622431576251984
1782987329116914200,3.8599140625,-0.0013237196253612638,-0.0002450146712362766,-0.004539992660284042
1782987329126988300,3.86998828125,0.001341218943707645,-0.000555392587557435,-0.0018074654508382082
1782987329137063200,3.880063232421875,0.000044525833800435066,0.000875523779541254,-0.000792534789070487
1782987329147137300,3.89013720703125,-0.0005246434593573213,-0.00006280327215790749,-0.0012511557433754206
1782987329157211400,3.90021142578125,-0.0013009549584239721,0.0013191110920161009,-0.0009278479847125709
1782987329167286300,3.910286376953125,-0.0018231775611639023,0.00014886795543134212,-0.002590179443359375
1782987329177360400,3.9203603515625,-0.0007115741609595716,0.0012010829523205757,0.0011022932594642043
1782987329187435300,3.930435302734375,0.0015526881907135248,-0.0008778838673606515,-0.002355666598305106
1782987329197509400,3.94050927734375,-0.0012598762987181544,-0.00033113686367869377,0.0012667652918025851
1782987329207583500,3.95058349609375,0.0020106243900954723,-0.0010773355606943369,0.0011956077069044113
1782987329217658400,3.960658447265625,-0.0003635836183093488,0.0010076533071696758,0.00365583598613739
1782987329227732500,3.970732421875,-0.0009723170660436153,-0.0006569173419848084,0.0003230801085010171
1782987329237807400,3.980807373046875,-0.0019243971910327673,0.0007654770743101835,-0.001533143105916679
1782987329247881500,3.990881591796875,-0.0014565229648724198,0.0007996915373951197,-0.003553985385224223
1782987329257955300,4.000955322265625,0.0006103563355281949,0.0010830520186573267,0.00034088781103491783
1782987329268030500,4.011030517578125,0.0011534069199115038,0.00013388600200414658,0.000853111851029098
1782987329278104300,4.021104248046875,-0.00009268615394830704,0.0001229671761393547,-0.0011277473531663418
1782987329288179500,4.031179443359375,-0.0017035433556884527,0.001227078028023243,-0.0003449962241575122
1782987329298253300,4.04125341796875,-0.0017645297339186072,-0.0012890766374766827,-0.0011599235003814101
1782987329308327400,4.051327392578125,-0.0012737096985802054,-0.00031202868558466434,0.003920316230505705
1782987329318402300,4.06140234375,-0.0019988883286714554,-0.0010084452806040645,-0.001461399719119072
1782987329328476400,4.071476318359375,0.0009811753407120705,-0.0005304834339767694,-0.0010527023114264011
1782987329338550300,4.08155029296875,-0.0004715789691545069,-0.001463388791307807,0.0009044547332450747
1782987329348625400,4.09162548828125,-0.0002446359721943736,-0.000465778517536819,-0.0004634925862774253
1782987329358699300,4.10169921875,0.0011010593734681606,-0.000572837539948523,-0.0000453762877441477
1782987329368774400,4.1117744140625,0.0011556899407878518,0.0004378948360681534,0.0015574026620015502
1782987329378848300,4.12184814453125,-0.000709321815520525,-0.0016084780218079686,0.0012458128621801734
1782987329388922400,4.13192236328125,-0.00029363727662712336,-0.0016437266021966934,-0.0015714028850197792
1782987329398997200,4.141997314453125,0.00009838002733886242,-0.0016141656087711453,0.001989509677514434
1782987329409071400,4.1520712890625,0.0010407735826447606,-0.00030583993066102266,0.00007927750266389921
1782987329419146200,4.162146240234375,0.00014675036072731018,-0.0015213065780699253,-0.0009303268743678927
1782987329429220400,4.172220458984375,-0.00016795762348920107,-0.00011280528269708157,-0.004824136383831501
1782987329439294500,4.18229443359375,0.0005068873288109899,0.00032608374021947384,0.0005703623173758388
1782987329449369600,4.19236962890625,-0.0005866433493793011,-0.00016266992315649986,0.0015685849357396364
1782987329459443500,4.202443359375,-0.0005528212059289217,0.0011095220688730478,-0.0006391754723154008
1782987329469518600,4.2125185546875,0.0007031559944152832,0.0007756389677524567,-0.0006477784481830895
1782987329479592400,4.222592529296875,0.0008477657102048397,-0.001208416186273098,-0.00294209155254066
1782987329489666800,4.232666748046875,-0.002333917422220111,-0.00157356564886868,0.00015823003195691854
1782987329499741400,4.242741455078125,-0.0007000681362114847,0.0021444736048579216,-0.0015195615123957396
1782987329509815800,4.25281591796875,0.00038443889934569597,-0.0008179596625268459,-0.0015644306549802423
1782987329519889700,4.2628896484375,-0.0022587485145777464,0.0017687685322016478,-0.0012997124576941133
1782987329529964800,4.27296484375,-0.0017058749217540026,0.0008426450658589602,0.0012449732748791575
1782987329540038700,4.28303857421875,-0.0017775138840079308,-0.00012594670988619328,0.0014737388119101524
1782987329550113800,4.29311376953125,0.001167607493698597,0.0011510364711284637,-0.00024180614855140448
1782987329560187600,4.303187744140625,-0.000741878931876272,0.0011076268274337053,-0.0012378284009173512
1782987329570261800,4.31326171875,-0.0004936501500196755,0.00016938033513724804,-0.00038178617251105607
1782987329580336600,4.323336669921875,0.0017114472575485706,-0.0006900217849761248,-0.0007940434734337032
1782987329590410800,4.33341064453125,0.0007617340888828039,0.0009347999002784491,0.001466801157221198
1782987329600485600,4.343485595703125,-0.000546943221706897,0.0011800772044807673,0.0003788998583331704
1782987329610559700,4.353559814453125,0.0006359399994835258,0.0011713304556906223,-0.00009662688535172492
1782987329620633600,4.363633544921875,-0.001507904613390565,0.0000336281955242157,-0.0025659098755568266
1782987329630708700,4.373708740234375,-0.000001762527972459793,-0.002579623833298683,0.0007858305471017957
1782987329640782600,4.383782470703125,0.00045976333785802126,-0.00011300412006676197,-0.0004940846702083945
1782987329650857700,4.393857666015625,0.000994573114439845,0.0034561443608254194,0.0015180828049778938
1782987329660931600,4.403931640625,0.0007855149451643229,-0.0007545794360339642,0.001908235950395465
1782987329671005700,4.414005615234375,0.0023050662130117416,0.002337768441066146,0.0003195079625584185
1782987329681080600,4.42408056640625,-0.001123487250879407,-0.0015224837698042393,-0.001086108386516571
1782987329691154700,4.43415478515625,-0.0002238159067928791,-0.000039984239265322685,-0.00007365916098933667
1782987329701228500,4.444228515625,-0.0010912074940279126,0.0009405917953699827,-0.00016207611770369112
1782987329711303700,4.4543037109375,-0.0008533648797310889,-0.0006406655302271247,-0.0003113369457423687
1782987329721377500,4.46437744140625,-0.0012299357913434505,0.0013124968390911818,0.00012408988550305367
1782987329731452700,4.47445263671875,-0.0006846971227787435,-0.0013778135180473328,-0.0011816895566880703
1782987329741526500,4.484526611328125,-0.002377136144787073,0.0017298292368650436,0.0020191636867821217
1782987329751600600,4.4946005859375,-0.00016435515135526657,0.0006120458710938692,-0.0015688299899920821
1782987329761675500,4.504675537109375,-0.00021921622101217508,-0.0008218000875785947,0.00032707437640056014
1782987329771749600,4.51474951171875,0.0023071826435625553,0.0024541367311030626,0.0004955710610374808
1782987329781824500,4.524824462890625,0.0011838612845167518,-0.0012497876305133104,0.0007525660912506282
1782987329791898600,4.534898681640625,-0.001994507387280464,0.0012156835291534662,-0.002445570193231106
1782987329801972700,4.54497265625,-0.0024600280448794365,0.000243097310885787,-0.0016873680287972093
1782987329812047600,4.555047607421875,-0.001707427203655243,-0.0013101936783641577,-0.001175959943793714
1782987329822121700,4.565121826171875,0.00022123393137007952,0.0011252670083194971,-0.002056134631857276
1782987329832196600,4.575196533203125,0.0009327578591182828,-0.0006672602612525225,0.0022749798372387886
1782987329842270700,4.585270751953125,0.000015831436030566692,0.0006312970072031021,0.00021848709729965776
1782987329852344800,4.5953447265625,0.0020581535063683987,-0.00034001318272203207,0.0011027143336832523
1782987329862419700,4.605419677734375,-0.0008324412629008293,-0.00018874567467719316,-0.0017404763493686914
1782987329872493800,4.615493896484375,-0.001018703100271523,-0.0012976115103811026,0.0007481255452148616
1782987329882568700,4.625568603515625,0.0002766584511846304,0.0004973590839654207,-0.00039730005664750934
1782987329892642800,4.635642822265625,0.00039548741187900305,0.0014200203586369753,0.001773884054273367
1782987329902716700,4.645716552734375,-0.0026839259080588818,0.0001387735828757286,-0.0033239389304071665
1782987329912791800,4.655791748046875,0.0009239818900823593,0.0005530763883143663,-0.001787160406820476
1782987329922865700,4.66586572265625,0.0010163935367017984,0.0012742604594677687,-0.00362048065289855
1782987329932939800,4.675939697265625,0.000232044723816216,-0.0021377692464739084,-0.0022433109115809202
1782987329943014700,4.6860146484375,-0.0014095277292653918,0.0026133102364838123,-0.003045454854145646
1782987329953088800,4.6960888671875,0.0010078179184347391,-0.003621264360845089,0.0005828137509524822
1782987329963163600,4.70616357421875,-0.001381303765811026,-0.0012233542511239648,-0.0008113509975373745
1782987329973237800,4.71623779296875,0.001705020316876471,-0.002342250430956483,0.0003690297598950565
1782987329983311600,4.7263115234375,-0.0018572240369394422,0.001685780705884099,0.0011826255358755589
1782987329993386800,4.73638671875,0.0012770453467965126,0.0015214302111417055,0.0007961114752106369
1782987330003460600,4.746460693359375,-0.0010462963255122304,0.0020053263287991285,-0.0017107219900935888
1782987330013535700,4.75653564453125,-0.002819239627569914,0.00038535101339221,-0.0019494323059916496
1782987330023609600,4.766609619140625,-0.00037871894892305136,-0.0003621982177719474,0.0007001467165537179
1782987330033683700,4.77668359375,0.0006497339345514774,0.0013640548568218946,-0.0011576467659324408
1782987330043758600,4.786758544921875,0.0008777005132287741,0.0007946710102260113,0.00222376873716712
1782987330053832700,4.796832763671875,0.0004913419252261519,-0.00009589537512511015,-0.0008308740798383951
1782987330063907600,4.806907470703125,-0.0009970988612622023,0.00125539256259799,0.00015742500545457006
1782987330073981700,4.816981689453125,-0.000031752162612974644,0.0005598219577223063,0.0029597850516438484
1782987330084055600,4.8270556640625,-0.0006639866624027491,0.0019076478201895952,-0.002828062977641821
1782987330094130700,4.837130615234375,0.0010619299719110131,0.001251869834959507,-0.0014762415084987879
1782987330104204500,4.84720458984375,0.00014500366523861885,0.0003996584564447403,-0.0003433327947277576
1782987330114278700,4.857278564453125,-0.00030740030342713,0.001505063846707344,-0.0005402630195021629
1782987330124353500,4.867353515625,-0.0005657269502989948,0.0005873385816812515,-0.001849472988396883
1782987330134427600,4.877427734375,0.0012445560423657298,0.0018047234043478966,-0.0029895815532654524
1782987330144502500,4.88750244140625,-0.00033363327383995056,-0.0001228725304827094,-0.0007005947409197688
1782987330154577000,4.897576904296875,-0.0017271257238462567,-0.0012315730564296246,0.0008829071884974837
1782987330164650800,4.907650634765625,-0.0019087533000856638,0.00021212641149759293,0.00008395885379286483
1782987330174726000,4.917725830078125,-0.0024894592352211475,0.0009389983024448156,0.0014094196958467364
1782987330184799700,4.9277998046875,0.0020773292053490877,-0.0010003156494349241,0.00021312778699211776
1782987330194875000,4.937875,0.0012758038938045502,-0.00022705283481627703,-0.0014806463150307536
1782987330204948700,4.94794873046875,0.00012478569988161325,0.00183476647362113,0.0006315066711977124
1782987330215022600,4.958022705078125,-0.0011130872881039977,0.0021428964100778103,-0.0022255226504057646
1782987330225097700,4.96809765625,0.0005495242075994611,0.00043181562796235085,-0.0010318938875570893
1782987330235171600,4.978171630859375,0.0005065958248451352,0.0013704919256269932,-0.00038454995956271887
1782987330245246700,4.988246826171875,-0.0026215531397610903,0.00031721172854304314,0.0003163940564263612
1782987330255320600,4.998320556640625,-0.001154885278083384,-0.0011432317551225424,-0.00036823743721470237
1782987330265394700,5.008394775390625,-0.0024944553151726723,0.0027090306393802166,-0.000861188571434468
1782987330275469800,5.0184697265625,0.00002054066862910986,-0.00005119864363223314,-0.0006111764814704657
1782987330285543700,5.028543701171875,0.0031920992769300938,0.001413273625075817,-0.0010628486052155495
1782987330295618800,5.038618896484375,0.0009185044327750802,-0.0008906169096007943,0.00001896513276733458
1782987330305692700,5.048692626953125,0.001400004024617374,0.0010156738571822643,-0.0013573565520346165
1782987330315766500,5.0587666015625,-0.0003220713115297258,-0.00017057545483112335,0.0014137772377580404
1782987330325841700,5.068841552734375,0.0009056460112333298,0.001555419061332941,0.0004971171729266644
1782987330335915500,5.07891552734375,0.0007335706613957882,-0.0009000931167975068,0.00035936091444455087
1782987330345989600,5.08898974609375,0.0010523510864004493,0.00013640918768942356,-0.0011786145623773336
1782987330356064500,5.099064453125,-0.0002588717034086585,0.0022003967314958572,0.00011846941197291017
1782987330366138600,5.109138671875,-0.00011985469609498978,0.0032898960635066032,-0.0007944621611386538
1782987330376213500,5.119213623046875,-0.001666390453465283,0.0006855472456663847,-0.001085236668586731
1782987330386287600,5.12928759765625,-0.0015247103292495012,0.0006360125262290239,0.000833304540719837
1782987330396361500,5.139361572265625,0.0010335759725421667,-0.0005695222644135356,-0.0002567110932432115
1782987330406436600,5.1494365234375,0.000642357743345201,0.0010749795474112034,0.0015382594428956509
1782987330416510500,5.159510498046875,-0.0010191373294219375,0.003086463315412402,-0.0005674576968885958
1782987330426585600,5.169585693359375,-0.0024737559724599123,0.0010819018352776766,-0.0007432263228110969
1782987330436659500,5.179659423828125,0.0016090702265501022,-0.001226293039508164,-0.0005559647106565535
1782987330446733800,5.18973388671875,0.00014220108278095722,0.0030933544039726257,0.0017769644036889076
1782987330456808400,5.199808349609375,0.0010071455035358667,0.0024182205088436604,-0.00020690547535195947
1782987330466882800,5.2098828125,0.0016068893019109964,-0.0007128579309210181,0.002807792741805315
1782987330476957400,5.21995751953125,-0.0017384185921400785,0.0016727980691939592,-0.002502516843378544
1782987330487031800,5.23003173828125,-0.0014654446858912706,-0.0008734501898288727,0.0008954103686846793
1782987330497105700,5.240105712890625,-0.0012436314718797803,-0.00038567266892641783,-0.001795149757526815
1782987330507180800,5.250180908203125,-0.00008622161112725735,0.0011562975123524666,-0.0009077844442799687
1782987330517254700,5.260254638671875,0.00009537534788250923,-0.0004422304918989539,-0.0023664068430662155
1782987330527328800,5.270328857421875,0.0023971456103026867,-0.00041187042370438576,0.0009255266631953418
1782987330537403600,5.280403564453125,-0.00037756923120468855,0.0024404574651271105,-0.0014922942500561476
1782987330547477800,5.290477783203125,-0.002752576256170869,-0.0001398795284330845,-0.0011359633645042777
1782987330557552600,5.300552734375,-0.0015773721970617771,-0.00040919578168541193,0.0011590548092499375
1782987330567626800,5.310626708984375,0.0013675513910129666,0.0017184035386890173,-0.0005885114660486579
1782987330577700600,5.32070068359375,-0.00013498601038008928,0.00006678979843854904,0.000692005967721343
1782987330587775700,5.330775634765625,0.0007704888703301549,-0.0004051224095746875,-0.0009937749709933996
1782987330597849600,5.340849609375,0.0018330261809751391,-0.001427829498425126,0.0005577646661549807
1782987330607924700,5.3509248046875,-0.0009161549969576299,-0.0008706962689757347,-0.00022999838984105736
1782987330617998600,5.36099853515625,0.00013976090122014284,0.0008057474624365568,0.0021902471780776978
1782987330628072700,5.37107275390625,-0.0008293634164147079,0.003195135621353984,0.0008940869010984898
1782987330638147600,5.381147705078125,-0.000824450864456594,0.0018502401653677225,-0.00001194316428154707
1782987330648221700,5.3912216796875,-0.0006159253534860909,0.0002179888542741537,0.0009124400676228106
1782987330658296600,5.401296630859375,-0.001101263682357967,-0.0016202734550461173,0.0013109390856698155
1782987330668370700,5.41137060546875,-0.0016112590674310923,0.0004854879807680845,0.002498442539945245
1782987330678444500,5.421444580078125,-0.00044346507638692856,0.0007166482973843813,-0.002866368740797043
1782987330688519700,5.431519775390625,0.000057475524954497814,-0.0008263872005045414,0.001205604407005012
1782987330698593500,5.441593505859375,0.00034858169965445995,-0.0005161160370334983,0.002335355384275317
1782987330708668700,5.451668701171875,-0.0014141645515337586,0.001203753286972642,0.0023982059210538864
1782987330718742500,5.461742431640625,-0.001441914588212967,0.0017345703672617674,0.00012083039473509416
1782987330728816400,5.47181640625,0.00029073806945234537,-0.0008979642298072577,-0.0007593443151563406
1782987330738891500,5.4818916015625,0.001975167077034712,0.0003127451054751873,0.0009835070231929421
1782987330748965400,5.49196533203125,-0.0024744425900280476,-0.0013559915823861957,0.0012857757974416018
1782987330759040500,5.50204052734375,-0.0005326732061803341,0.00013506668619811535,-0.00009572214912623167
1782987330769114600,5.512114501953125,-0.0009920685552060604,0.00042481860145926476,-0.0009724348201416433
1782987330779188700,5.522188720703125,0.00004308135248720646,0.0004048950504511595,-0.0003325958678033203
1782987330789263600,5.532263671875,0.0020556319504976273,-0.0022920880001038313,0.00043599240598268807
1782987330799337700,5.542337646484375,-0.0010188507148995996,-0.000501020927913487,-0.00012144254287704825
1782987330809411600,5.55241162109375,-0.0014034111518412828,-0.0011311247944831848,0.0009901608573272824
1782987330819486700,5.56248681640625,-0.0016185645945370197,-0.0007439400069415569,-0.002381540136411786
1782987330829560600,5.572560546875,0.000028866808861494064,-0.00018733926117420197,0.0012680557556450367
1782987330839635700,5.5826357421875,-0.0010044618975371122,-0.00017948460299521685,0.001619222923181951
1782987330849709600,5.59270947265625,-0.0015056687407195568,-0.00010891095735132694,0.001744125154800713
1782987330859783700,5.60278369140625,-0.002417596522718668,0.0019549201242625713,0.0004625953733921051
1782987330869858600,5.612858642578125,-0.0016095932805910707,0.0020246952772140503,-0.001679384964518249
1782987330879932700,5.6229326171875,-0.002303060842677951,0.0024638802278786898,-0.00026843551313504577
1782987330890007800,5.6330078125,0.00043919601012021303,0.0018564134370535612,-0.0021190661936998367
1782987330900081700,5.64308154296875,-0.0004583164118230343,0.0001827864907681942,0.0014673130353912711
1782987330910155500,5.653155517578125,-0.00011769810225814581,-0.0004774112021550536,0.002127244370058179
1782987330920230700,5.663230712890625,-0.00037657510256394744,0.0014842862728983164,0.002717692870646715
1782987330930304500,5.673304443359375,-0.002030398230999708,0.0021351627074182034,-0.0023015670012682676
1782987330940379600,5.683379638671875,-0.000026996014639735222,-0.001520349644124508,-0.000042471481719985604
1782987330950453500,5.69345361328125,-0.0009093013359233737,-0.0004614767385646701,0.0010076129110530019
1782987330960527600,5.703527587890625,0.0008201432647183537,0.0014393972232937813,-0.0015706332633271813
1782987330970602500,5.7136025390625,-0.0004919961793348193,-0.0011220311280339956,-0.00014823894889559597
1782987330980676600,5.723676513671875,-0.00010169914457947016,0.00008173706009984016,0.002125369617715478
1782987330990750500,5.73375048828125,-0.0006130260298959911,0.0026152022182941437,-0.00016228575259447098
1782987331000825600,5.74382568359375,-0.000949147273786366,0.0008742546197026968,-0.0023023909889161587
1782987331010899500,5.7538994140625,0.0009680623188614845,0.0019278011750429869,-0.0023119784891605377
1782987331020974600,5.763974609375,0.00025646830908954144,-0.0012598830508068204,0.0008436896023340523
1782987331031048400,5.77404833984375,0.000380571698769927,0.0006048623472452164,0.0018442391883581877
1782987331041122600,5.78412255859375,-0.00017217017011716962,0.000698715215548873,0.0038562167901545763
1782987331051197400,5.794197509765625,-0.002449439140036702,0.00044145388528704643,-0.0009209615527652204
1782987331061271600,5.804271484375,0.0009434561943635345,0.0021922425366938114,0.0015917894197627902
1782987331071346400,5.814346435546875,-0.0007561732199974358,-0.0013910408597439528,-0.0006085142958909273
1782987331081420500,5.824420654296875,0.0006754990899935365,0.0008800751529633999,0.0046361587010324
1782987331091494700,5.83449462890625,-0.00023876409977674484,0.002581568667665124,-0.0007021476048976183
1782987331101569500,5.844569580078125,-0.00047640741104260087,-0.0013821562752127647,-0.00035036259214393795
1782987331111643600,5.8546435546875,0.002913529984652996,-0.000517427921295166,0.0006680302321910858
1782987331121718500,5.864718505859375,-0.00037003972101956606,-0.0003358903340995312,0.0003730831667780876
1782987331131792600,5.874792724609375,-0.0005279651959426701,0.0026361974887549877,0.000013290089555084705
1782987331141866800,5.88486669921875,-0.0004360140301287174,-0.00011812255252152681,0.002635266864672303
1782987331151941600,5.894941650390625,-0.0016267133178189397,0.0014249130617827177,-0.000264649250311777
1782987331162015700,5.905015625,0.003300907090306282,-0.0002777437912300229,0.00007102362724253908
1782987331172089600,5.915089599609375,-0.0012818602845072746,-0.0011145089520141482,0.0035909235011786222
1782987331182164700,5.925164794921875,0.0004465399542823434,-0.0008479071548208594,0.0009364836732856929
1782987331192238600,5.935238525390625,0.0001429396215826273,0.0014392156153917313,-0.0008710036636330187
1782987331202313700,5.945313720703125,-0.0005868439911864698,-0.0005041564581915736,-0.0005593650857917964
1782987331212386600,5.955386474609375,-0.000028379145078361034,-0.0014551712665706873,-0.0002578952698968351
1782987331222461700,5.965461669921875,0.002640530001372099,0.0003041212912648916,0.00054397206986323
1782987331232535600,5.97553564453125,-0.0012761809630319476,0.002305220579728484,0.000197494839085266
1782987331242609400,5.985609375,0.00023885886184871197,-0.00044075213372707367,-0.0005550720961764455
1782987331252684500,5.9956845703125,0.00024738104548305273,0.0010801791213452816,-0.0012027528136968613
1782987331262758700,6.005758544921875,-0.0005252824048511684,0.0015671313740313053,0.0009523741900920868
1782987331272833500,6.01583349609375,-0.0004999823868274689,-0.0012001593131572008,0.0006817970424890518
1782987331282907600,6.02590771484375,0.00034510146360844374,0.0010269621852785349,0.003601521486416459
1782987331292981500,6.0359814453125,-0.0015271008014678955,-0.0006984999636188149,0.003447324503213167
1782987331303056600,6.046056640625,-0.0009787649614736438,-0.001315380446612835,0.00012664774840231985
1782987331313130500,6.056130615234375,-0.0016421584878116846,0.0008188767824321985,-0.00002275558654218912
1782987331323204600,6.06620458984375,-0.00009266065899282694,0.0015575753059238195,-0.0025196836795657873
1782987331333279500,6.076279541015625,0.0009267973946407437,-0.0008070454932749271,0.0006324338028207421
1782987331343353600,6.086353515625,0.00000360771082341671,-0.001451431424356997,-0.0031475720461457968
1782987331353428500,6.096428466796875,-0.00026244204491376877,-0.00039175967685878277,-0.001131026423536241
1782987331363502600,6.106502685546875,-0.002590793650597334,0.0009348304010927677,0.0007716523832641542
1782987331373576700,6.11657666015625,0.0009501453023403883,-0.0005024776328355074,-0.0006020060973241925
1782987331383651800,6.12665185546875,0.00001890864223241806,0.0012938184663653374,-0.0022048535756766796
1782987331393725700,6.1367255859375,-0.0012287823483347893,0.0011095276568084955,-0.00037872401298955083
1782987331403800800,6.14680078125,0.0006874393438920379,0.0004288330674171448,0.002184017561376095
1782987331413874700,6.156874755859375,0.0003111346159130335,0.0005494742654263973,0.0005602882010862231
1782987331423948500,6.166948486328125,-0.002149178646504879,-0.0009253083262592554,0.0013770390069112182
1782987331434023700,6.177023681640625,-0.0019252067431807518,0.0015711388550698757,0.0013117915950715542
1782987331444097300,6.18709716796875,-0.0004144793492741883,0.0009058699943125248,0.00006272354221437126
1782987331454172200,6.197172119140625,0.0008736916352063417,0.0032161620911210775,-0.00021477785776369274
1782987331464246300,6.207246337890625,-0.0010638117091730237,-0.00016296165995299816,-0.0012173025170341134
1782987331474320100,6.217320068359375,-0.0010001620976254344,-0.001676702406257391,0.000961962272413075
1782987331484395300,6.227395263671875,-0.0017390022985637188,0.0004354650154709816,-0.0018842617282643914
1782987331494469000,6.23746923828125,-0.0015840062405914068,0.0016330885700881481,0.00044760206947103143
1782987331504543200,6.247543212890625,-0.0005727302632294595,0.0023052620235830545,-0.00019040502957068384
1782987331514618000,6.2576181640625,0.000027279951609671116,0.0008735463488847017,0.0009305194835178554
1782987331524692200,6.267692138671875,0.001024855999276042,-0.0004991480382159352,-0.002566158538684249
1782987331534767000,6.27776708984375,-0.00013095594476908445,-0.0009329769527539611,0.0022744028829038143
1782987331544841200,6.28784130859375,-0.00024058943381533027,-0.00044076284393668175,-0.0001127018331317231
1782987331554915000,6.2979150390625,0.0011008447036147118,0.001001605298370123,-0.0009843545267358422
1782987331564990200,6.307990234375,-0.0010353196412324905,0.0004651830531656742,0.0015333162155002356
1782987331575064000,6.31806396484375,0.001319713657721877,-0.0025881309993565083,0.00037643901305273175
1782987331585140200,6.32814013671875,0.0005742234643548727,-0.00013362988829612732,-0.00018276918854098767
1782987331595214000,6.338214111328125,-0.000033509801141917706,-0.0011783879017457366,-0.00046533060958608985
1782987331605288200,6.3482880859375,-0.0013823790941387415,-0.0011322090867906809,0.0027356273494660854
1782987331615363300,6.35836328125,0.0010674628429114819,-0.0006547042867168784,0.0009422547882422805
1782987331625437200,6.368437255859375,-0.00010997673962265253,-0.0008341169450432062,0.0025674847420305014
1782987331635511000,6.378510986328125,-0.0015845689922571182,-0.0025846126955002546,-0.00015772783081047237
1782987331645586200,6.388586181640625,-0.0011529586045071483,0.002079454716295004,-0.000048512971261516213
1782987331655660000,6.398659912109375,0.001290225307457149,0.0014794443268328905,-0.0013649135362356901
1782987331665735200,6.408735107421875,0.0013327132910490036,-0.0006055554840713739,0.0013144634431228042
1782987331675809000,6.41880908203125,-0.0002878202358260751,0.001428833231329918,-0.0006277799839153886
1782987331685883400,6.42888330078125,-0.000552173238247633,0.00014856713823974133,0.0008470519678667188
1782987331695958000,6.4389580078125,0.00019830558449029922,0.0007166191935539246,0.00025050388649106026
1782987331706032400,6.449032470703125,-0.00211938819848001,-0.00036220590118318796,-0.0007004807121120393
1782987331716107000,6.45910693359375,0.00010275340173393488,0.0003411348443478346,0.00004786755016539246
1782987331726181400,6.469181396484375,-0.0003948449157178402,-0.00106798205524683,0.0001333335821982473
1782987331736255200,6.479255126953125,-0.0005000397795811296,-0.0006980689940974116,-0.00014603201998397708
1782987331746330400,6.489330322265625,0.0010662632994353771,0.0016497813630849123,0.0003622080257628113
1782987331756404200,6.499404296875,-0.0024741431698203087,0.0005890442989766598,0.0009917792631313205
1782987331766479400,6.509479248046875,-0.0010855798609554768,-0.001215572701767087,0.0005627566715702415
1782987331776553200,6.51955322265625,-0.000979053438641131,0.001054239459335804,-0.0004761424206662923
1782987331786627300,6.52962744140625,-0.0016344996402040124,-0.00009054900147020817,-0.0010051202261820436
1782987331796702200,6.5397021484375,-0.002124255057424307,-0.0011124039301648736,0.003107332857325673
1782987331806776300,6.5497763671875,0.001076656160876155,-0.0030318377539515495,-0.0026108906604349613
1782987331816851200,6.559851318359375,0.00013948965352028608,0.002630575094372034,0.00026452430756762624
1782987331826925300,6.56992529296875,0.003299694275483489,0.00026618107222020626,0.0019316666293889284
1782987331836999200,6.579999267578125,0.0008666305802762508,-0.000912267598323524,-0.0015307089779525995
1782987331847074300,6.59007421875,0.00004840688779950142,0.000030231894925236702,0.0024496593978255987
1782987331857148200,6.600148193359375,0.0010138028301298618,-0.002168474020436406,0.0010110196890309453
1782987331867222300,6.61022216796875,-0.0015578174497932196,-0.001935693435370922,0.0004746423801407218
1782987331877297200,6.620297119140625,-0.0003878907300531864,-0.0005127665353938937,0.00010393037518952042
1782987331887371300,6.630371337890625,0.00010429800022393465,0.0006695091724395752,-0.0008334610611200333
1782987331897446100,6.640446044921875,-0.00018572021508589387,0.0015158618334680796,-0.0011660897871479392
1782987331907520300,6.650520263671875,0.002068202942609787,-0.0014820242067798972,-0.0014783302322030067
1782987331917594000,6.660593994140625,-0.0026599732227623463,0.00004476611502468586,-0.0007305146427825093
1782987331927669200,6.670669189453125,-0.0014017187058925629,0.0015287508722394705,0.00022008665837347507
1782987331937743000,6.6807431640625,0.0005940542323514819,0.00000488990917801857,0.0003263467806391418
1782987331947818200,6.690818359375,0.00013447494711726904,0.0014288821257650852,-0.0014388307463377714
1782987331957892000,6.70089208984375,-0.001067409641109407,0.001124749192968011,0.002415828639641404
1782987331967966200,6.71096630859375,0.0007587268482893705,0.001892219064757228,0.0019967593252658844
1782987331978041000,6.721041015625,0.0004551263991743326,0.003693314967676997,-0.0020693549886345863
1782987331988115200,6.731115234375,0.0005180196603760123,-0.0002872620243579149,0.0030915068928152323
1782987331998190000,6.741190185546875,0.0004415869479998946,0.0009194163139909506,-0.00043212174205109477
1782987332008264200,6.75126416015625,0.0006790080806240439,-0.002480762777850032,0.0005474112113006413
1782987332018338300,6.76133837890625,-0.0011079729301854968,0.0006543104536831379,0.0001820255274651572
1782987332028413200,6.7714130859375,0.0001502737868577242,0.0013133904431015253,-0.00012690489529632032
1782987332038487300,6.7814873046875,0.0015849185874685645,0.0005456011276692152,0.0031620990484952927
1782987332048562200,6.791562255859375,0.0001274958485737443,0.0014647154603153467,0.000003580906195566058
1782987332058636300,6.80163623046875,-0.000016314792446792126,0.000700654461979866,-0.0010704719461500645
1782987332068710400,6.81171044921875,-0.0011233295081183314,0.0009183294605463743,-0.0005268590757623315
1782987332078785300,6.821785400390625,0.0009683172684162855,-0.0012193898437544703,0.0009711689781397581
1782987332088859400,6.831859375,0.001360844587907195,0.002158100949600339,0.0005379912909120321
1782987332098934300,6.841934326171875,0.000992529559880495,-0.0012731158640235662,-0.0013922678772360086
1782987332109008400,6.85200830078125,-0.0011198149295523763,-0.0017448867438361049,0.00161113275680691
1782987332119082200,6.862082275390625,-0.0015786775620654225,0.0006546212825924158,-0.0023505855351686478
1782987332129157400,6.872157470703125,-0.001772778108716011,0.0014123816508799791,0.0016872462583705783
1782987332139231200,6.882231201171875,-0.00009338883683085442,0.002042485633864999,-0.00012716540368273854
1782987332149305300,6.892305419921875,0.00026172539219260216,-0.0007101885275915265,0.0020603390876203775
1782987332159380200,6.902380126953125,-0.0007952832384034991,0.002700788201764226,-0.0008827202254906297
1782987332169454300,6.912454345703125,-0.0015900072176009417,0.0010724514722824097,0.000557588180527091
1782987332179529200,6.922529296875,0.00022200762759894133,0.0002745683304965496,-0.002541798632591963
1782987332189603300,6.932603271484375,-0.00041507696732878685,0.0003028307110071182,0.0009451407822780311
1782987332199677200,6.94267724609375,-0.00002652173861861229,0.0009118956513702869,-0.0035912878811359406
1782987332209752300,6.95275244140625,-0.00016211956972256303,-0.00024213013239204884,-0.0006665196269750595
1782987332219826200,6.962826171875,-0.001634581247344613,-0.0005649053491652012,0.001384380622766912
1782987332229901300,6.9729013671875,0.0019117568153887987,0.00044642924331128597,0.0016935591120272875
1782987332239975200,6.98297509765625,0.00019827892538160086,0.001402237918227911,-0.0025192953180521727
1782987332250049300,6.99304931640625,-0.000021611223928630352,0.0005957700777798891,0.0004578463267534971
1782987332260124200,7.003124267578125,-0.0010658366372808814,-0.0014881533570587635,-0.0012886547483503819
1782987332270198300,7.0131982421875,0.0021955890115350485,0.0002909863833338022,0.000913990952540189
1782987332280273200,7.023273193359375,0.0003345721634104848,0.0017008637078106403,0.0010972165036946535
1782987332290347300,7.03334716796875,-0.0026104876305907965,0.0009841332212090492,-0.00017361168283969164
1782987332300421000,7.043421142578125,-0.0016171284951269627,-0.00232724123634398,-0.000969097891356796
1782987332310496300,7.053496337890625,-0.0009039805736392736,0.0014292984269559383,0.00212263991124928
1782987332320570000,7.063570068359375,-0.0011822809465229511,-0.0005845839623361826,-0.0014646381605416536
1782987332330644200,7.073644287109375,0.000624608714133501,0.00021012243814766407,-0.0020303300116211176
1782987332340719000,7.083718994140625,0.00044404645450413227,0.0004404860083013773,0.00018968110089190304
1782987332350793500,7.09379345703125,-0.0002777488552965224,-0.0011574223171919584,0.0013988276477903128
1782987332360868000,7.1038681640625,-0.00144581135828048,-0.0012069570366293192,-0.00045579776633530855
1782987332370942500,7.1139423828125,-0.0007871054694987833,0.0001967961434274912,0.0006542994524352252
1782987332381017000,7.12401708984375,0.00003288185689598322,-0.0012833885848522186,-0.0012474637478590012
1782987332391091500,7.134091552734375,-0.00048383569810539484,0.00014361878857016563,0.0016163953114300966
1782987332401165300,7.144165283203125,-0.0003661239752545953,0.0014922437258064747,-0.002928022760897875
1782987332411240400,7.154240478515625,-0.000727994367480278,0.0011037429794669151,0.0006710440502502024
1782987332421314300,7.164314208984375,0.00003580015618354082,0.0009836344979703426,-0.000380371930077672
1782987332431388200,7.17438818359375,-0.00017951393965631723,0.0004084194079041481,0.00024229229893535376
1782987332441463300,7.18446337890625,-0.0025398735888302326,0.00018817605450749397,-0.000043198568164370954
1782987332451537200,7.194537109375,0.0002785027027130127,0.0009541625622659922,0.0026747083757072687
1782987332461612300,7.2046123046875,0.0009562772465869784,-0.00026423356030136347,-0.0013578501529991627
1782987332471686100,7.21468603515625,0.000670280889607966,0.0007064251694828272,0.002690941793844104
1782987332481760000,7.224760009765625,-0.0013728962512686849,-0.0007681670831516385,-0.0024737264029681683
1782987332491835100,7.234835205078125,0.0013492248253896832,0.0012556305155158043,0.0024791378527879715
1782987332501909000,7.244908935546875,0.0013929008273407817,0.00037199375219643116,0.0006964178755879402
1782987332511984000,7.254984130859375,-0.00011758075561374426,-0.00033482909202575684,-0.00018078001448884606
1782987332522058000,7.26505810546875,-0.00040893058758229017,0.0009581355843693018,-0.0021808140445500612
1782987332532132000,7.275132080078125,-0.0024183932691812515,0.0010599042288959026,-0.00005976126703899354
1782987332542207000,7.28520703125,0.0008117546094581485,-0.0011055120266973972,-0.00036149739753454924
1782987332552281000,7.295281005859375,-0.0015798970125615597,-0.0008979658596217632,0.0002765280951280147
1782987332562356200,7.305356201171875,-0.00025790382642298937,-0.00135230110026896,-0.0001067007688106969
1782987332572430000,7.31543017578125,0.000227550626732409,0.0004643725696951151,-0.0010951061267405748
1782987332582504000,7.32550390625,0.000620366889052093,-0.0015005075838416815,-0.0003685957635752857
1782987332592579000,7.3355791015625,0.0012829018523916602,0.00036032311618328094,-0.0019690783228725195
1782987332602653000,7.34565283203125,-0.0027262207586318254,0.0012061430606991053,-0.002440990414470434
1782987332612728000,7.35572802734375,-0.000798717956058681,-0.00047312211245298386,-0.0016628260491415858
1782987332622802000,7.365802001953125,0.000019671395421028137,-0.0016505055828019977,0.0004061837971676141
1782987332632876000,7.3758759765625,0.0001292986562475562,-0.0024152477271854877,0.00015876656107138842
1782987332642951000,7.385950927734375,-0.0003924145712517202,0.002516660373657942,0.0008304157527163625
1782987332653025000,7.39602490234375,0.0024389636237174273,0.0010416214354336262,-0.0020217127166688442
1782987332663099100,7.40609912109375,0.0001973810140043497,-0.00018023676238954067,-0.000051772403821814805
1782987332673174000,7.416174072265625,0.001297186128795147,0.0008743235375732183,0.0004582453111652285
1782987332683248000,7.426248046875,0.0013251493219286203,-0.00034380622673779726,0.002290233736857772
1782987332693323000,7.436322998046875,0.0013201941037550569,0.0006379168480634689,0.002713515656068921
1782987332703397000,7.446397216796875,0.0009910274529829621,-0.0005352055886760354,0.0035534766502678394
1782987332713471200,7.45647119140625,0.000962743884883821,0.0004717656411230564,0.0008811568841338158
1782987332723546000,7.466546142578125,0.00048364116810262203,0.00019026966765522957,-0.000019790531951002777
1782987332733620200,7.4766201171875,0.0022123849485069513,0.0011778620537370443,0.00158942851703614
1782987332743695000,7.486695068359375,0.0010166256688535213,0.0006542843766510487,0.0012314995983615518
1782987332753769200,7.496769287109375,0.0006853208178654313,-0.0013653868809342384,-0.0012732762843370438
1782987332763843000,7.506843017578125,-0.002293957397341728,0.0002831097226589918,0.0025640723761171103
1782987332773918200,7.516918212890625,-0.0007526100962422788,0.000049290480092167854,0.0002398211508989334
1782987332783992000,7.526991943359375,0.001891376101411879,0.0012565015349537134,-0.0011085373116657138
1782987332794067200,7.537067138671875,0.001565800979733467,0.0002793986350297928,-0.0010331044904887676
1782987332804141000,7.54714111328125,0.00028508680406957865,-0.0012833443470299244,0.00031498761381953955
1782987332814215200,7.557215087890625,0.002322303829714656,-0.00009359314572066069,0.0005168388597667217
1782987332824290000,7.5672900390625,-0.001422899542376399,0.0007154750637710094,-0.00013430399121716619
1782987332834364200,7.5773642578125,0.0012606708332896233,-0.0015100649325177073,0.0017061139224097133
1782987332844439000,7.58743896484375,0.0013959594070911407,0.0013967754784971476,0.0009758751839399338
1782987332854513200,7.59751318359375,-0.0004862088826484978,0.002080792561173439,-0.001209472306072712
1782987332864587000,7.6075869140625,0.00044776173308491707,-0.0023328643292188644,0.0023317327722907066
1782987332874662100,7.617662109375,0.0015740343369543552,0.0006947272922843695,-0.0010569416917860508
1782987332884736000,7.627736083984375,0.00026482425164431334,-0.0003276602365076542,-0.0030220882035791874
1782987332894810000,7.63781005859375,0.0005456125363707542,-0.0003351795021444559,-0.00044422701466828585
1782987332904885000,7.647885009765625,0.00038182816933840513,0.00048320996575057507,-0.0013832575641572475
1782987332914959000,7.657958984375,-0.0006454637623392045,0.00029436335898935795,0.001897363574244082
1782987332925034000,7.668033935546875,-0.0008262924384325743,0.0016387270297855139,-0.002366091124713421
1782987332935108000,7.678108154296875,0.000399770331569016,0.0004357935395091772,0.00045306584797799587
1782987332945182200,7.68818212890625,-0.0013938687043264508,0.002253134734928608,0.00118543510325253
1782987332955257000,7.698257080078125,0.0000857701525092125,-0.0024959242437034845,0.002118433127179742
1782987332965331200,7.708331298828125,-0.001623446587473154,0.0003978665918111801,0.0006797935348004103
1782987332975406000,7.718406005859375,0.0007045279489830136,0.000791274243965745,0.0002299550687894225
1782987332985480200,7.728480224609375,-0.0000571361742913723,0.0009912776295095682,-0.0018025694880634546
1782987332995554300,7.73855419921875,0.0013571418821811676,0.001107479678466916,0.001500008162111044
1782987333005629200,7.748629150390625,-0.0016247995663434267,0.00175569299608469,-0.0025685029104351997
1782987333015703300,7.758703369140625,0.000539777334779501,-0.0010227321181446314,0.0006963086780160666
1782987333025778200,7.768778076171875,-0.001057320274412632,0.0010904863011091948,0.0014052421320229769
1782987333035852300,7.778852294921875,0.0009077248396351933,0.00046442681923508644,-0.0013596361968666315
1782987333045926100,7.788926025390625,0.00005258386954665184,0.0013166384305804968,-0.001423552050255239
1782987333056001300,7.799001220703125,0.000056943739764392376,-0.0008574945386499166,-0.002481362782418728
1782987333066075100,7.8090751953125,0.0008758659241721034,0.0027074129320681095,-0.0005135529791004956
1782987333076150300,7.819150390625,-0.0019205742282792926,-0.00026155193336308,0.0007697469554841518
1782987333086224100,7.82922412109375,-0.0006473169196397066,0.001356851076707244,-0.0013048555701971054
1782987333096298200,7.83929833984375,0.0004069540882483125,-0.00042649987153708935,0.000580384221393615
1782987333106373000,7.849373046875,-0.00024099298752844334,-0.000832898193039,-0.0015096645802259445
1782987333116447200,7.859447265625,0.002135055372491479,0.0008579832501709461,0.0016001553740352392
1782987333126522000,7.869522216796875,-0.0003089274396188557,0.0009136432781815529,-0.001075256266631186
1782987333136596200,7.87959619140625,-0.000962920137681067,0.00013505574315786362,-0.0005987342447042465
1782987333146670000,7.889670166015625,-0.0007589220185764134,-0.00038612482603639364,0.0014431113377213478
1782987333156745200,7.8997451171875,0.00011798064224421978,-0.0024211432319134474,-0.0012376668164506555
1782987333166819000,7.909819091796875,0.0006223833188414574,-0.00022563326638191938,-0.0002549603523220867
1782987333176894200,7.919894287109375,0.0003558024764060974,0.0013200344983488321,0.0016068908153101802
1782987333186968000,7.929968017578125,0.0019236054504290223,-0.002595877507701516,0.00020899763330817223
1782987333197042200,7.940042236328125,-0.0008372122538276017,0.0012516160495579243,-0.00196703034453094
1782987333207117000,7.950116943359375,0.0016856001457199454,0.0010654609650373459,0.0006527213845402002
1782987333217191200,7.960191162109375,0.00012155913282185793,0.001452399417757988,-0.00017229031072929502
1782987333227265000,7.97026513671875,-0.0010371822863817215,0.0002103010192513466,-0.000025017499865498394
1782987333237340200,7.980340087890625,0.0012830975465476513,0.00013486179523169994,-0.00022512035502586514
1782987333247414000,7.9904140625,-0.001707632327452302,-0.0006001706933602691,0.0002137685805791989
1782987333257489200,8.0004892578125,-0.0010406115325167775,-0.000022412976250052452,-0.0002183781616622582
1782987333267563000,8.01056298828125,0.001611630548723042,0.00044603715650737286,-0.00024607504019513726
1782987333277637000,8.02063720703125,-0.0033221603371202946,-0.0012620741035789251,0.0004370874958112836
1782987333287712000,8.0307119140625,0.001376188243739307,0.0016799198929220438,-0.0029168976470828056
1782987333297786000,8.0407861328125,-0.000368007633369416,0.0023585534654557705,-0.0001515104086138308
1782987333307861000,8.050861083984374,-0.0011573686497285962,-0.0004172594053670764,-0.001472438219934702
1782987333317935000,8.06093505859375,0.0019347909837961197,-0.00046373868826776743,0.0001521733502158895
1782987333328009200,8.07100927734375,-0.0011922927806153893,-0.0008847845019772649,0.0007271498325280845
1782987333338084000,8.081083984375,-0.00040245772106572986,0.0007279939018189907,-0.0019585133995860815
1782987333348158200,8.091158203125,-0.0013990126317366958,0.0014502431731671095,0.0020138577092438936
1782987333358233000,8.101233154296875,-0.0011936976807191968,0.000060459133237600327,0.0029009042773395777
1782987333368307200,8.11130712890625,0.00046838109847158194,0.0006793779321014881,0.0004193707718513906
1782987333378381000,8.121381103515626,0.0004759926814585924,-0.000003220280632376671,-0.0021113993134349585
1782987333388456200,8.131456298828125,-0.0015583960339426994,0.002322251908481121,0.000492106715682894
1782987333398530000,8.141530029296876,-0.0008765298989601433,0.002365810563787818,-0.0010377811267971992
1782987333408605200,8.151605224609375,-0.0010757343843579292,0.0007362223695963621,-0.001605300814844668
1782987333418679300,8.16167919921875,0.003120990004390478,-0.0012420322746038437,-0.0017859934596344829
1782987333428753200,8.171753173828124,0.0027505443431437016,-0.0005211145617067814,-0.0002485505538061261
1782987333438828300,8.181828369140625,-0.0009587304084561765,0.0023626466281712055,0.0008098176913335919
1782987333448902700,8.191902587890626,-0.0003933412954211235,0.0012068345677107573,0.002252452075481415
1782987333458976800,8.201976806640625,-0.00041710236109793186,0.0007370738312602043,0.0011017753276973963
1782987333469051600,8.2120517578125,0.001638325396925211,-0.00036281172651797533,0.0005925789591856301
1782987333479125800,8.222125732421874,0.0013554278993979096,-0.00037938717287033796,0.0018894148524850607
1782987333489200600,8.23220068359375,-0.0006416765390895307,0.0024209266994148493,-0.00026534873177297413
1782987333499274800,8.242274658203126,0.0011619150172919035,-0.0010656422236934304,0.0012899342691525817
1782987333509348600,8.2523486328125,-0.00023171707289293408,-0.00047175725921988487,-0.0008997168042697012
1782987333519423700,8.262423828125,-0.00001583609264343977,-0.0005338512128219008,0.0010344460606575012
1782987333529497600,8.27249755859375,0.0007652690401300788,0.00251999543979764,0.0010344460606575012
1782987333539572700,8.28257275390625,0.0019126622937619686,-0.0010568521684035659,0.0005166265764273703
1782987333549646600,8.292646484375,0.00004472117871046066,-0.0005194263067096472,0.0005070391925983131
1782987333559720700,8.302720703125,-0.00009500212036073208,0.0002638804726302624,0.002427836414426565
1782987333569795600,8.312795654296876,0.0002810362493619323,0.0007379231974482536,0.0015476616099476814
1782987333579869700,8.32286962890625,-0.0012528322404250503,-0.0012461510486900806,-0.00017089750326704234
1782987333589944600,8.332944580078125,0.0000683619873598218,0.0013051573187112808,-0.0005413432372733951
1782987333600018700,8.343018798828124,-0.00079392793122679,0.0005656527355313301,0.0022758818231523037
1782987333610092500,8.353092529296875,0.0026484739501029253,0.00230389810167253,0.0007677337853237987
1782987333620167700,8.363167724609376,0.0004110762383788824,0.0015214972663670778,0.00023692274407949299
1782987333630241500,8.373241455078125,-0.0007300882716663182,-0.0006223473465070128,0.001908322679810226
1782987333640316700,8.383316650390626,-0.00015072646783664823,0.000408742344006896,-0.0004923488013446331
1782987333650390500,8.393390625,-0.0008351588621735573,-0.00027915218379348516,0.0014147409237921238
1782987333660464600,8.403464599609375,0.0008064208086580038,-0.0008605914190411568,0.0012872829101979733
1782987333670539500,8.41353955078125,0.00021173700224608183,-0.0010177178774029016,0.0002960544661618769
1782987333680613600,8.423613525390625,-0.0012372593628242612,-0.0006128603126853704,-0.00016868265811353922
1782987333690688500,8.4336884765625,0.0009457337437197566,-0.0008940900443121791,0.0015850089257583022
1782987333700762600,8.4437626953125,0.0006686209235340357,-0.0007176252547651529,0.00047096540220081806
1782987333710836700,8.453836669921875,0.0005434523336589336,0.0004589592572301626,0.0012051989324390888
1782987333720911600,8.46391162109375,-0.00169889978133142,-0.0008964672451838851,-0.0007969369762577116
1782987333730985700,8.47398583984375,0.0006308335578069091,-0.00039712456054985523,0.00037884863559156656
1782987333741060600,8.484060546875,0.0013537895865738392,0.002363777719438076,0.00003452265082160011
1782987333751134700,8.494134765625,-0.0010838016169145703,-0.00012867478653788567,-0.000739125651307404
1782987333761208800,8.504208740234375,0.0015623093349859118,-0.0009354694047942758,0.00202944315969944
1782987333771283700,8.51428369140625,-0.0009016471449285746,-0.002187954029068351,-0.00047499360516667366
1782987333781357800,8.52435791015625,-0.00016334885731339455,-0.0005406313575804234,0.0014876112109050155
1782987333791431700,8.534431640625,0.00015782832633703947,0.0016128006391227245,0.0008151630754582584
1782987333801506800,8.5445068359375,-0.0000689204316586256,0.0009368578903377056,-0.0035516100469976664
1782987333811580700,8.55458056640625,0.0009547986555844545,0.00013764319010078907,0.0005355434259399772
1782987333821655800,8.56465576171875,0.0026654191315174103,-0.0001657763496041298,-0.0002874633646570146
1782987333831729700,8.574729736328125,0.0006749725434929132,0.0009538165759295225,0.002242273185402155
1782987333841803500,8.584803466796876,-0.0002349038259126246,-0.0009048037463799119,-0.00032426236430183053
1782987333851878700,8.594878662109375,0.00028121680952608585,-0.0013578074285760522,-0.00035462240339256823
1782987333861952500,8.604952392578125,0.0008127903565764427,0.0002754293382167816,-0.0016035326989367604
1782987333872027600,8.615027587890625,-0.00024395197397097945,-0.0007541488157585263,0.0006108857342042029
1782987333882101800,8.625101806640625,0.00010687904432415962,-0.001506064087152481,0.002282755682244897
1782987333892175600,8.635175537109374,0.0005708016688004136,-0.0004597081569954753,0.0000161392345034983
1782987333902250800,8.645250732421875,-0.002036123536527157,0.002442979020997882,-0.00008198872819775715
1782987333912324600,8.65532470703125,0.0015772533370181918,0.0009113952983170748,-0.0005325955571606755
1782987333922399700,8.665399658203125,-0.00047886668471619487,0.0019334601238369942,-0.002399939112365246
1782987333932473600,8.6754736328125,-0.00031854439293965697,-0.000012777978554368019,0.0013063820078969002
1782987333942547500,8.68554736328125,-0.00009500520536676049,-0.00021844287402927876,0.0018869766499847174
1782987333952622600,8.69562255859375,0.003378822235390544,-0.001491700066253543,-0.00254905060864985
1782987333962696400,8.705696533203126,0.001538952812552452,-0.00017815642058849335,-0.00046086579095572233
1782987333972771600,8.715771484375,0.0008028550073504448,-0.0003398102708160877,0.0011056055082008243
1782987333982845400,8.725845458984375,-0.00034711649641394615,0.0010780354496091604,0.0005984442541375756
1782987333992919800,8.735919921875,0.00030695588793605566,-0.0011536934180185199,-0.002282829722389579
1782987334002994700,8.74599462890625,-0.0005171486991457641,0.0002595458645373583,-0.000298346858471632
1782987334013068800,8.75606884765625,-0.0011363336816430092,0.00037592602893710136,-0.0021894576493650675
1782987334023143700,8.766143798828125,-0.0004716021358035505,-0.0006137284217402339,0.0000604867200308945
1782987334033217800,8.7762177734375,-0.0009443131857551634,0.000011581694707274437,-0.0021155821159482002
1782987334043291600,8.786291748046875,0.0003219917416572571,0.0001823983620852232,-0.00038857056642882526
1782987334053366800,8.79636669921875,-0.0008396790944971144,0.00030064256861805916,0.0002796165645122528
1782987334063440600,8.806440673828124,0.0011864949483424425,-0.0015727244317531586,0.0007764484034851193
1782987334073515800,8.816515869140625,-0.000034830765798687935,-0.0003540619509294629,0.0007998842047527432
1782987334083589600,8.826589599609376,-0.0004404063802212477,-0.0014197062700986862,0.0006842594011686742
1782987334093663700,8.836663818359375,0.00031699659302830696,-0.0022567377891391516,0.00032553161145187914
1782987334103738600,8.846738525390625,0.0009915397968143225,-0.00016288505867123604,0.0006436842959374189
1782987334113812700,8.856812744140624,-0.0015632306458428502,0.001203050371259451,-0.0021217421162873507
1782987334123887900,8.866887939453125,-0.002128934720531106,0.0007242392748594284,-0.00040328584145754576
1782987334133961700,8.876961669921876,0.00014167639892548323,-0.0009311817120760679,-0.00011140338028781116
1782987334144035600,8.88703564453125,0.0009407815523445606,-0.0015221398789435625,2.196247805841267e-7
1782987334154110700,8.89711083984375,-0.0008840163936838508,0.002166071906685829,0.000002350156137254089
1782987334164184600,8.9071845703125,-0.00018628081306815147,0.0005915712099522352,-0.0005448492593131959
1782987334174258700,8.9172587890625,0.000544224283657968,0.0023308820091187954,0.0007752796518616378
1782987334184333600,8.92733349609375,0.0021216056775301695,0.0004161784891039133,-0.0019965178798884153
1782987334194407700,8.93740771484375,0.0035503916442394257,-0.0006208564154803753,0.000997940544039011
1782987334204482600,8.947482666015626,0.00015538360457867384,0.0005122863221913576,-0.00045586959458887577
1782987334214556700,8.957556640625,-0.001159419072791934,0.00002279737964272499,0.002816622843965888
1782987334224630500,8.967630615234375,0.0018961784662678838,-0.00013921386562287807,0.0022611510939896107
1782987334234705700,8.97770556640625,-0.0005171779775992036,0.000059724319726228714,-0.0015522291650995612
1782987334244779500,8.987779541015625,-0.003000939730554819,-0.0003061253810301423,0.00041434430750086904
1782987334254854700,8.997854736328126,0.0004891330609098077,0.0012731291353702545,0.0008537658723071218
1782987334264928500,9.007928466796875,-0.0004891291609965265,-0.000344841624610126,0.0001624492579139769
1782987334275002600,9.018002685546875,-0.000449181767180562,0.0007907303515821695,0.0007688510231673717
1782987334285077500,9.028077392578124,0.0019753663800656796,-0.0001230146735906601,-0.00016014800348784775
1782987334295151600,9.038151611328125,0.0021186445374041796,0.0014495819341391325,0.000049442765885032713
1782987334305226500,9.0482265625,0.0003401234280318022,0.0000021781306713819504,-0.00026191299548372626
1782987334315300600,9.058300537109375,0.0006639637285843492,-0.0015395258087664843,-0.0009231758886016905
1782987334325374700,9.068374755859375,-0.0013713767984881997,0.0007850110996514559,0.002217953559011221
1782987334335449600,9.07844970703125,0.003446281421929598,0.0012207042891532183,0.0029665681067854166
1782987334345523700,9.088523681640625,0.000054776668548583984,0.0015228944830596447,-0.00098220759537071
1782987334355598600,9.0985986328125,0.0005216288845986128,-0.0032407017424702644,0.0018633800791576505
1782987334365672700,9.108672607421875,0.0018023530719801784,0.000880054198205471,-0.002143040532246232
1782987334375746800,9.118746826171876,0.0008401528466492891,0.0009945703204721212,0.0001946822740137577
1782987334385821700,9.12882177734375,0.0006955926073715091,-0.0006209455896168947,-0.0022725886665284634
1782987334395895800,9.138895751953125,0.0014101186534389853,-0.0007391899125650525,0.0022334798704832792
1782987334405969700,9.1489697265625,0.0007661636918783188,-0.0016203459817916155,-0.0021678516641259193
1782987334416044800,9.159044921875,-0.001571292756125331,0.0017943591810762882,-0.0006948573281988502
1782987334426118700,9.16911865234375,0.0005649257218465209,0.000029968097805976868,0.002309569390490651
1782987334436193800,9.17919384765625,0.0011257873848080635,-0.0015460907015949488,-0.0004601182008627802
1782987334446268200,9.18926806640625,-0.00020398158812895417,-0.0018598291790112853,0.0037437635473906994
1782987334456343300,9.19934326171875,0.0006929710507392883,-0.00005820067599415779,0.0021072509698569775
1782987334466417200,9.209417236328125,0.00011648726649582386,-0.0009460753062739968,-0.000046037122956477106
1782987334476491300,9.2194912109375,-0.0006979073514230549,0.0004185284487903118,-0.0023432797752320766
1782987334486566100,9.229566162109375,0.001766155706718564,-0.001304571283981204,-0.0013013235293328762
1782987334496640300,9.23964013671875,0.0015685490798205137,-0.0005461029941216111,-0.0026914936024695635
1782987334506714000,9.249714111328124,0.0016257192473858595,-0.0009700850350782275,-0.003288930980488658
1782987334516789200,9.259789306640625,0.00039826834108680487,0.0015998652670532465,0.00028476500301621854
1782987334526863000,9.269863037109374,0.0008517790120095015,0.0020465150009840727,-0.0009779303800314665
1782987334536938200,9.279938232421875,0.0005716144805774093,0.0015120187308639288,0.0009286266285926104
1782987334547012000,9.29001220703125,0.0011844864347949624,-0.002258877968415618,-0.0009278854122385383
1782987334557086200,9.300086181640625,0.00040924036875367165,0.00002824491821229458,0.00175045570358634
1782987334567161000,9.3101611328125,-0.0001518639619462192,0.00032352772541344166,-0.00004961177910445258
1782987334577235200,9.320235107421874,-0.0009356322698295116,-0.0016046008095145226,-0.0017324632499366999
1782987334587310000,9.33031005859375,-0.002899683080613613,-0.0018612773856148124,0.000380583805963397
1782987334597384200,9.34038427734375,-0.0007734152022749186,-0.00010252580977976322,0.0009478371357545257
1782987334607458000,9.3504580078125,0.0005280387122184038,0.0005438199732452631,-0.0008126322063617408
1782987334617533200,9.360533203125,-0.0003436139668338001,0.0004940188955515623,-0.0014714981662109494
1782987334627607000,9.37060693359375,-0.0015755740460008383,-0.00017568678595125675,-0.0015363855054602027
1782987334637682200,9.38068212890625,-0.0006506582139991224,-0.000456650392152369,0.0021507609635591507
1782987334647756000,9.390756103515624,0.0005184202454984188,-0.001632391824387014,-0.0031984886154532433
1782987334657830100,9.400830078125,0.0015474655665457249,0.0005788307171314955,-0.0003294652560725808
1782987334667905000,9.410905029296876,0.001360017922706902,0.0014177842531353235,-0.0025166089180856943
1782987334677979100,9.420979248046875,0.00005347107071429491,0.003000766970217228,-0.0005053895874880254
1782987334688054000,9.431053955078125,-0.0007993907202035189,0.0006204291712492704,0.00038347806548699737
1782987334698128100,9.441128173828124,0.00036334537435323,-0.0016190230380743742,-0.0027103160973638296
1782987334708202200,9.4512021484375,-0.0033460836857557297,0.0022931622806936502,-0.0017099358374252915
1782987334718277000,9.461277099609376,0.0009509266819804907,-0.000659218174405396,-0.001809271750971675
1782987334728351200,9.471351318359375,-0.0006225290708243847,0.00018410547636449337,-0.0012204027734696865
1782987334738426000,9.481426025390626,0.001295213121920824,-0.0002878066152334213,0.0005103854928165674
1782987334748500200,9.491500244140624,-0.00003186101093888283,-0.0020228831563144922,0.0003368329780641943
1782987334758574000,9.501573974609375,0.0006413861410692334,0.0018653320148587227,-0.0005758323241025209
1782987334768649200,9.511649169921874,-0.0010660461848601699,0.0010670749470591545,-0.0010390329407528043
1782987334778723000,9.52172314453125,-0.0004234254010953009,0.001419144682586193,-0.001038500340655446
1782987334788798200,9.531798095703126,-0.001703502144664526,0.001418032217770815,0.000878627528436482
1782987334798872300,9.541872314453125,0.001583637553267181,0.00013172533363103867,-0.0008079524850472808
1782987334808946200,9.5519462890625,-0.0007041529170237482,0.003023270284757018,-0.00177671923302114
1782987334819021300,9.562021240234374,0.00014353124424815178,0.0011374859604984522,-0.00026564160361886024
1782987334829095200,9.57209521484375,-0.0009380661649629474,0.0003826806787401438,-0.00037856504786759615
1782987334839170300,9.58217041015625,-0.0006579016335308552,0.0013294343370944262,0.0016488995170220733
1782987334849244200,9.592244140625,-0.001388226286508143,0.0003621235955506563,-0.0009318417287431657
1782987334859318000,9.602318115234375,0.0013058275217190385,0.00020686141215264797,0.00006977315933909267
1782987334869393200,9.61239306640625,-0.00111347995698452,0.0003346737939864397,0.0001897019537864253
1782987334879467000,9.622467041015625,-0.000468196056317538,0.0017709163948893547,0.00045948015758767724
1782987334889541000,9.632541015625,-0.0006890170043334365,0.0004927273839712143,0.0012620420893654227
1782987334899616000,9.642615966796875,0.00042791268788278103,0.0021670570131391287,0.0011184976901859045
1782987334909690000,9.652690185546875,-0.001622168580070138,0.0016571378801018,-0.0019632233306765556
1782987334919765200,9.66276513671875,-0.0022043355274945498,-0.000930389272980392,-0.0015160784823819995
1782987334929839000,9.672839111328125,0.00017032294999808073,0.00029588560573756695,-0.001966673880815506
1782987334939913000,9.682912841796876,-0.00018627435201779008,0.000634373165667057,-0.001892371685244143
1782987334949988000,9.692988037109375,-0.002585722366347909,-0.00036888744216412306,-0.0009781913831830025
1782987334960062000,9.70306201171875,-0.0008703803177922964,0.000345106003805995,-0.0010290577774867415
1782987334970137000,9.71313720703125,-0.00006892124656587839,-0.0005992325022816658,0.00012124828936066478
1782987334980211000,9.7232109375,-0.001972016179934144,0.0013174444902688265,0.0001372272672597319
1782987334990285000,9.73328515625,-0.0018692121375352144,0.0011819417122751474,-0.0017038688529282808
1782987335000360000,9.74335986328125,-0.0006859696004539728,0.0008956519886851311,-0.0026514215860515833
1782987335010434000,9.75343408203125,-0.0013632260961458087,-0.0024325356353074312,-0.0004172049229964614
1782987335020509000,9.763509033203125,0.00034998543560504913,0.0007944165263324976,-0.0017740854527801275
1782987335030583000,9.7735830078125,0.0003511604154482484,-0.00043793278746306896,0.0020845921244472265
1782987335040657200,9.7836572265625,-0.0002451213076710701,-0.0004991855239495635,-0.0007591311587020755
1782987335050732000,9.79373193359375,0.001216149772517383,-0.0002212395193055272,-0.0009324031416326761
1782987335060806100,9.80380615234375,0.0011277328012511134,-0.00040126917883753777,-0.0013563784305006266
1782987335070881000,9.813881103515625,0.00009781308472156525,-0.0007248513866215944,-0.0015073174145072699
1782987335080955100,9.823955078125,0.002296519000083208,-0.00021911703515797853,-0.00034484759089536965
1782987335091029200,9.834029296875,0.0006351583870127797,-0.0000026174820959568024,0.00049127999227494
1782987335101104000,9.844104248046875,0.0008492764318361878,0.0010860827751457691,0.00045745784882456064
1782987335111178200,9.85417822265625,-0.000318882055580616,0.00046828598715364933,-0.0015925327315926552
1782987335121253000,9.864253173828125,0.0005876579089090228,0.0013540531508624554,-0.0009725488489493728
1782987335131327200,9.8743271484375,0.0017026467248797417,-0.002541289431974292,-0.0014330430421978235
1782987335141401000,9.884401123046874,-0.0005051137413829565,0.0021035298705101013,0.00021172525885049254
1782987335151476200,9.894476318359375,-0.0002171265077777207,0.0009989568497985601,-0.00040379847632721066
1782987335161550000,9.904550048828124,-0.00007837580051273108,-0.000028756912797689438,0.0008281798218376935
1782987335171625200,9.914625244140625,-0.0018224093364551663,0.0011198963038623333,0.0012150845723226666
1782987335181699000,9.924698974609376,-0.00042584765469655395,-0.0004540318623185158,-0.00100652442779392
1782987335191773200,9.934773193359375,-0.00012144778156653047,-0.00029952346812933683,-0.00046385376481339335
1782987335201848000,9.94484814453125,-0.00012304569827392697,0.0015140892937779427,0.00004827210068469867
1782987335211921200,9.954921142578126,0.0017760543851181865,-0.00019193172920495272,-0.0007466814713552594
1782987335221996000,9.96499609375,0.0016068810364231467,0.0005398583598434925,-0.0019561101216822863
1782987335232070100,9.975070068359376,-0.0005261240876279771,-0.001981471898034215,-0.0014764834195375443
1782987335242144000,9.98514404296875,0.0004757571732625365,0.0012241750955581665,-0.001404311740770936
1782987335252219100,9.99521923828125,0.0007098214700818062,0.003480803221464157,-0.0009050703374668956
1782987335262293000,10.00529296875,-0.0007863423670642078,0.0007417423184961081,-0.000614785763900727
1782987335272368000,10.0153681640625,-0.00035070773446932435,-0.000030230963602662086,-0.0017583596054464579
1782987335282442000,10.02544189453125,-0.0006077027646824718,0.0011013462208211422,-0.0032782256603240967
1782987335292516400,10.035516357421875,0.0024970555678009987,0.0005094239022582769,-0.0005664701457135379
1782987335302591000,10.045591064453125,0.0007636041846126318,-0.001501262653619051,0.00005484533903654665
1782987335312665300,10.055665283203124,0.0002735400339588523,0.0001987200230360031,0.0007417440647259355
1782987335322740000,10.065739990234375,0.0011667642975226045,-0.001208494184538722,0.0009265674743801355
1782987335332814300,10.075814453125,0.001401193905621767,-0.0001223867293447256,0.00038773269625380635
1782987335342888200,10.08588818359375,-0.000679001328535378,-0.0009080192539840937,-0.0007739381399005651
1782987335352963300,10.09596337890625,0.00027445354498922825,0.00025249808095395565,-0.00046027061762288213
1782987335363037200,10.106037109375,-0.0004720305441878736,-0.0013669701293110847,0.00047077046474441886
1782987335373112300,10.1161123046875,-0.0004618732491508126,0.0005327770486474037,0.00017691103857941926
1782987335383186200,10.126186279296874,-0.0011942425044253469,-0.00013913866132497787,-0.0015280446968972683
1782987335393260000,10.136260009765625,0.0005220442544668913,0.003206709399819374,-0.0004925710381940007
1782987335403335200,10.146335205078126,0.00042537145782262087,0.0005499399267137051,0.00020251396927051246
1782987335413409300,10.1564091796875,-0.002532342681661248,-0.0010815734276548028,0.002426071558147669
1782987335423484200,10.166484130859375,-0.0011453683255240321,0.0007876993622630835,-0.0008112670620903373
1782987335433558300,10.176558349609374,0.000065028783865273,0.0005246128421276808,0.0030299851205199957
1782987335443632000,10.186632080078125,0.000057571916840970516,-0.0002799282083287835,0.0027343742549419403
1782987335453706500,10.19670654296875,0.0007395626744255424,0.0011963543947786093,0.00015949913358781487
1782987335463780400,10.2067802734375,0.0003520727623254061,-0.0019562956877052784,0.00148095958866179
1782987335473855500,10.21685546875,-0.0017259337473660707,0.0006702861282974482,0.0007989519508555532
1782987335483929300,10.226929443359374,-0.00028223416302353144,0.0005035721696913242,-0.002051162999123335
1782987335494003500,10.23700341796875,-0.0014775149757042527,-0.0002939768601208925,-0.0009274459443986416
1782987335504078300,10.247078369140626,-0.0005765676032751799,0.00142136518843472,-0.004707536660134792
1782987335514152400,10.25715234375,0.00041895732283592224,0.001498956698924303,-0.0011841249652206898
1782987335524226300,10.267226318359375,-0.0026343567296862602,0.000853672856464982,-0.0008709372486919165
1782987335534301400,10.277301513671874,0.00008916785009205341,0.000019598053768277168,-0.0008446879801340401
1782987335544375300,10.287375244140625,0.0012620240449905396,0.002488348400220275,0.00025865965289995074
1782987335554450400,10.297450439453126,0.0014005828415974975,0.00013128598220646381,-0.0006577426102012396
1782987335564524300,10.307524169921875,-0.0012050538789480925,0.0006343571003526449,0.0007196443621069193
1782987335574598700,10.3175986328125,-0.007180872838944197,-0.005957284942269325,0.018098466098308563
1782987335584673300,10.32767333984375,0.0007340417942032218,0.011573239229619503,0.0005884484853595495
1782987335594747600,10.33774755859375,-0.00282044755294919,-0.008535215631127357,0.0025724289007484913
1782987335604822300,10.347822265625,-0.0002150769578292966,0.00823364406824112,0.0005295178852975368
1782987335614896600,10.357896728515625,-0.00002446887083351612,-0.0022229081951081753,0.0016985773108899593
1782987335624970500,10.367970458984376,0.0008402594830840826,0.0036256599705666304,-0.002200290560722351
1782987335635045600,10.378045654296875,0.0009395962115377188,-0.003078098176047206,-0.0012233001179993153
1782987335645119500,10.388119384765625,0.0018855510279536247,0.001601342111825943,-0.004807915072888136
1782987335655194600,10.398194580078124,0.0017232871614396572,0.0013874254655092955,-0.006822236813604832
1782987335665268500,10.4082685546875,0.00420695124194026,-0.001143376575782895,-0.0027798244263976812
1782987335675342600,10.418342529296876,-0.002008519833907485,0.0012755936477333307,0.0009483576286584139
