time,seconds_elapsed,z,y,x
1782987487421382700,0.083382568359375,0.22765900107324122,-0.1199728255972266,0.02664320185165852
1782987487431456800,0.093456787109375,0.12033727499544619,-0.08799538657814264,0.05929221998937428
1782987487441531600,0.10353173828125,-0.01236614509820938,-0.044601723596826195,0.028395963803119956
1782987487451605800,0.113605712890625,-0.015630699852108954,-0.022744988836720586,-0.0036383199697360394
1782987487461680600,0.1236806640625,0.009497311663627625,-0.015454831828549504,-0.0038631051689386364
1782987487471754800,0.133754638671875,0.04364274237155914,-0.007125614096224308,0.014858984827250241
1782987487481829600,0.14382958984375,0.10714929212033748,-0.047209129616245626,0.021816256619244814
1782987487491903700,0.15390380859375,0.14157061716020106,-0.08176160675510763,0.010532755658589302
1782987487501977600,0.1639775390625,0.15049801998138426,-0.06191073192469775,0.018246946765109896
1782987487512052700,0.174052734375,0.06698971568942069,-0.029737697268277404,0.014330540506355464
1782987487522126600,0.184126708984375,-0.017658406287431715,-0.013405790344253182,0.001199694645963609
1782987487532201700,0.19420166015625,-0.026304654079675673,-0.011567615131661295,0.024545023996010423
1782987487542275600,0.204275634765625,0.03564297578930854,-0.026908392126485704,0.019546083197556435
1782987487552350700,0.214350830078125,0.07871639384031295,-0.04947159465551376,0.03615589374750852
1782987487562424600,0.224424560546875,0.1120586914718151,-0.0314571414720267,0.017417802464589474
1782987487572498700,0.234498779296875,0.10425415520071983,-0.04590542660653591,0.009116824446059763
1782987487582573600,0.244573486328125,0.061849430191516876,-0.022005641711503265,0.0056058206504210825
1782987487592647700,0.254647705078125,0.02517418874502182,-0.007318652450293302,-0.009215791308507323
1782987487602722300,0.264722412109375,-0.012359715357422828,0.04626417691633105,0.011984086978062986
1782987487612796700,0.274796630859375,-0.012173252874612808,-0.014424392802268265,-0.008369330547004937
1782987487622871300,0.284871337890625,0.07701368157565593,-0.016918766901269554,0.009990392410196364
1782987487632945700,0.294945556640625,0.0476531470566988,-0.04610051078721881,0.03135550772845745
1782987487643020300,0.305020263671875,0.05558335553407669,-0.03538447098359465,0.04364665136169642
1782987487653094700,0.3150947265625,0.1146422782242298,-0.04695902731269598,0.03402615170981735
1782987487663169300,0.325169189453125,0.08164426398575306,-0.0005784574750810861,0.036752617531642315
1782987487673243600,0.33524365234375,0.007064531558752059,-0.020800065314024684,0.027874058820866045
1782987487683317500,0.3453173828125,0.01842471448481083,0.036288068759813906,0.015434556225501
1782987487693392600,0.355392578125,-0.005034487035870552,0.01817519670315087,0.0258012346021831
1782987487703466500,0.365466552734375,0.021325696623325348,-0.010435761557519435,0.012690956605784594
1782987487713541600,0.375541748046875,0.16683423775434494,-0.10906374743953347,0.07671042431276291
1782987487723615500,0.385615478515625,0.21944529947936534,-0.09145480631701648,0.022803258362598715
1782987487733690600,0.395690673828125,0.1262099664211273,-0.060330842322111125,0.015386479300074278
1782987487743764500,0.405764404296875,0.10436346079409121,0.006960048270970583,-0.02150043213572353
1782987487753838600,0.415838623046875,0.0755950469493866,-0.02290880109630525,0.03647902475465089
1782987487763913500,0.42591357421875,0.03052724021077156,0.0024850948140025136,0.021762590203247962
1782987487773987600,0.435987548828125,0.009317863443493843,-0.020019363265112042,-0.0059482774125412105
1782987487784062500,0.4460625,0.006985621103644371,-0.02707768427878618,-0.0005813435519114136
1782987487794136600,0.456136474609375,0.05235796374678611,-0.02886354478225112,0.038070056805759665
1782987487804211500,0.46621142578125,0.08947568826377392,-0.04999627611674368,0.0327114523820579
1782987487814285600,0.47628564453125,0.0965086556404829,-0.06656184566617011,0.01744659016765654
1782987487824360700,0.486360595703125,0.087502342364192,-0.06441979213617742,0.010475764774344861
1782987487834434600,0.4964345703125,0.07566811218559742,-0.03869103824831545,0.018848602452687917
1782987487844509700,0.506509765625,0.057684127205610274,-0.032220892386138435,0.013565291754901409
1782987487854583600,0.51658349609375,0.025205168405175206,-0.01859999798648059,0.02217303416766226
1782987487864657400,0.526657470703125,0.03449614384174347,-0.02894910417385399,0.013518749199435114
1782987487874732500,0.536732666015625,0.052907414323091505,-0.0380938760727644,0.0017284312278032302
1782987487884806400,0.546806396484375,0.07772913636863231,-0.025233517716825006,0.023809622393548488
1782987487894881500,0.556881591796875,0.07875847941637039,-0.035732334573194385,0.03524542783908546
1782987487904955400,0.566955322265625,0.07126023261547088,-0.039746757846325635,0.013499861835874616
1782987487915030500,0.577030517578125,0.06556114419102668,-0.03270231922753155,0.011284304678253828
1782987487925104400,0.5871044921875,0.08125497240722179,-0.030421953205391764,0.023852621285058558
1782987487935179500,0.597179443359375,0.07837152592539787,-0.002855900887772441,0.030160781518556175
1782987487945253600,0.607253662109375,0.06310556773245335,0.007048968663439154,-0.0038091099593788383
1782987487955327500,0.617327392578125,0.04665419914722442,-0.008679784735664725,0.005659815859980881
1782987487965402600,0.627402587890625,0.061631403526663776,-0.0011844605442136525,0.010448913300037383
1782987487975476500,0.6374765625,0.06779869398474693,-0.012153013804182409,0.012567147563025355
1782987487985551600,0.647551513671875,0.0669546443760395,-0.02188515713699162,0.009846088568679988
1782987487995625500,0.65762548828125,0.05412497341930866,-0.023602409383654592,0.007830474429950118
1782987488005700600,0.66770068359375,0.05223930580317974,-0.02176021558307111,0.008403963468968868
1782987488015774500,0.6777744140625,0.055258361363410946,-0.012966595209389925,0.024210202551074325
1782987488025849600,0.687849609375,0.051042789494991296,-0.020389292556047437,0.021984379727765915
1782987488035923500,0.69792333984375,0.06766659203767776,-0.01549004927240312,0.016272468354366718
1782987488045997300,0.707997314453125,0.06362403864860534,-0.020017098242789504,0.016708887010253966
1782987488056072400,0.718072509765625,0.053935588327050206,-0.021750863232836128,0.019414456174522636
1782987488066146600,0.728146484375,0.03707446989715099,-0.017872049038112164,0.02001896140631288
1782987488076221400,0.738221435546875,0.05043137959837913,-0.030098785665631293,0.01585285470280796
1782987488086295600,0.748295654296875,0.05362403815984726,-0.019197379357740282,0.012206789818033576
1782987488096370400,0.758370361328125,0.061468906441330906,-0.015583572774752974,-0.0022839827513322234
1782987488106444500,0.768444580078125,0.050292263388633726,-0.036597938426584,0.012418496339954435
1782987488116519400,0.77851953125,0.06333937648832798,-0.045555809451267124,0.021298699018545447
1782987488126593500,0.788593505859375,0.07773147445619105,-0.043359103124588724,0.014602562380768357
1782987488136667400,0.79866748046875,0.0656610974341631,-0.034880613114684815,0.020738471319898963
1782987488146742500,0.808742431640625,0.07034253324866295,-0.027246611104905602,0.012947817443683743
1782987488156816400,0.81881640625,0.04450666572451591,-0.0454085099350661,0.019109299215488134
1782987488166891500,0.8288916015625,0.0585936432659626,-0.03662175769358873,-0.0006446180464699864
1782987488176965400,0.83896533203125,0.06743102971613407,-0.020252002977207303,0.005187412575259805
1782987488187040500,0.84904052734375,0.06523147384524346,-0.029904359072074293,0.017270831741951403
1782987488197114400,0.8591142578125,0.06527589750885963,-0.019199352119117975,0.00962481050081551
1782987488207189500,0.869189453125,0.0663619391798973,-0.023537381323426962,0.02036521756071597
1782987488217263400,0.879263427734375,0.07672258967459201,-0.02909267736300826,0.005785195805318653
1782987488227338500,0.88933837890625,0.06342062503099441,-0.01675955775156617,-0.0032320772564038633
1782987488237412400,0.899412353515625,0.05584171420931816,-0.024155074830353257,0.022353651431575416
1782987488247486500,0.909486572265625,0.050771571338176724,-0.018446049533784387,0.011877411733195184
1782987488257561300,0.919561279296875,0.054520694738626474,-0.016092326014488935,0.014590798877738415
1782987488267635500,0.929635498046875,0.07191022095680237,-0.011025178818032146,0.02026365688238293
1782987488277710300,0.93971044921875,0.06354103654026985,-0.007937734196707605,0.01587963311187923
1782987488287784700,0.94978466796875,0.06879588832855224,-0.01645334134660661,0.017757592345587908
1782987488297859300,0.959859375,0.05834171433150768,-0.016564546636119483,-0.0005256313093006611
1782987488307933700,0.96993359375,0.07226794835329055,-0.006207622468471527,0.001046111519448459
1782987488318008300,0.98000830078125,0.07125672548413277,-0.009693272627145052,0.018292539472505448
1782987488328082700,0.990082763671875,0.05484159725606441,-0.006283464183658361,0.01637063149921596
1782987488338156500,1.000156494140625,0.07325871295630931,0.005334931287169456,0.01621489294823259
1782987488348231700,1.010231689453125,0.06506313154101372,-0.006106792442500591,0.011510624247416853
1782987488358305500,1.020305419921875,0.07243687517940997,-0.015598916474357247,0.018813494606688616
1782987488368380700,1.030380615234375,0.05664543180763721,-0.02103044000379741,0.015204912188090383
1782987488378454500,1.04045458984375,0.10113514639735222,-0.0011399638153612613,0.019386618319526313
1782987488388529700,1.05052978515625,0.464186952778697,-0.12411219042427837,0.07134045824483036
1782987488398603500,1.060603515625,-0.40547114443778987,0.031061200957000254,0.01693447592705488
1782987488408678700,1.0706787109375,-0.10408873550593853,-0.021527868131920695,-0.10718673805389553
1782987488418752500,1.08075244140625,-0.06309621538221835,0.09689655897952616,0.04194879793524742
1782987488428826600,1.09082666015625,0.2320423307240009,-0.08913586185015737,0.05950644726194441
1782987488438901500,1.100901611328125,0.40472997068166733,-0.1055339658781886,0.012433438180759548
1782987488448975600,1.1109755859375,0.03158464030921459,-0.03129325614720583,0.08572601687405258
1782987488459050500,1.121050537109375,-0.14018822289109228,0.05534428608119488,-0.06830426888670772
1782987488469124600,1.13112451171875,-0.06262450621724128,0.03209098239615559,-0.04824501200262457
1782987488479199500,1.141199462890625,0.09771393977701663,0.0007673311106860637,0.029334596360102293
1782987488489273600,1.151273681640625,0.19483926601111887,-0.02305083991549909,0.06557378447689116
1782987488499348500,1.161348388671875,0.06514438008368015,-0.027084333215281364,0.009114924749918282
1782987488509422600,1.171422607421875,-0.012106617379188537,-0.0381391034539789,-0.030849859761260447
1782987488519496400,1.181496337890625,0.1152045882821083,-0.012432123006507754,0.0056411476921290156
1782987488529571600,1.191571533203125,0.17091887671947478,-0.029685017232969402,0.03580145428664982
1782987488539645400,1.2016455078125,0.06209492938518524,-0.037884544171020385,0.014813465185090899
1782987488549720600,1.211720458984375,0.011854688444733618,-0.01772548017427325,0.01093596616461873
1782987488559794400,1.22179443359375,0.03205693399608135,0.0026308599602431057,0.01980860659126192
1782987488569869600,1.23186962890625,0.050423780813813206,0.0036287118911743164,0.013456278422474861
1782987488579943400,1.241943359375,0.05402677374184131,-0.004016615230217576,0.01405325793493539
1782987488590018600,1.2520185546875,0.07231704819202422,-0.024920944636315105,-0.002826711325906217
1782987488600092700,1.2620927734375,0.09163198951482772,-0.033069106713309884,0.021631072778068482
1782987488610166500,1.27216650390625,0.09742226335406302,-0.019294629187136886,0.021564400750026105
1782987488620241700,1.28224169921875,0.06927636532187462,-0.013743717061728238,0.0112847796022892
1782987488630315500,1.2923154296875,0.027279636591672894,-0.007250701780617237,0.006705671651102602
1782987488640390700,1.302390625,0.019976035580039023,-0.011247735527530311,0.021153043470159172
1782987488650464500,1.312464599609375,0.07471417246162891,-0.030024039928987622,0.019455884163454173
1782987488660539600,1.32253955078125,0.10400514887571334,-0.03800166774466634,0.012599771190993488
1782987488670613500,1.332613525390625,0.07587561745643616,-0.01710501018837094,0.013077654368430376
1782987488680688600,1.342688720703125,0.04668693237304687,-0.0010774930384010075,0.022423647927865383
1782987488690762500,1.352762451171875,0.04384264885783195,-0.015669570557773113,0.007672397791408002
1782987488700836600,1.362836669921875,0.05102466931641102,-0.018379998560249803,0.018874102220125494
1782987488710911500,1.372911376953125,0.05013561152219772,-0.0019117519054561852,0.029812223809212446
1782987488720985600,1.382985595703125,0.06764438020586967,-0.006382613709196448,0.010308518448658287
1782987488731060500,1.393060546875,0.07451601954102516,-0.024218130129203198,0.010700659571401774
1782987488741134600,1.403134521484375,0.07272855160236358,-0.0393178649097681,0.013726546731218694
1782987488751209700,1.413209716796875,0.07048106493651866,-0.016485343920066953,0.01488455765992403
1782987488761283600,1.42328369140625,0.06973579952716827,-0.0037860213447362184,0.015257299962453542
1782987488771358700,1.433358642578125,0.08549275610744952,0.010665478660166263,0.0020004531022161246
1782987488781432600,1.4434326171875,0.05834639050662517,0.04700425469391048,-0.006868753258325159
1782987488791507700,1.4535078125,0.03961538655161857,0.04563450071066618,0.0065606006246060125
1782987488801581600,1.46358154296875,0.06263327404558658,0.014033055397123097,0.015640965517796576
1782987488811655400,1.473655517578125,0.09837094238102435,-0.021550226094201205,0.009390124962106346
1782987488821730600,1.48373046875,0.09263210646808147,-0.06308722835816442,0.018628420363366604
1782987488831804400,1.493804443359375,0.10075812977850436,-0.07858056556619704,0.038256153962388635
1782987488841879600,1.503879638671875,0.10104045385122298,-0.10378551477566361,0.035613493966497475
1782987488851953400,1.513953369140625,0.09392974506318569,-0.09262414235733449,0.038637335299700495
1782987488862028500,1.524028564453125,0.07092822418212891,-0.06745842917971312,0.06126987673789262
1782987488872102700,1.5341025390625,0.061549570462107656,-0.02609597976505756,0.020996428136341273
1782987488882176500,1.544176513671875,0.05758768109381199,-0.004221709348261356,0.006908537279441952
1782987488892251600,1.554251708984375,0.053363925918936725,0.018747516698390244,0.002690188932046294
1782987488902325500,1.564325439453125,0.055900750920176503,0.014355784545466302,0.012972075102105737
1782987488912400600,1.574400634765625,0.06772679779231548,-0.0007934154000133276,-0.012982961822301149
1782987488922474500,1.584474609375,0.06715221277475357,0.01847622547633946,-0.015119389329105615
1782987488932549600,1.594549560546875,0.05371054739952087,0.018949980467930436,-0.015264277692511676
1782987488942623500,1.60462353515625,0.04357669139802456,0.0059690644722431895,0.009237893542461097
1782987488952698600,1.61469873046875,0.04121989913880825,-0.012191957575082778,0.02112001798339188
1782987488962772500,1.6247724609375,0.051553077104687685,-0.01175795007199049,0.0162277889624238
1782987488972846600,1.6348466796875,0.06186053610742092,-0.022512568320333957,0.02164086351972073
1782987488982921700,1.644921630859375,0.08983049305081367,-0.022458061654120683,0.03165233525056392
1782987488992995800,1.654995849609375,0.07545651526153087,-0.018365093252062797,0.029787710422463712
1782987489003070700,1.66507080078125,0.03998831151723861,-0.006000774784758686,0.0000623977117240429
1782987489013144800,1.675144775390625,0.03686345749497413,0.00020465572662651537,-0.005922193123213946
1782987489023219700,1.6852197265625,0.03628361178040504,0.0071093936137855045,-0.00944273193217814
1782987489033293800,1.6952939453125,0.039919337934255596,-0.012686316963285206,0.0027719123987480997
1782987489043368700,1.70536865234375,0.04087327765822411,-0.011915770982205868,0.0036599838122725486
1782987489053442800,1.71544287109375,0.05576397279798984,-0.020794585421308874,0.014085004780068992
1782987489063517700,1.725517578125,0.07229542088210582,-0.03732807933203876,0.02486804540529847
1782987489073591800,1.735591796875,0.07276011578440665,-0.035524975432828065,0.026310608896426856
1782987489083665700,1.745665771484375,0.08980945026278496,-0.03683021281249821,0.03171261407043785
1782987489093740800,1.75574072265625,0.07289221773147582,-0.02990070581026375,0.02063186914026737
1782987489103814700,1.765814697265625,0.05628653536736965,-0.017771219012141227,0.01802731266506016
1782987489113889800,1.775889892578125,0.06063654727041721,-0.019628902642801403,0.008897957530990243
1782987489123963600,1.785963623046875,0.08967793283760547,-0.01660217523276806,0.028106954261288047
1782987489134038800,1.796038818359375,0.07173252630233765,-0.017692454687505958,0.018782259218208492
1782987489144112600,1.806112548828125,0.06295300751924514,-0.02277742980159819,0.014978081162273883
1782987489154187800,1.816187744140625,0.0704623602360487,-0.019253858785331247,0.018268427944555878
1782987489164261600,1.82626171875,0.07811901246905327,-0.025179230246320364,0.015435286877863108
1782987489174335700,1.836335693359375,0.0932493615835905,-0.021000410191714763,0.02735474765449762
1782987489184410600,1.84641064453125,0.06857377001047134,-0.02344495379962027,0.008745141589455305
1782987489194484700,1.856484619140625,0.041785716328024865,-0.012129779059067368,0.011618066677264869
1782987489204559600,1.8665595703125,0.07068973925113678,-0.009775617148354648,0.0286224295027554
1782987489214633700,1.8766337890625,0.08312310436666011,-0.011793825102970003,0.01358892835881561
1782987489224708600,1.88670849609375,0.07640870141983032,-0.01474887551628053,0.016269326549209654
1782987489234782700,1.89678271484375,0.07749532761275768,0.0032479689452797173,0.007290303138643503
1782987489244856600,1.906856689453125,0.06932371159493923,-0.007071034364774823,0.013408091899193822
1782987489254931700,1.916931640625,0.06101473293304443,-0.007624430463835596,-0.004424976835399866
1782987489265005600,1.927005615234375,0.054038464179635044,-0.01645969802215695,-0.01171319761481136
1782987489275080700,1.937080810546875,0.060817749056220054,-0.014387056466564536,-0.007119513149000704
1782987489285154600,1.947154541015625,0.06730477298796177,-0.01293510409258306,0.009890804493241012
1782987489295229700,1.957229736328125,0.06013853462040424,-0.012878040143102407,0.017669256475009023
1782987489305303600,1.967303466796875,0.05789221699833869,-0.027165216431766746,0.019244396837241946
1782987489315378700,1.977378662109375,0.02375730768442154,-0.0005007891289889812,0.016087795969843863
1782987489325452500,1.98745263671875,0.04112696015834808,-0.02614734462611377,0.0032917715543881055
1782987489335526700,1.997526611328125,0.07077800205647945,-0.012443009726703166,0.005024988555163145
1782987489345601500,2.0076015625,0.08528115918338298,-0.02051701058894396,0.031475700042024254
1782987489355675600,2.017675537109375,0.06850538094937801,-0.029139366048946975,0.015528189325705169
1782987489365750500,2.02775048828125,0.08559154030680656,-0.006533347291499376,0.01577778017260134
1782987489375824600,2.03782470703125,0.0666319882929325,-0.011904957327246665,-0.001455970961973071
1782987489385899500,2.0478994140625,0.051286535122990605,-0.014712781289592384,0.006327559053711592
1782987489395973600,2.0579736328125,0.0471387677937746,-0.023431875122338533,0.007667538953199982
1782987489406048500,2.068048583984375,0.05825929674506187,-0.020959128333255646,-0.000055127720721065994
1782987489416122600,2.07812255859375,0.05737608416974544,-0.025165786242857573,0.006759959121607244
1782987489426196500,2.088196533203125,0.06531213786602019,-0.048657794054597615,0.02028108294121921
1782987489436271600,2.098271728515625,0.09223755419254302,-0.04226845834366977,0.01858512921091169
1782987489446345500,2.108345458984375,0.08009586549997329,-0.03589322422333061,0.022319347303174433
1782987489456420600,2.118420654296875,0.07572188819944858,-0.03366970295496285,0.025660949348658323
1782987489466494500,2.128494384765625,0.06399696361422538,-0.01358764971718192,0.011340418779663741
1782987489476569600,2.138569580078125,0.058597150397300714,-0.009755816469341516,0.008643653976358473
1782987489486643500,2.1486435546875,0.052608723637461656,0.0049256198339164255,0.01724237283244729
1782987489496718600,2.158718505859375,0.06864215907156467,0.00399659535549581,0.016334537272527812
1782987489506792400,2.16879248046875,0.07255319503545761,0.0000339022696018219,0.014197671374306081
1782987489516866600,2.178866455078125,0.055229719790816305,-0.013379559924453496,0.003161934629641473
1782987489526941400,2.18894140625,0.055712534871697424,-0.006758461284264922,0.012114362294226884
1782987489537015600,2.199015625,0.054985974162816996,-0.014961641484126448,0.006893120514601469
1782987489547090400,2.20909033203125,0.06575520545840263,-0.00746317548751831,-0.010807334816269576
1782987489557164500,2.21916455078125,0.06199965231716632,-0.028504940602928398,0.015053484486043453
1782987489567239400,2.229239501953125,0.08066752790808678,-0.01143755901120603,0.023460443629696962
1782987489577313500,2.2393134765625,0.09110708885788917,-0.024836627353727814,-0.007133030217699706
1782987489587388400,2.249388427734375,0.05799100119769573,-0.02678673850819468,-0.004413761321641505
1782987489597462500,2.259462646484375,0.030736499047279355,-0.03143266461789608,-0.0003913008725270629
1782987489607537000,2.269536865234375,0.07456570390164852,-0.010485372852906584,0.01671506102271378
1782987489617611500,2.279611572265625,0.07050678389966487,0.010910028005763888,0.039124607359990474
1782987489627686000,2.289685791015625,0.056101241928339,-0.006697963268682361,-0.0007800809944048524
1782987489637760500,2.299760498046875,0.05907470478117466,-0.01101597259826958,0.0007246610127389431
1782987489647835000,2.3098349609375,0.06218669932186603,-0.009115838065370916,0.0073589113954454655
1782987489657909500,2.319909423828125,0.05842588548362255,-0.009775544083118438,0.019590360730700192
1782987489667984000,2.32998388671875,0.06918927156031131,0.010297229869663714,0.019652685377188027
1782987489678058800,2.340058837890625,0.06260404795110225,0.0023216478805989024,0.012876944164559244
1782987489688132900,2.3501328125,0.0569248332709074,-0.0031833792764693497,0.028958712252415714
1782987489698206700,2.360206787109375,0.05185001422464847,-0.003155541421473026,0.0028299627289175987
1782987489708281900,2.37028173828125,0.0665144993931055,0.0005620908621698618,0.012669475426338611
1782987489718355700,2.380355712890625,0.0507943676918745,-0.019893325732648372,0.032273608954064545
1782987489728430800,2.390430908203125,0.07743570638000964,-0.024071853526309132,0.016326171302981675
1782987489738504700,2.400504638671875,0.08131926981508732,-0.0024281769949942825,0.013380838566087185
1782987489748579800,2.410579833984375,0.07889584206044674,0.0053877574529498816,0.026779139723628758
1782987489758653700,2.42065380859375,0.05777823522984981,-0.004489566504210234,0.0051401759000495074
1782987489768728800,2.430728759765625,0.06871171717643737,-0.002705532631650567,0.008846117745898663
1782987489778802700,2.440802734375,0.04207388561964035,-0.025987039497867227,0.027770708044245838
1782987489788876800,2.450876708984375,0.06975742683708668,-0.017641601283103228,0.018735497467033565
1782987489798951700,2.46095166015625,0.08517419167757034,-0.014193141329661011,0.013130370936356484
1782987489809025800,2.47102587890625,0.06752279965281487,-0.014854673978313802,-0.0018086203245446086
1782987489819101000,2.481100830078125,0.05420856004953384,-0.0016156915683299303,0.010141893177479504
1782987489829174800,2.4911748046875,0.04613280562162399,-0.004094868098199368,0.019674276154488322
1782987489839250000,2.50125,0.06183598618805408,-0.017011998142674564,0.030684257403388617
1782987489849323800,2.51132373046875,0.06391103889644145,-0.012418825133517384,0.026114684465527532
1782987489859397600,2.521397705078125,0.062277300214767455,-0.008230433532968163,0.01996427207700908
1782987489869472800,2.53147265625,0.04805938977003097,-0.0001685614999383688,0.0012806509276852012
1782987489879546600,2.541546630859375,0.0476227519184351,-0.010433569600433111,0.004950023622810841
1782987489889621800,2.551621826171875,0.06931552828848361,-0.01588401702605188,0.0017135259196162222
1782987489899695600,2.561695556640625,0.07245674892365932,-0.02156388929337263,0.004730024196580052
1782987489909770800,2.571770751953125,0.06512333729565144,-0.027249387583881617,0.004900339262187481
1782987489919844600,2.5818447265625,0.07397299870550632,-0.008738675316050649,0.013207929684594272
1782987489929919700,2.591919677734375,0.0641010085105896,-0.016313275288790462,0.015312537281028925
1782987489939993900,2.601993896484375,0.05886252333521843,-0.012975947559624909,-0.0002228489704430103
1782987489950067700,2.612067626953125,0.06904255656599997,-0.008852218693122266,0.015379282374307513
1782987489960142800,2.622142822265625,0.07771744593083858,0.002694792041927576,0.007695303742960095
1782987489970216700,2.632216796875,0.06201601893007755,-0.007253551324829459,0.015405403196252882
1782987489980291800,2.642291748046875,0.06052957976460457,-0.017322671527042983,0.011039134278148411
1782987489990365700,2.65236572265625,0.05589899735450744,-0.01241305297985673,0.009122706197574734
1782987490000440800,2.66244091796875,0.06517945139706134,-0.020621493876725433,0.022271562638692555
1782987490010514700,2.6725146484375,0.07100362750589848,-0.011488412415608763,0.01913235129751265
1782987490020589800,2.68258984375,0.05559212336242199,-0.017416998746991156,0.011550810127332806
1782987490030663700,2.69266357421875,0.05888590421080589,-0.01935081635378301,0.02276420499384403
1782987490040737500,2.702737548828125,0.05392974310815334,-0.0020450959615409374,0.022203210110217333
1782987490050812700,2.712812744140625,0.04987900641262531,-0.008239201361313462,0.011077895385958254
1782987490060886800,2.72288671875,0.07262333766222,0.0028914836578071115,0.01759915038086474
1782987490070961700,2.732961669921875,0.06350012000799178,-0.025655031064525245,0.006794993902370333
1782987490081035800,2.743035888671875,0.05977262391746044,-0.003179579884186387,0.01728855006173253
1782987490091110700,2.753110595703125,0.07100596559345722,-0.004790814473107457,0.030912549733929335
1782987490101184800,2.763184814453125,0.07340133629739284,-0.023773089775443075,0.00982504578065127
1782987490111259600,2.773259765625,0.06592763941586018,-0.012197291337326168,0.0036265199340879913
1782987490121333800,2.783333740234375,0.061434419649839395,-0.010729703002795576,0.014223463402688503
1782987490131407600,2.79340771484375,0.04481880041360855,-0.0046368660204112525,0.024141265500709413
1782987490141482800,2.803482666015625,0.05679097775816917,-0.006650251669436693,0.021332783951237798
1782987490151556600,2.813556640625,0.07892331458926201,-0.012761062699928879,0.0143733202021569
1782987490161631700,2.8236318359375,0.05707505539655685,-0.011118702320381998,0.008396437749639152
1782987490171705600,2.83370556640625,0.06366261709332466,-0.024191534383222458,0.012600246115028857
1782987490181780700,2.84378076171875,0.08579203131496906,-0.017383388738334178,0.025509740842320022
1782987490191854600,2.8538544921875,0.07873685210645198,-0.005325652002170681,0.008695603359304367
1782987490201929000,2.863928955078125,0.061225745335221286,0.008139759574830532,-0.004264123717881739
1782987490212003600,2.874003662109375,0.03938859205842018,-0.0002623772632330656,0.011988178631290793
1782987490222078000,2.884077880859375,0.05332943912744522,0.011903422957286238,-0.012402677716314791
1782987490232152600,2.894152587890625,0.053949032330513,0.01710369501411915,-0.00477908750269562
1782987490242227000,2.90422705078125,0.057125908800959586,0.005084536722674966,-0.00781381555609405
1782987490252301600,2.914301513671875,0.06480477286577224,-0.0023291735999286176,-0.0034742885144427417
1782987490262376000,2.9243759765625,0.05766425346136093,0.0002992021422833204,0.011730660206265746
1782987490272450600,2.934450439453125,0.054227849271893495,-0.01803345014490187,0.009942096289061009
1782987490282525000,2.94452490234375,0.07427636556625365,-0.012639555212110281,0.00013349018655717373
1782987490292598800,2.954598876953125,0.05124035789370537,-0.0074373834591358896,-0.0013470306947827339
1782987490302674000,2.964673828125,0.04242167614400386,-0.006956614204868674,0.02177661872860044
1782987490312747800,2.974747802734375,0.06442892529070376,-0.014010332108661532,0.009352532898075878
1782987490322823000,2.984822998046875,0.07085282085835934,-0.011620806623622774,0.016714476500824093
1782987490332896800,2.994896728515625,0.052585342761874196,-0.009400865551829337,0.009546521100215614
1782987490342972000,3.004971923828125,0.049154199269413945,-0.014073606603220105,-0.004696304590068757
1782987490353045800,3.015045654296875,0.05564005415737629,-0.0055509121254086495,0.022865436878614125
1782987490363121000,3.025120849609375,0.04415069189369678,-0.0031232465870678424,-0.0020895196251571177
1782987490373194800,3.03519482421875,0.06543547198474407,-0.010346768099814652,0.01566105845775455
1782987490383268900,3.045268798828125,0.050064299851655954,-0.021564108489081264,0.003981178590655327
1782987490393343700,3.05534375,0.05759411083459854,-0.01729381075873971,0.017143442502617835
1782987490403417900,3.06541796875,0.05717091698646545,-0.018008242638409135,0.016568820952437818
1782987490413492700,3.07549267578125,0.06810264536738395,-0.04533142611086368,0.017850531326048077
1782987490423566800,3.08556689453125,0.05882745202183723,-0.022031360674649475,0.003299078078009188
1782987490433641700,3.095641845703125,0.049565118157863616,-0.03227781020514667,0.006277874693088233
1782987490443715800,3.1057158203125,0.05736439373195171,-0.021368439786508677,0.009898659006133676
1782987490453789700,3.115789794921875,0.05648585733175277,-0.025789251903444527,0.004574650971777737
1782987490463864800,3.12586474609375,0.07802490444481372,-0.04284633129686117,0.015339936744607985
1782987490473938700,3.135938720703125,0.0934147812783718,-0.02353657760582864,0.024522410305403173
1782987490484013800,3.146013916015625,0.08309446279406547,-0.03499598312266171,0.014199059613794087
1782987490494087700,3.156087646484375,0.07905541653633118,-0.037331075006723405,0.020400179276242852
1782987490504162800,3.166162841796875,0.07005027230381965,-0.027744404559209943,0.026952888855338097
1782987490514236700,3.176236572265625,0.06481295617222786,-0.011093056422471999,0.013846227588132023
1782987490524311800,3.186311767578125,0.029644612157344815,-0.002406038228422403,0.0025434008724987507
1782987490534385700,3.1963857421875,0.06001052432656288,0.001409282276034355,0.014144151088781655
1782987490544459800,3.206459716796875,0.08318564820885657,-0.0006130903970450163,0.009867533215507865
1782987490554534700,3.21653466796875,0.07313011814057827,-0.01097067215181887,0.01217307021152228
1782987490564608800,3.22660888671875,0.07372691498994827,0.005576484958082437,-0.007333886552043259
1782987490574683600,3.23668359375,0.06355038889050484,-0.0005949702184647321,0.002362856673821807
1782987490584757800,3.2467578125,0.04844400517344474,0.01829969986565411,0.005594312875717878
1782987490594832400,3.256832275390625,0.03633212709724903,0.0021854542803019282,0.0007186331307515502
1782987490604906500,3.266906494140625,0.03276712809205055,0.0070073945440351955,0.006191730779595673
1782987490614981400,3.2769814453125,0.04864508070349693,-0.001251169104874134,0.006231953192129731
1782987490625055500,3.287055419921875,0.0497007272362709,-0.003215893306583166,0.012554178483597933
1782987490635129300,3.29712939453125,0.061218731072545045,-0.019131620645150543,0.015390899746865033
1782987490645204500,3.30720458984375,0.07258534373939036,-0.009134981157258153,0.012168211373314261
1782987490655278300,3.3172783203125,0.07633388261795043,-0.004443023948743939,0.014353957914561032
1782987490665353500,3.327353515625,0.05103928236365318,0.004625613974034786,0.004888283498212694
1782987490675427300,3.33742724609375,0.04388181182444095,-0.0027150311123579737,0.0019491247737780213
1782987490685502500,3.34750244140625,0.06081599549055099,-0.010114201452955603,0.013353000711090862
1782987490695576300,3.357576416015625,0.06579612199068069,-0.011795943994820117,0.020169439260289072
1782987490705651500,3.3676513671875,0.07253215224742889,-0.018169059223309157,-0.003933430458791554
1782987490715725300,3.377725341796875,0.06897358298301696,-0.016761311317235232,0.015844525265879927
1782987490725799700,3.387799560546875,0.07497896087765693,-0.01973711225762963,0.02784936277102679
1782987490735874300,3.397874267578125,0.059874330726265905,-0.027227906404435634,0.01107705513574183
1782987490745948700,3.40794873046875,0.06585632774531841,-0.021032924221828578,0.0012866422770544887
1782987490756023300,3.418023193359375,0.06212532452344894,-0.026641923210024832,0.01662844218518585
1782987490766097700,3.42809765625,0.06512333729565144,-0.02535882459692657,0.023097528601437805
1782987490776172300,3.43817236328125,0.0684101038813591,-0.033850320218876004,0.011660334916412829
1782987490786246700,3.44824658203125,0.08067337312698364,-0.03147708828151226,0.016536672248505056
1782987490796320500,3.458320556640625,0.07243862874507903,-0.03268544115796685,0.01011398225724697
1782987490806395600,3.468395751953125,0.06601239508986473,-0.01886091394498944,0.009543817686475813
1782987490816469500,3.478469482421875,0.06047054305374622,-0.009151274704933167,0.005664345904625952
1782987490826544600,3.488544677734375,0.06632569882273674,-0.014879370028153061,0.014612426187656818
1782987490836618500,3.498618408203125,0.06334054553210736,-0.010149053570628166,0.008714490722864865
1782987490846693600,3.508693603515625,0.05796060605943203,-0.015768354757130145,-0.003789199682511389
1782987490856767500,3.518767578125,0.07848141604065895,-0.022398659617081283,-0.0053571065863594405
1782987490866842600,3.528842529296875,0.09749649763405323,-0.01284640289582312,0.018663491676747797
1782987490876916500,3.53891650390625,0.08687164324522018,-0.013695274810120462,0.027719708509370684
1782987490886990600,3.548990478515625,0.07489712781310082,-0.0071757368482649325,0.013622136508673428
1782987490897065500,3.5590654296875,0.08822013524472713,-0.021713526897132397,0.004671462409757078
1782987490907139600,3.5691396484375,0.05053425545096397,-0.019962737707048653,0.006819032365083694
1782987490917214500,3.57921435546875,0.05982406184375286,-0.020228695166856048,0.014584113408625124
1782987490927288600,3.58928857421875,0.06698679307997227,-0.014927958410233259,0.009511924710869788
1782987490937363500,3.599363525390625,0.06383388200700282,-0.019118030511215328,0.015023052815161645
1782987490947437600,3.6094375,0.061136898007988924,0.001641775857657194,0.0020128376597538587
1782987490957512400,3.619512451171875,0.06024316403865814,-0.0008110971871763467,0.01412380242049694
1782987490967586600,3.629586669921875,0.044971360626816746,0.00043583413399755954,0.012789631207287312
1782987490977660400,3.639660400390625,0.05469780487120151,-0.0016169336773455142,0.020781616341881453
1782987490987735600,3.649735595703125,0.059192778202891344,-0.0034589082822203635,0.008645626737736166
1782987490997809400,3.659809326171875,0.06428279481828213,-0.013019786701351404,0.0054853726085275405
1782987491007884500,3.669884521484375,0.06728256115615368,-0.013681173219531774,0.021343853334523735
1782987491017958400,3.67995849609375,0.06580372077524661,-0.016589461881667374,0.007696765047684312
1782987491028033500,3.690033447265625,0.049499651706218714,-0.0070070292178541415,-0.000042925826273858545
1782987491038107400,3.700107421875,0.04907119716107845,-0.014817337642610073,-0.009507504264079033
1782987491048181500,3.710181396484375,0.04865034140050411,-0.015192746826261282,-0.0010125745760276913
1782987491058256400,3.72025634765625,0.068867199999094,-0.017171864879503847,0.027007103260606527
1782987491068330500,3.73033056640625,0.07171382160186768,-0.026516324068978428,0.03193838565032929
1782987491078405400,3.7404052734375,0.07307458856105804,-0.007660159364342689,0.01628218603078276
1782987491088479500,3.7504794921875,0.09149696495831013,0.0063385553717613214,0.013701814148761331
1782987491098554400,3.760554443359375,0.07294307113587856,-0.013287716922536491,0.014547909584082662
1782987491108628500,3.77062841796875,0.0784527744680643,-0.01583425960019231,0.022230426910705862
1782987491118703400,3.780703369140625,0.043132454761862754,-0.01721862663067877,0.009562851180508732
1782987491128777500,3.790777587890625,0.052124154990911484,-0.01712941397726536,0.019175788580439983
1782987491138851300,3.800851318359375,0.06964929028749466,-0.012114143098518252,0.010450484202615917
1782987491148926500,3.810926513671875,0.08553075003027916,-0.023433044166117904,0.021762115279212593
1782987491159000300,3.821000244140625,0.07342413265109062,-0.017108955711126327,0.01872607205156237
1782987491169075500,3.831075439453125,0.07342880882620811,-0.02278195984624326,0.010435359698720276
1782987491179149300,3.8411494140625,0.06773088944554329,0.001275499828532338,0.01732643438670784
1782987491189224400,3.851224365234375,0.060683893543481825,-0.009920651642233132,0.02877005781251937
1782987491199298300,3.86129833984375,0.06023264264464378,-0.015592705929279327,-0.003393624493665993
1782987491209372400,3.871372314453125,0.0714513712733984,-0.02361541499570012,0.029466588709317145
1782987491219447300,3.881447265625,0.0789057789325714,-0.013684826481342316,0.0028235695207491514
1782987491229521400,3.891521484375,0.07605272758901119,-0.024319617742300032,0.006357150474376976
1782987491239596300,3.90159619140625,0.07020867773592472,0.0031131635844707487,0.019984839941002426
1782987491249670400,3.91167041015625,0.053580783540010446,-0.0077644965216517444,0.01161901652533561
1782987491259745300,3.921745361328125,0.07047755780518054,-0.0058486529629677535,-0.0032284970598295327
1782987491269819400,3.9318193359375,0.07391220842897891,-0.014880539071932434,0.022265425158850848
1782987491279894300,3.941894287109375,0.060441316959261894,0.012969225557893514,0.022046631309017538
1782987491289968400,3.951968505859375,0.06075988138914108,0.013590572326630353,0.004739047753252089
1782987491300042500,3.96204248046875,0.0703185678511858,0.0006439969919621944,0.0197659364933148
1782987491310117400,3.972117431640625,0.07839139966964721,-0.009981734179705382,0.012859664236195384
1782987491320191500,3.98219140625,0.07494447408616542,-0.010049246457964182,0.004035648724250495
1782987491330266400,3.992266357421875,0.0649199236780405,-0.00493402233608067,0.022157653935439885
1782987491340340500,4.002340576171875,0.05325228223800659,0.0003491787638515234,-0.006882562587969005
1782987491350415400,4.012415283203125,0.05086801744997501,-0.0020201807159930464,0.012583441110700368
1782987491360489500,4.022489501953125,0.062220601591467854,0.000620616116374731,0.010700330777838826
1782987491370563600,4.0325634765625,0.08107084801197051,-0.004712269344180822,0.0015177476191893218
1782987491380638500,4.042638427734375,0.05384089578092098,-0.010119169889017938,0.014580058288015424
1782987491390712600,4.052712646484375,0.06311082842946052,-0.011872735558077692,0.022049334722757337
1782987491400787500,4.062787353515625,0.06489303567111492,-0.006123743577301502,0.021263262378983197
1782987491410861600,4.072861572265625,0.05637713626027107,-0.015034998981282114,-0.003118132020533085
1782987491420936400,4.0829365234375,0.05549217011928558,-0.0026038258228451012,-0.01614332554936409
1782987491431010600,4.093010498046875,0.054471010378003115,0.0046972909707576034,0.0027767712369561196
1782987491441085400,4.10308544921875,0.05596972450315952,0.0001793751548975706,0.013620638671331106
1782987491451159600,4.11315966796875,0.08710954365432262,-0.00957242272645235,0.022358583335019645
1782987491461233400,4.1232333984375,0.07931962043046951,-0.01624181748777628,0.018347740258462725
1782987491471308500,4.13330859375,0.07093465392291545,-0.010229279199987649,0.007102050557546317
1782987491481382400,4.14338232421875,0.06166647484004497,0.010449717017635703,0.021501929973065853
1782987491491457500,4.15345751953125,0.07394435713291168,-0.01442921510785818,0.01209401362594217
1782987491501531400,4.163531494140625,0.06240004981160163,-0.03174640674218535,0.010023125636018811
1782987491511606500,4.1736064453125,0.05311316602826118,-0.015295257352665065,0.0017975509412586689
1782987491521680400,4.183680419921875,0.07735796496868133,-0.0022235212683677672,-0.0035751185404136773
1782987491531755500,4.193755615234375,0.0630026918798685,-0.020406389821320772,-0.000053885611705482
1782987491541829400,4.203829345703125,0.07796820582151412,-0.013789309769123792,-0.004233582449145614
1782987491551903500,4.213903564453125,0.06734802760779857,-0.015088336603716015,0.015965229036100207
1782987491561978400,4.223978271484375,0.06091887134313583,-0.011307429825514555,0.01877232234608382
1782987491572052500,4.234052490234375,0.051803836995363235,-0.008331921146064996,0.010799480303376912
1782987491582127600,4.244127685546875,0.07081716502308845,-0.006560892885550856,0.001984671011194587
1782987491592201500,4.254201416015625,0.057202481168508526,-0.009319690074399114,0.009539397239685058
1782987491602276600,4.264276611328125,0.06422609619498253,0.0017349340338259935,0.026740561278909444
1782987491612350500,4.2743505859375,0.060035074245929715,-0.023186522059142588,0.020420893270708618
1782987491622424600,4.284424560546875,0.06047872636020183,-0.001486146904528141,0.008244133264757692
1782987491632499500,4.29449951171875,0.06468377683460712,0.0009762246210128069,0.007680434967391192
1782987491642573600,4.304573486328125,0.04211480215191841,-0.011180296314507723,0.0010018705189228057
1782987491652648400,4.3146484375,0.06008125147521495,-0.0011335340745747089,0.006458528489619493
1782987491662722600,4.32472265625,0.07204524551331996,-0.0024682167444378135,0.00704104108531028
1782987491672797400,4.33479736328125,0.05978899053037166,0.005970160450786352,-0.003983114819414914
1782987491682871600,4.34487158203125,0.05246434673070907,0.009727174896746873,-0.0049938262319192284
1782987491692946400,4.354946533203125,0.05950023671686649,0.00022511399276554583,0.033967955249175424
1782987491703020500,4.3650205078125,0.05187339510023593,-0.002088204450905323,0.0067645987641066305
1782987491713094400,4.375094482421875,0.056659460332989686,0.011618322405591606,-0.01707589369174093
1782987491723169500,4.38516943359375,0.04903963297903537,0.002876359153911471,0.0021442820196971297
1782987491733243400,4.395243408203125,0.0554828177690506,-0.017892434239014984,0.006581533814780414
1782987491743318500,4.405318603515625,0.07568330975472927,-0.004187514817714691,0.017935177402198313
1782987491753392400,4.415392333984375,0.08406769174039364,-0.016679478252679108,0.006291172566078603
1782987491763467500,4.425467529296875,0.07659867103397845,-0.00977839362733066,0.0006138575820252299
1782987491773541400,4.435541259765625,0.05716098011434078,0.0005050999779254197,0.0028914836578071115
1782987491783615500,4.445615478515625,0.041344986823201174,-0.0029885873567312956,0.003236205442249775
1782987491793690400,4.4556904296875,0.06545826833844184,-0.01503909063450992,0.023520393656007943
1782987491803764500,4.465764404296875,0.09941197586655616,-0.01506670929379761,0.014748656320571898
1782987491813839400,4.47583935546875,0.06859189018905162,-0.01013086032681167,0.003489522616192698
1782987491823913500,4.48591357421875,0.03852116157412529,-0.005837473981827497,0.01483885535467416
1782987491833988400,4.49598828125,0.07323357851505279,0.013680588697642087,0.006752762195840477
1782987491844062500,4.5060625,0.08041735253930091,-0.009804258720949291,0.023120324955135583
1782987491854137300,4.516137451171875,0.05961363396346569,-0.02629910112172365,0.02903718431610614
1782987491864211500,4.52621142578125,0.07488193024396896,-0.00008680150061845779,-0.002895246517471969
1782987491874285600,4.53628564453125,0.052766544547677034,0.0027101357415318487,-0.005928440200909972
1782987491884360400,4.5463603515625,0.06296703604459762,-0.002977043049409985,0.02426635318510234
1782987491894434600,4.5564345703125,0.09798223532438277,-0.005887085277214646,0.01436257961243391
1782987491904509400,4.566509521484375,0.07746493247449397,-0.011662599938735365,0.009889635449461639
1782987491914583600,4.57658349609375,0.04919219319224357,-0.012334873177111148,-0.009612170214951038
1782987491924658400,4.586658447265625,0.050554713717103,-0.004769333293661475,0.003548559327051043
1782987491934732500,4.596732666015625,0.05622632961273193,0.0030831337723881006,0.017758907519839703
1782987491944806700,4.606806640625,0.07984861274063587,-0.01782726004831493,0.005689553411118686
1782987491954881500,4.616881591796875,0.06053717854917049,-0.012411957001313567,0.0025869842858985063
1782987491964955600,4.62695556640625,0.05499766460061073,0.006941270505264401,0.00958970265481621
1782987491975030500,4.637030517578125,0.06099252110123634,0.006130757839977741,0.023213410066068172
1782987491985104600,4.647104736328125,0.059212067425251,0.012139350605010986,0.00897456643115729
1782987491995179500,4.657179443359375,0.050824762830138204,-0.015608634150773286,0.004074629027768969
1782987492005253600,4.667253662109375,0.08058452579975128,-0.0029787235498428344,0.014598872586339712
1782987492015328500,4.67732861328125,0.07100947272479534,-0.0040234102971851825,0.01801434358563274
1782987492025402600,4.687402587890625,0.06024433308243751,-0.00495353075414896,0.014637633694149553
1782987492035476500,4.6974765625,0.06340075128674506,0.004281403646245598,0.000379683499969542
1782987492045551600,4.707551513671875,0.050838206833601,-0.01938610686287284,0.013902195559069514
1782987492055625500,4.71762548828125,0.07192132687270641,-0.009529971824213862,0.009445143084973096
1782987492065700600,4.72770068359375,0.06008066695332527,-0.010703691778704524,-0.001813113836571574
1782987492075774500,4.7377744140625,0.06040273851454257,-0.007005787108838557,0.00561491727232933
1782987492085849600,4.747849609375,0.0689461104542017,-0.009423442709818482,-0.005973448386415839
1782987492095923500,4.75792333984375,0.06851531782150268,-0.0009226678028702736,0.014383622400462627
1782987492105997600,4.76799755859375,0.060599137869477265,-0.01677380547262728,-0.002559621354937553
1782987492116072400,4.778072509765625,0.05716507176756858,-0.01934723615720868,0.01013469625171274
1782987492126146600,4.788146484375,0.06557400367259979,-0.004452449364215135,0.010092464545182884
1782987492136221400,4.798221435546875,0.06827274123728275,-0.007229951253533363,0.014126725029945372
1782987492146295600,4.808295654296875,0.05944704522490501,-0.018389131714776158,-0.006634652241505682
1782987492156370400,4.818370361328125,0.057065703046321865,-0.00743826024197042,0.004103599393926561
1782987492166444500,4.828444580078125,0.06993804410099982,-0.01160531679354608,-0.00011361644230782985
1782987492176519400,4.83851953125,0.0687368516176939,-0.011768033074587583,0.028765710430964826
1782987492186593500,4.848593505859375,0.06274024155139923,-0.010240312050655483,0.023401808777637777
1782987492196667400,4.85866748046875,0.06873159092068672,-0.015685644909739494,0.009211078600771725
1782987492206742500,4.868742431640625,0.0742658441722393,-0.029295287263020872,0.01315444593168795
1782987492216816400,4.87881640625,0.06603928309679032,-0.019353958158940077,-0.0085155706172809
1782987492226891500,4.8888916015625,0.048365094718337054,-0.01938267279677093,0.0017179463664069772
1782987492236965400,4.89896533203125,0.048072833773493764,0.004964709735289216,-0.007748166441358626
1782987492247040500,4.90904052734375,0.04314005354642868,-0.015976298419386147,-0.014561207457073032
1782987492257114400,4.9191142578125,0.06842822405993938,-0.013143047754839062,0.011924977201968431
1782987492267188500,4.9291884765625,0.09070727588534355,-0.019329700500518084,0.0231656619342044
1782987492277263400,4.939263427734375,0.06494973429441452,-0.015427651560679077,0.004013363827206194
1782987492287337500,4.94933740234375,0.05972703121006488,-0.008795081678405403,0.0084676398223266
1782987492297412400,4.959412353515625,0.05554477708935737,-0.0072333853196352715,0.018150902512110767
1782987492307486500,4.969486572265625,0.045506782677769655,-0.016002455773949622,0.021982516564242542
1782987492317561300,4.979561279296875,0.06448971556723117,-0.013569529538601636,0.01650843253470957
1782987492327635500,4.989635498046875,0.08511690853238105,-0.012624942164868116,0.0076326868355274195
1782987492337710300,4.99971044921875,0.06429506977796554,-0.00728650374636054,0.009089351917244493
1782987492347784400,5.009784423828125,0.06190320620536804,-0.0085506784632802,0.02362798221632838
1782987492357858300,5.0198583984375,0.05875146417617798,0.012131897950917481,0.01823825200200081
1782987492367933400,5.029933349609375,0.06413315721452235,-0.004481310132518411,0.020425715576298534
1782987492378007300,5.04000732421875,0.05857084691226482,-0.0010172872837632893,0.003885061272419989
1782987492388082400,5.05008251953125,0.042401802399754523,-0.0032688656028360126,0.0038039953928440807
1782987492398156300,5.06015625,0.0420978510171175,-0.004914733113721013,0.0044843058072030545
1782987492408231400,5.0702314453125,0.06319149245023727,0.004492635244131088,0.013971242207288742
1782987492418305300,5.08030517578125,0.09835632933378219,-0.015843685015663505,0.026414726858027277
1782987492428379600,5.090379638671875,0.06663023472726344,-0.00976947966851294,0.013063406647369265
1782987492438454300,5.100454345703125,0.05392097527980804,-0.013579247215017675,0.0172856639849022
1782987492448528600,5.110528564453125,0.0639478637754917,-0.003512026708945632,0.019873780781961975
1782987492458602500,5.1206025390625,0.06124152742624282,-0.00868921015113592,0.00006404167953878641
1782987492468677600,5.130677734375,0.08069090878367424,-0.008278729654103516,0.010843830901756881
1782987492478751500,5.14075146484375,0.06662555855214596,-0.0033481413841247557,0.00005728314518928528
1782987492488826600,5.15082666015625,0.07141162378489971,-0.0055065615270286795,0.007784699059464037
1782987492498900500,5.160900390625,0.07530453957021235,-0.01448781342729926,0.021955592024698854
1782987492508975600,5.1709755859375,0.04611760805249214,-0.013822481386363505,0.019885069360956548
1782987492519049500,5.181049560546875,0.04522855025827884,-0.023464023826271295,0.02822301838900894
1782987492529124600,5.19112451171875,0.07052081242501736,-0.018509104832634328,0.009633286068215965
1782987492539198500,5.201198486328125,0.07410100899934768,-0.007015139459073543,0.008588855049200355
1782987492549272600,5.2112724609375,0.07828501668572425,-0.01424801332205534,0.008617496621794998
1782987492559347500,5.221347412109375,0.0686976886510849,-0.011652590001374483,-0.0012080971481278537
1782987492569421600,5.231421630859375,0.04236439299881458,0.006032265901565552,0.0005760828549042343
1782987492579496400,5.241496337890625,0.04357669139802456,-0.013859525461122393,0.006667385467328131
1782987492589570600,5.251570556640625,0.0678214903384447,-0.008610080500319599,0.007217493630759418
1782987492599645400,5.2616455078125,0.07365501879751682,-0.008671820624917745,0.0070811538999900215
1782987492609719600,5.271719482421875,0.06691489688754082,-0.0004066080395132303,0.017123093834333122
1782987492619793400,5.28179345703125,0.06255611715614795,-0.017745353918522597,0.001120674593001604
1782987492629868500,5.29186865234375,0.05041735107302665,-0.009329846142232418,0.005318235880695283
1782987492639942400,5.3019423828125,0.05071019653975963,-0.012921513958647846,0.012610438715480267
1782987492650017500,5.312017578125,0.06118249071538448,0.010302417501434683,0.004102576480619609
1782987492660091400,5.32209130859375,0.06538695666790008,-0.014124533072859049,-0.0016785642040893435
1782987492670166500,5.33216650390625,0.06988777521848678,-0.0004508125074207782,-0.00015577508360147476
1782987492680240400,5.342240478515625,0.09038169719278812,-0.018044190734624863,0.011057290989346802
1782987492690315500,5.3523154296875,0.07004033543169498,-0.012050430212542413,0.012165800220519303
1782987492700389400,5.362389404296875,0.05494622667431831,-0.004226385523378849,-0.0034736674599349497
1782987492710463500,5.37246337890625,0.06362929934561252,-0.003018836364522576,0.011280139959789812
1782987492720538400,5.382538330078125,0.06917582755684852,-0.008708499373495578,0.008917210220731794
1782987492730612500,5.392612548828125,0.06393675785958766,-0.016597645188122987,0.006311411636509001
1782987492740687400,5.402687255859375,0.06409107163846492,-0.014351473696529865,0.01706705279815942
1782987492750761500,5.412761474609375,0.04778583352565765,-0.024103344643115997,0.003922507205978035
1782987492760836400,5.42283642578125,0.05932020397484302,-0.005560191410407423,-0.00687200466133654
1782987492770910500,5.432910400390625,0.07217910102605819,-0.008358589957281946,0.007219722120463848
1782987492780984300,5.442984375,0.07410626969635487,-0.018663783937692642,0.01124353427644819
1782987492791059500,5.4530595703125,0.0760305157572031,-0.008764613474905491,0.005092391235567629
1782987492801133300,5.46313330078125,0.06809855371415614,-0.011240721264854073,-0.0009836042098701
1782987492811208400,5.47320849609375,0.062114218607544895,-0.009408756597340107,-0.005142039063572883
1782987492821282300,5.4832822265625,0.05793780970573425,-0.000933627588301897,0.0011912190785631537
1782987492831357400,5.493357421875,0.07933657156527042,-0.012700345488637684,0.0021462913136929274
1782987492841431300,5.503431396484375,0.062279053780436515,-0.017020181449130176,0.011735263316147028
1782987492851506400,5.51350634765625,0.05854337438344955,-0.01582914503365755,0.007446078222244978
1782987492861580300,5.523580322265625,0.06961421897411346,-0.011236702676862477,0.02343037728499621
1782987492871654400,5.533654296875,0.08008826671540736,-0.008170081647858023,0.008677154387161136
1782987492881729300,5.543729248046875,0.09519055877923965,-0.004157338875159621,0.028876404263824224
1782987492891803400,5.553803466796875,0.057173839595913885,-0.006151654497534036,0.023879326628893614
1782987492901878300,5.563878173828125,0.038030747708678245,0.002528933955729008,0.004996931504458188
1782987492911952400,5.573952392578125,0.04043897789418697,-0.013907967712730169,-0.0034469255834817885
1782987492922027300,5.58402734375,0.04943710786402225,-0.005851721702888607,0.020476678578555584
1782987492932101400,5.594101318359375,0.06963818437159061,-0.01164170328117907,0.01948657156266272
1782987492942175500,5.604175537109375,0.07336684950590133,-0.014638473944365977,0.008712079570069909
1782987492952250400,5.61425048828125,0.07516016266345978,-0.004428191705793142,0.016677724687010047
1782987492962324500,5.624324462890625,0.06290390768051148,0.0017607991274446247,0.02623827431257814
1782987492972399400,5.6343994140625,0.06725918028056621,-0.010632891564816236,0.008337985560670495
1782987492982473500,5.644473388671875,0.07458850025534629,-0.013254399174824356,0.00289579450674355
1782987492992548400,5.65454833984375,0.06293021116554737,-0.0006087795481085777,0.005758490461483598
1782987493002622500,5.66462255859375,0.07072013438940047,-0.00693235654644668,0.008688516031391919
1782987493012696600,5.674696533203125,0.051879240319132804,-0.004269567077979445,0.024480836185999215
1782987493022771500,5.684771484375,0.06625088002085686,-0.002124810134246945,0.014113975146226584
1782987493032845600,5.694845458984375,0.05126724590063095,-0.022257862906903028,0.011445450056716799
1782987493042920400,5.70492041015625,0.0802963565081358,-0.01092887883670628,0.01588712229859084
1782987493052994600,5.71499462890625,0.08075286810398101,0.0008723258551210165,0.00232007697802037
1782987493063069400,5.7250693359375,0.07101707150936126,0.005555515235289931,0.01625453083887696
1782987493073143600,5.7351435546875,0.0548638090878725,0.0035403029553592205,0.01218622195404023
1782987493083218400,5.745218505859375,0.056979778328537935,-0.011370850450545549,-0.002109685630351305
1782987493093292500,5.75529248046875,0.0596785158932209,-0.018022344228997827,0.0008980448182672262
1782987493103366400,5.765366455078125,0.08437281216681003,-0.0036735739462077617,0.014631971138343214
1782987493113441500,5.775441650390625,0.06598083090782166,-0.00755282653234899,0.011774535880610346
1782987493123515400,5.785515380859375,0.05583937612175941,-0.013965543118864297,-0.0036311961092054842
1782987493133590500,5.795590576171875,0.05464753598868847,-0.022009148842841386,0.02026603150255978
1782987493143664400,5.805664306640625,0.06256956115961075,-0.011538169841468333,0.020716807477362452
1782987493153739500,5.815739501953125,0.07273907299637794,-0.012056129300966858,0.008744228274002671
1782987493163813400,5.8258134765625,0.05522270552814006,-0.010743877658620477,0.011640716900490223
1782987493173887500,5.835887451171875,0.05551204386353492,-0.02827412752173841,0.005140650824084878
1782987493183962400,5.84596240234375,0.062083823469281194,-0.004967267018556595,0.0034486060839146373
1782987493194036500,5.856036376953125,0.07615384987592697,0.0001311520989984274,-0.01067362543400377
1782987493204111400,5.866111328125,0.06909224092662335,-0.021065730512887237,0.0020547771053388716
1782987493214185500,5.876185546875,0.0692377868771553,-0.000488514169305563,0.00785959092658013
1782987493224260600,5.886260498046875,0.06370645623505115,-0.0006765840873122215,-0.013373532042466104
1782987493234334500,5.89633447265625,0.05113982012867927,-0.006170943719893693,0.013417151988483965
1782987493244409600,5.90640966796875,0.05758651205003261,-0.004880173256993294,0.022003961211070417
1782987493254483500,5.9164833984375,0.06925649157762527,-0.003081964728608727,0.017697824982367456
1782987493264557300,5.926557373046875,0.0655038610458374,-0.008773454368487,0.006474054852314293
1782987493274632400,5.936632568359375,0.058302551364898675,-0.007164046410471201,0.011472630324587224
1782987493284706300,5.946706298828125,0.0723573802024126,-0.014196063939109443,0.00852799170743674
1782987493294781400,5.956781494140625,0.06007423721253872,-0.00900609408058226,0.010333470226824282
1782987493304855300,5.966855224609375,0.0712771837502718,-0.0022496055576950312,0.011855820955894887
1782987493314930400,5.976930419921875,0.07352291685044765,-0.0009171148449182509,-0.010630882270820438
1782987493325004300,5.98700439453125,0.05842588548362255,-0.006377133816480636,0.00505202269256115
1782987493335078400,5.997078369140625,0.05499824912250042,0.001550152051448822,0.02275466998051852
1782987493345153500,6.007153564453125,0.0791021782875061,-0.01855192106105387,0.005766746833175421
1782987493355227400,6.017227294921875,0.07776186959445476,-0.0031045418865978717,0.01108644401859492
1782987493365302500,6.027302490234375,0.07672142063081264,-0.00896335091739893,0.008092705562710762
1782987493375376400,6.03737646484375,0.06818973912894725,-0.0033528906244784593,0.0003980959394946694
1782987493385451500,6.047451416015625,0.07537409767508506,0.00341689577139914,0.015376761623658239
1782987493395525400,6.057525390625,0.06758008279800415,-0.008968976940587162,0.01050546579286456
1782987493405600500,6.0676005859375,0.05816168158948421,-0.011202215885370969,0.01027640627734363
1782987493415674400,6.07767431640625,0.07507073081433772,-0.036205651173368096,0.017588884715177118
1782987493425748200,6.087748291015625,0.06279226399958134,-0.009743541509658098,0.0024343144748359916
1782987493435823400,6.0978232421875,0.06099485918879509,-0.0019807254884392023,0.0030413039246574044
1782987493445897200,6.107897216796875,0.06055529872775078,-0.013111337442323564,0.025303331550024448
1782987493455972400,6.117972412109375,0.05876023200452327,0.00123925947137177,0.01239537119269371
1782987493466046500,6.12804638671875,0.05381985299289226,-0.0015415303535759447,-0.004733750523626804
1782987493476121300,6.138121337890625,0.051449032208323475,-0.01208922785297036,0.009532748303189873
1782987493486195500,6.148195556640625,0.06642448302209376,-0.02464439271725714,0.020425459847971797
1782987493496270300,6.158270263671875,0.06569032352864741,-0.01773329815454781,0.01757478312458843
1782987493506344400,6.168344482421875,0.07272153733968734,-0.01800415098518133,0.010470175283774733
1782987493516418600,6.17841845703125,0.07542261299192905,-0.008060995250195265,0.004587656583823263
1782987493526493400,6.188493408203125,0.054770870107412335,-0.015892346462979913,-0.0018811741041019558
1782987493536567600,6.198567626953125,0.060462944269180294,-0.020358897417783735,0.007178586392477154
1782987493546642400,6.208642333984375,0.055363575303554534,-0.005185585944354534,0.014585209387168287
1782987493556716500,6.218716552734375,0.07991641727983952,0.007192103461176156,0.016170542349852622
1782987493566791400,6.22879150390625,0.0646808542251587,-0.00837144943885505,-0.0024544439474120734
1782987493576865500,6.238865478515625,0.0642272652387619,-0.0012318798825144766,0.007746997397579252
1782987493586939400,6.248939453125,0.07185936755239963,-0.012764423700794577,0.014601466402225196
1782987493597015000,6.25901513671875,0.05090250424146652,-0.011546280082687734,0.018595248746126888
1782987493607089400,6.26908935546875,0.06002513737380504,0.0005617986012250185,0.005445990446209907
1782987493617164000,6.2791640625,0.05629004249870777,-0.005070873523503542,0.012599369332194327
1782987493627238400,6.28923828125,0.059570963865518564,-0.01952405402883887,0.016112492019683122
1782987493637313000,6.29931298828125,0.08634148189127444,-0.033111996006965634,0.017992095221206546
1782987493647387400,6.309387451171875,0.07735095070600509,-0.026352731005102395,0.014659699395485221
1782987493657461200,6.319461181640625,0.054009238085150714,-0.0070073945440351955,0.020518398828431962
1782987493667536400,6.329536376953125,0.06674187840819358,0.006921762087196111,0.00046060324907302855
1782987493677610200,6.3396103515625,0.05552841047644615,-0.0071615621924400324,0.013884806032851338
1782987493687685400,6.349685302734375,0.04955167415440082,-0.02234700249508023,0.007110087733529507
1782987493697759200,6.35975927734375,0.0675122782588005,-0.008285524721071124,-0.0034431992564350365
1782987493707834400,6.36983447265625,0.05358955136835575,-0.02127893487215042,0.018642814214900136
1782987493717908200,6.379908203125,0.05209317533075809,-0.01490311622992158,0.00793674781601876
1782987493727983400,6.3899833984375,0.05764437971711158,-0.019177432548254728,-0.0026451442139223216
1782987493738057200,6.40005712890625,0.06048047992587089,-0.012394275214150548,0.01649396561793983
1782987493748131300,6.41013134765625,0.07259528061151505,0.007440013807639479,0.0057270358772948384
1782987493758206200,6.420206298828125,0.06839841344356537,-0.014113573287427425,0.02080170928183943
1782987493768280300,6.4302802734375,0.06779810946285725,-0.014559344293549655,0.02418802725188434
1782987493778355500,6.44035546875,0.06617080052196979,-0.013398337690159677,0.004627988594211638
1782987493788429300,6.45042919921875,0.0584060117393732,0.0012771072637289761,0.005219488213956356
1782987493798504400,6.46050439453125,0.04853577511012554,-0.002779401585459709,0.0008071151318028569
1782987493808578300,6.470578369140625,0.06202654032409191,0.0007834054626524448,0.014386289281584322
1782987493818653400,6.4806533203125,0.04857201546728611,-0.002877747393399477,-0.013193097441643476
1782987493828727300,6.490727294921875,0.050664019310474394,-0.00986081121377647,0.0007880816377699375
1782987493838801200,6.50080126953125,0.07178279518485069,-0.018557620149478316,0.0009152151487767696
1782987493848876300,6.510876220703125,0.058628714579343794,-0.012089593179151415,0.014030753842182457
1782987493858950100,6.5209501953125,0.06026946752369403,-0.006244228151813149,0.011444938600063324
1782987493869025300,6.531025390625,0.06534311752617358,-0.02034691471904516,0.012093027245253324
1782987493879099100,6.54109912109375,0.06247662217915058,-0.00601531476676464,0.013733707124367356
1782987493889174300,6.55117431640625,0.06053016428649425,-0.016091595362126825,0.01054535941183567
1782987493899248400,6.561248291015625,0.07190846739113331,0.000891907338425517,0.012942410616204141
1782987493909322200,6.571322265625,0.06188976220190524,-0.0050966655518859625,0.005548427907377481
1782987493919397400,6.5813974609375,0.07475041281878948,-0.004289148561283946,0.011245945429243146
1782987493929471200,6.59147119140625,0.06487608453631401,-0.005683963920548558,0.011149535850062967
1782987493939546400,6.60154638671875,0.061135144442319864,-0.008251914712414144,0.01739953615553677
1782987493949620200,6.6116201171875,0.06099544371068477,-0.014204466441273688,0.0290922755042091
1782987493959695400,6.6216953125,0.0647282004982233,-0.0034705987200140953,0.017966631986387073
1782987493969769200,6.631769287109375,0.0790758748024702,-0.013904168320447205,0.015573197511211037
1782987493979843000,6.641843017578125,0.07545593073964119,-0.007467851662635803,0.021950367860309777
1782987493989918200,6.651918212890625,0.0697697017967701,-0.0075173898927867406,0.007513919294066727
1782987493999992000,6.661991943359375,0.06796820533275603,-0.02086355900429189,0.0071298518799245356
1782987494010067200,6.672067138671875,0.06376724651157856,-0.015862462781369685,0.003015950287692249
1782987494020141300,6.682141357421875,0.052554363101720805,-0.007679740847647189,0.018842538038082418
1782987494030216200,6.69221630859375,0.06767945151925087,-0.007659720972925424,0.01447444248907268
1782987494040290300,6.702290283203125,0.05691548092067241,-0.016350903885439038,0.005902830835618079
1782987494050365200,6.712365234375,0.04257014470398426,-0.011399857349321245,-0.0012575988456606864
1782987494060439300,6.722439208984375,0.08027180658876895,-0.008644055835157632,0.013862228874862194
1782987494070513200,6.73251318359375,0.06290390768051148,-0.011532324622571468,0.007841178487055003
1782987494080588300,6.74258837890625,0.06124094290435314,-0.004360971688479185,0.002080203807540238
1782987494090662100,6.752662109375,0.04987433023750782,-0.014030936505272984,0.030633330933749675
1782987494100737300,6.7627373046875,0.060786184874176974,0.0014239683885127305,-0.004626892615668475
1782987494110811100,6.77281103515625,0.06887889043688773,-0.0024504618920385838,-0.0122947238298133
1782987494120886300,6.78288623046875,0.08130173415839671,-0.0187668059207499,0.01592190135102719
1782987494130960100,6.792960205078125,0.08025017927885054,-0.013024535941705107,0.016761311317235232
1782987494141034200,6.8030341796875,0.07171206803619862,-0.02052358646020293,0.020132723979093135
1782987494151109000,6.813109130859375,0.07352467041611671,-0.013426833132281898,0.00979830390419811
1782987494161183200,6.823183349609375,0.057813306543231004,-0.017824702765047547,0.012607296910323203
1782987494171258000,6.833258056640625,0.07471943315863609,-0.013268208504468202,0.019283669401705263
1782987494181332200,6.843332275390625,0.0696212332367897,-0.010219707654044032,0.031215441670641303
1782987494191407000,6.853406982421875,0.056608606928586956,-0.02041530378013849,0.021412753852270542
1782987494201481200,6.863481201171875,0.06199789875149726,-0.00938325682990253,0.014738281057029961
1782987494211556000,6.87355615234375,0.08504325877428054,0.0010394260503351687,-0.001816840163618326
1782987494221630200,6.883630126953125,0.07367430801987647,-0.011071648308262228,0.005768354268372059
1782987494231704300,6.893704345703125,0.05481295568346977,-0.013836363781243562,0.01760612811092287
1782987494241779200,6.903779296875,0.06588847644925117,-0.019315598909929392,0.010171776859089732
1782987494251853300,6.913853271484375,0.06454582966864109,-0.01433510708361864,0.003116853378899395
1782987494261928200,6.92392822265625,0.056009471991658205,-0.01886091394498944,0.017257789597287774
1782987494272002300,6.934002197265625,0.06258651229441166,-0.01980016755647957,0.0063993821809068315
1782987494282077400,6.944077392578125,0.08023381266593933,-0.0037198973059654234,0.012597542701289058
1782987494292151300,6.9541513671875,0.0651245063394308,-0.004918386375531554,-0.00019574176780879496
1782987494302225400,6.964225341796875,0.04581131858229637,-0.007241130234673619,-0.005518215432204306
1782987494312300300,6.97430029296875,0.056437342014908784,0.007286649876832961,0.009830708336457609
1782987494322374400,6.98437451171875,0.044478608673810954,-0.002597761408239603,-0.005508643886260688
1782987494332449300,6.99444921875,0.06590075140893459,-0.012138327691704033,0.0019581848630681633
1782987494342523400,7.0045234375,0.05919394724667072,-0.01789141132570803,0.0161778488734737
1782987494352598300,7.014598388671875,0.06652618983089924,-0.02820778428725898,0.021429851117543874
1782987494362672400,7.02467236328125,0.07729249851703643,-0.029960473173484204,0.0024000468790531158
1782987494372746200,7.034746337890625,0.09732523272037505,-0.002360664716735482,0.004264963968098163
1782987494382821400,7.0448212890625,0.06035246963202953,-0.017009148598462344,0.010429295284114777
1782987494392895200,7.054895263671875,0.061250295254588125,-0.013323811149224637,0.006907039442099631
1782987494402970400,7.064970458984375,0.06678688659369945,-0.011113660819083451,-0.005703874197416007
1782987494413044200,7.075044189453125,0.06379822617173195,-0.006553440231457352,-0.013311974580958485
1782987494423119400,7.085119384765625,0.06411269894838333,-0.0034646804358810183,0.0025678046613931654
1782987494433193200,7.095193115234375,0.07399813314676285,-0.00994162136502564,0.0035934944473206996
1782987494443268400,7.105268310546875,0.0677174454420805,-0.01961363200843334,0.030832945159077644
1782987494453342200,7.11534228515625,0.06964695219993591,-0.007761354716494679,0.024962263027392326
1782987494463416300,7.125416259765625,0.07128302896916866,-0.013165917173773049,0.0004170198356732726
1782987494473491200,7.1354912109375,0.05481354020535945,-0.012846256765350698,0.014317717557400465
1782987494483565300,7.1455654296875,0.05273205775618553,-0.009867533215507865,0.001855199412629008
1782987494493640200,7.15564013671875,0.05961655657291412,-0.001906929599866271,-0.008900149488076567
1782987494503714300,7.16571435546875,0.08923544976711273,-0.009094649146869778,0.007267214524000883
1782987494513789200,7.1757890625,0.0833802939981222,-0.022392595202475784,0.016407200649939477
1782987494523863300,7.18586328125,0.057940147793293,0.0003949906669557094,0.007517061099223792
1782987494533938200,7.195938232421875,0.051207624667882916,-0.0006643091276288032,-0.00838555102944374
1782987494544012300,7.20601220703125,0.047754269343614576,0.0029591420665383335,0.015302454278431831
1782987494554086100,7.216086181640625,0.043866614255309105,0.006416004522144794,0.0032975802406668663
1782987494564161300,7.226161376953125,0.06482289304435253,-0.0018161825764924286,0.002725954365171492
1782987494574235100,7.236235107421875,0.07903963444530963,-0.0015155191294848919,0.01767645340077579
1782987494584310300,7.246310302734375,0.07590075189769267,-0.0074930591691285365,-0.0031744653176516294
1782987494594384100,7.256384033203125,0.0680044456899166,-0.01470350200459361,0.0012338161112740635
1782987494604458800,7.266458740234375,0.07549100205302238,-0.014812953728437423,0.011230674794875085
1782987494614532600,7.27653271484375,0.07011223162412643,-0.013050985557213424,0.019783654813095925
1782987494624606700,7.286606689453125,0.05694529153704643,-0.00420870373621583,-0.00879749283120036
1782987494634681900,7.296681884765625,0.05321604188084602,0.00020290216095745562,0.017429529435001312
1782987494644756000,7.306755859375,0.05351473256647586,-0.006203092423826456,0.01179353284202516
1782987494654830800,7.316830810546875,0.07190612930357455,-0.01107442478723824,0.013566022407263517
1782987494664905000,7.326905029296875,0.06920213104188441,-0.004258241966366767,0.012164302383176982
1782987494674979800,7.336979736328125,0.05468611443340778,0.0019686697244644166,0.009460596382431685
1782987494685054000,7.347053955078125,0.06697510264217853,-0.010802987434715031,0.006133972710371017
1782987494695127800,7.3571279296875,0.05919336272478103,-0.010511822468414903,-0.0019475904038175939
1782987494705203000,7.367202880859375,0.07251227850317954,-0.008041267636418343,0.0018810279736295342
1782987494715276800,7.37727685546875,0.080282912504673,-0.010797653672471642,0.019478022930026054
1782987494725352000,7.38735205078125,0.0699789606332779,-0.0006521072331815957,0.00033281215094029903
1782987494735425800,7.39742578125,0.07162965044975281,-0.01023468602746725,0.018203874808363614
1782987494745501000,7.4075009765625,0.06129004274308681,-0.01486241889335215,0.001358063545450568
1782987494755575000,7.417574951171875,0.05290449171364307,0.00987337843440473,0.00520385225340724
1782987494765650000,7.42764990234375,0.04347849172055721,-0.013700097115710377,0.0036321824898943303
1782987494775724000,7.43772412109375,0.05829319901466369,0.0030090456228703258,0.0036123818108811973
1782987494785798000,7.4477978515625,0.06741700119078159,-0.003581438683345914,0.014446275840513407
1782987494795873000,7.457873046875,0.06951075859963894,-0.0010709902323782444,0.0067881257701665155
1782987494805947000,7.46794677734375,0.07054536234438419,-0.011376914865151046,0.012817395997047424
1782987494816022000,7.47802197265625,0.06814473094344138,-0.019257804308086632,0.013091975154727696
1782987494826095900,7.488095947265625,0.0662099634885788,-0.005099880422279239,-0.003875307063385844
1782987494836171000,7.4981708984375,0.045859833899140355,-0.00467215652950108,0.001618431514687836
1782987494846244900,7.508244873046875,0.046746553605794904,0.0034188685327768325,-0.004360496764443815
1782987494856318700,7.518318603515625,0.03626549160182476,-0.013326806823909281,-0.004134323325753211
1782987494866393900,7.528393798828125,0.04824468320906162,-0.015778949216380716,0.011704612449556588
1782987494876468000,7.538468017578125,0.08475742757022381,-0.01099105735272169,-0.006122318805195391
1782987494886542800,7.54854296875,0.0763613551467657,-0.01150682485513389,0.011670490984246135
1782987494896617000,7.558616943359375,0.05675649096667766,-0.008731880249083042,0.005639649854786694
1782987494906691800,7.56869189453125,0.0522755461603403,-0.007014993328601122,-0.0006902472864836454
1782987494916766000,7.578765869140625,0.0654512540757656,0.0009594926819205283,-0.004147402003034949
1782987494926840800,7.5888408203125,0.07083002450466155,-0.00734780547954142,-0.004715666877664625
1782987494936915000,7.5989150390625,0.047938393738865846,-0.011401757045462728,-0.0002975581744685769
1782987494946988800,7.60898876953125,0.04106207822859287,-0.0007986760970205068,0.013773819939047097
1782987494957064000,7.61906396484375,0.06515490147769451,-0.007551730553805828,0.013572232952341437
1782987494967137800,7.6291376953125,0.07546411404609679,-0.015126622787490487,0.013126352348364888
1782987494977213000,7.639212890625,0.07184650807082653,-0.008021247761696576,0.006536781357601285
1782987494987286800,7.649286865234375,0.05284370143711566,-0.011464666213840246,0.008011968476697802
1782987494997362000,7.65936181640625,0.06063771631419658,-0.009690642278641462,-0.0007181216740980744
1782987495007435800,7.669435791015625,0.06392565194368362,-0.015069631903246044,0.007300240010768175
1782987495017510000,7.679510009765625,0.0676519789904356,-0.011508066964149475,0.007355513861961662
1782987495027584800,7.689584716796875,0.048209611895680425,-0.021513620410859583,0.0018184841314330695
1782987495037659000,7.699658935546875,0.06692892541289329,-0.005761193875223398,0.019334559338726104
1782987495047733800,7.709733642578125,0.06304653102159499,-0.02044716022312641,0.022360044639743865
1782987495057808000,7.719807861328125,0.06438917780220509,-0.01973440884388983,0.012054741061478852
1782987495067882800,7.7298828125,0.07514379605054855,-0.007470993467792868,0.02280563298277557
1782987495077956900,7.739956787109375,0.05821721116900444,0.00401347342506051,0.0030903306981548665
1782987495088031700,7.75003173828125,0.0529816486030817,-0.011430910074710846,0.014988383360579609
1782987495098105900,7.76010595703125,0.06164426300823688,-0.011929945638030766,0.016194361616857347
1782987495108179700,7.7701796875,0.06372048476040362,-0.0009155074097216128,0.00531308478154242
1782987495118254800,7.7802548828125,0.06281330678761005,-0.016448226780071854,0.016988398071378467
1782987495128328700,7.79032861328125,0.06386486166715621,-0.019149010171368715,0.010165237520448863
1782987495138403800,7.80040380859375,0.07434358558356761,-0.01117832355313003,0.005507876701280475
1782987495148477700,7.810477783203125,0.08435878364145755,-0.01835201457478106,0.0020568229319527743
1782987495158552800,7.820552734375,0.06325228272676467,-0.008002981452643871,-0.00007748568300157786
1782987495168626700,7.830626708984375,0.055638885113596916,-0.016975100198388098,0.001023643959313631
1782987495178700800,7.84070068359375,0.05938333233892917,-0.00805968007594347,-0.006909377529658377
1782987495188775700,7.850775634765625,0.06058218673467636,-0.013487915669754148,-0.005047309984825551
1782987495198849800,7.860849853515625,0.06762041480839252,-0.005008987268432974,-0.0006704831400886177
1782987495208924700,7.870924560546875,0.060740007644891736,-0.015970599330961704,0.006767557906173169
1782987495218998800,7.880998779296875,0.05654489404261112,-0.006520268614217639,-0.005675342222675681
1782987495229073700,7.89107373046875,0.054451136633753776,-0.012863865487277507,0.014726006097346544
1782987495239147800,7.901147705078125,0.06896598419845104,-0.025524609617888924,0.01001216585058719
1782987495249222000,7.911221923828125,0.0770458302795887,-0.02253171141222119,0.017955233809538184
1782987495259296800,7.921296875,0.06504559588432311,-0.0198611039634794,0.010142696895077824
1782987495269371000,7.931370849609375,0.0655038610458374,-0.0023909867897629737,0.004298975835554301
1782987495279445800,7.94144580078125,0.05084931274950504,-0.012023323009908198,0.001569587404280901
1782987495289519900,7.951519775390625,0.0559486817151308,-0.014661124167591333,-0.010530563701502979
1782987495299594800,7.9615947265625,0.07345803492069244,-0.003511953643709421,0.012880999285168945
1782987495309668900,7.9716689453125,0.06253039819300174,-0.002757774275541305,0.02358410654198378
1782987495319743700,7.98174365234375,0.07496785496175289,-0.01023205567896366,0.022153635347448287
1782987495329817900,7.99181787109375,0.07974982854127884,-0.010082491140440106,-0.004067651297710835
1782987495339892000,8.00189208984375,0.07241933952271938,-0.014413652212545276,0.003544102347642183
1782987495349966800,8.011966796875,0.060144379839301106,-0.007318579385057092,0.0027515637304633854
1782987495360041000,8.022041015625,0.05027297416627407,-0.011838248766586184,-0.0055434594713151455
1782987495370115800,8.03211572265625,0.05821311951577663,-0.0080153294775635,0.005182042280398309
1782987495380190000,8.04218994140625,0.05911152966022491,-0.007297974988445639,0.009169942872785032
1782987495390264800,8.052264892578124,0.058503626894950866,-0.02351509642638266,-0.006967245196737349
1782987495400339000,8.0623388671875,0.06929273193478584,-0.01125204637646675,0.0026869740616530177
1782987495410412800,8.072412841796876,0.05867722989618778,-0.013616291289776563,0.0018922800200060009
1782987495420488000,8.082488037109375,0.06961129636466502,-0.009319251682981849,0.010391885883174835
1782987495430561800,8.092561767578125,0.06077566348016262,-0.0192069509036839,0.017531601569987832
1782987495440637000,8.102636962890625,0.06347147843539715,-0.008708572438731788,0.006747501498833298
1782987495450710800,8.112710693359375,0.0630289953649044,-0.02171206559240818,0.01353127988744527
1782987495460786000,8.122785888671874,0.05868015250563621,-0.022899814072251317,0.006320983182452619
1782987495470859800,8.13285986328125,0.060925301083922384,-0.00933627588301897,0.028890725050121545
1782987495480934000,8.142933837890626,0.06988777521848678,-0.015033976067975163,-0.0006885302534326911
1782987495491008800,8.1530087890625,0.06555763705968856,-0.017479834850132464,0.007061755079776048
1782987495501083000,8.163082763671875,0.05972118599116802,-0.014102394306287168,-0.005379026157222688
1782987495511157800,8.17315771484375,0.08217734794914722,-0.016003040295839308,0.00857416893672198
1782987495521232000,8.18323193359375,0.06618658261299133,0.0056638709805905815,0.017262319641932845
1782987495531306800,8.193306640625,0.06635024874210357,-0.011221724303439259,0.006038293783552944
1782987495541380900,8.203380859375,0.0602186141192913,-0.0030136487327516075,0.012828648043423891
1782987495551455700,8.213455810546876,0.06201777249574661,-0.018128069625794885,0.024886384779587385
1782987495561529900,8.22352978515625,0.06544307076931,-0.02047039496824145,0.03027348464541137
1782987495571603700,8.233603759765625,0.0661924278318882,-0.001575359557941556,0.011608677794411777
1782987495581678800,8.243678955078124,0.05765197850167751,-0.018872969708964227,0.004636939085647464
1782987495591752700,8.253752685546875,0.0661836600035429,-0.01498399944640696,0.01716865000911057
1782987495601827800,8.263827880859376,0.05436053574085235,-0.020538345637917517,0.012684234604053199
1782987495611902000,8.27390185546875,0.0820388162612915,-0.00406308472044766,0.000519676492549479
1782987495621976800,8.283976806640625,0.07067103455066681,-0.00461706534139812,0.017405965896323324
1782987495632051000,8.294051025390624,0.0786053346812725,-0.0128658382486552,0.0005561360454186797
1782987495642124800,8.304124755859375,0.06964052245914935,-0.01900909024402499,0.006654964377172291
1782987495652200000,8.314199951171876,0.06934007820785046,-0.012478738627210259,0.027396431371755896
1782987495662273800,8.324273681640625,0.06589665975570679,-0.0034468525182455778,0.010989449917525053
1782987495672349000,8.334348876953126,0.053933250239491456,0.0008449994567781686,0.021172624953463674
1782987495682422800,8.3444228515625,0.07458090147078036,-0.01135842936038971,0.025495529653877018
1782987495692498000,8.354497802734375,0.07067804881334304,-0.004828662265464663,-0.00594294365029782
1782987495702571800,8.36457177734375,0.07007949839830398,-0.01051686396971345,0.004382124074362218
1782987495712647000,8.37464697265625,0.06933598655462264,-0.02166610755883157,0.00853865923192352
1782987495722720800,8.384720703125,0.07891746937036513,-0.013240589845180511,0.0028263094671070574
1782987495732795000,8.394794921875,0.07502513810694217,-0.017025222950428725,0.006091229547187686
1782987495742869800,8.404869873046875,0.056195934474468225,-0.013435308699682354,-0.004916413614153862
1782987495752943900,8.41494384765625,0.05994213526546955,-0.0017812573935836553,0.00020575170516967773
1782987495763018800,8.425018798828125,0.07745265751481056,-0.005056041280552745,-0.0025121654840186236
1782987495773092900,8.4350927734375,0.06800736829936505,0.004979615043476223,0.012630312459729611
1782987495783167700,8.445167724609375,0.07997545399069786,-0.014231938970088958,-0.006698511257953941
1782987495793241900,8.455241943359376,0.05483984369039535,0.006372530706599354,0.007083966911584139
1782987495803316000,8.46531591796875,0.05873509756326675,0.004037950279191136,0.015314290846697986
1782987495813390800,8.475390869140625,0.07115384963154793,-0.015425824929773806,0.007393288589082658
1782987495823465000,8.48546484375,0.07563420991599559,-0.00810593037046492,-0.000852671306580305
1782987495833539800,8.495539794921875,0.06456161175966263,-0.015154972099140285,-0.004769552489370108
1782987495843614000,8.505614013671876,0.06529167959988116,-0.02006473677679896,0.010346585436724126
1782987495853688800,8.515688720703125,0.08055179257392883,-0.014392609424516558,0.011723755541443824
1782987495863763000,8.525762939453125,0.06618190643787383,-0.014385229835659265,0.008671966755390167
1782987495873837800,8.535837890625,0.04805763620436191,0.010772884557396173,0.0002747983533889055
1782987495883912000,8.545911865234375,0.07274842534661292,-0.014516820326074957,0.007898826958425342
1782987495893986000,8.555986083984376,0.06707037971019744,0.0024826105959713457,0.011616130448505282
1782987495904061000,8.56606103515625,0.06961304993033408,-0.011120602016523479,0.011058715761452913
1782987495914135000,8.576135009765625,0.07155483164787292,-0.006226107973232865,0.008214468778856098
1782987495924210200,8.586210205078125,0.062273208561539645,0.00456299706660211,-0.01144336769748479
1782987495934284000,8.596283935546875,0.05524199475049972,-0.005548574037849903,-0.006746368987672031
1782987495944359200,8.606359130859374,0.07230009705722332,-0.0029646219592541455,0.005739639630541205
1782987495954433000,8.61643310546875,0.08336626547276973,0.0027522943828254937,-0.005321962207742035
1782987495964507000,8.6265068359375,0.055693245649337766,-0.011392623890936374,0.018099172324873507
1782987495974582000,8.63658203125,0.06615443390905856,-0.0010391337893903255,0.011883878006599843
1782987495984656000,8.64665576171875,0.0737561410844326,0.0008927110560238361,0.004393047327175736
1782987495994731000,8.65673095703125,0.06941138987839221,-0.008507935300096869,0.004976400173082947
1782987496004804900,8.666804931640625,0.03696808691322803,-0.000604103372991085,-0.006574409954249859
1782987496014880000,8.6768798828125,0.0668938540995121,-0.030646774937212466,0.016554500166140497
1782987496024953900,8.686953857421875,0.10203823271691799,-0.003061433397233486,0.020810878968983888
1782987496035028000,8.697028076171875,0.0550292287826538,-0.02002287039645016,0.012706373370625077
1782987496045102800,8.707102783203124,0.053397243666648865,-0.014592369780316947,-0.009625175826996565
1782987496055177000,8.717177001953125,0.07749649665653705,-0.006928849415108561,0.01946658822055906
1782987496065252000,8.727252197265624,0.0674473963290453,-0.008701704306527972,0.01580620254948735
1782987496075326000,8.737325927734375,0.0647539194613695,-0.022160832273215053,0.006239259715750813
1782987496085401000,8.747401123046876,0.05637947434782981,0.005719912016764283,0.00023172639664262532
1782987496095475000,8.757474853515625,0.036488194441795345,-0.006621756227314471,0.007186440905369818
1782987496105550000,8.767550048828125,0.055204000827670095,-0.017470336369425056,0.0003653992462903261
1782987496115624000,8.7776240234375,0.0869230811715126,-0.009436082995682955,0.002077646524272859
1782987496125697800,8.78769775390625,0.05445405924320221,-0.0014197306048125027,-0.005334456363134086
1782987496135773000,8.79777294921875,0.06823240922689437,-0.01449840788654983,-0.0007705094484612346
1782987496145846800,8.8078466796875,0.06748539025187492,-0.008308686400949955,0.007208177813142537
1782987496155922000,8.817921875,0.05236380896568298,-0.005850917985290288,0.026985366352833808
1782987496165995800,8.827995849609374,0.04608429030478001,-0.013993673234805463,0.009952179291658102
1782987496176071000,8.83807080078125,0.07572656437456607,0.0026000994957983492,-0.005216346408799291
1782987496186145000,8.84814501953125,0.06390519367754459,-0.0013809329643845558,0.00428688353896141
1782987496196219000,8.858218994140625,0.05775076270103454,-0.015247984144836663,0.006980506537109613
1782987496206294000,8.8682939453125,0.059843351066112514,-0.006996873150020838,-0.0025895415691658853
1782987496216367900,8.878367919921875,0.0661614481717348,0.014192118416354059,0.0021081512603908776
1782987496226443000,8.888443115234375,0.04684475328326225,-0.016627528869733215,0.03102127080541104
1782987496236516900,8.898516845703124,0.1051876366585493,0.013597951915487646,0.009234897867776454
1782987496246592000,8.908592041015625,0.06194529178142547,-0.016102116756141184,0.020962014410085973
1782987496256665900,8.918665771484376,0.03620470132529735,-0.0005474778149276971,0.007783968407101929
1782987496266740000,8.928739990234375,0.09561433714926243,-0.016409209943935275,0.005771094214729965
1782987496276814800,8.93881494140625,0.05624678787887096,-0.025049539452046153,0.023855178568325936
1782987496286889000,8.948888916015624,0.0738818132907152,0.0007316022101789713,0.006237579215317964
1782987496296963800,8.9589638671875,0.07030687741339206,-0.027111513483151793,0.020054909502528608
1782987496307038000,8.969037841796874,0.023483166918158528,-0.008383359072357415,0.010586933531239628
1782987496317112800,8.97911279296875,0.07556757442057133,0.009132423873990774,-0.011725253378786146
1782987496327187000,8.98918701171875,0.06075520521402358,-0.014612389655038714,0.013446524213440716
1782987496337261800,8.99926171875,0.06373509780764579,0.003713321434706449,0.000032842823676764966
1782987496347336000,9.0093359375,0.08334931433796883,-0.0015418226145207882,-0.010466193228401243
1782987496357410000,9.01941015625,0.015853402692079542,-0.00951302068941295,0.00670545245539397
1782987496367485000,9.02948486328125,0.04383271198570728,0.004878346626088023,-0.0002971563156694174
1782987496377559000,9.03955908203125,0.06821545809209346,-0.022614567390084266,0.01645535064060241
1782987496387634000,9.049634033203125,0.08076397401988505,-0.018657865653559563,0.010272351156733929
1782987496397708000,9.0597080078125,0.07344926709234714,0.005536445208638907,0.01250277708992362
1782987496407783000,9.069782958984375,0.04338379917442799,-0.01428542272299528,0.01988601920902729
1782987496417857000,9.07985693359375,0.11056465352177619,-0.0019719576600939035,-0.01171487811524421
1782987496427931100,9.08993115234375,0.06491933915615082,-0.038947789488360286,0.022630239883251486
1782987496438006000,9.100006103515625,0.034517186629772184,-0.013694544157758354,0.014440540219470858
1782987496448080100,9.110080078125,0.08466098145842552,-0.0005894903257489204,0.008765490257740021
1782987496458155000,9.120155029296875,0.04845861822068691,-0.020893004294484853,0.005863813999481499
1782987496468229000,9.13022900390625,0.03980009546875953,0.0016937983058393001,-0.009406528107635675
1782987496478304000,9.140303955078124,0.06645078650712967,0.004762099835276604,0.01765741990674287
1782987496488378000,9.150378173828125,0.052830257433652876,-0.00795665809288621,0.021911204893700777
1782987496498452000,9.160451904296876,0.09637129299640655,-0.007085939672961831,0.006670344609394669
1782987496508527000,9.170527099609375,0.07780278612673282,-0.01363368081599474,0.020219196686148643
1782987496518601000,9.18060107421875,0.05940203703939914,-0.009807035199925302,0.013967406282387672
1782987496528676000,9.190676025390625,0.06449672982990741,-0.009868775324523448,0.002002097070030868
1782987496538750000,9.20075,0.06313537834882736,0.00011120528951287269,0.00623498539943248
1782987496548825000,9.2108251953125,0.06911679084599018,-0.027704876266419886,-0.0002579933490604162
1782987496558899000,9.22089892578125,0.07195639818608761,-0.0015023673869669436,0.007459120366908609
1782987496568974000,9.23097412109375,0.06358546020388603,-0.014422493106126784,0.012979710419289766
1782987496579048000,9.2410478515625,0.06462474012374878,-0.017914061548933387,0.0081152461880818
1782987496589122000,9.2511220703125,0.04561199661791324,-0.01319711602963507,0.006671915511973202
1782987496599197200,9.261197265625,0.0556307018071413,-0.005387245996296405,0.0027398732926696536
1782987496609271000,9.27127099609375,0.05907119764983654,-0.003526493625715375,-0.000057611938752233976
1782987496619346200,9.28134619140625,0.06831716490089892,-0.03565853868462145,0.022884470372647046
1782987496629420000,9.291419921875,0.07728431521058082,-0.01521218217909336,-0.007070632505975664
1782987496639495200,9.3014951171875,0.0386602777838707,-0.028282603089138863,0.02408157120272517
1782987496649569000,9.311569091796875,0.07757014641463757,0.010417202987521886,-0.0027093685565516353
1782987496659643100,9.32164306640625,0.07084931372702122,-0.0031308453716337678,0.021015680826082826
1782987496669718000,9.331718017578124,0.0673906977057457,-0.012809797212481497,0.006802811882644891
1782987496679792000,9.341792236328125,0.0612339286416769,-0.004036415909230709,0.000012457622773945331
1782987496689867000,9.351866943359376,0.048073418295383454,-0.005288680992648005,0.008536723003163934
1782987496699941000,9.361941162109375,0.052426352807879446,-0.016936521753668783,0.01647317855823785
1782987496710016000,9.37201611328125,0.08443009531199931,-0.007628010660409927,0.012448416554182768
1782987496720090000,9.382090087890624,0.06885200242996216,-0.010251125705614685,0.00512972757127136
1782987496730164000,9.3921640625,0.05777765070796013,-0.0031384441561996936,0.0245111217264086
1782987496740239000,9.402239013671876,0.05240706358551979,0.00020772446654736994,0.00828833773266524
1782987496750313000,9.41231298828125,0.07768062105178833,-0.015401494206115602,-0.004531140623614192
1782987496760388000,9.42238818359375,0.07437222715616226,-0.01673033165708184,0.017864157992601392
1782987496770462000,9.4324619140625,0.056260231882333755,-0.013130991990864276,0.008257796463929117
1782987496780537000,9.442537109375,0.05597206259071827,0.0011902326978743077,0.011946129587851463
1782987496790611000,9.45261083984375,0.05389174918532371,-0.008007876823469996,0.002976750788465142
1782987496800685000,9.46268505859375,0.06076864921748638,-0.021672025842964647,-0.003861388135887682
1782987496810760000,9.472760009765626,0.06720131261348725,-0.012573431173339485,-0.004771927109546959
1782987496820835000,9.4828349609375,0.0712596480935812,-0.01497873874939978,0.004526793242059648
1782987496830909000,9.492908935546875,0.05899404076039791,-0.0010641951654106379,0.01177753155529499
1782987496840984000,9.502984130859375,0.07979542124867439,-0.0001727262184023857,0.007695778666995465
1782987496851058000,9.513057861328125,0.05913900218904018,-0.012825360107794403,0.015926504460908472
1782987496861132000,9.523132080078126,0.06960662018954754,-0.01741298015899956,-0.014168262616731226
1782987496871207000,9.53320703125,0.06302198110222816,-0.012474573908746242,0.0054535892307758325
1782987496881281000,9.543281005859376,0.06362696125805378,0.0008014525759965181,0.021494879177771507
1782987496891356000,9.55335595703125,0.061984454748034476,-0.0035633915700018404,0.005743439022824168
1782987496901430000,9.563429931640625,0.065120414686203,-0.015751622818037866,0.005018303086049855
1782987496911505000,9.5735048828125,0.05105389541089535,-0.010131006457284092,-0.0013490399887785315
1782987496921579000,9.5835791015625,0.06047931088209152,0.0005358604423701763,-0.0020117051485925913
1782987496931653000,9.593653076171876,0.06452244879305362,-0.005874810317531228,0.01038954779561609
1782987496941728000,9.60372802734375,0.07171440612375736,-0.00671396455541253,0.011268960978649555
1782987496951802000,9.613802001953125,0.07292845808863639,-0.01110467379502952,0.030619156277924775
1782987496961877000,9.623876953125,0.05916179854273796,-0.02271948906928301,0.004813537761569023
1782987496971951000,9.633951171875,0.07395312496125697,-0.013124416119605301,0.001579012819752097
1782987496982026000,9.64402587890625,0.0773854374974966,-0.0017922171790152788,0.017700236135162414
1782987496992100000,9.65410009765625,0.06002572189569473,-0.0020781945135444403,0.0012900763431563972
1782987497002174200,9.66417431640625,0.06885375599563122,-0.01895575262159109,0.02154836293067783
1782987497012249000,9.6742490234375,0.07289397129714488,-0.007895575555413962,0.006410341966338455
1782987497022323200,9.6843232421875,0.078287354773283,-0.002912818706780672,-0.00037350948750972747
1782987497032398000,9.694398193359374,0.07276420743763447,-0.015495894491299986,-0.007449658418819308
1782987497042472200,9.70447216796875,0.07081774954497813,-0.0011787614557892084,0.006423859035037458
1782987497052547000,9.714547119140626,0.05063713130354881,-0.019381576818227768,-0.0009837138077244162
1782987497062621200,9.72462109375,0.04960252755880355,-0.006563230973109602,0.0005738178325816989
1782987497072696000,9.734696044921876,0.052145782300829883,-0.00902647928148508,0.022238098760507998
1782987497082770200,9.744770263671874,0.06742635354101657,-0.011018164555355906,0.007468326586671173
1782987497092844000,9.754843994140625,0.07222820086479187,-0.01760667610019445,-0.005289192449301481
1782987497102919200,9.764919189453124,0.07074409978687762,-0.017951982406526804,0.030108978266082703
1782987497112993000,9.774992919921875,0.06609481267631054,-0.02009725080691278,0.014060199132375419
1782987497123068200,9.785068115234376,0.064005146920681,-0.015233809489011764,0.00868380332365632
1782987497133142000,9.79514208984375,0.06147825879156589,-0.007103329199180007,0.007767784457281232
1782987497143217200,9.805217041015625,0.06880465615689754,-0.0031467735931277273,0.02197177597451955
1782987497153291000,9.815291015625,0.05473170714080333,-0.001887932638451457,0.0023704554583877323
1782987497163365000,9.825365234375,0.05532908851206302,-0.015272899390384554,-0.005574694859795272
1782987497173440000,9.83543994140625,0.05758008230924606,-0.007182458849996328,0.0005152195131406188
1782987497183514000,9.84551416015625,0.05893968022465706,-0.006058861647546291,0.02733644481282681
1782987497193589000,9.855589111328126,0.06925824514329433,-0.01173142739124596,0.028805530984699724
1782987497203663000,9.8656630859375,0.06971066508591174,-0.011352730271965265,0.017190423449501394
1782987497213738000,9.875738037109375,0.07300035428106784,-0.015114932349696755,0.011364493774995207
1782987497223812000,9.88581201171875,0.07702128036022186,-0.014911737927794455,0.01300093587040901
1782987497233886000,9.895885986328125,0.06265782396495342,-0.010202464258298276,0.017958375614695248
1782987497243961000,9.905961181640626,0.047829672667384145,-0.013291004858165978,0.00040938451848924155
1782987497254035000,9.916034912109374,0.0671463675558567,0.012880378230661153,0.001854651423357427
1782987497264110000,9.926110107421875,0.06701309656500816,0.00009111234955489634,0.009667553663998841
1782987497274184000,9.936183837890624,0.04666472054123878,-0.01414696410037577,0.0003236059311777353
1782987497284259000,9.946259033203125,0.10470482157766818,-0.00356602191850543,0.009213599351420998
1782987497294333000,9.9563330078125,0.06563947012424469,-0.011549641083553433,0.022725772679597137
1782987497304408000,9.966407958984375,0.035728315985202784,-0.017433657620847223,0.0021773805717006326
1782987497314482000,9.97648193359375,0.08270634025931357,-0.00026288871988654135,0.01588113094922155
1782987497324556000,9.98655615234375,0.0563496637314558,-0.0065657151911407705,-0.010929792152158915
1782987497334631000,9.996630859375,0.04033785560727119,-0.011245543570443987,0.00009746902510523795
1782987497344705000,10.006705078125,0.0704267044007778,0.009788549695163965,-0.017345577478595078
1782987497354780200,10.0167802734375,0.060111646613478655,-0.016131342850625514,0.005683415931276976
1782987497364854000,10.02685400390625,0.07222936990857123,0.0029535891085863113,0.01826419016085565
1782987497374929200,10.03692919921875,0.07865969521701335,-0.027605361414700744,0.019194493280909955
1782987497385003000,10.0470029296875,0.0535351908326149,-0.0066661798909306525,0.026319267126917838
1782987497395076900,10.057076904296874,0.06806523596644401,0.0025674393352121115,-0.0014886676551774144
1782987497405152000,10.067152099609375,0.07134089663624762,-0.021668299515917897,0.019554741428047417
1782987497415225900,10.077225830078126,0.058761985570192334,-0.01970934746786952,0.015386844626255333
1782987497425301000,10.087301025390625,0.06743629041314125,-0.016968743522837757,0.011140475760772824
1782987497435374800,10.097374755859375,0.06938742448091506,-0.0022166531361639498,0.004274645111896097
1782987497445450000,10.107449951171875,0.07162263618707657,-0.02085289147980511,-0.0056995633484795685
1782987497455523800,10.11752392578125,0.07222118660211563,-0.007176540565863252,0.016169848230108617
1782987497465598200,10.12759814453125,0.05216624056696891,-0.018865590120106933,-0.00009721329677850007
1782987497475673000,10.137673095703125,0.0448556252926588,-0.019930808198824524,-0.0017847645249217748
1782987497485747200,10.147747314453126,0.04368775055706501,0.0024719430714845655,0.004193031243048608
1782987497495822000,10.157822021484375,0.03698620709180832,0.009465382155403494,0.014259484564140439
1782987497505896200,10.167896240234375,0.03876782981157303,-0.014921017212793231,0.007058686339855193
1782987497515971000,10.17797119140625,0.07396656896471977,0.01434584767334163,-0.02571366591658443
1782987497526045200,10.188045166015625,-0.1890080756396055,-0.009919628728926181,-0.10061335101295261
1782987497536120000,10.1981201171875,0.3195885122299194,0.04923734750822186,0.022626184762641787
1782987497546194200,10.208194091796875,0.5413982027530669,-0.3881532221511006,0.3090801603602245
1782987497556268000,10.21826806640625,0.003621697628498077,0.17786869585737586,-0.0474452399270609
1782987497566343200,10.22834326171875,-0.4953577515900135,0.046796091835945845,-0.027604411566630006
1782987497576417000,10.2384169921875,0.00699088180065155,0.050659854592010375,-0.07022975705657154
