time,seconds_elapsed,z,y,x
1782987487408789800,0.070789794921875,0.0037358824629336596,0.004781705792993307,-0.0007305050967261195
1782987487418864600,0.08086474609375,0.0017963021527975798,-0.002695651724934578,-0.004206462763249874
1782987487428938800,0.090938720703125,0.0020865867845714092,-0.0019283948931843042,0.0011230550007894635
1782987487439013600,0.101013671875,0.003925233148038387,0.0062549663707613945,0.001865277998149395
1782987487449087700,0.111087646484375,0.001576857641339302,0.005929261911660433,0.0010096043115481734
1782987487459162600,0.12116259765625,0.0005291700945235789,0.001844505313783884,-0.0006258428329601884
1782987487469236700,0.13123681640625,0.001181111903861165,0.005225121974945068,0.003382747294381261
1782987487479311600,0.1413115234375,0.002502838848158717,0.00754899624735117,0.001826395862735808
1782987487489385700,0.1513857421875,0.002695651724934578,0.0032024511601775885,-0.003862382611259818
1782987487499459800,0.1614599609375,0.004763329867273569,-0.0024546354543417692,-0.005708752200007439
1782987487509534700,0.17153466796875,0.0007699198904447258,0.0030242856591939926,0.0012010856298729777
1782987487519608800,0.18160888671875,0.002912432886660099,0.006910103838890791,0.0024048343766480684
1782987487529683700,0.19168359375,-0.0003832288784906268,0.0029198897536844015,-0.0023576964158564806
1782987487539757800,0.2017578125,0.00361683894880116,0.0023904533591121435,-0.0033220271579921246
1782987487549832700,0.211832763671875,0.002615756820887327,0.00013981595111545175,-0.004201935604214668
1782987487559906800,0.22190673828125,0.0027979169972240925,-0.0010133327450603247,-0.0027505126781761646
1782987487569981000,0.23198095703125,0.001151018193922937,0.0006290386663749814,-0.0049132658168673515
1782987487580055800,0.242055908203125,-0.00038935415796004236,0.000892691605258733,-0.004807005636394024
1782987487590129700,0.252129638671875,0.0036847495939582586,0.0021142836194485426,-0.0032599754631519318
1782987487600204500,0.26220458984375,0.0002985403698403388,0.00484295841306448,0.002238120650872588
1782987487610278700,0.272278564453125,0.0007214503129944205,0.010915231890976429,0.0011883024126291275
1782987487620353500,0.282353515625,0.0004601942200679332,0.0018985675415024161,-0.003501524217426777
1782987487630427600,0.292427734375,0.0007853662245906889,0.003421895671635866,-0.003144926857203245
1782987487640502500,0.30250244140625,0.002243979601189494,0.008267783559858799,-0.004054396413266659
1782987487650576600,0.31257666015625,0.0011965582380071282,0.0015070828376337886,-0.003148389048874378
1782987487660651500,0.322651611328125,0.0013875069562345743,-0.0019414444686844945,-0.004090881906449795
1782987487670725600,0.3327255859375,0.0008729841792955995,0.006201436743140221,-0.008281632326543331
1782987487680799500,0.342799560546875,0.0021936458069831133,0.0054757255129516125,-0.0004743089957628399
1782987487690874600,0.35287451171875,-0.002412823960185051,0.004602475091814995,0.006551109720021486
1782987487700948500,0.362948486328125,-0.0036607813090085983,0.0057558901607990265,-0.0013025520602241158
1782987487711023600,0.373023681640625,-0.0011821772204712033,-0.0070275492034852505,-0.004777710884809494
1782987487721097500,0.383097412109375,0.00018029600323643535,-0.000480434246128425,-0.00395799009129405
1782987487731172600,0.393172607421875,0.0020746025256812572,0.007015299052000046,-0.002755040070042014
1782987487741246500,0.40324658203125,0.000003994741746282671,0.003689809702336788,-0.002299106912687421
1782987487751320600,0.413320556640625,0.00024980452144518495,-0.0035033884923905134,-0.0006479470757767558
1782987487761395500,0.4233955078125,0.0007954862085171044,0.0011470235185697675,-0.00036698358599096537
1782987487771469600,0.433469482421875,0.00037284253630787134,0.005711948033422232,0.00501100393012166
1782987487781544400,0.44354443359375,0.0011922972043976188,0.008861934766173363,0.005641906522214413
1782987487791618600,0.45361865234375,0.00017363809456583112,0.0013403689954429865,0.0016325177857652307
1782987487801693400,0.463693359375,0.0008221178431995213,-0.0014271880500018597,-0.0006950850365683436
1782987487811767600,0.473767578125,-0.00001997370782191865,0.004764661658555269,-0.0028445222415030003
1782987487821842400,0.483842529296875,0.0009856359101831913,0.0007036071619950235,-0.0037268276792019606
1782987487831916500,0.49391650390625,0.0007355650886893272,0.0016088156262412667,-0.0024165522772818804
1782987487841991400,0.503991455078125,0.0017249294323846698,0.001645300886593759,-0.001300155185163021
1782987487852065500,0.5140654296875,0.0006761765689589083,0.0030120352748781443,-0.0009622001089155674
1782987487862139400,0.524139404296875,0.0012205267557874322,0.004996356554329395,0.0018010957865044475
1782987487872214500,0.534214599609375,0.001303084660321474,0.004458930809050798,0.00033635724685154855
1782987487882288400,0.544288330078125,-0.0013888385146856308,0.0031944618094712496,-0.0035598473623394966
1782987487892363500,0.554363525390625,-0.0003374225052539259,0.0018005631864070892,-0.001862614881247282
1782987487902437400,0.564437255859375,0.0022711437195539474,0.0011211908422410488,-0.0001560612436151132
1782987487912512500,0.574512451171875,-0.0006418218254111707,0.0046751792542636395,-0.0018519621808081865
1782987487922586400,0.58458642578125,0.000639691308606416,0.000949150591623038,-0.002633333671838045
1782987487932661500,0.59466162109375,0.0014988270122557878,-0.000570981705095619,-0.0026841999497264624
1782987487942735400,0.6047353515625,-0.000026897927455138415,-0.0007086671539582312,-0.0010785802733153105
1782987487952809500,0.6148095703125,0.001743571599945426,0.0032408006954938173,-0.002403236459940672
1782987487962884400,0.62488427734375,0.0011733887949958444,0.00039228363311849535,0.000021837920940015465
1782987487972958500,0.63495849609375,0.0007504787645302713,-0.0001507349224993959,-0.000761664065066725
1782987487983033300,0.645033447265625,-0.0006940197781659663,0.0028663603588938713,0.0009382316493429244
1782987487993107500,0.655107421875,-0.001460477476939559,0.0035603800788521767,0.0002492718631401658
1782987488003182300,0.665182373046875,0.0015169365797191858,0.0023931164760142565,0.0012777847005054355
1782987488013256400,0.67525634765625,0.000496945867780596,0.0006780407857149839,0.0032559807877987623
1782987488023331300,0.685331298828125,0.0010378338629379869,0.002621349412947893,0.0015568839153274894
1782987488033405400,0.695405517578125,0.0021899172570556402,0.0009661948424763978,0.002888997085392475
1782987488043479600,0.7054794921875,0.0010697918478399515,0.0034549187403172255,0.0015070828376337886
1782987488053554400,0.715554443359375,0.002091913018375635,0.0034402713645249605,0.004630970768630505
1782987488063628500,0.725628662109375,0.0026253440883010626,0.0024671524297446012,0.0027238810434937477
1782987488073703400,0.735703369140625,0.0006103964988142252,0.0028687571175396442,0.002027997048571706
1782987488083777500,0.745777587890625,0.0024104269687086344,0.0005669869715347886,0.00436119269579649
1782987488093852400,0.755852294921875,0.002603239845484495,0.0041822283528745174,0.0024413196370005608
1782987488103926500,0.765926513671875,-0.000045273736759554595,0.002936667762696743,-0.0011954930378124118
1782987488114001400,0.77600146484375,0.0007454187725670636,0.0023824640084058046,-0.001065264455974102
1782987488124075500,0.786075439453125,0.0005752427969127893,0.0012836436508223414,0.0007976167253218591
1782987488134149600,0.796149658203125,0.002558765234425664,0.0046906257048249245,0.0020591560751199722
1782987488144224500,0.806224609375,-0.0004439489566721022,0.00509835546836257,0.0038434739690274
1782987488154298600,0.816298583984375,0.0006508765509352088,0.004441619850695133,0.0020101540721952915
1782987488164373500,0.82637353515625,0.001091896090656519,0.001570998691022396,0.002002430846914649
1782987488174447600,0.836447509765625,0.0002402171230642125,0.002082591876387596,0.0024527714122086763
1782987488184522500,0.8465224609375,0.0007736482657492161,0.0002745719102676958,0.00031372037483379245
1782987488194596600,0.8565966796875,0.0005318332696333528,0.001181378262117505,0.00002157160452043172
1782987488204671500,0.86667138671875,-0.00035260253935121,0.0022130869328975677,-0.0008335694437846541
1782987488214745600,0.87674560546875,0.0037388119380921125,0.0023853934835642576,-0.00039547940832562745
1782987488224820700,0.88682080078125,0.0028695559594780207,0.0010570086305961013,-0.003231213428080082
1782987488234894600,0.89689453125,-0.0011054781498387456,0.0005632585380226374,0.00019813918333966285
1782987488244968400,0.906968505859375,0.00012623383372556418,0.0017510283505544066,0.0013041499769315124
1782987488255043600,0.917043701171875,-0.0010050770360976458,0.002272741636261344,-0.0001227717293659225
1782987488265117400,0.927117431640625,-0.0005334311863407493,0.0020008329302072525,-0.0021899172570556402
1782987488275192600,0.937192626953125,0.001398159540258348,0.0028431906830519438,-0.0007890945998951793
1782987488285266400,0.947266357421875,0.001294029993005097,0.002329467097297311,-0.0002002697146963328
1782987488295341600,0.957341552734375,0.00000852211542223813,0.0018602180061861873,-0.0007227819296531379
1782987488305415400,0.96741552734375,-0.0007355650886893272,0.0031582426745444536,-0.00010333064710721374
1782987488315490600,0.977490478515625,-0.0011981561547145247,0.0018487664638087153,-0.00022503710351884365
1782987488325564400,0.987564453125,0.0009464874165132642,-0.0015121428295969963,0.0020413128659129143
1782987488335638500,0.997638427734375,0.002639725338667631,0.0018098842119798064,0.0008633967954665422
1782987488345713400,1.00771337890625,0.002656769473105669,0.002913498319685459,0.002377137541770935
1782987488355787500,1.01778759765625,0.00023568976030219346,0.0017749968683347106,0.003861583536490798
1782987488365862700,1.027862548828125,0.00013315805699676275,0.0013792511308565736,0.009753295220434666
1782987488375936500,1.0379365234375,-0.001892175991088152,-0.0071164988912642,0.03272385895252228
1782987488386011600,1.04801171875,0.003534547286108136,-0.003823500359430909,-0.024389496073126793
1782987488396085500,1.05808544921875,0.00210602767765522,0.012646020390093327,-0.040943704545497894
1782987488406160600,1.06816064453125,-0.0015488944482058287,0.0065164887346327305,0.01281353272497654
1782987488416234500,1.078234375,-0.0018815232906490564,0.015302257612347603,0.03665788099169731
1782987488426308400,1.088308349609375,0.000005592638444795739,0.005137237720191479,-0.007675230037420988
1782987488436383500,1.098383544921875,0.0035228293854743242,-0.028085963800549507,-0.024877119809389114
1782987488446457300,1.108457275390625,0.0031068436801433563,-0.01501303818076849,-0.009165534749627113
1782987488456532500,1.118532470703125,0.0005014732014387846,0.03750689700245857,0.008451541885733604
1782987488466606300,1.1286064453125,0.0007768440991640091,0.01660294458270073,0.010773818008601665
1782987488476681500,1.138681396484375,0.0011534150689840317,-0.019886888563632965,-0.0031108383554965258
1782987488486755600,1.148755615234375,-0.00033422670094296336,-0.009762882255017757,-0.007896272465586662
1782987488496830500,1.15883056640625,0.001770203118212521,0.015260445885360241,0.005619536153972149
1782987488506904600,1.168904541015625,0.0025097629986703396,0.009533317759633064,0.0065527078695595264
1782987488516978400,1.178978515625,0.0015132081462070346,-0.00287461606785655,-0.0028900622855871916
1782987488527053600,1.189053466796875,0.001988049829378724,-0.0038093857001513243,-0.005911685060709715
1782987488537127400,1.19912744140625,0.000029827404432580806,0.006552441511303186,-0.0002956108655780554
1782987488547202600,1.20920263671875,0.0014524880098178983,0.0027047062758356333,0.006044310517609119
1782987488557276400,1.2192763671875,0.0006133259739726782,-0.0013851100811734796,0.00014514227223116904
1782987488567351600,1.2293515625,0.0010455570882186294,-0.00032330775866284966,-0.004373443312942982
1782987488577425400,1.23942529296875,0.0005150553770363331,0.004290618933737278,0.0015787219163030386
1782987488587500500,1.24950048828125,0.003497795667499304,0.006331132724881172,0.004555603489279747
1782987488597574700,1.25957470703125,0.0012072109384462237,0.0025278725661337376,-0.0010543455136939883
1782987488607648500,1.2696484375,0.0024868599139153957,-0.0051537491381168365,-0.0017507621087133884
1782987488617723600,1.2797236328125,0.0013989584986120462,0.004087419714778662,-0.000892425247002393
1782987488627797500,1.289797607421875,0.0011520835105329752,0.005108742043375969,0.004096208140254021
1782987488637872600,1.29987255859375,0.0011142665753141046,0.003127083647996187,0.000467118457891047
1782987488647946500,1.309946533203125,0.0018133464036509395,-0.0015896408585831523,-0.004333229269832373
1782987488658021600,1.320021728515625,0.0016873788554221392,0.0007544735562987626,-0.0044378917664289474
1782987488668095500,1.330095458984375,0.001751827308908105,0.004444549325853586,-0.0014452975010499358
1782987488678170600,1.340170654296875,0.0024141555186361074,0.003555319970473647,-0.0014106763992458582
1782987488688244500,1.350244384765625,0.0021108214277774096,0.0035923379473388195,-0.0023813985753804445
1782987488698318600,1.360318603515625,0.0022186795249581337,0.000928377965465188,0.0013941648649051785
1782987488708393500,1.3703935546875,0.002007490722462535,0.003620567498728633,0.0008862999966368079
1782987488718467800,1.3804677734375,0.0013289173366501927,0.0005483448621816933,-0.0015243934467434883
1782987488728542500,1.39054248046875,0.0015986956423148513,0.0014170679496601224,-0.0025744778104126453
1782987488738616800,1.400616943359375,0.0032519858796149492,0.0029526466969400644,-0.0003323625132907182
1782987488748691500,1.41069140625,0.003296460723504424,0.0006828344776295125,0.0002972087822854519
1782987488758765800,1.420765869140625,0.00313001312315464,0.0028937908355146646,0.002585130510851741
1782987488768840400,1.43084033203125,0.004139351192861795,0.004816060420125723,0.0062459115870296955
1782987488778914800,1.440914794921875,0.0046874298714101315,0.004926315508782864,0.008215053007006645
1782987488788989400,1.450989501953125,0.0018543590558692813,0.007425159215927124,0.01666579581797123
1782987488799063800,1.461063720703125,0.0012418320402503014,0.008786301128566265,0.009380452334880829
1782987488809137700,1.4711376953125,0.0011909656459465623,0.008255799300968647,0.01272698026150465
1782987488819212800,1.481212890625,0.002374740783125162,0.005816876422613859,0.008733570575714111
1782987488829286700,1.49128662109375,0.0010836402652785182,0.0034527883399277925,0.0011851066956296563
1782987488839361800,1.50136181640625,-0.001574194524437189,-0.0006697850185446441,-0.0006522081675939262
1782987488849435600,1.511435546875,0.0016309198690578341,-0.0017603494925424457,-0.008667257614433765
1782987488859510800,1.5215107421875,0.0016535567119717598,-0.005559881217777729,-0.006422479171305895
1782987488869584600,1.531584716796875,0.0006420881254598498,-0.002856240142136812,-0.007216367404907942
1782987488879658800,1.54165869140625,-0.000472977408207953,-0.0009395632077939808,-0.005893042776733637
1782987488889733600,1.551733642578125,-0.0011201255256310105,-0.0012399677652865648,-0.0017241304740309715
1782987488899807700,1.561807861328125,-0.0000876179983606562,-0.00006631271389778703,0.00018242653459310532
1782987488909882600,1.571882568359375,-0.0012769857421517372,0.0036101811565458775,0.0012245214311406016
1782987488919956700,1.581956787109375,-0.0013145363191142678,0.002865028567612171,0.004202201962471008
1782987488930031600,1.592031494140625,0.0005275722360238433,0.003555852686986327,0.0019630161114037037
1782987488940105700,1.602105712890625,0.002086054068058729,0.0001685781026026234,0.0024682176299393177
1782987488950180600,1.6121806640625,0.00032916670897975564,0.005784385837614536,0.004231496714055538
1782987488960254700,1.622254638671875,0.0010636665392667055,0.0017033577896654606,0.0034176346380263567
1782987488970328600,1.63232861328125,0.0011864382540807128,0.001597630325704813,0.0016522251535207033
1782987488980403700,1.64240380859375,0.0017923073610290885,-0.0013148026773706079,0.0008282430935651064
1782987488990477600,1.6524775390625,0.003531085327267647,0.0012277172645553946,-0.0005217132274992764
1782987489000552700,1.662552734375,0.0019736685790121555,0.001350222621113062,0.0027800737880170345
1782987489010626600,1.67262646484375,0.0012082761386409402,0.00583605095744133,-0.0003129214164800942
1782987489020701700,1.68270166015625,0.0002442118711769581,0.002953445538878441,0.002418416552245617
1782987489030775600,1.692775634765625,0.0017528926255181432,0.0035686357878148556,0.0014748586108908057
1782987489040850700,1.7028505859375,0.0016684704460203648,0.0048980857245624065,0.005258411634713411
1782987489050924500,1.712924560546875,0.0008969526388682425,0.0028573055751621723,0.0029736857395619154
1782987489060999700,1.722999755859375,0.00105301383882761,0.004276770167052746,-0.0006767092272639275
1782987489071073500,1.733073486328125,0.0026138925459235907,0.0017787253018468618,-0.000681236619129777
1782987489081147600,1.743147705078125,0.0010668623726814985,0.001826662220992148,-0.0009214537567459047
1782987489091222500,1.753222412109375,0.0011001517996191978,0.0018575548892840743,0.0015249260468408465
1782987489101296600,1.763296630859375,-0.000005592638444795739,0.0017299894243478775,-0.001532116555608809
1782987489111371500,1.77337158203125,0.0006519418093375862,0.0041244374588131905,0.003055178327485919
1782987489121445600,1.783445556640625,0.001517469179816544,0.003975034225732088,-0.00037151097785681486
1782987489131520500,1.7935205078125,0.00004447478931979276,0.0022298647090792656,0.0024346618447452784
1782987489141594600,1.8035947265625,0.0004996090428903699,0.0038088529836386442,0.0019955066964030266
1782987489151669500,1.81366943359375,0.0006274407496675849,0.005763346794992685,0.001341700553894043
1782987489161743600,1.82374365234375,0.002171807922422886,0.002600044244900346,0.0015214639715850353
1782987489171817500,1.8338173828125,0.0009606021922081709,0.00017337177996523678,0.000556600687559694
1782987489181892600,1.843892578125,-0.0024144218768924475,0.003064765827730298,0.0018285263795405626
1782987489191966500,1.853966552734375,0.0010069411946460605,-0.0007446198142133653,0.000547279603779316
1782987489202041600,1.86404150390625,-0.00041252365917898715,0.0026522420812398195,0.00370099488645792
1782987489212115500,1.874115478515625,0.002930808812379837,0.0010998855577781796,0.0036858150269836187
1782987489222190600,1.884190673828125,0.0015044197207316756,0.00012783173588104546,0.0007185208378359675
1782987489232264400,1.894264404296875,-0.0003408846096135676,-0.0015670040156692266,0.0017965685110539198
1782987489242338600,1.904338623046875,0.0002103897277265787,0.0030394657514989376,0.005826730281114578
1782987489252413400,1.914413330078125,0.0012977584265172482,0.00017017599020618945,0.006946589332073927
1782987489262487600,1.924487548828125,0.000316916179144755,0.003176884725689888,0.005973736755549908
1782987489272562400,1.9345625,-0.0005004079430364072,0.0023545008152723312,0.00415319949388504
1782987489282636500,1.944636474609375,0.00010466222738614306,0.002549710450693965,0.004789961501955986
1782987489292711700,1.954711669921875,0.0024564997293055058,-0.0016844493802636862,0.0017350494163110852
1782987489302785500,1.96478564453125,0.00043595946044661105,0.0016767261549830437,-0.0009265137487091124
1782987489312860700,1.974860595703125,0.0013859090395271778,0.00011611382069531828,0.00446878420189023
1782987489322934500,1.9849345703125,0.0017638115677982569,0.0025992451701313257,0.002666090615093708
1782987489333008600,1.995008544921875,0.00123783724848181,0.003707120195031166,-0.001967543503269553
1782987489343083500,2.00508349609375,0.0009627327090129256,0.0015483618481084704,0.0014735270524397492
1782987489353157600,2.01515771484375,0.0005571332876570523,0.0005456816870719194,0.0010671286145225167
1782987489363232500,2.025232421875,0.0022301310673356056,0.003430684097111225,0.0005701828049495816
1782987489373306600,2.035306640625,0.001163002452813089,0.005364405456930399,0.00458649592474103
1782987489383381500,2.045381591796875,-0.00044847631943412125,0.005404619034379721,0.003197657410055399
1782987489393455600,2.05545556640625,0.001662877737544477,0.002838397165760398,-0.0004996090428903699
1782987489403530500,2.065530517578125,0.0008141283178701997,0.003739078063517809,0.0016639430541545153
1782987489413604900,2.07560498046875,0.0005004079430364072,0.0005725796218030155,0.002027997048571706
1782987489423678700,2.0856787109375,-0.00041731735109351575,0.0026911243330687284,-0.002463690238073468
1782987489433753900,2.09575390625,0.0028415927663445473,0.00018189390539191663,-0.0017265273490920663
1782987489443827700,2.10582763671875,0.0019049590919166803,-0.001588575541973114,-0.0014093448407948017
1782987489453902800,2.11590283203125,0.001300155185163021,-0.002435727044939995,-0.002011219272390008
1782987489463976700,2.125976806640625,0.0006615291931666434,-0.0012101404136046767,-0.0033015208318829536
1782987489474051800,2.1360517578125,0.0009693906176835299,0.0005763080553151667,0.00013688647595699877
1782987489484125700,2.146125732421875,0.0009129316313192248,0.004004062619060278,-0.0027204190846532583
1782987489494200800,2.156200927734375,0.0006412891671061516,0.003340669209137559,0.00039228363311849535
1782987489504274700,2.166274658203125,0.002615756820887327,0.00034700988908298314,0.0011883024126291275
1782987489514348500,2.1763486328125,0.00040080572944134474,0.003043194068595767,-0.002644518855959177
1782987489524423700,2.186423583984375,-0.0002511360798962414,0.005850432440638542,-0.00001304948909819359
1782987489534497800,2.196497802734375,-0.00036218989407643676,0.002121474128216505,0.000008788431841821875
1782987489544572700,2.20657275390625,0.0007155913626775146,0.002313754288479686,-0.0006194512825459242
1782987489554646800,2.216646728515625,0.0017350494163110852,0.0010748518398031592,-0.000910268456209451
1782987489564721700,2.2267216796875,0.0011046791914850473,0.0020567593164741993,-0.001936650718562305
1782987489574795800,2.236795654296875,-0.0008463526028208435,0.0018932411912828684,-0.003023220458999276
1782987489584870700,2.24687060546875,-0.00017710021347738802,0.0014937670202925801,-0.002924150787293911
1782987489594944800,2.25694482421875,0.0011289139511063695,0.0015662050573155284,-0.005195028148591518
1782987489605019000,2.267018798828125,0.00010998855577781796,0.003713245503604412,-0.003229881636798382
1782987489615093800,2.27709375,0.0002854908525478095,0.0006034722900949419,-0.0014676681021228433
1782987489625168000,2.28716796875,0.0025742114521563053,0.0012737899087369442,-0.0025515747256577015
1782987489635242800,2.29724267578125,0.0008143946761265397,-0.0003962783666793257,-0.0025246767327189445
1782987489645316900,2.30731689453125,0.0007856325246393681,0.001347825862467289,-0.0023550332989543676
1782987489655391700,2.317391845703125,-0.00010253170330543071,0.00035206988104619086,-0.00072597770486027
1782987489665465900,2.3274658203125,0.0007004113867878914,-0.0003403519804123789,-0.0026549051981419325
1782987489675540700,2.337540771484375,-0.0004767058417201042,0.0035350800026208162,-0.0028996497858315706
1782987489685614800,2.34761474609375,-0.00008868326403899118,0.004039749037474394,-0.00009906959166983142
1782987489695688700,2.357688720703125,0.0011590076610445976,0.001600559800863266,-0.000553404854144901
1782987489705763800,2.367763916015625,-0.0005390237784013152,0.0016652746126055717,-0.0013901700731366873
1782987489715837700,2.377837646484375,-0.00018562232435215265,0.003338272450491786,0.0010434264549985528
1782987489725912800,2.387912841796875,-0.00025246766745112836,0.006441387813538313,-0.002746784361079335
1782987489735986700,2.397986572265625,0.002296177437528968,0.0022122878581285477,0.00012144014181103557
1782987489746061800,2.408061767578125,0.0009326389990746975,0.004022971261292696,-0.0018170748371630907
1782987489756135700,2.4181357421875,0.0004450142150744796,0.0037822213489562273,-0.0023614249657839537
1782987489766210800,2.4282109375,0.002630137838423252,0.002284992253407836,-0.0004620584368240088
1782987489776284700,2.43828466796875,-0.0018852517241612077,0.004160390235483646,-0.0014953649369999766
1782987489786358800,2.44835888671875,0.0005587312043644488,0.000731836655177176,-0.001181378262117505
1782987489796433700,2.45843359375,0.0005502090789377689,0.0024381240364164114,-0.00023169501218944788
1782987489806507800,2.4685078125,0.00185063062235713,0.002591255819424987,-0.0005874933558516204
1782987489816582700,2.478582763671875,0.0015472965314984322,0.004640558268874884,-0.0014258564915508032
1782987489826656800,2.48865673828125,0.002133192028850317,0.0023209447972476482,-0.0013169331941753626
1782987489836731600,2.498731689453125,0.0015763250412419438,0.0007416903390549123,-0.0024546354543417692
1782987489846805800,2.5088056640625,-0.0005795038305222988,0.0010764497565105557,-0.0015046859625726938
1782987489856879600,2.518879638671875,0.0019864519126713276,0.001784850494004786,0.00019494339358061552
1782987489866954800,2.528954833984375,0.0008807073463685811,0.0024839304387569427,-0.001517735538072884
1782987489877028600,2.539028564453125,0.0008199872681871057,0.001927862293086946,0.002951581496745348
1782987489887103700,2.549103759765625,-0.0000428768944402691,0.0019891150295734406,0.00018216021999251097
1782987489897177600,2.559177490234375,0.002162753138691187,0.0020213392563164234,-0.0011118697002530098
1782987489907252700,2.569252685546875,-0.0003552656853571534,0.0013630058383569121,-0.0004593952908180654
1782987489917326600,2.57932666015625,0.0015662050573155284,0.002183792181313038,0.0017145430902019143
1782987489927401700,2.589401611328125,0.0019449065439403057,0.0011382350930944085,-0.0013616742799058557
1782987489937475600,2.5994755859375,0.0001270327775273472,0.0021113541442900896,-0.0009518137667328119
1782987489947549700,2.6095498046875,0.0004564658156596124,0.001797101111151278,-0.00001651159800530877
1782987489957624600,2.61962451171875,0.0001968075957847759,0.0029585056472569704,-0.00216568261384964
1782987489967698700,2.62969873046875,-0.0013057478936389089,0.0035803536884486675,-0.0002948119363281876
1782987489977773600,2.639773681640625,0.002223206916823983,0.004450674634426832,-0.00034408041392453015
1782987489987847700,2.64984765625,0.0016522251535207033,0.00155288923997432,0.0013454289874061942
1782987489997922600,2.659922607421875,0.0010341054294258356,0.0008285093936137855,-0.0013187973527237773
1782987490007996700,2.66999658203125,0.0015568839153274894,0.0022069616243243217,-0.0008287757518701255
1782987490018071600,2.680071533203125,0.004584099166095257,-0.0003733751946128905,-0.000264718197286129
1782987490028145700,2.690145751953125,-0.0015337144723162055,0.004010720644146204,0.0007488809060305357
1782987490038219800,2.7002197265625,0.0017994979862123728,0.003025617217645049,-0.000559263804461807
1782987490048294700,2.710294677734375,0.00002609897819638718,-0.0024778051301836967,-0.001353684812784195
1782987490058368800,2.72036865234375,0.0005318332696333528,0.0026935210917145014,-0.0022029669489711523
1782987490068443600,2.730443603515625,0.00018988338706549257,0.0019092201255261898,-0.0004673847579397261
1782987490078517800,2.740517822265625,-0.0015006912872195244,0.0031814121175557375,0.00014274542627390474
1782987490088592600,2.750592529296875,-0.00039068571641109884,0.003981425892561674,-0.0007065366371534765
1782987490098666800,2.760666748046875,-0.0004878911131527275,0.0007161240209825337,-0.0021614215802401304
1782987490108742000,2.770741943359375,0.002424808219075203,0.0010050770360976458,0.00005512743518920615
1782987490118815700,2.780815673828125,-0.0006386260502040386,0.0015939018921926618,0.000011984225238848012
1782987490128889900,2.790889892578125,-0.0011315771844238043,0.0010969560826197267,0.00024740767548792064
1782987490138964700,2.80096484375,0.0002724413643591106,0.0027198863681405783,0.00029401297797448933
1782987490149038800,2.811038818359375,-0.00010918960470007733,0.0006042712484486401,0.0020418455824255943
1782987490159113700,2.82111376953125,-0.0004950816510245204,0.0036796897184103727,0.00036964676110073924
1782987490169187800,2.831187744140625,0.0007323693134821951,0.0017116136150434613,0.0024567660875618458
1782987490179262700,2.8412626953125,0.0024410535115748644,-0.0015872439835220575,-0.001853560097515583
1782987490189336800,2.8513369140625,-0.00008628641808172688,0.0017907095607370138,-0.0036962011363357306
1782987490199410700,2.86141064453125,-0.00043010051012970507,0.0027984497137367725,0.00009640643111197278
1782987490209485800,2.87148583984375,0.0036421390250325203,0.0019180085510015488,0.00044368262751959264
1782987490219559700,2.8815595703125,0.0043926178477704525,0.0015070828376337886,0.00009347695595351979
1782987490229634800,2.891634765625,0.0005376922199502587,0.0032290827948600054,0.001118793967179954
1782987490239708700,2.901708740234375,0.0008274441352114081,0.0041497377678751945,0.003620034782215953
1782987490249783800,2.91178369140625,0.0016945693641901016,0.0037760960403829813,0.0009289105655625463
1782987490259857700,2.921857666015625,0.0009800433181226254,0.0037968687247484922,0.0036421390250325203
1782987490269932800,2.931932861328125,0.00043809000635519624,0.004631503485143185,0.002225070958957076
1782987490280006700,2.942006591796875,0.003425357863306999,0.002681004349142313,-0.0000601874417043291
1782987490290080800,2.952080810546875,0.0015624766238033772,0.00341550400480628,0.001136637176387012
1782987490300155600,2.96215576171875,0.004760933108627796,0.002159290947020054,0.0013544837711378932
1782987490310229800,2.972229736328125,0.0005555353709496558,0.0016924388473853469,0.00301762786693871
1782987490320304600,2.9823046875,0.003715642262250185,0.0005145227187313139,0.0018887137994170189
1782987490330378800,2.992378662109375,0.0018303906545042992,0.0022775353863835335,0.0021057615522295237
1782987490340454000,3.002453857421875,0.003710316028445959,0.004744421225041151,0.005514075048267841
1782987490350527700,3.01252783203125,0.0025569009594619274,0.005812082905322313,0.004363323096185923
1782987490360603000,3.022602783203125,0.0016269250772893429,0.004232029430568218,0.00455666845664382
1782987490370676700,3.0326767578125,-0.00025300029665231705,0.003459978848695755,0.002939064521342516
1782987490380750600,3.04275048828125,0.0016330503858625889,0.005047755315899849,0.005780390929430723
1782987490390825700,3.05282568359375,0.0008932242053560913,0.0041033984161913395,0.002430667169392109
1782987490400899600,3.062899658203125,0.0020687435753643513,0.002320678671821952,0.0013148026773706079
1782987490410974700,3.072974609375,0.002424009144306183,0.003698864486068487,-0.00032863407977856696
1782987490421048600,3.083048583984375,0.0006969492533244193,0.0034434671979397535,-0.000987500068731606
1782987490431123700,3.093123779296875,0.0014136058744043112,0.0035212314687669277,-0.0003406183095648885
1782987490441197600,3.103197509765625,-0.0007379619055427611,0.00567013630643487,0.0007877630414441228
1782987490451271700,3.113271728515625,0.00155288923997432,0.0029017801862210035,0.00027616979787126184
1782987490461346600,3.1233466796875,0.001371794263832271,0.0002873550693038851,0.00017843178648035973
1782987490471420700,3.133420654296875,-0.00044847631943412125,-0.00027563716867007315,0.000018109494703821838
1782987490481495800,3.143495849609375,-0.00007057376933516935,0.0005403553950600326,-0.0012072109384462237
1782987490491569700,3.153569580078125,-0.0000828243064461276,0.00035739620216190815,-0.0020514330826699734
1782987490501644800,3.163644775390625,-0.0012221246724948287,0.0022945795208215714,-0.0016711335629224777
1782987490511718700,3.17371875,0.0005781722720712423,0.0011675298446789384,-0.0036597158759832382
1782987490521793800,3.183793701171875,0.0006980145117267966,0.0010484865633770823,0.0010130665032193065
1782987490531867600,3.19386767578125,0.00013608753215521574,-0.0001030643325066194,-0.003055444685742259
1782987490541941800,3.203941650390625,0.0008998821140266955,-0.0001906823308672756,-0.0029001825023442507
1782987490552016600,3.2140166015625,0.0022298647090792656,0.0009209210984408855,-0.0034349451307207346
1782987490562090800,3.2240908203125,-0.00010652644414221868,0.003820837242528796,-0.000559263804461807
1782987490572165600,3.23416552734375,0.00013182646944187582,0.003044259501621127,0.0006823018775321543
1782987490582239700,3.24423974609375,0.00014753911818843335,0.0016050871927291155,-0.0002793656021822244
1782987490592314400,3.254314453125,0.0023379891645163298,0.003519367426633835,-0.0010133327450603247
1782987490602388500,3.264388427734375,0.0009536779834888875,0.004471713677048683,0.0019409117521718144
1782987490612463400,3.27446337890625,-0.0012013519881293178,0.004313522018492222,-0.0007651261985301971
1782987490622537500,3.284537353515625,-0.001496430253610015,0.0029031119775027037,0.002025866648182273
1782987490632611600,3.294611572265625,-0.0011773834703490138,0.002156095113605261,0.0006242449744604528
1782987490642686500,3.3046865234375,0.0008929579053074121,0.00037976677413098514,-0.00048602689639665186
1782987490652760600,3.314760498046875,0.001252750982530415,0.0024889903143048286,0.0011749867117032409
1782987490662835500,3.32483544921875,0.001199221471324563,0.0044317664578557014,-0.0008591357618570328
1782987490672909600,3.33490966796875,-0.0003784351865760982,0.002865294925868511,0.0007025419035926461
1782987490682984400,3.344984375,0.0007278419216163456,0.004226170480251312,0.0027233485598117113
1782987490693058600,3.35505859375,0.0010817759903147817,0.005691708065569401,0.004072772338986397
1782987490703133400,3.365133544921875,0.0013651363551616669,0.0033513219095766544,-0.00013395700079854578
1782987490713207600,3.37520751953125,0.0012540825409814715,0.0041638524271547794,-0.0014897723449394107
1782987490723281400,3.385281494140625,0.0034850125666707754,0.004006459377706051,0.0017073525814339519
1782987490733356500,3.3953564453125,-0.0005217132274992764,0.003049053018912673,-0.00003222424857085571
1782987490743430400,3.405430419921875,0.0013110742438584566,0.002814162289723754,0.0006303702248260379
1782987490753505500,3.415505615234375,-0.0008767126128077507,0.004080761689692736,-0.0004743089957628399
1782987490763579400,3.425579345703125,0.0009217200567945838,0.001419198582880199,0.0014101437991485
1782987490773654500,3.435654541015625,0.0015512913232669234,0.004584099166095257,-0.0032519858796149492
1782987490783728400,3.445728271484375,0.003385144053027034,0.0016588830621913075,-0.0022796657867729664
1782987490793802500,3.455802490234375,0.0054395063780248165,0.002311623888090253,-0.0027896612882614136
1782987490803877400,3.46587744140625,0.0012431635987013578,0.0024200144689530134,-0.00007882956560933962
1782987490813951500,3.475951416015625,-0.0004247741890139878,0.0036490634083747864,-0.002167813014239073
1782987490824026400,3.4860263671875,0.0006884271278977394,0.0033787523861974478,0.00038242992013692856
1782987490834100500,3.4961005859375,0.0004689826746471226,0.0018666095566004515,-0.0017773937433958054
1782987490844175400,3.50617529296875,0.004581968765705824,0.004501008428633213,-0.0022831279784440994
1782987490854249500,3.51624951171875,-0.0003936151915695518,0.0025513083674013615,0.0007129282457754016
1782987490864324600,3.52632470703125,0.0005310343112796545,0.003236539661884308,0.0024346618447452784
1782987490874398500,3.5363984375,0.0015867113834246993,0.0016951019642874599,-0.001234641415067017
1782987490884472300,3.546472412109375,0.003931891173124313,0.0026437200140208006,-0.0022807312197983265
1782987490894547500,3.55654736328125,0.0034349451307207346,0.004533499013632536,0.00025592977181077003
1782987490904621300,3.566621337890625,0.001930791768245399,0.003599262097850442,0.0020008329302072525
1782987490914696400,3.576696533203125,0.0017480988753959537,0.0037910097744315863,-0.0014170679496601224
1782987490924770300,3.586770263671875,0.0029726203065365553,0.0015403723809868097,-0.003212837502360344
1782987490934845400,3.596845458984375,0.003102316288277507,0.002115082461386919,-0.0012567456578835845
1782987490944919300,3.606919189453125,0.002401106059551239,0.004740959499031305,0.0008556736283935606
1782987490954994400,3.616994384765625,0.0023723437916487455,0.006171077024191618,-0.0014333132421597838
1782987490965068300,3.627068359375,0.0014807175612077117,0.0010538127971813083,0.0014405038673430681
1782987490975142400,3.637142333984375,0.002478603972122073,0.0024506407789885998,-0.0026383937802165747
1782987490985217500,3.647217529296875,0.0006474144756793976,0.004258394706994295,0.00041545313433744013
1782987490995291400,3.65729150390625,0.0009187905816361308,0.003457582090049982,-0.002928145695477724
1782987491005366500,3.667366455078125,0.003719370812177658,0.004433630499988794,0.0005171858938410878
1782987491015440400,3.6774404296875,0.0001752359967213124,0.003319630166515708,-0.00043755737715400755
1782987491025515500,3.687515625,0.0007352987886406481,0.001579787116497755,0.0022650184109807014
1782987491035589400,3.69758935546875,0.0017771273851394653,0.002743588527664542,0.0005358280031941831
1782987491045663200,3.707663330078125,-0.00037497308221645653,0.0037875475827604532,0.0020727382507175207
1782987491055738400,3.71773828125,0.0004966795677319169,0.0033987262286245823,0.0012996225850656629
1782987491065812200,3.727812255859375,0.0006482133758254349,0.004855209030210972,0.00018642126815393567
1782987491075887400,3.737887451171875,-0.001243696198798716,0.003786748740822077,0.0023039006628096104
1782987491085961200,3.747961181640625,0.003058107802644372,0.0017419736832380295,0.0032205607276409864
1782987491096036400,3.758036376953125,-0.00024820660473778844,0.0033595776185393333,-0.002269812161102891
1782987491106110200,3.768110107421875,0.0012628709664568305,0.00187992537394166,-0.0026961842086166143
1782987491116185300,3.778185302734375,0.0007792409160174429,0.003704457078129053,-0.0005038700764998794
1782987491126259500,3.788259521484375,0.00023435817274730653,0.0055063520558178425,0.00034408041392453015
1782987491136333600,3.79833349609375,0.00177952426020056,0.0018002968281507492,-0.00221947836689651
1782987491146408400,3.808408447265625,0.0005395564367063344,0.0016450346447527409,-0.000624777574557811
1782987491156482600,3.818482666015625,-0.00079735042527318,0.0017891116440296173,0.0006809702608734369
1782987491166557400,3.828557373046875,0.0011464908020570874,0.0011310444679111242,-0.00316037330776453
1782987491176631600,3.838631591796875,0.0029640982393175364,0.0019891150295734406,-0.0012607404496520758
1782987491186706400,3.84870654296875,0.00029534456552937627,0.0009422263829037547,-0.0018628811230883002
1782987491196780500,3.858780517578125,0.001966744428500533,0.0037968687247484922,-0.0015299860388040543
1782987491206854400,3.8688544921875,-0.0007432882557623088,0.002380333375185728,-0.0007337008719332516
1782987491216929500,3.878929443359375,-0.0010194580536335707,0.0007217166712507606,-0.004019242711365223
1782987491227003400,3.88900341796875,0.0007265103631652892,0.00210629403591156,-0.0027089675422757864
1782987491237078500,3.89907861328125,0.0009829727932810783,0.002177933230996132,-0.001529453438706696
1782987491247152600,3.909152587890625,0.0011371697764843702,0.0007342335302382708,-0.002418949268758297
1782987491257227500,3.9192275390625,0.0005968143814243376,0.0008876316132955253,-0.0023305322974920273
1782987491267301600,3.929301513671875,0.00010839065362233669,0.0018943065078929067,0.0011310444679111242
1782987491277376500,3.93937646484375,0.00216568261384964,0.003081277245655656,0.0018868496408686042
1782987491287450600,3.94945068359375,0.0009901633020490408,0.0024343954864889383,-0.000758734589908272
1782987491297524500,3.9595244140625,0.0011121360585093498,0.0022181468084454536,0.0019867182709276676
1782987491307599600,3.969599609375,0.0007275756215676665,0.00002370213405811228,-0.003183010034263134
1782987491317673500,3.979673583984375,-0.0004982774262316525,0.0027031085919588804,0.0014346449170261621
1782987491327748600,3.98974853515625,0.00173744629137218,0.002454369328916073,0.00014620754518546164
1782987491337822500,3.999822509765625,0.001208009896799922,0.0016596820205450058,0.00032863407977856696
1782987491347897600,4.009897705078125,0.00044368262751959264,0.004357996862381697,-0.002516420790925622
1782987491357971500,4.019971435546875,-0.0005736448802053928,0.0006881608278490603,-0.00017417073831893504
1782987491368045600,4.030045654296875,0.0011917646043002605,0.004319913685321808,0.0015313175972551107
1782987491378120400,4.040120361328125,0.001386175281368196,0.0029854036401957273,0.00023861923546064645
1782987491388194600,4.050194580078125,0.003560912562534213,0.0010929612908512354,-0.0003842941368930042
1782987491398269400,4.06026953125,0.0035273567773401737,0.00030599720776081085,-0.0003632551815826446
1782987491408343600,4.070343505859375,0.0022596921771764755,0.004721784498542547,0.00033449303009547293
1782987491418418400,4.08041845703125,0.0032855418976396322,0.004168645944446325,0.0013233247445896268
1782987491428492500,4.090492431640625,-0.0014535533264279366,0.0007310376968234777,0.002100435085594654
1782987491438567400,4.1005673828125,0.0031822111923247576,0.0020458402577787638,0.005299690645188093
1782987491448641500,4.1106416015625,0.0003968109958805144,0.0019835224375128746,-0.000404534162953496
1782987491458715400,4.12071533203125,0.0006026733317412436,0.003442401997745037,-0.0014703312190249562
1782987491468790500,4.13079052734375,0.0012713931500911713,0.00033182985498569906,-0.0022000374738126993
1782987491478864400,4.140864501953125,0.0035896748304367065,0.0020120181143283844,0.000254331884207204
1782987491488939500,4.150939453125,0.0016375777777284384,0.0024322650860995054,0.0004138552176300436
1782987491499013400,4.161013427734375,-0.00005299690383253619,0.003319630166515708,-0.0003653856983873993
1782987491509088500,4.171088623046875,-0.003680488560348749,0.0020061591640114784,-0.0004977448261342943
1782987491519162400,4.181162353515625,0.0016418388113379478,0.00009108010999625549,-0.000651675509288907
1782987491529237500,4.191237548828125,0.000011185276889591478,0.001859152689576149,-0.0012322446564212441
1782987491539311400,4.201311279296875,-0.0006359628750942647,0.0007089334540069103,0.00261788722127676
1782987491549385500,4.211385498046875,0.0021797972731292248,0.0044320328161120415,0.0007949535502120852
1782987491559460400,4.22146044921875,-0.00007190534961409867,0.0010016148444265127,0.001961151836439967
1782987491569534500,4.231534423828125,-0.0025182850658893585,0.0006562029011547565,0.0002031991898547858
1782987491579609300,4.241609375,-0.0010791128734126687,0.001543834456242621,0.0010863033821806312
1782987491589683500,4.251683349609375,0.0010048106778413057,0.003944674041122198,-0.0018546254141256213
1782987491599758300,4.26175830078125,0.0016016251174733043,0.0006953513366170228,0.0008367652189917862
1782987491609832400,4.27183251953125,0.0033686324022710323,-0.000483363721286878,-0.0004753742541652173
1782987491619906300,4.28190625,0.0024644893128424883,0.0016168050933629274,0.0015600797487422824
1782987491629981400,4.2919814453125,0.0009933591354638338,0.0022024342324584723,-0.0001776328426785767
1782987491640055300,4.30205517578125,-0.00010599380766507238,0.0033840788528323174,-0.0002031991898547858
1782987491650130400,4.31213037109375,-0.0001704423048067838,0.0016056197928264737,0.00333134806714952
1782987491660204300,4.322204345703125,0.001621066126972437,0.002115881536155939,0.0021939121652394533
1782987491670279400,4.332279541015625,0.0023840616922825575,0.0023076289799064398,0.001347559504210949
1782987491680353300,4.342353271484375,0.0024322650860995054,0.0020327907986938953,0.00013448962999973446
1782987491690428400,4.352428466796875,0.0023909860756248236,0.0009052084642462432,-0.00044022052315995097
1782987491700502300,4.362502197265625,0.0015036207623779774,0.0016812535468488932,0.004718588665127754
1782987491710576600,4.37257666015625,-0.00045806370326317847,0.0032320122700184584,0.001347293145954609
1782987491720651300,4.3826513671875,0.0018618159228935838,0.0015872439835220575,0.0010215885704383254
1782987491730725600,4.3927255859375,0.002936934120953083,0.0018271948210895061,0.0021260015200823545
1782987491740800300,4.40280029296875,0.000716922979336232,0.0013078784104436636,0.0009443568997085094
1782987491750874600,4.41287451171875,0.00044474788592197,0.0034109766129404306,-0.001466336427256465
1782987491760949500,4.422949462890625,0.00008335694292327389,0.0018210695125162601,0.0008559399866499007
1782987491771023600,4.433023681640625,0.002266616327688098,0.003501790575683117,0.002472745021805167
1782987491781097500,4.443097412109375,-0.00035979304811917245,0.0059897154569625854,0.004732171073555946
1782987491791172600,4.453172607421875,0.0006293049664236605,0.0014508900931105018,0.0035952674224972725
1782987491801246500,4.46324658203125,0.0017425062833353877,-0.0009110674145631492,0.00037284253630787134
1782987491811321600,4.473321533203125,0.0024762072134763002,0.0013659353135153651,-0.00005379585491027683
1782987491821395500,4.4833955078125,0.00152332813013345,0.005736448802053928,0.00020719393796753138
1782987491831470600,4.493470703125,0.0016458334866911173,0.001651426195167005,0.0022306637838482857
1782987491841544400,4.50354443359375,0.0020423782989382744,0.0011121360585093498,-0.0008125304593704641
1782987491851619600,4.51361962890625,0.0009363674325868487,-0.0008277104352600873,-0.0010005496442317963
1782987491861693400,4.523693359375,0.001249821507371962,0.003910852130502462,0.0012397015234455466
1782987491871767600,4.533767578125,0.004537227563560009,0.0019033611752092838,0.0036514601670205593
1782987491881842700,4.5438427734375,0.0016857809387147427,0.002472745021805167,0.0014865765115246177
1782987491891916500,4.55391650390625,0.000532632227987051,-0.000743554555810988,0.002667954657226801
1782987491901991700,4.56399169921875,0.00026258768048137426,-0.0002854908525478095,-0.0006117281154729426
1782987491912065500,4.5740654296875,0.001383778522722423,0.0006492786924354732,-0.0009483516332693398
1782987491922140700,4.584140625,0.0006487460341304541,0.0041460092179477215,0.0027225494850426912
1782987491932214500,4.594214599609375,0.003317233407869935,-0.001695900922641158,-0.0019313243683427572
1782987491942288400,4.604288330078125,0.0023092268966138363,0.002113218419253826,-0.00044607947347685695
1782987491952363500,4.614363525390625,0.002014415105804801,0.00119602563790977,-0.00001864212754298933
1782987491962437400,4.624437255859375,0.0019984361715614796,0.0005531385540962219,0.002365153282880783
1782987491972512500,4.634512451171875,0.0019108180422335863,0.0010953581659123302,0.0027055053506046534
1782987491982586400,4.64458642578125,0.0008823052630759776,0.0025129588320851326,-0.00023622238950338215
1782987491992661500,4.65466162109375,0.0002641855680849403,0.004473311826586723,-0.0014375743921846151
1782987492002735400,4.6647353515625,0.0018181400373578072,0.00033662354690022767,0.0005768407136201859
1782987492012810500,4.674810546875,0.0001525991247035563,0.004737497307360172,0.0008466189028695226
1782987492022884600,4.684884521484375,0.001228516222909093,0.0027419906109571457,-0.0012522183824330568
1782987492032958500,4.69495849609375,0.001383512164466083,0.0017534252256155014,0.0015515576815232635
1782987492043033600,4.70503369140625,0.0014325142838060856,0.0021022993605583906,0.0006143912323750556
1782987492053107500,4.715107421875,0.0008290420519188046,0.0013254552613943815,0.0008383630774915218
1782987492063182600,4.7251826171875,0.002350239548832178,0.0012112056137993932,0.0021283982787281275
1782987492073256400,4.73525634765625,-0.00046152580762282014,0.003067961661145091,0.002439721953123808
1782987492083331600,4.74533154296875,0.0011046791914850473,0.0034527883399277925,0.002433063928037882
1782987492093405400,4.755405517578125,0.0008729841792955995,0.002356098499149084,0.00008362325752386823
1782987492103479300,4.765479248046875,0.0041100564412772655,0.005541505757719278,0.0032562471460551023
1782987492113554400,4.775554443359375,0.0019883159548044205,0.005486111622303724,0.0013680658303201199
1782987492123628300,4.785628173828125,0.0009033442474901676,0.004516987595707178,0.0008625978953205049
1782987492133703400,4.795703369140625,0.002674879040569067,0.0035340148024260998,0.00029401297797448933
1782987492143777500,4.805777587890625,-0.00030599720776081085,0.0013070794520899653,0.002280997345224023
1782987492153852400,4.815852294921875,0.0023395870812237263,0.004584631882607937,0.0015126754296943545
1782987492163926500,4.825926513671875,0.001654355670325458,0.004883171990513802,-0.0021169467363506556
1782987492174001400,4.83600146484375,0.0017981663113459945,0.0023880566004663706,-0.0034525219816714525
1782987492184075500,4.846075439453125,-0.0003683151735458523,0.001981658162549138,-0.0013888385146856308
1782987492194149400,4.8561494140625,0.0003605920064728707,0.0006466155173256993,-0.0007978830835781991
1782987492204224500,4.866224609375,-0.0006375607335940003,0.001008272753097117,-0.0002580603177193552
1782987492214298400,4.87629833984375,0.0007568703731521964,0.0012333098566159606,-0.0006996124284341931
1782987492224373500,4.88637353515625,0.0009893643436953425,0.00016484966909047216,-0.002124936319887638
1782987492234447400,4.896447265625,-0.00019121496006846428,0.004068244714289904,0.00042557314736768603
1782987492244522500,4.9065224609375,0.0014897723449394107,0.0015736619243398309,0.0012093414552509785
1782987492254596400,4.916596435546875,0.0004846953088417649,0.0001597896625753492,-0.0031521173659712076
1782987492264670700,4.926670654296875,0.0005510080372914672,0.0015662050573155284,0.0010034791193902493
1782987492274745300,4.936745361328125,0.0007214503129944205,-0.000031691615731688216,-0.0025041704066097736
1782987492284819700,4.94681982421875,0.001541171339340508,0.004801679402589798,-0.000009853695701167453
1782987492294894300,4.956894287109375,0.0025358619168400764,0.0028519791085273027,-0.001657551503740251
1782987492304968700,4.96696875,-0.0003837615076918155,0.0019829897210001945,-0.0011385013349354267
1782987492315043300,4.977043212890625,-0.00024394555657636374,0.0024943165481090546,-0.0046845003962516785
1782987492325117700,4.98711767578125,-0.000544350128620863,0.0007917577750049531,-0.004097007215023041
1782987492335192300,4.9971923828125,0.001427720650099218,0.004043477587401867,-0.0030085730832070112
1782987492345266700,5.0072666015625,0.0025100293569266796,0.0018314558546990156,0.0008663262706249952
1782987492355340500,5.017340576171875,0.0022245384752750397,0.0008034756756387651,-0.000978711643256247
1782987492365415700,5.027415771484375,-0.000022370553779182956,0.002787530655041337,-0.0004902879591099918
1782987492375489500,5.037489501953125,0.002546780975535512,0.0021920478902757168,0.0000673779723001644
1782987492385564700,5.047564697265625,0.0004796353168785572,0.002344913315027952,0.00045300371129997075
1782987492395638500,5.057638427734375,0.004589425399899483,0.0017875137273222208,-0.0015725966077297926
1782987492405713700,5.067713623046875,0.0015606123488396406,0.001181378262117505,-0.0004420847399160266
1782987492415787500,5.07778759765625,0.0007062703371047974,0.0031140341889113188,-0.0018543590558692813
1782987492425861600,5.087861572265625,0.0020964404102414846,0.0015965650090947747,-0.002213353058323264
1782987492435935500,5.097935546875,0.0016900419723242521,0.0005163869354873896,0.0016346483025699854
1782987492446009300,5.10800927734375,0.0014849785948172212,0.002787530655041337,-0.0023486416321247816
1782987492456084500,5.11808447265625,0.0026706180069595575,0.0022178804501891136,-0.0019856528379023075
1782987492466158300,5.128158447265625,0.0005845638806931674,0.0012082761386409402,-0.0008820389630272985
1782987492476233500,5.1382333984375,0.0018034926615655422,0.004081294406205416,-0.000925182132050395
1782987492486307300,5.148307373046875,0.0007241134881041944,-0.0005129248020239174,-0.0008769789128564298
1782987492496382500,5.158382568359375,-0.00011771172285079956,0.0007901599165052176,0.000020772657080669887
1782987492506456600,5.16845654296875,-0.00013528858835343271,0.002008289797231555,-0.0011486213188618422
1782987492516530400,5.178530517578125,0.0018780612153932452,0.0007057376787997782,-0.002653839997947216
1782987492526605600,5.18860546875,0.00017789915727917105,0.003296460723504424,-0.0024311996530741453
1782987492536679400,5.198679443359375,0.0005813680472783744,0.0018482337472960353,-0.0005214469274505973
1782987492546754600,5.208754638671875,0.0004420847399160266,0.003058640519157052,-0.0007861651247367263
1782987492556828400,5.218828369140625,-0.00009134642459684983,0.0029473204631358385,-0.0034850125666707754
1782987492566903600,5.228903564453125,0.0012681973166763783,0.0027470507193356752,0.0008407599525526166
1782987492576977400,5.238977294921875,-0.00020959076937288046,0.0033009881153702736,0.0018216022290289402
1782987492587052500,5.249052490234375,0.0026466494891792536,-0.0004034689045511186,0.0007531419396400452
1782987492597126400,5.25912646484375,0.0013081447687000036,0.0008146609761752188,0.0006801713607273996
1782987492607200500,5.269200439453125,0.0024293356109410524,0.001074052881449461,0.00001757686368364375
1782987492617275400,5.279275390625,0.0016588830621913075,0.004278101958334446,-0.0005779059720225632
1782987492627349500,5.289349609375,0.0027973842807114124,0.0008756473544053733,0.00024288028362207115
1782987492637424400,5.29942431640625,0.000070307454734575,0.0033747577108442783,-0.000222373942960985
1782987492647498500,5.30949853515625,0.0010357033461332321,0.004758802708238363,-0.0015717976493760943
1782987492657573400,5.319573486328125,0.0010732539230957627,0.0006143912323750556,-0.00003009372085216455
1782987492667647500,5.3296474609375,0.00023861923546064645,0.0010865697404369712,-0.0012295814231038094
1782987492677722400,5.339722412109375,0.0019379822770133615,0.001975266495719552,-0.0028272117488086224
1782987492687796500,5.34979638671875,0.0005925533478148282,0.0018991001415997744,-0.0007241134881041944
1782987492697870600,5.35987060546875,0.000070307454734575,0.0026104305870831013,0.0006719155353493989
1782987492707945500,5.369945556640625,0.001281779375858605,0.000046871635277057067,0.0002902845444623381
1782987492718019600,5.38001953125,0.003381948219612241,0.0005328985280357301,0.0010950918076559901
1782987492728094500,5.390094482421875,0.002129463478922844,0.002487126039341092,0.00028043086058460176
1782987492738168600,5.40016845703125,0.0003275688213761896,0.0018599516479298472,0.0006157228490337729
1782987492748243500,5.410243408203125,0.0017273263074457645,0.0023576964158564806,-0.0016953683225437999
1782987492758317600,5.420317626953125,0.0011339739430695772,0.003459712490439415,0.0003707120195031166
1782987492768391400,5.430391357421875,0.0025622271932661533,0.00088976213010028,-0.0008077367674559355
1782987492778466600,5.440466552734375,0.0019081549253314734,0.001955026527866721,-0.0013933659065514803
1782987492788540400,5.45054052734375,0.002174737397581339,0.0023526365403085947,-0.0017041567480191588
1782987492798615600,5.460615478515625,0.0033779535442590714,0.0031649006996303797,-0.001987783471122384
1782987492808690400,5.4706904296875,0.0020871192682534456,0.0006207828409969807,0.000006125270374468528
1782987492818764500,5.4807646484375,0.0005456816870719194,0.002624012529850006,-0.00011238539445912465
1782987492828839400,5.49083935546875,-0.0003480751474853605,0.001586178783327341,0.0005526058957912028
1782987492838913500,5.50091357421875,-0.000461259507574141,-0.00019441076437942684,0.00014407701382879168
1782987492848988400,5.510988525390625,0.0012322446564212441,0.004265052266418934,-0.0008873652550391853
1782987492859062500,5.5210625,-0.0004942826926708221,0.002189118415117264,-0.0011054781498387456
1782987492869136600,5.53113671875,0.000258859246969223,0.005028847139328718,0.00018109494703821838
1782987492879211500,5.54121142578125,0.0035510589368641376,0.0001174454009742476,-0.0013526194961741567
1782987492889285600,5.55128564453125,-0.00009667274571256712,0.0034434671979397535,-0.0032402679789811373
1782987492899360500,5.561360595703125,-0.0012327772565186024,0.003311374457553029,-0.0009241168736480176
1782987492909434600,5.5714345703125,0.0005033374181948602,0.004766259342432022,0.00022130868455860764
1782987492919509500,5.581509521484375,0.0015153386630117893,0.0018825886072590947,0.00005832322858623229
1782987492929583600,5.59158349609375,-0.000723048229701817,0.0007600661483593285,-0.001386175281368196
1782987492939657500,5.601657470703125,0.0018943065078929067,-0.00006418218254111707,-0.0001280980504816398
1782987492949732600,5.611732666015625,0.0005382248782552779,0.0029531794134527445,-0.001395496423356235
1782987492959806500,5.621806396484375,-0.0001525991247035563,0.004231763072311878,0.000957939017098397
1782987492969881600,5.631881591796875,-0.00021891183860134333,0.0007784419576637447,0.000075101139373146
1782987492979955500,5.64195556640625,-0.00029055087361484766,0.0017038905061781406,0.001461010193452239
1782987492990030600,5.652030517578125,0.000627707049716264,0.0022157500497996807,0.0018839201657101512
1782987493000104400,5.6621044921875,0.0009755159262567759,0.004185423720628023,-0.000618918624240905
1782987493010178600,5.672178466796875,0.0020157466642558575,0.0020130835473537445,-0.001136370818130672
1782987493020253400,5.68225341796875,0.0010253170039504766,0.0041089910082519054,-0.00287408335134387
1782987493030327600,5.69232763671875,-0.0005126585019752383,0.004708202555775642,0.0010194580536335707
1782987493040402400,5.70240234375,0.0026815368328243494,0.002748914761468768,-0.000011717908819264267
1782987493050476500,5.7124765625,0.00036192359402775764,0.0025190841406583786,-0.0026610305067151785
1782987493060551400,5.722551513671875,0.00000852211542223813,0.004590490832924843,-0.004030161537230015
1782987493070625500,5.73262548828125,0.0031518512405455112,0.003139067906886339,-0.002924683503806591
1782987493080700400,5.742700439453125,-0.0014974954538047314,0.0021017666440457106,-0.0009534116834402084
1782987493090774500,5.7527744140625,0.0007283745799213648,0.003913515247404575,0.0005427522119134665
1782987493100848400,5.762848388671875,-0.00009720538218971342,0.0014599448768422008,0.003695135936141014
1782987493110923500,5.772923583984375,0.0013406352372840047,0.003605920122936368,0.0034237599465996027
1782987493120997400,5.782997314453125,0.00042024682625196874,0.00350418733432889,0.0016506272368133068
1782987493131072500,5.793072509765625,0.000020772657080669887,0.0022093583829700947,0.002359027974307537
1782987493141146400,5.803146484375,0.0011470235185697675,0.00018349179299548268,-0.0018005631864070892
1782987493151221500,5.813221435546875,0.0020567593164741993,0.0035332157276570797,0.0019632822368294
1782987493161295400,5.82329541015625,0.0013840447645634413,0.0010221211705356836,0.0006386260502040386
1782987493171369500,5.833369384765625,0.0019571571610867977,0.002752909669652581,-0.0026165556628257036
1782987493181444400,5.8434443359375,0.0036394759081304073,0.0012202603975310922,-0.0006945523782633245
1782987493191518500,5.8535185546875,0.0032019184436649084,0.0023760723415762186,0.000319845654303208
1782987493201593300,5.86359326171875,-0.0005334311863407493,0.001502555445767939,-0.0010998855577781796
1782987493211667500,5.87366748046875,-0.0015763250412419438,0.003037335118278861,0.00036724991514347494
1782987493221742300,5.883742431640625,0.001618403010070324,0.00042530681821517646,-0.0025041704066097736
1782987493231816400,5.89381640625,0.001222390914335847,0.004786765668541193,0.0025097629986703396
1782987493241891300,5.903891357421875,-0.0015598133904859424,0.004677309654653072,0.000027696874894900247
1782987493251965400,5.91396533203125,-0.00023462448734790087,0.0015627428656443954,-0.0004575310740619898
1782987493262039300,5.924039306640625,0.0017694041598588228,0.0022770026698708534,-0.0006141249323263764
1782987493272114400,5.934114501953125,-0.0007861651247367263,0.0017480988753959537,0.0026224146131426096
1782987493282188300,5.944188232421875,0.0020610203500837088,0.0006436860421672463,-0.00047830372932367027
1782987493292263400,5.954263427734375,0.001931058126501739,0.0017592841759324074,-0.0008191883680410683
1782987493302337500,5.964337646484375,0.0011835087789222598,-0.001133441342972219,-0.0004093278548680246
1782987493312412400,5.974412353515625,0.0002668487431947142,0.0029971215408295393,-0.002225070958957076
1782987493322486500,5.984486572265625,0.0009201221400871873,0.003766242414712906,0.00034594463068060577
1782987493332560600,5.994560546875,0.0020935109350830317,0.0033252229914069176,0.0005819007055833936
1782987493342635500,6.004635498046875,0.0002055960358120501,0.0009438242996111512,0.002877279184758663
1782987493352709600,6.014709716796875,0.000624777574557811,0.002591255819424987,-0.000059921123465755954
1782987493362784500,6.024784423828125,0.0006250438746064901,0.0018040252616629004,-0.0012263857061043382
1782987493372858600,6.034858642578125,0.002118278294801712,0.003311108099296689,0.001276186783798039
1782987493382933500,6.04493359375,0.0020458402577787638,0.0035518580116331577,0.00230816169641912
1782987493393007600,6.055007568359375,0.0005664543714374304,0.00427224300801754,0.0015542207984253764
1782987493403082500,6.06508251953125,0.003419232554733753,0.0008514125947840512,0.0001424791116733104
1782987493413156600,6.075156494140625,0.0005123922019265592,0.001758218975737691,-0.0005523395957425237
1782987493423230500,6.08523046875,-0.00036671728594228625,0.002031991956755519,0.0006697850185446441
1782987493433305600,6.0953056640625,0.0023097596131265163,0.005801696330308914,-0.002356364857405424
1782987493443379500,6.10537939453125,0.000827177835162729,0.0014921691035851836,0.0015014902455732226
1782987493453454600,6.11545458984375,0.0006593986763618886,0.003014432033523917,0.000030892668291926384
1782987493463528400,6.125528564453125,0.002700445242226124,-0.0001555285998620093,0.0004588626616168767
1782987493473603600,6.135603515625,0.0010615360224619508,0.005310875829309225,0.0000673779723001644
1782987493483677400,6.145677490234375,0.0017025588313117623,0.00350472005084157,-0.0023065637797117233
1782987493493752600,6.155752685546875,0.003284742822870612,0.0012958941515535116,-0.00022024342615623027
1782987493503826400,6.165826416015625,0.0012250541476532817,0.004096474498510361,-0.00155262288171798
1782987493513900500,6.175900634765625,0.0017212009988725185,0.0031041805632412434,-0.0036756948102265596
1782987493523975400,6.185975341796875,-0.000467118457891047,0.003096190979704261,-0.0020365193486213684
1782987493534049500,6.196049560546875,-0.00044794369023293257,0.0031321437563747168,0.0014658038271591067
1782987493544124400,6.20612451171875,0.0019084211671724916,0.0012085424968972802,-0.0006399576086550951
1782987493554198500,6.216198486328125,0.0018469021888449788,0.0054541537538170815,-0.0014144048327580094
1782987493564273400,6.2262734375,-0.0003552656853571534,0.0029787456151098013,0.0008106662426143885
1782987493574347500,6.236347412109375,0.0015331818722188473,0.002656769473105669,-0.0011946940794587135
1782987493584421400,6.24642138671875,0.004231763072311878,0.0007342335302382708,0.002549444092437625
1782987493594497300,6.256497314453125,0.0005550027708522975,0.002853044541552663,0.00007456851017195731
1782987493604571400,6.2665712890625,0.0015659386990591884,0.002939597237855196,-0.0009187905816361308
1782987493614646300,6.276646240234375,0.001576857641339302,0.001591505017131567,0.0015030881622806191
1782987493624720400,6.286720458984375,0.002010420197620988,-0.00041092574247159064,-0.0028567728586494923
1782987493634795300,6.296795166015625,0.0014298511669039726,-0.00035499935620464385,0.00034967303508892655
1782987493644869400,6.306869384765625,0.0003635214816313237,0.00010705907334340736,0.0013875069562345743
1782987493654943200,6.316943115234375,0.0007550061563961208,0.001812014845199883,0.000035686356568476185
1782987493665018400,6.327018310546875,0.0010271812789142132,0.0017837852938100696,0.000046339002437889576
1782987493675092200,6.33709228515625,0.0013044163351878524,0.004680505488067865,-0.003195793367922306
1782987493685167400,6.34716748046875,0.00046924897469580173,0.001306014135479927,0.001449292292818427
1782987493695241200,6.3572412109375,0.0017635452095419168,0.0016524913953617215,-0.0014407701091840863
1782987493705316400,6.36731640625,0.00170761882327497,0.0014066817238926888,0.0033952640369534492
1782987493715390200,6.37739013671875,0.00044661210267804563,0.0019025622168555856,0.0009677927591837943
1782987493725465300,6.38746533203125,0.0007281082216650248,0.002710032742470503,0.0034466630313545465
1782987493735539200,6.397539306640625,0.0026519757229834795,0.00210602767765522,0.0007848335662856698
1782987493745613300,6.40761328125,0.0019347865600138903,0.002555569401010871,-0.000737695605494082
1782987493755688200,6.417688232421875,-0.00028815402765758336,0.0015329155139625072,0.0033004553988575935
1782987493765762300,6.42776220703125,0.0005752427969127893,0.002261556452140212,0.0007882956997491419
1782987493775837200,6.437837158203125,0.0009108011145144701,0.0031196267809718847,-0.0009587379754520953
1782987493785911300,6.447911376953125,0.0025129588320851326,0.0012277172645553946,0.000696150294970721
1782987493795986200,6.457986083984375,0.0019592875614762306,0.001121457084082067,-0.00039015308720991015
1782987493806060300,6.468060302734375,-0.0023422501981258392,0.003990747034549713,0.0032256206031888723
1782987493816135200,6.47813525390625,-0.00025353292585350573,0.002642654813826084,0.0001555285998620093
1782987493826209300,6.488209228515625,-0.00009241169027518481,0.0018916432745754719,0.0005715143634006381
1782987493836283100,6.498283203125,-0.000026365294615970924,0.0017893778858706355,0.002919090911746025
1782987493846358300,6.508358154296875,0.001457548001781106,0.002993126632645726,-0.0007118629291653633
1782987493856432000,6.51843212890625,0.0013044163351878524,0.003427221905440092,0.00004660531703848392
1782987493866507300,6.52850732421875,-0.00039521310827694833,0.0012322446564212441,-0.0008655273704789579
1782987493876581000,6.5385810546875,0.0020937772933393717,0.001413339632563293,0.001184574095532298
1782987493886656300,6.54865625,0.00009081379539566115,0.0018511632224544883,0.0028240159153938293
1782987493896730000,6.558730224609375,-0.0004295678809285164,0.002683667466044426,-0.0008644621120765805
1782987493906804200,6.56880419921875,0.00054142065346241,0.0018485001055523753,-0.0013662016717717052
1782987493916879000,6.578879150390625,0.0004010720585938543,0.0013680658303201199,-0.000028762138754245825
1782987493926953200,6.588953125,0.0003880225704051554,0.0026498453225940466,-0.0013073458103463054
1782987493937028000,6.599028076171875,-0.0005185174522921443,0.0027089675422757864,0.0011803129455074668
1782987493947102200,6.609102294921875,0.0030868700705468655,0.0031795480754226446,-0.0006769755273126066
1782987493957177000,6.619177001953125,0.002561428351327777,-0.00096086849225685,-0.0006687197601422668
1782987493967251200,6.629251220703125,0.0015488944482058287,-0.000055660068028373644,0.0002593918761704117
1782987493977325300,6.6393251953125,0.0006639260682277381,0.003073287894949317,-0.0012402341235429049
1782987493987400200,6.649400146484375,0.001383512164466083,0.0027121631428599358,-0.00009374327055411413
1782987493997474300,6.659474365234375,0.0016050871927291155,0.002049036091193557,-0.0005805690889246762
1782987494007549200,6.669549072265625,0.00016671388584654778,0.0014442323008552194,-0.002502039773389697
1782987494017623300,6.679623291015625,0.0029374666046351194,0.0036195022985339165,0.001276453142054379
1782987494027698200,6.6896982421875,-0.00015180018090177327,0.004191282670944929,-0.0010551444720476866
1782987494037772300,6.699772216796875,0.0007158577209338546,0.004509264137595892,-0.0008625978953205049
1782987494047847200,6.70984716796875,0.0009174589649774134,0.0030394657514989376,-0.0005060005933046341
1782987494057921300,6.71992138671875,0.0006732470938004553,0.0023646207991987467,-0.002261822810396552
1782987494067995400,6.729995361328125,0.004177700728178024,0.001704689348116517,-0.0012887036427855492
1782987494078070300,6.7400703125,0.0014602112350985408,0.00242187874391675,0.001955026527866721
1782987494088144400,6.750144287109375,0.0036005936563014984,0.0024972460232675076,0.0005339637864381075
1782987494098219300,6.76021923828125,0.0018708707066252828,0.002918558195233345,-0.0009555422002449632
1782987494108293400,6.77029345703125,0.0030399984680116177,0.00042344260145910084,0.0006282397080212831
1782987494118368300,6.7803681640625,0.001957956003025174,0.0033872744534164667,-0.0017358483746647835
1782987494128442400,6.7904423828125,0.0027718180790543556,0.0023457121569663286,0.001478587044402957
1782987494138516200,6.80051611328125,-0.0008700547041371465,0.004012584686279297,0.00017443705291952938
1782987494148591400,6.81059130859375,-0.0012391688069328666,0.0016178702935576439,-0.0015401060227304697
1782987494158665200,6.820665283203125,0.0029499835800379515,0.0021915151737630367,-0.0013081447687000036
1782987494168740400,6.830740234375,0.002612294629216194,0.0006146575906313956,0.0011403656098991632
1782987494178814200,6.840814208984375,0.0019518306944519281,0.003626426449045539,-0.00023515711654908955
1782987494188889300,6.850889404296875,0.001698830397799611,0.0036330842413008213,-0.0003909520455636084
1782987494198963200,6.860963134765625,0.002020274056121707,0.0019153454340994358,0.0008934905636124313
1782987494209038300,6.871038330078125,0.0013251889031380415,0.0016245282022282481,0.0006538060260936618
1782987494219112200,6.8811123046875,0.002469549188390374,0.001785116852261126,-0.0004588626616168767
1782987494229186300,6.891186279296875,-0.0004844290087930858,0.002596848411485553,-0.0017145430902019143
1782987494239261200,6.90126123046875,0.0014314490836113691,0.004020574036985636,-0.0006452839006669819
1782987494249335300,6.911335205078125,0.00018881811411119998,0.0024802018888294697,-0.0015448997728526592
1782987494259410200,6.92141015625,0.000782436749432236,0.0021046961192041636,-0.000150202278746292
1782987494269484300,6.931484375,0.0033755565527826548,0.0009765811264514923,0.0019441075855866075
1782987494279559200,6.94155908203125,0.0015760586829856038,0.0009403621661476791,0.0023286680225282907
1782987494289633300,6.95163330078125,0.0025656893849372864,0.0005518069956451654,0.00047164582065306604
1782987494299707100,6.96170703125,0.0019294602097943425,0.002519616624340415,-0.0011073424248024821
1782987494309782300,6.9717822265625,0.0012085424968972802,0.0007872303831391037,0.00088976213010028
1782987494319856000,6.981856201171875,0.00011451592581579462,0.0034935346338897943,0.002776611829176545
1782987494329931300,6.99193115234375,0.0004013383586425334,0.006761766038835049,0.0017827199772000313
1782987494340005000,7.002005126953125,0.0027651600539684296,0.0030658310279250145,0.003681021276861429
1782987494350080300,7.012080322265625,0.0012918994762003422,0.0017664746847003698,0.00007270430069183931
1782987494360154000,7.022154052734375,0.0008050735923461616,0.0002689792599994689,-0.0016636766958981752
1782987494370228200,7.032228271484375,0.0019121496006846428,0.00034914040588773787,-0.0006870955694466829
1782987494380303000,7.04230322265625,0.0006937534781172872,0.003825897118076682,-0.002510561840608716
1782987494390377200,7.052377197265625,0.0036818201187998056,0.0028445222415030003,-0.0017499631503596902
1782987494400452000,7.0624521484375,0.00027616979787126184,-0.00046046054922044277,0.0024735440965741873
1782987494410526200,7.072526123046875,0.0018583538476377726,0.0013076120521873236,-0.0016849819803610444
1782987494420601000,7.08260107421875,0.0018780612153932452,0.0031097731553018093,-0.0017267935909330845
1782987494430675200,7.09267529296875,-0.0023337281309068203,0.0021901836153119802,0.0015507587231695652
1782987494440750300,7.102750244140625,-0.0002205097407568246,0.004262122791260481,-0.0010958907660096884
1782987494450824200,7.11282421875,0.0021784657146781683,0.0025768745690584183,-0.0008647284121252596
1782987494460898000,7.12289794921875,0.0009259810904040933,0.001579787116497755,-0.00045833003241568804
1782987494470973200,7.13297314453125,-0.0004617921367753297,0.003070891136303544,-0.0010753844399005175
1782987494481047000,7.143047119140625,0.0025776736438274384,0.0018277274211868644,0.0025859293527901173
1782987494491122200,7.1531220703125,-0.0007363640470430255,0.0019651465117931366,-0.0021164140198379755
1782987494501196000,7.163196044921875,0.0010330402292311192,0.0020157466642558575,-0.0009680590592324734
1782987494511271200,7.173271240234375,0.0006064017652533948,0.0005368932615965605,-0.0010873686987906694
1782987494521345000,7.183344970703125,0.00010439591278554872,0.0028668928425759077,-0.002382730133831501
1782987494531420200,7.193420166015625,0.002835201332345605,0.0027105652261525393,0.0013646037550643086
1782987494541494000,7.203493896484375,-0.00018722022650763392,0.004240285139530897,-0.00216594897210598
1782987494551568400,7.213568359375,0.0012205267557874322,0.002924683503806591,-0.0013859090395271778
1782987494561643300,7.223643310546875,0.00017869810108095407,0.001609614584594965,0.0026786073576658964
1782987494571717400,7.23371728515625,0.0013550163712352514,0.0016996293561533093,0.0009555422002449632
1782987494581792300,7.243792236328125,0.0014554174849763513,0.004185690078884363,0.0016793893883004785
1782987494591866400,7.253866455078125,0.000913197931367904,0.0012215919559821486,0.0035305526107549667
1782987494601941000,7.26394091796875,-0.000046339002437889576,0.003466370515525341,0.0014367754338309169
1782987494612014800,7.274014892578125,0.0006964165950194001,0.004065581597387791,-0.001356347929686308
1782987494622089000,7.2840888671875,0.0018599516479298472,0.0017568873008713126,0.00013448962999973446
1782987494632163800,7.294163818359375,0.0017566210590302944,0.0006101301987655461,-0.0016018913593143225
1782987494642238000,7.304238037109375,-0.0015110776294022799,0.003571032779291272,0.0011936287628486753
1782987494652312800,7.314312744140625,0.0023451796732842922,0.0012389025650918484,-0.001728391507640481
1782987494662387000,7.324386962890625,0.0008548747282475233,-0.0003707120195031166,-0.0016969662392511964
1782987494672461800,7.3344619140625,0.0016128103015944362,0.004311657976359129,0.0002569950302131474
1782987494682536000,7.344535888671875,0.0012783173006027937,0.004169711377471685,0.00020666129421442747
1782987494692609800,7.35460986328125,0.0015403723809868097,0.003014432033523917,0.0005864280392415822
1782987494702685000,7.364684814453125,0.002445314545184374,0.003409378696233034,-0.0003531351685523987
1782987494712758800,7.3747587890625,0.002261290093883872,0.0008937568636611104,0.0015733955660834908
1782987494722834000,7.384833984375,0.003620034782215953,0.0034794199746102095,-0.0008809737046249211
1782987494732907800,7.39490771484375,0.002630670554935932,0.0026399914640933275,-0.002627474721521139
1782987494742983000,7.40498291015625,0.0005941512063145638,0.0025063008069992065,-0.0008756473544053733
1782987494753056800,7.415056884765625,0.0007115966291166842,0.0016951019642874599,0.00031558459158986807
1782987494763132000,7.4251318359375,0.0011922972043976188,0.0006980145117267966,-0.0005033374181948602
1782987494773205800,7.435205810546875,0.0013976269401609898,0.0007342335302382708,0.0011906992876902223
1782987494783279900,7.44527978515625,0.0022423816844820976,0.0009725864510983229,-0.0034117756877094507
1782987494793354800,7.455354736328125,0.0014769891276955605,0.004719920456409454,0.0003326288133393973
1782987494803428900,7.465428955078125,-0.0011558119440451264,0.0012210593558847904,-0.0023009711876511574
1782987494813503700,7.475503662109375,0.0022658174857497215,-0.00020479709201026708,-0.003326554549857974
1782987494823577900,7.485577880859375,0.0009488842915743589,0.0019768644124269485,0.0022186795249581337
1782987494833652700,7.49565283203125,0.0015001586871221662,0.0028674255590885878,0.00021438446128740907
1782987494843726800,7.505726806640625,0.0015337144723162055,0.0023550332989543676,-0.0007238471880555153
1782987494853800700,7.51580078125,0.0016407734947279096,-0.00037710359902121127,-0.00022370553051587194
1782987494863875800,7.525875732421875,0.0007550061563961208,-0.00014913702034391463,0.0009739180095493793
1782987494873949700,7.53594970703125,0.0017068199813365936,0.002482066163793206,0.00048629322554916143
1782987494884024800,7.54602490234375,0.0020775320008397102,0.001856755930930376,0.001576857641339302
1782987494894098700,7.5560986328125,0.003168629016727209,0.004384628497064114,-0.0013859090395271778
1782987494904173800,7.566173828125,0.002365952357649803,0.002418949268758297,-0.0005898901727050543
1782987494914247700,7.57624755859375,0.0006178533658385277,0.0014564828015863895,-0.00020373181905597448
1782987494924322800,7.58632275390625,0.0012183962389826775,0.0028069717809557915,-0.0015662050573155284
1782987494934396700,7.596396728515625,-0.00027324032271280885,0.0013164004776626825,0.002132925670593977
1782987494944470800,7.606470703125,0.0010490191634744406,0.001067927572876215,0.0011638014111667871
1782987494954545700,7.616545654296875,0.0002002697146963328,0.001532116555608809,-0.001567802974022925
1782987494964619800,7.626619873046875,0.0024234766606241465,0.0026069683954119682,-0.001577123999595642
1782987494974694700,7.636694580078125,0.0032519858796149492,0.0011797803454101086,-0.002395247109234333
1782987494984768800,7.646768798828125,0.0013843111228197813,0.00464694993570447,0.00019041601626668125
1782987494994843600,7.65684375,0.0002569950302131474,0.004148405976593494,-0.0007507451227866113
1782987495004917800,7.666917724609375,0.0010000169277191162,-0.0010338390711694956,-0.0013132047606632113
1782987495014992000,7.676991943359375,0.0006628608098253608,-0.00013262542779557407,-0.0008125304593704641
1782987495025066800,7.687066650390625,-0.0012958941515535116,0.004351871553808451,-0.0002657834847923368
1782987495035140900,7.697140869140625,0.0026059031952172518,0.0018221348291262984,-0.0015302523970603943
1782987495045215700,7.7072158203125,-0.0008503473363816738,0.005745503585785627,0.0006085322820581496
1782987495055289900,7.717289794921875,0.0006671218434348702,0.0002961435238830745,-0.002481533447280526
1782987495065364700,7.72736474609375,0.002061286708340049,0.0015065502375364304,-0.0030597057193517685
1782987495075438800,7.73743896484375,0.003343598684296012,0.0024058998096734285,-0.0007275756215676665
1782987495085513700,7.747513671875,0.003631752682849765,0.0007044061203487217,-0.00015286543930415064
1782987495095587800,7.757587890625,0.0008908273885026574,0.0019302591681480408,0.0007890945998951793
1782987495105662000,7.767661865234375,0.001704689348116517,0.0019185412675142288,-0.001297225710004568
1782987495115736800,7.77773681640625,0.001683916780166328,0.0010684601729735732,-0.0024591628462076187
1782987495125811000,7.78781103515625,-0.00010918960470007733,0.004010720644146204,0.0011925635626539588
1782987495135885800,7.7978857421875,0.0007462177309207618,0.0006910903030075133,0.00037284253630787134
1782987495145960000,7.8079599609375,0.0012183962389826775,0.0024082965683192015,-0.0004846953088417649
1782987495156035000,7.81803515625,0.002004827605560422,0.003689276985824108,-0.0013366405619308352
1782987495166109000,7.82810888671875,0.0011438276851549745,0.0031758195254951715,-0.000743820914067328
1782987495176182800,7.838182861328125,-0.0003001382574439049,0.001701759872958064,0.00007590009045088664
1782987495186258000,7.8482578125,0.0010556770721450448,0.0024173513520509005,0.0030541131272912025
1782987495196331800,7.858331787109375,0.0013872405979782343,0.0024652881547808647,-0.004290618933737278
1782987495206407000,7.868406982421875,-0.001472461735829711,0.0014839133946225047,-0.0005075985100120306
1782987495216480800,7.878480712890625,-0.0003510046226438135,0.0022855247370898724,-0.0010684601729735732
1782987495226556000,7.888555908203125,0.0032855418976396322,0.0030149647500365973,0.0022778017446398735
1782987495236629800,7.898629638671875,0.0005451490869745612,0.0024770060554146767,-0.0007451524725183845
1782987495246703900,7.908703857421875,0.002177666872739792,0.0018197379540652037,0.0024117587599903345
1782987495256778800,7.91877880859375,0.0012780509423464537,0.0007291734800674021,-0.0017054883064702153
1782987495266852900,7.928852783203125,-0.0016165387351065874,0.003522563260048628,-0.0031292142812162638
1782987495276927700,7.938927734375,0.0009510148083791137,0.003352120751515031,0.003051982494071126
1782987495287001900,7.949001953125,0.002281796419993043,0.0023672839161008596,0.0036506610922515392
1782987495297077000,7.959076904296875,0.00006258428766159341,0.003489806316792965,-0.0005089300684630871
1782987495307150800,7.96915087890625,-0.00019148127466905862,0.00021917815320193768,0.0016969662392511964
1782987495317226000,7.97922607421875,-0.00008255799184553325,0.0026466494891792536,-0.000021837920940015465
1782987495327299800,7.9892998046875,0.0016871124971657991,-0.0002796319022309035,-0.0019478360190987587
1782987495337373700,7.999373779296875,0.0012708604335784912,0.0023816649336367846,-0.0006530070677399635
1782987495347448800,8.00944873046875,0.0006838997360318899,0.0035308189690113068,-0.0013736584223806858
1782987495357522700,8.019522705078124,0.0028631645254790783,0.0030570426024496555,-0.0002426139690214768
1782987495367597800,8.029597900390625,-0.0010410296963527799,0.003947869874536991,-0.0006322344415821135
1782987495377671700,8.039671630859376,0.0035124430432915688,0.004465055651962757,0.00040240364614874125
1782987495387746800,8.049746826171875,0.001208009896799922,0.0031340080313384533,0.0023675502743571997
1782987495397820700,8.059820556640625,0.0014383733505383134,0.0021976404823362827,-0.0012122709304094315
1782987495407894800,8.069894775390624,-0.0012903015594929457,0.002487925114110112,0.0034916705917567015
1782987495417970000,8.079969970703125,0.00013981595111545175,0.0023547669406980276,0.0020703414920717478
1782987495428043800,8.090043701171876,0.0019209380261600018,0.0022034994326531887,-0.0009856359101831913
1782987495438119000,8.100118896484375,-0.00048176583368331194,0.0025784724857658148,0.002406432293355465
1782987495448192800,8.11019287109375,0.0010314423125237226,0.0019856528379023075,-0.0011235876008868217
1782987495458268000,8.120267822265625,-0.0000798948312876746,0.0020186761394143105,-0.0011864382540807128
1782987495468341800,8.130341796875,0.002910036128014326,0.002377137541770935,-0.0012471582740545273
1782987495478415600,8.14041552734375,0.00006870955257909372,0.0030927290208637714,-0.0031108383554965258
1782987495488490800,8.15049072265625,0.002372077666223049,0.0018434401135891676,-0.0016929714474827051
1782987495498564600,8.160564697265626,0.00046631949953734875,0.000803209375590086,-0.002377137541770935
1782987495508639700,8.1706396484375,0.002314287004992366,0.002116147894412279,0.0030117689166218042
1782987495518713600,8.180713623046875,0.0012596751330420375,0.002115082461386919,0.0014101437991485
1782987495528788700,8.190788818359374,0.0006708502769470215,0.004699147772043943,0.0010064085945487022
1782987495538862800,8.20086279296875,0.0001906823308672756,0.0026647590566426516,0.0005432848702184856
1782987495548937700,8.210937744140624,-0.00006870955257909372,0.0028642297256737947,-0.0011504855938255787
1782987495559011800,8.22101171875,-0.0005249090609140694,0.002246110001578927,-0.0016085492679849267
1782987495569086000,8.2310859375,0.0000655137628200464,0.001517202821560204,-0.0004237089306116104
1782987495579160800,8.241160888671875,-0.0006298375665210187,0.004667988512665033,0.0007574030314572155
1782987495589235000,8.25123486328125,0.001258343574590981,0.0035060516092926264,0.0007163903210312128
1782987495599309800,8.261309814453124,0.0030453247018158436,0.001633316627703607,0.0018247979460284114
1782987495609384000,8.271384033203125,0.00230842805467546,0.0016801883466541767,-0.0003400856803636998
1782987495619458800,8.281458740234376,0.0011720572365447879,0.0043955473229289055,0.0014136058744043112
1782987495629533000,8.291532958984375,0.0021859225817024708,0.004691690672188997,-0.0012253203894942999
1782987495639607000,8.30160693359375,0.002386192325502634,0.0009816411184147,0.0016058861510828137
1782987495649682000,8.311681884765624,0.0007238471880555153,0.0011342403013259172,-0.0011227887589484453
1782987495659756000,8.321756103515625,0.000547279603779316,0.0036392095498740673,-0.0009206547983922064
1782987495669831000,8.331830810546874,0.0006538060260936618,0.00004500742215896025,-0.0003217098710592836
1782987495679905000,8.341905029296875,0.0009675264009274542,0.0036677054595202208,-0.0003075950953643769
1782987495689980000,8.35197998046875,0.0024056334514170885,0.0018668759148567915,0.0015824503498151898
1782987495700054000,8.362053955078125,0.0023318638559430838,0.004564924165606499,-0.0011145329335704446
1782987495710129000,8.37212890625,0.0009507485083304346,0.004166781902313232,-0.001282045734114945
1782987495720203000,8.382203125,0.0032320122700184584,-0.00012223910016473383,0.00022423815971706063
1782987495730277000,8.392277099609375,0.0019896477460861206,0.0035859462805092335,-0.0013219931861385703
1782987495740352000,8.40235205078125,0.0019449065439403057,0.0012783173006027937,0.0007510114228352904
1782987495750426000,8.412426025390625,-0.00034115093876607716,0.00276116537861526,0.0018429075134918094
1782987495760501000,8.4225009765625,0.002162486780434847,0.001190433045849204,-0.0009416937828063965
1782987495770575000,8.4325751953125,-0.000035952674807049334,-0.00017949705943465233,-0.000660463934764266
1782987495780650000,8.44264990234375,0.0005717806634493172,0.003480485174804926,-0.002046106616035104
1782987495790724000,8.45272412109375,0.0016160061350092292,0.004205664154142141,-0.0014969628537073731
1782987495800798000,8.4627978515625,0.0010215885704383254,0.002968359272927046,7.989483492565341e-7
1782987495810873000,8.472873046875,0.0005715143634006381,0.001933721243403852,-0.0011978897964581847
1782987495820947000,8.482947021484375,0.0003432814555708319,0.003288471372798085,-0.0006713828770443797
1782987495831022000,8.49302197265625,-0.00039760995423421264,0.002659965306520462,0.001421861699782312
1782987495841096000,8.503095947265624,0.0015132081462070346,-0.0003195793251506984,-0.0010367685463279486
1782987495851171000,8.513171142578125,-0.0005233111442066729,0.002569684060290456,0.0012487561907619238
1782987495861245000,8.523244873046876,0.002410160843282938,0.002659432590007782,0.0012327772565186024
1782987495871320000,8.533320068359375,-0.0005012069013901055,0.0011739213950932026,0.0008633967954665422
1782987495881394000,8.543393798828125,0.0019566244445741177,0.002954510971903801,-0.00008362325752386823
1782987495891468000,8.553468017578124,0.001642637769691646,0.0009395632077939808,-0.0013323795283213258
1782987495901543000,8.56354296875,-0.0000500674286740832,0.0010436928132548928,0.0020596887916326523
1782987495911617000,8.573616943359376,0.002769687445834279,0.0022535668686032295,-0.0036642432678490877
1782987495921692000,8.58369189453125,0.0031095067970454693,0.000716922979336232,0.0013912353897467256
1782987495931766000,8.59376611328125,0.0012447615154087543,0.00030413299100473523,-0.00023302659974433482
1782987495941841000,8.6038408203125,0.0019294602097943425,0.0011310444679111242,-0.0022913836874067783
1782987495951915000,8.6139150390625,0.0020804614759981632,0.004164917394518852,0.002284459536895156
1782987495961988900,8.62398876953125,0.0025297366082668304,0.0008450209861621261,-0.001142229768447578
1782987495972064000,8.63406396484375,-0.0003802994033321738,0.0017784589435905218,-0.0010631339391693473
1782987495982137900,8.644137939453126,0.0016831178218126297,0.0006167881074361503,-0.001303084660321474
1782987495992213000,8.654212890625,-0.001418932224623859,0.001514273346401751,0.0018349179299548268
1782987496002286800,8.664286865234375,0.0011470235185697675,0.005979062989354134,0.0014261227333918214
1782987496012362000,8.674362060546875,0.002088450826704502,-0.0006540723843500018,0.0014508900931105018
1782987496022435800,8.684435791015625,0.0016319850692525506,-0.0020477045327425003,-0.0019228023011237383
1782987496032510000,8.694510009765626,0.002347310073673725,0.005082909017801285,-0.002802710747346282
1782987496042584800,8.704584716796875,0.0017622136510908604,0.0046389601193368435,0.00011584750609472394
1782987496052659000,8.714658935546876,0.0018258632626384497,0.0035326832439750433,0.0006548712844960392
1782987496062733800,8.72473388671875,0.000811997801065445,-0.0007531419396400452,0.00041092574247159064
1782987496072808000,8.734807861328125,-0.0013494236627593637,0.003347327234223485,-0.0033846113365143538
1782987496082882800,8.7448828125,-0.0012146678054705262,0.003689543344080448,-0.00011291803093627095
1782987496092957000,8.75495703125,0.0013813816476613283,0.003424825146794319,0.0012218583142384887
1782987496103031800,8.76503173828125,0.0015984292840585113,0.0022807312197983265,-0.0005813680472783744
1782987496113106000,8.77510595703125,-0.00006444849714171141,0.00021491710504051298,-0.0012575446162372828
1782987496123180000,8.785179931640625,-0.00037630466977134347,0.002124137245118618,0.0001280980504816398
1782987496133255000,8.7952548828125,0.0014650048688054085,0.0017869811272248626,0.0015472965314984322
1782987496143329000,8.8053291015625,0.000838895735796541,0.001335841603577137,-0.0015046859625726938
1782987496153404000,8.81540380859375,0.00036432043998502195,0.0015954998089000583,0.00022317290131468326
1782987496163478000,8.82547802734375,0.00041305628838017583,0.0009483516332693398,0.00010865696822293103
1782987496173553000,8.835552978515626,0.002058889716863632,0.0022029669489711523,0.002660498023033142
1782987496183627000,8.845626953125,0.0007166566210798919,0.0018881811993196607,0.0004135889175813645
1782987496193701000,8.855701171875,0.002508431440219283,0.0014807175612077117,-0.002074069809168577
1782987496203776000,8.86577587890625,-0.0004290352517273277,0.0020216056145727634,0.0020785972010344267
1782987496213850000,8.87585009765625,-0.0004471447318792343,0.006520483642816544,0.004250404890626669
1782987496223925000,8.885925048828126,0.0020911141764372587,0.0015459649730473757,-0.0016415724530816078
1782987496233999000,8.8959990234375,0.0016165387351065874,0.0019209380261600018,0.00036485306918621063
1782987496244074000,8.906073974609376,0.0024796691723167896,0.002865028567612171,-0.0004948153509758413
1782987496254148000,8.916148193359374,0.0008498146780766547,0.004553738981485367,0.00011771172285079956
1782987496264222000,8.926221923828125,-0.00028868665685877204,0.0027515781112015247,0.0004617921367753297
1782987496274297000,8.936297119140624,0.0006173207075335085,-0.0014500912511721253,-0.0024226775858551264
1782987496284371000,8.946370849609375,0.0009867012267932296,0.004504736978560686,-0.0025920546613633633
1782987496294446000,8.956446044921876,0.0037121803034096956,0.001669269404374063,-0.0002585929469205439
1782987496304520000,8.96652001953125,0.0010330402292311192,0.00555295730009675,-0.0007046724203974009
1782987496314595000,8.976594970703125,-0.00032676986302249134,0.0028415927663445473,-0.001796834752894938
1782987496324669000,8.9866689453125,0.0009840379934757948,0.0011949603212997317,0.004576109815388918
1782987496334744000,8.996744140625,0.00017656758427619934,0.004552940372377634,0.0004966795677319169
1782987496344818000,9.00681787109375,0.0018213358707726002,0.002481533447280526,0.005857356358319521
1782987496354892000,9.01689208984375,0.002552906284108758,0.0030626351945102215,-0.0027268105186522007
1782987496364967000,9.026966796875,0.0005123922019265592,0.005688512232154608,0.0011012171162292361
1782987496375041000,9.037041015625,0.001603222917765379,0.0010218549286946654,-0.0014804512029513717
1782987496385116000,9.047115966796875,-0.00034967303508892655,0.0023281353060156107,-0.0007600661483593285
1782987496395190000,9.05718994140625,0.0010290454374626279,0.004194744862616062,0.0021494373213499784
1782987496405265000,9.067264892578125,0.0010873686987906694,0.0023390543647110462,-0.00017550231132190675
1782987496415339000,9.077339111328126,0.0021169467363506556,0.0023124227300286293,0.0006231797160580754
1782987496425412900,9.087412841796874,0.0011092065833508968,-0.00038748994120396674,-0.0025126924738287926
1782987496435487000,9.097487060546875,0.00008868326403899118,0.0015624766238033772,-0.0029827402904629707
1782987496445561900,9.107561767578124,0.0022053637076169252,0.0029984530992805958,0.0012665993999689817
1782987496455636000,9.117635986328125,0.0018066884949803352,0.0006048039067536592,-0.00037683729897253215
1782987496465710800,9.1277109375,0.001782187377102673,0.002996056107804179,-0.0011917646043002605
1782987496475785000,9.137784912109375,0.0022034994326531887,0.0023646207991987467,0.002180596347898245
1782987496485858800,9.14785888671875,0.001579787116497755,0.0007121292874217033,0.0003992078418377787
1782987496495934000,9.157933837890624,0.0005336974863894284,0.0028418591246008873,0.0011065434664487839
1782987496506007800,9.1680078125,0.0034234935883432627,0.0017694041598588228,-0.0009238505735993385
1782987496516083000,9.1780830078125,0.0011342403013259172,0.002094842493534088,0.000107858024421148
1782987496526156800,9.18815673828125,0.0012460930738598108,0.002416019793599844,0.001586178783327341
1782987496536232000,9.19823193359375,-0.00007456851017195731,0.002832271857187152,0.0005075985100120306
1782987496546305800,9.208305908203124,0.00039601203752681613,0.0010644654976204038,0.00024767397553659976
1782987496556380200,9.218380126953125,0.0015110776294022799,0.0006119944155216217,0.0004751079250127077
1782987496566454800,9.228454833984374,0.0014205301413312554,0.002523078816011548,-0.0005499427788890898
1782987496576529200,9.238529052734375,-0.0004540689697023481,0.002154231071472168,-0.001933721243403852
1782987496586603800,9.248603759765626,0.0028461201582103968,0.0044133905321359634,0.00006524744821945205
1782987496596678100,9.25867822265625,0.001975532853975892,0.00504109775647521,0.000639424950350076
1782987496606753000,9.2687529296875,0.0015046859625726938,0.0005392901366576552,0.0009755159262567759
1782987496616827100,9.2788271484375,-0.00036378781078383327,0.0007105313707143068,-0.0004319647268857807
1782987496626901200,9.2889013671875,0.0013438310706987977,0.0016173376934602857,-0.00019734023953787982
1782987496636976000,9.29897607421875,0.0025036376900970936,0.0039015309885144234,0.0007621967233717442
1782987496647050200,9.30905029296875,0.001570998691022396,0.004226702731102705,-0.0006660565850324929
1782987496657125000,9.319125,0.0015662050573155284,0.0009755159262567759,0.001978195970878005
1782987496667199200,9.32919921875,0.0005616606795229018,0.0008434231276623905,-0.0020903151016682386
1782987496677274000,9.339274169921875,0.001912948559038341,0.004476773552596569,-0.0021728731226176023
1782987496687348200,9.34934814453125,-0.0012522183824330568,0.004596616141498089,0.0013110742438584566
1782987496697423000,9.359423095703125,0.0016407734947279096,0.001859152689576149,-0.000985103310085833
1782987496707497200,9.369497314453126,0.0016940367640927434,0.00010253170330543071,-0.003097256412729621
1782987496717571000,9.379571044921875,0.0010165285784751177,0.0006958839949220419,-0.0010924286907538772
1782987496727646200,9.389646240234375,0.0015952334506437182,0.0046272422187030315,-0.0002657834847923368
1782987496737720000,9.399719970703124,-0.001392566948197782,0.005760683678090572,0.00041305628838017583
1782987496747795200,9.409795166015625,0.0004338289436418563,-0.0004884237423539162,0.0004522047529462725
1782987496757869000,9.419869140625,0.0023257385473698378,-0.00009321063407696784,0.002600310370326042
1782987496767944200,9.429944091796875,0.0003587277897167951,0.0026226809713989496,-0.0024913870729506016
1782987496778018000,9.44001806640625,0.0004673847579397261,0.0032732912804931402,-0.0007632619817741215
1782987496788092200,9.450092041015624,0.001317998394370079,0.004579039290547371,-0.0007076018955558538
1782987496798167000,9.4601669921875,0.0018045579781755805,0.0009555422002449632,-0.0023995081428438425
1782987496808242200,9.4702421875,-0.0007952199084684253,0.0034091125708073378,0.0006564692012034357
1782987496818317000,9.480317138671875,0.00035180358099751174,0.002671683207154274,0.0009731190511956811
1782987496828391200,9.49039111328125,-0.00026844663079828024,0.002522279741242528,-0.003340669209137559
1782987496838466000,9.500466064453125,0.003245061729103327,0.000529702752828598,-0.002369148191064596
1782987496848540200,9.5105400390625,-0.0003043993201572448,0.0017411747248843312,-0.0000021305288555595325
1782987496858614000,9.520614013671874,0.000431432097684592,0.0009206547983922064,-0.0016237293602898717
1782987496868689200,9.530689208984375,-0.0002713761059567332,0.000639424950350076,0.0007145261042751372
1782987496878763000,9.540762939453124,0.0012769857421517372,0.0025603631511330605,0.0012152004055678844
1782987496888838100,9.550838134765625,0.0022362563759088516,0.002299639629200101,-0.001198688754811883
1782987496898912300,9.560912353515626,-0.00245143985375762,0.0016740630380809307,0.001898034941405058
1782987496908987100,9.570987060546875,0.0014839133946225047,0.0047028763219714165,0.0009659285424277186
1782987496919061200,9.581061279296875,0.000070307454734575,0.0015195996966212988,-0.0024554345291107893
1782987496929135000,9.591135009765624,-0.0014988270122557878,0.005647233221679926,-0.000245543458731845
1782987496939210200,9.601210205078125,-0.0014234596164897084,0.0036703685764223337,-0.0003278351214248687
1782987496949284000,9.6112841796875,0.0014761901693418622,0.0021755362395197153,0.00040027310024015605
1782987496959359200,9.621359130859375,0.0006623281515203416,0.001580053474754095,-0.0013936321483924985
1782987496969433000,9.63143310546875,0.0014114753575995564,-0.00006125270738266408,-0.0010367685463279486
1782987496979508200,9.64150830078125,-0.0016892430139705539,0.0034346787724643946,-0.0005451490869745612
1782987496989582000,9.65158203125,0.001058872789144516,0.002642654813826084,0.000660463934764266
1782987496999656000,9.661656005859374,0.0026490462478250265,0.002930808812379837,-0.0008197209681384265
1782987497009731000,9.67173095703125,0.0006490123341791332,0.0022770026698708534,-0.00022663500567432493
1782987497019805200,9.68180517578125,-0.002528937766328454,0.003497795667499304,-0.002423742786049843
1782987497029880000,9.691880126953125,-0.001284975209273398,0.0037233654875308275,-0.00004261057620169595
1782987497039954200,9.7019541015625,0.0006095975404605269,0.0034519892651587725,0.0001584580895723775
1782987497050029000,9.712029052734374,0.0005299690528772771,0.004572381265461445,0.00016058860637713224
1782987497060103200,9.722103271484375,0.003168362658470869,0.0016759273130446672,-0.00013422331539914012
1782987497070178000,9.732177978515624,-0.0009869674686342478,0.0023853934835642576,0.0004324973560869694
1782987497080252200,9.742252197265625,0.0016945693641901016,0.0032357405871152878,0.00079735042527318
1782987497090326000,9.752325927734375,0.0007238471880555153,0.0014146711910143495,0.0037001960445195436
1782987497100401200,9.762401123046875,0.004287423100322485,0.002272208919748664,0.00046605319948866963
1782987497110475000,9.77247509765625,0.0007182545377872884,0.0016085492679849267,-0.0021576930303126574
1782987497120550100,9.782550048828124,0.0016045545926317573,0.0023062974214553833,0.0008681904873810709
1782987497130624000,9.7926240234375,-0.0010780475568026304,0.0027563716284930706,0.0006170544074848294
1782987497140699100,9.80269921875,0.00040293627534992993,0.0027449200861155987,0.000264718197286129
1782987497150773000,9.81277294921875,0.00024208133982028812,0.003180080559104681,-0.0018639464396983385
1782987497160847000,9.82284716796875,0.0010309095960110426,0.002680205274373293,-0.0008641957538202405
1782987497170922000,9.832921875,0.0007512777228839695,0.0005584649043157697,-0.0003531351685523987
1782987497180996000,9.84299609375,0.002552639925852418,0.002823483431711793,-0.0004063983797095716
1782987497191071000,9.853071044921874,-0.000360059377271682,0.0004732437082566321,0.0010258496040478349
1782987497201145000,9.86314501953125,-0.0001536643976578489,0.0018274611793458462,0.0016993631143122911
1782987497211220000,9.873219970703126,0.0035515916533768177,0.00152332813013345,0.0018359832465648651
1782987497221294000,9.883294189453125,0.0036218990571796894,0.004767857491970062,-0.0022450448013842106
1782987497231368200,9.8933681640625,0.0018498316640034318,0.0016753945965319872,0.0010780475568026304
1782987497241443000,9.903443115234374,0.0008652610122226179,0.0008423578692600131,-0.0017627463676035404
1782987497251517200,9.91351708984375,0.0024256070610135794,0.00577719509601593,0.0005986785981804132
1782987497261592000,9.923592041015626,-0.00008442220860160887,0.0020783308427780867,0.004224305972456932
1782987497271666200,9.933666259765625,-0.000218645524000749,0.0023997745011001825,-0.0006077333819121122
1782987497281741000,9.943740966796875,0.001442900625988841,0.003450924064964056,0.0012724583502858877
1782987497291815200,9.953815185546874,0.0020546286832541227,0.004448544234037399,-0.0017768610268831253
1782987497301890000,9.96389013671875,0.002900714986026287,0.006642189808189869,0.0019185412675142288
1782987497311964200,9.973964111328126,0.002633067313581705,0.0014231932582333684,-0.0011262508342042565
1782987497322038300,9.984038330078125,0.0023435817565768957,0.0008314388687722385,-0.0008154599345289171
1782987497332113200,9.994113037109376,0.0010612696642056108,0.004445614758878946,-0.0008769789128564298
1782987497342187300,10.004187255859375,0.001529453438706696,0.0022144184913486242,0.0017981663113459945
1782987497352262100,10.01426220703125,0.002576075727120042,0.0020003002136945724,-0.0013520868960767984
1782987497362336300,10.024336181640624,0.0014197311829775572,0.002691656816750765,0.0010554107138887048
1782987497372411100,10.0344111328125,0.002406965009868145,0.002432531211525202,-0.0008791094878688455
1782987497382485200,10.0444853515625,0.000025832661776803434,0.0029196233954280615,0.0019688750617206097
1782987497392559000,10.05455908203125,0.002445048186928034,0.0027483822777867317,0.0014061490073800087
1782987497402634200,10.06463427734375,-0.0008215851848945022,0.0005118595436215401,-0.0008053398923948407
1782987497412708000,10.0747080078125,0.00006498113361885771,0.0026082999538630247,0.0012231898726895452
1782987497422783200,10.084783203125,0.0018112158868461847,0.0005768407136201859,0.0010852381819859147
1782987497432857000,10.094857177734376,0.0008942894637584686,0.004281564150005579,-0.0010546117555350065
1782987497442932200,10.10493212890625,0.00008229167724493891,0.003695402294397354,-0.00019414443522691727
1782987497453006000,10.115006103515626,0.0002798982313834131,0.0007811051327735186,-0.000024234765078290366
1782987497463080200,10.125080078125,-0.0004394215648062527,0.003686613868921995,0.0007605988066643476
1782987497473155000,10.135155029296875,0.0004964132094755769,0.00315930787473917,-0.00021411814668681473
1782987497483229200,10.145229248046874,0.0019531622529029846,0.0013763216556981206,0.0005669869715347886
1782987497493304000,10.155303955078125,0.000014114753867033869,0.007054447196424007,-0.0003105245705228299
1782987497503378200,10.165378173828126,-0.00042583944741636515,0.005335909314453602,0.002829076023772359
1782987497513453000,10.175453125,-0.0033888723701238632,0.2366333156824112,0.25764644145965576
1782987497523527200,10.185527099609375,-0.0037353497464209795,0.10257244855165482,0.06446421146392822
1782987497533602000,10.19560205078125,0.002907106652855873,-0.11125648021697998,-0.1252274215221405
1782987497543676200,10.20567626953125,0.010097108781337738,-0.1611603945493698,-0.12866929173469543
1782987497553750000,10.21575,-0.001032241270877421,-0.03797800838947296,-0.06307217478752136
1782987497563825200,10.2258251953125,0.004540956113487482,-0.022519158199429512,-0.01895158737897873
1782987497573899000,10.23589892578125,-0.0038429414853453636,0.019531356170773506,0.02948998101055622
