time,seconds_elapsed,z,y,x
1782986865432195300,0.0601953125,-1.313446044921875,-0.4436187744140625,-0.343658447265625
1782986865442270500,0.0702705078125,-1.38702392578125,-0.5814056396484375,-0.0727386474609375
1782986865452344300,0.08034423828125,-1.52178955078125,-0.7464599609375,0.2129669189453125
1782986865462419500,0.09041943359375,-1.7883758544921875,-0.904083251953125,0.421905517578125
1782986865472493300,0.100493408203125,-2.091064453125,-1.0310516357421875,0.4117279052734375
1782986865482568400,0.110568359375,-2.2909393310546875,-1.167022705078125,0.2732696533203125
1782986865492642300,0.120642333984375,-2.39251708984375,-1.3726806640625,0.08612060546875
1782986865502716400,0.13071630859375,-2.403472900390625,-1.6768341064453125,-0.151397705078125
1782986865512791300,0.140791259765625,-2.304412841796875,-1.8872222900390625,-0.39697265625
1782986865522865400,0.150865478515625,-2.102203369140625,-1.996185302734375,-0.517181396484375
1782986865532940300,0.160940185546875,-1.8741912841796875,-1.9756317138671875,-0.6219635009765625
1782986865543014400,0.171014404296875,-1.8914031982421875,-1.6373443603515625,-0.8041229248046875
1782986865553089500,0.181089599609375,-2.098846435546875,-0.9984588623046875,-0.9429473876953125
1782986865563163400,0.191163330078125,-2.2084197998046875,-0.4801177978515625,-0.8153533935546875
1782986865573238500,0.201238525390625,-2.0701904296875,-0.214508056640625,-0.425048828125
1782986865583312400,0.2113125,-1.7443695068359375,-0.07196044921875,-0.01776123046875
1782986865593386500,0.221386474609375,-1.466552734375,0.0147705078125,0.2993927001953125
1782986865603461400,0.23146142578125,-1.230712890625,0.0492706298828125,0.404327392578125
1782986865613535500,0.241535400390625,-0.9321136474609375,-0.0134124755859375,0.2192840576171875
1782986865623610600,0.251610595703125,-0.673004150390625,-0.154541015625,-0.02105712890625
1782986865633684500,0.2616845703125,-0.441162109375,-0.232208251953125,-0.165771484375
1782986865643759600,0.271759521484375,-0.227569580078125,-0.2635650634765625,-0.2033233642578125
1782986865653833500,0.28183349609375,-0.0558624267578125,-0.2327423095703125,-0.2155609130859375
1782986865663908600,0.29190869140625,0.054229736328125,-0.281982421875,-0.12188720703125
1782986865673982700,0.301982666015625,0.1884918212890625,-0.314697265625,-0.039947509765625
1782986865684056600,0.312056640625,0.3156585693359375,-0.234619140625,-0.0380706787109375
1782986865694131700,0.322131591796875,0.38775634765625,-0.1566925048828125,0.0007781982421875
1782986865704205600,0.33220556640625,0.3938751220703125,-0.09564208984375,0.093292236328125
1782986865714280700,0.34228076171875,0.3115234375,-0.061553955078125,0.2113037109375
1782986865724354600,0.3523544921875,0.18304443359375,-0.0300445556640625,0.2465362548828125
1782986865734429700,0.3624296875,0.0570220947265625,0.0136566162109375,0.1929168701171875
1782986865744503600,0.372503662109375,-0.1249847412109375,0.0111846923828125,0.121368408203125
1782986865754577400,0.382577392578125,-0.2869720458984375,-0.022674560546875,0.06494140625
1782986865764652500,0.392652587890625,-0.36810302734375,-0.0459442138671875,0.0072174072265625
1782986865774726400,0.402726318359375,-0.38970947265625,-0.038818359375,-0.027801513671875
1782986865784801500,0.412801513671875,-0.382293701171875,-0.00750732421875,-0.0223388671875
1782986865794875600,0.422875732421875,-0.359527587890625,-0.0171966552734375,0.018463134765625
1782986865804950500,0.432950439453125,-0.32183837890625,-0.0436553955078125,0.051361083984375
1782986865815024600,0.443024658203125,-0.2687530517578125,-0.0664215087890625,0.0312957763671875
1782986865825099500,0.453099609375,-0.21636962890625,-0.076934814453125,-0.0111236572265625
1782986865835173600,0.463173583984375,-0.1956634521484375,-0.0738525390625,-0.033233642578125
1782986865845247500,0.47324755859375,-0.1996307373046875,-0.0632476806640625,-0.0217437744140625
1782986865855322600,0.483322509765625,-0.193084716796875,-0.04205322265625,0.0064697265625
1782986865865396500,0.493396484375,-0.1732940673828125,-0.015655517578125,0.042938232421875
1782986865875471600,0.5034716796875,-0.14404296875,-0.022308349609375,0.0771331787109375
1782986865885545500,0.51354541015625,-0.1042022705078125,-0.0498809814453125,0.08038330078125
1782986865895620600,0.52362060546875,-0.0754241943359375,-0.0339813232421875,0.058624267578125
1782986865905694500,0.533694580078125,-0.091705322265625,-0.009735107421875,0.03717041015625
1782986865915769600,0.54376953125,-0.1378631591796875,-0.0388336181640625,0.0104522705078125
1782986865925843500,0.553843505859375,-0.19305419921875,-0.07269287109375,-0.035125732421875
1782986865935917600,0.56391748046875,-0.265777587890625,-0.12799072265625,-0.1273345947265625
1782986865945992400,0.573992431640625,-0.390625,-0.2027435302734375,-0.2233123779296875
1782986865956066600,0.584066650390625,-0.6478271484375,-0.2596435546875,-0.284393310546875
1782986865966141400,0.594141357421875,-1.013397216796875,-0.346160888671875,-0.25408935546875
1782986865976215600,0.604215576171875,-1.3702239990234375,-0.49261474609375,-0.040740966796875
1782986865986290400,0.61429052734375,-1.5723114013671875,-0.6695098876953125,0.21368408203125
1782986865996364500,0.624364501953125,-1.673797607421875,-0.887542724609375,0.3608856201171875
1782986866006439400,0.634439453125,-1.7078094482421875,-1.074737548828125,0.25897216796875
1782986866016513500,0.644513427734375,-1.9046173095703125,-1.2581024169921875,-0.0257415771484375
1782986866026587400,0.65458740234375,-2.2018280029296875,-1.4591217041015625,-0.2559051513671875
1782986866036662500,0.66466259765625,-2.3976898193359375,-1.6188507080078125,-0.3075408935546875
1782986866046736400,0.674736328125,-2.651397705078125,-1.79425048828125,-0.2869873046875
1782986866056811500,0.6848115234375,-2.4277191162109375,-1.85626220703125,-0.1809844970703125
1782986866066885400,0.694885498046875,-2.0689239501953125,-1.9732666015625,0.0163421630859375
1782986866076960500,0.70496044921875,-2.40338134765625,-2.002532958984375,-0.162841796875
1782986866087034400,0.715034423828125,-2.7368316650390625,-1.6475982666015625,-0.4918060302734375
1782986866097109500,0.725109619140625,-3.018310546875,-1.2024078369140625,-0.6156768798828125
1782986866107183400,0.735183349609375,-2.90509033203125,-0.88262939453125,-0.4948272705078125
1782986866117257500,0.745257568359375,-2.40753173828125,-0.777191162109375,-0.3398895263671875
1782986866127332400,0.755332275390625,-1.748809814453125,-0.71820068359375,-0.336090087890625
1782986866137406500,0.765406494140625,-1.315826416015625,-0.6808013916015625,-0.4136199951171875
1782986866147481300,0.7754814453125,-1.329986572265625,-0.571807861328125,-0.402069091796875
1782986866157555500,0.785555419921875,-1.602935791015625,-0.3767242431640625,-0.2333526611328125
1782986866167630300,0.79563037109375,-1.7082977294921875,-0.238189697265625,0.0553131103515625
1782986866177704400,0.805704345703125,-1.580596923828125,-0.1936798095703125,0.2558746337890625
1782986866187779300,0.815779296875,-1.2822723388671875,-0.174041748046875,0.328399658203125
1782986866197853400,0.825853515625,-0.91766357421875,-0.1720123291015625,0.316986083984375
1782986866207927600,0.835927490234375,-0.6063690185546875,-0.2155609130859375,0.227783203125
1782986866218002400,0.84600244140625,-0.4496307373046875,-0.2650909423828125,0.0794525146484375
1782986866228076500,0.85607666015625,-0.3709869384765625,-0.23406982421875,-0.1175537109375
1782986866238151400,0.8661513671875,-0.277313232421875,-0.17254638671875,-0.2187042236328125
1782986866248225500,0.8762255859375,-0.136566162109375,-0.1892852783203125,-0.2098541259765625
1782986866258300400,0.886300537109375,-0.0198211669921875,-0.2022705078125,-0.179290771484375
1782986866268374500,0.89637451171875,0.094635009765625,-0.1752471923828125,-0.1365966796875
1782986866278449400,0.906449462890625,0.18316650390625,-0.1327972412109375,-0.0420379638671875
1782986866288523500,0.9165234375,0.2183990478515625,-0.1014404296875,0.10504150390625
1782986866298597600,0.92659765625,0.207672119140625,-0.0780029296875,0.2501678466796875
1782986866308672500,0.936672607421875,0.1313934326171875,-0.06573486328125,0.281005859375
1782986866318746600,0.94674658203125,0.0123291015625,-0.064788818359375,0.2044677734375
1782986866328821500,0.956821533203125,-0.0880279541015625,-0.0605316162109375,0.1150360107421875
1782986866338895600,0.9668955078125,-0.12646484375,-0.0512542724609375,0.046905517578125
1782986866348970500,0.976970458984375,-0.142608642578125,-0.0639190673828125,-0.00762939453125
1782986866359044600,0.987044677734375,-0.1613922119140625,-0.0737457275390625,-0.0490570068359375
1782986866369119500,0.997119384765625,-0.19451904296875,-0.0671539306640625,-0.0580596923828125
1782986866379193600,1.007193603515625,-0.2412109375,-0.05291748046875,-0.03179931640625
1782986866389267500,1.017267333984375,-0.2708282470703125,-0.05126953125,-0.003082275390625
1782986866399342600,1.027342529296875,-0.2621917724609375,-0.0497589111328125,0.001190185546875
1782986866409416400,1.03741650390625,-0.2135772705078125,-0.0444488525390625,-0.0221710205078125
1782986866419491600,1.04749169921875,-0.1839141845703125,-0.053253173828125,-0.03125
1782986866429565400,1.0575654296875,-0.1697235107421875,-0.0660247802734375,-0.043548583984375
1782986866439640600,1.067640625,-0.208984375,-0.059417724609375,-0.0595245361328125
1782986866449714400,1.07771435546875,-0.273529052734375,-0.068634033203125,-0.07025146484375
1782986866459789600,1.08778955078125,-0.3845672607421875,-0.0922393798828125,-0.07965087890625
1782986866469863400,1.097863525390625,-0.5055084228515625,-0.11639404296875,-0.100860595703125
1782986866479937500,1.1079375,-0.65234375,-0.1340179443359375,-0.12103271484375
1782986866490012400,1.118012451171875,-0.8134918212890625,-0.1767425537109375,-0.1215362548828125
1782986866500086500,1.12808642578125,-0.9241180419921875,-0.27191162109375,-0.112548828125
1782986866510161400,1.138161376953125,-0.9892120361328125,-0.434722900390625,-0.0590972900390625
1782986866520235500,1.148235595703125,-1.073272705078125,-0.634918212890625,0.108489990234375
1782986866530310400,1.158310302734375,-1.21221923828125,-0.8394012451171875,0.359375
1782986866540384500,1.168384521484375,-1.375885009765625,-1.0148468017578125,0.5467376708984375
1782986866550459600,1.178459716796875,-1.561614990234375,-1.15093994140625,0.579833984375
1782986866560533500,1.188533447265625,-1.6817474365234375,-1.2467193603515625,0.4660186767578125
1782986866570607400,1.198607421875,-1.7274627685546875,-1.3166961669921875,0.3077392578125
1782986866580682500,1.2086826171875,-1.7004241943359375,-1.51904296875,0.2532958984375
1782986866590756400,1.21875634765625,-1.467010498046875,-1.811370849609375,0.3467254638671875
1782986866600831500,1.22883154296875,-1.162017822265625,-2.0379180908203125,0.4061737060546875
1782986866610905300,1.2389052734375,-1.0201873779296875,-2.04962158203125,0.3695831298828125
1782986866620980500,1.24898046875,-1.16693115234375,-1.6654205322265625,0.1131134033203125
1782986866631054300,1.259054443359375,-1.3932952880859375,-1.174285888671875,-0.23272705078125
1782986866641129500,1.26912939453125,-1.5002593994140625,-0.8773345947265625,-0.347198486328125
1782986866651203300,1.279203369140625,-1.4757080078125,-0.65264892578125,-0.3298187255859375
1782986866661277400,1.28927734375,-1.403076171875,-0.516754150390625,-0.3389739990234375
1782986866671352300,1.299352294921875,-1.326141357421875,-0.4208526611328125,-0.3016357421875
1782986866681426400,1.309426513671875,-1.25970458984375,-0.330963134765625,-0.2064971923828125
1782986866691501600,1.31950146484375,-1.224517822265625,-0.2830963134765625,-0.126373291015625
1782986866701575400,1.329575439453125,-1.214599609375,-0.27264404296875,-0.10235595703125
1782986866711650600,1.339650634765625,-1.2128753662109375,-0.260589599609375,-0.08685302734375
1782986866721724400,1.349724365234375,-1.1394195556640625,-0.2293853759765625,-0.0361785888671875
1782986866731799600,1.359799560546875,-1.0133209228515625,-0.22808837890625,0.022064208984375
1782986866741873400,1.369873291015625,-0.9346771240234375,-0.2454833984375,0.019561767578125
1782986866751947500,1.379947509765625,-0.8656768798828125,-0.2335662841796875,-0.003204345703125
1782986866762022400,1.3900224609375,-0.778411865234375,-0.2030181884765625,-0.00555419921875
1782986866772096500,1.400096435546875,-0.5923004150390625,-0.167572021484375,-0.0033111572265625
1782986866782171400,1.41017138671875,-0.351715087890625,-0.1602630615234375,0.0025634765625
1782986866792245500,1.42024560546875,-0.1839141845703125,-0.1881561279296875,-0.0134124755859375
1782986866802320400,1.4303203125,-0.0683441162109375,-0.2236328125,-0.1394500732421875
1782986866812394500,1.44039453125,-0.079986572265625,-0.2388763427734375,-0.1882171630859375
1782986866822469400,1.450469482421875,-0.1754150390625,-0.2450714111328125,-0.0702362060546875
1782986866832543500,1.46054345703125,-0.2418670654296875,-0.239471435546875,-0.0428009033203125
1782986866842617600,1.47061767578125,-0.281036376953125,-0.1847076416015625,-0.07012939453125
1782986866852692500,1.4806923828125,-0.387908935546875,-0.1408843994140625,-0.06982421875
1782986866862766600,1.4907666015625,-0.4676666259765625,-0.147308349609375,-0.0893707275390625
1782986866872841500,1.500841552734375,-0.4775848388671875,-0.1688385009765625,-0.1362762451171875
1782986866882915600,1.51091552734375,-0.452423095703125,-0.1736297607421875,-0.1402130126953125
1782986866892990500,1.520990478515625,-0.435546875,-0.1617431640625,-0.1280059814453125
1782986866903064600,1.531064697265625,-0.4322662353515625,-0.1468963623046875,-0.13623046875
1782986866913139500,1.541139404296875,-0.4213409423828125,-0.131866455078125,-0.1284027099609375
1782986866923213600,1.551213623046875,-0.31524658203125,-0.123291015625,-0.0908203125
1782986866933287700,1.56128759765625,-0.21282958984375,-0.1755523681640625,-0.0504608154296875
1782986866943362600,1.571362548828125,-0.175506591796875,-0.3283843994140625,-0.034393310546875
1782986866953436700,1.581436767578125,-0.1843414306640625,-0.4559326171875,-0.032989501953125
1782986866963511600,1.591511474609375,-0.2463836669921875,-0.4413909912109375,-0.08782958984375
1782986866973585700,1.601585693359375,-0.2952117919921875,-0.349090576171875,-0.1481170654296875
1782986866983660500,1.61166064453125,-0.338104248046875,-0.2184906005859375,-0.1397552490234375
1782986866993734700,1.621734619140625,-0.3923187255859375,-0.08258056640625,-0.109222412109375
1782986867003808500,1.63180859375,-0.4075164794921875,-0.2255706787109375,-0.1550140380859375
1782986867013883600,1.641883544921875,-0.401275634765625,-0.362335205078125,-0.1110992431640625
1782986867023957500,1.65195751953125,-0.4357757568359375,-0.5662841796875,-0.007476806640625
1782986867034032600,1.66203271484375,-0.5493011474609375,-0.730255126953125,-0.049407958984375
1782986867044106500,1.6721064453125,-0.8202972412109375,-0.809539794921875,-0.0604705810546875
1782986867054181400,1.682181396484375,-1.033416748046875,-0.9078216552734375,0.1616973876953125
1782986867064255500,1.69225537109375,-1.1643524169921875,-1.06842041015625,0.3887481689453125
1782986867074330400,1.702330322265625,-1.1833953857421875,-1.221221923828125,0.407318115234375
1782986867084404500,1.712404541015625,-1.2174072265625,-1.362152099609375,0.366241455078125
1782986867094479400,1.722479248046875,-1.40460205078125,-1.458099365234375,0.472808837890625
1782986867104553500,1.732553466796875,-1.6515655517578125,-1.4846649169921875,0.65875244140625
1782986867114627300,1.74262744140625,-1.8078765869140625,-1.448333740234375,0.75006103515625
1782986867124702500,1.752702392578125,-1.94793701171875,-1.5133819580078125,0.71307373046875
1782986867134776300,1.7627763671875,-2.1619720458984375,-1.55419921875,0.484130859375
1782986867144851500,1.7728515625,-2.2907867431640625,-1.3592681884765625,0.026092529296875
1782986867154925300,1.78292529296875,-2.143463134765625,-1.0670166015625,-0.2689666748046875
1782986867165000400,1.79300048828125,-1.687042236328125,-0.8188629150390625,-0.2799835205078125
1782986867175074300,1.80307421875,-1.081939697265625,-0.688812255859375,-0.2160797119140625
1782986867185149400,1.8131494140625,-0.603179931640625,-0.640655517578125,-0.2585296630859375
1782986867195223300,1.823223388671875,-0.3719024658203125,-0.6505889892578125,-0.4100494384765625
1782986867205297400,1.83329736328125,-0.41424560546875,-0.6227874755859375,-0.6499786376953125
1782986867215372300,1.843372314453125,-0.6801605224609375,-0.5159912109375,-0.70751953125
1782986867225446400,1.8534462890625,-0.9509429931640625,-0.39453125,-0.5463409423828125
1782986867235521300,1.863521240234375,-1.1532135009765625,-0.2686614990234375,-0.286590576171875
1782986867245595400,1.873595458984375,-1.259521484375,-0.1577911376953125,0.01776123046875
1782986867255670300,1.883670166015625,-1.2315216064453125,-0.071868896484375,0.2919921875
1782986867265744400,1.893744384765625,-1.1217498779296875,-0.0289154052734375,0.47698974609375
1782986867275819300,1.9038193359375,-1.065032958984375,-0.0369415283203125,0.4376373291015625
1782986867285893400,1.913893310546875,-1.06878662109375,-0.0482025146484375,0.2267303466796875
1782986867295967200,1.92396728515625,-1.0587921142578125,-0.15460205078125,0.0889739990234375
1782986867306042400,1.93404248046875,-1.0051116943359375,-0.2510986328125,0.0101470947265625
1782986867316116200,1.9441162109375,-0.9518890380859375,-0.2799835205078125,-0.053009033203125
1782986867326191400,1.95419140625,-0.8361358642578125,-0.2472991943359375,-0.0833282470703125
1782986867336265200,1.96426513671875,-0.67828369140625,-0.1344757080078125,0.0255279541015625
1782986867346340400,1.97434033203125,-0.4524993896484375,-0.0003662109375,0.2053070068359375
1782986867356414200,1.984414306640625,-0.2652740478515625,0.051788330078125,0.3807373046875
1782986867366488600,1.994488525390625,-0.3727264404296875,-0.055908203125,0.3582763671875
1782986867376563200,2.004563232421875,-0.326568603515625,-0.08563232421875,0.2135009765625
1782986867386637600,2.014637451171875,-0.3672332763671875,-0.12432861328125,0.0980072021484375
1782986867396712200,2.024712158203125,-0.3763580322265625,-0.1404571533203125,0.0022735595703125
1782986867406786600,2.03478662109375,-0.4337158203125,-0.2138214111328125,-0.0557098388671875
1782986867416861200,2.044861083984375,-0.5066680908203125,-0.2483062744140625,-0.098876953125
1782986867426935600,2.054935546875,-0.5585174560546875,-0.2248382568359375,-0.13519287109375
1782986867437010200,2.06501025390625,-0.5843505859375,-0.195068359375,-0.15350341796875
1782986867447084500,2.07508447265625,-0.57159423828125,-0.1687774658203125,-0.13092041015625
1782986867457159200,2.0851591796875,-0.52001953125,-0.157318115234375,-0.0960845947265625
1782986867467233500,2.095233642578125,-0.4765167236328125,-0.18426513671875,-0.106201171875
1782986867477307400,2.105307373046875,-0.463470458984375,-0.2218017578125,-0.1726531982421875
1782986867487382500,2.115382568359375,-0.4449005126953125,-0.2392425537109375,-0.2220611572265625
1782986867497456400,2.125456298828125,-0.424896240234375,-0.240875244140625,-0.24456787109375
1782986867507531500,2.135531494140625,-0.4194488525390625,-0.2287139892578125,-0.24737548828125
1782986867517605400,2.14560546875,-0.4312896728515625,-0.2331695556640625,-0.2400054931640625
1782986867527680500,2.155680419921875,-0.4915313720703125,-0.2626953125,-0.2736663818359375
1782986867537754400,2.16575439453125,-0.613250732421875,-0.294586181640625,-0.3198394775390625
1782986867547829500,2.17582958984375,-0.7559356689453125,-0.305877685546875,-0.284088134765625
1782986867557903400,2.1859033203125,-0.96502685546875,-0.3424835205078125,-0.126220703125
1782986867567977500,2.1959775390625,-1.2016754150390625,-0.4290618896484375,0.0755462646484375
1782986867578052400,2.20605224609375,-1.34771728515625,-0.530029296875,0.22723388671875
1782986867588126500,2.21612646484375,-1.4372406005859375,-0.684814453125,0.29827880859375
1782986867598201300,2.226201416015625,-1.5908660888671875,-0.8731536865234375,0.3329925537109375
1782986867608275500,2.236275390625,-1.6951751708984375,-1.148193359375,0.3835601806640625
1782986867618350300,2.246350341796875,-2.01544189453125,-1.312530517578125,0.501556396484375
1782986867628424400,2.256424560546875,-2.2349090576171875,-1.38775634765625,0.498077392578125
1782986867638499600,2.26649951171875,-2.357757568359375,-1.3551025390625,0.44720458984375
1782986867648573400,2.276573486328125,-2.443817138671875,-1.31109619140625,0.3580322265625
1782986867658647300,2.286647216796875,-2.507110595703125,-1.2006683349609375,0.152099609375
1782986867668722400,2.296722412109375,-2.61065673828125,-0.949981689453125,-0.182403564453125
1782986867678796300,2.30679638671875,-2.6657562255859375,-0.602783203125,-0.4541473388671875
1782986867688871400,2.316871337890625,-2.435577392578125,-0.376953125,-0.5045166015625
1782986867698945300,2.3269453125,-1.9676666259765625,-0.33367919921875,-0.37738037109375
1782986867709020400,2.3370205078125,-1.4358367919921875,-0.2846832275390625,-0.2366790771484375
1782986867719094300,2.34709423828125,-0.9884796142578125,-0.2119598388671875,-0.096710205078125
1782986867729169400,2.35716943359375,-0.666473388671875,-0.1729888916015625,0.0278472900390625
1782986867739243300,2.3672431640625,-0.481689453125,-0.1687164306640625,0.062164306640625
1782986867749317400,2.3773173828125,-0.4312591552734375,-0.142303466796875,0.0078887939453125
1782986867759392300,2.387392333984375,-0.44598388671875,-0.1064910888671875,0.040985107421875
1782986867769466400,2.39746630859375,-0.4667510986328125,-0.0833892822265625,0.193359375
1782986867779541500,2.40754150390625,-0.5510101318359375,-0.0979461669921875,0.3536529541015625
1782986867789615400,2.417615478515625,-0.5890045166015625,-0.10797119140625,0.401580810546875
1782986867799690500,2.4276904296875,-0.538055419921875,-0.18408203125,0.28985595703125
1782986867809764400,2.437764404296875,-0.4112396240234375,-0.242218017578125,0.1041107177734375
1782986867819838200,2.447838134765625,-0.245941162109375,-0.2632904052734375,-0.03271484375
1782986867829913300,2.457913330078125,-0.0827484130859375,-0.2555389404296875,-0.0685272216796875
1782986867839987200,2.4679873046875,0.0513763427734375,-0.2130279541015625,-0.02093505859375
1782986867850062300,2.478062255859375,0.12078857421875,-0.17962646484375,0.0434417724609375
1782986867860136200,2.48813623046875,0.1429901123046875,-0.16900634765625,0.03765869140625
1782986867870211300,2.49821142578125,0.09136962890625,-0.160614013671875,-0.0098724365234375
1782986867880285200,2.50828515625,-0.05169677734375,-0.1524505615234375,-0.030548095703125
1782986867890360300,2.5183603515625,-0.17047119140625,-0.133148193359375,-0.0321502685546875
1782986867900434400,2.528434326171875,-0.22955322265625,-0.10296630859375,-0.0403289794921875
1782986867910508300,2.53850830078125,-0.2648162841796875,-0.081298828125,-0.0455322265625
1782986867920583400,2.54858349609375,-0.282623291015625,-0.0798797607421875,-0.049468994140625
1782986867930657300,2.5586572265625,-0.3090667724609375,-0.1019744873046875,-0.0895843505859375
1782986867940732400,2.568732421875,-0.33270263671875,-0.1175994873046875,-0.1565704345703125
1782986867950806300,2.57880615234375,-0.318206787109375,-0.1224365234375,-0.1740875244140625
1782986867960881400,2.58888134765625,-0.2784576416015625,-0.1398162841796875,-0.1382904052734375
1782986867970955300,2.598955322265625,-0.222015380859375,-0.1358489990234375,-0.0941925048828125
1782986867981030400,2.609030517578125,-0.1754608154296875,-0.1518402099609375,-0.0841827392578125
1782986867991104300,2.619104248046875,-0.16717529296875,-0.1849517822265625,-0.1036376953125
1782986868001178400,2.629178466796875,-0.18182373046875,-0.1824951171875,-0.098419189453125
1782986868011253200,2.639253173828125,-0.236663818359375,-0.1672210693359375,-0.066375732421875
1782986868021327600,2.64932763671875,-0.282379150390625,-0.1589202880859375,-0.05389404296875
1782986868031402200,2.65940234375,-0.3185577392578125,-0.143341064453125,-0.05950927734375
1782986868041476600,2.6694765625,-0.4032135009765625,-0.1464691162109375,-0.0670928955078125
1782986868051551500,2.679551513671875,-0.5838470458984375,-0.177215576171875,-0.112640380859375
1782986868061625600,2.68962548828125,-0.9805145263671875,-0.2261505126953125,-0.17425537109375
1782986868071700500,2.699700439453125,-1.4454345703125,-0.2099456787109375,-0.2160186767578125
1782986868081774600,2.709774658203125,-1.784759521484375,-0.2112274169921875,-0.097198486328125
1782986868091848700,2.7198486328125,-1.908355712890625,-0.38232421875,0.2037200927734375
1782986868101923600,2.729923583984375,-1.877532958984375,-0.60595703125,0.501434326171875
1782986868111997700,2.739997802734375,-1.9066009521484375,-0.7877197265625,0.615081787109375
1782986868122072600,2.750072509765625,-2.0795440673828125,-0.8802642822265625,0.41546630859375
1782986868132146700,2.760146728515625,-2.360504150390625,-0.9112701416015625,0.1376800537109375
1782986868142221600,2.7702216796875,-2.57733154296875,-0.9117584228515625,-0.02313232421875
1782986868152295700,2.780295654296875,-2.655181884765625,-0.8988037109375,-0.0834808349609375
1782986868162370600,2.79037060546875,-2.6653289794921875,-0.925537109375,-0.1471710205078125
1782986868172444700,2.800444580078125,-2.7060699462890625,-0.9985198974609375,-0.3092193603515625
1782986868182518500,2.8105185546875,-2.717041015625,-0.90814208984375,-0.460418701171875
1782986868192593700,2.82059375,-2.5714569091796875,-0.6527252197265625,-0.5003509521484375
1782986868202667500,2.83066748046875,-2.311065673828125,-0.4079437255859375,-0.4271087646484375
1782986868212742700,2.84074267578125,-1.979248046875,-0.2718963623046875,-0.31396484375
1782986868222816500,2.85081640625,-1.5565338134765625,-0.182586669921875,-0.2276611328125
1782986868232891600,2.8608916015625,-1.16717529296875,-0.1220855712890625,-0.2392730712890625
1782986868242965500,2.870965576171875,-0.897308349609375,-0.080718994140625,-0.305267333984375
1782986868253040600,2.88104052734375,-0.723724365234375,-0.048736572265625,-0.3720245361328125
1782986868263114500,2.891114501953125,-0.6802520751953125,-0.0300140380859375,-0.4462432861328125
1782986868273188600,2.901188720703125,-0.7389678955078125,-0.01800537109375,-0.42559814453125
1782986868283263500,2.911263427734375,-0.7279205322265625,-0.0124053955078125,-0.26361083984375
1782986868293337600,2.921337646484375,-0.6131591796875,-0.0535125732421875,-0.07501220703125
1782986868303412500,2.93141259765625,-0.4764251708984375,-0.09161376953125,0.04486083984375
1782986868313486600,2.941486572265625,-0.307708740234375,-0.0878753662109375,0.0724639892578125
1782986868323561500,2.9515615234375,-0.152313232421875,-0.1131744384765625,0.0666046142578125
1782986868333635600,2.961635498046875,-0.004608154296875,-0.1230316162109375,0.055267333984375
1782986868343710500,2.97171044921875,0.0913543701171875,-0.1283416748046875,0.042205810546875
1782986868353784600,2.98178466796875,0.147552490234375,-0.1452789306640625,0.025909423828125
1782986868363858400,2.9918583984375,0.1979827880859375,-0.1447601318359375,0.02972412109375
1782986868373933600,3.00193359375,0.1855316162109375,-0.141143798828125,0.05621337890625
1782986868384007400,3.01200732421875,0.06671142578125,-0.1144256591796875,0.095062255859375
1782986868394082600,3.02208251953125,-0.07470703125,-0.09136962890625,0.146484375
1782986868404156400,3.032156494140625,-0.2543792724609375,-0.096160888671875,0.179290771484375
1782986868414231600,3.0422314453125,-0.4027862548828125,-0.0886688232421875,0.137908935546875
1782986868424305400,3.052305419921875,-0.4746246337890625,-0.089508056640625,0.06195068359375
1782986868434380500,3.062380615234375,-0.4864501953125,-0.110137939453125,0.025543212890625
1782986868444454400,3.072454345703125,-0.454498291015625,-0.1308746337890625,0.0060577392578125
1782986868454528500,3.082528564453125,-0.3965301513671875,-0.1424560546875,-0.001861572265625
1782986868464603400,3.092603271484375,-0.317657470703125,-0.149871826171875,-0.0026092529296875
1782986868474677500,3.102677490234375,-0.2307586669921875,-0.1676483154296875,0.0010223388671875
1782986868484752400,3.11275244140625,-0.1757049560546875,-0.179046630859375,-0.0049896240234375
1782986868494826500,3.122826416015625,-0.1743927001953125,-0.173309326171875,-0.0215606689453125
1782986868504901400,3.1329013671875,-0.2351226806640625,-0.154144287109375,-0.04180908203125
1782986868514975500,3.1429755859375,-0.3136749267578125,-0.130615234375,-0.079132080078125
1782986868525050400,3.15305029296875,-0.34747314453125,-0.109619140625,-0.128631591796875
1782986868535124500,3.16312451171875,-0.3568267822265625,-0.1032562255859375,-0.1576690673828125
1782986868545198300,3.1731982421875,-0.3393096923828125,-0.0857086181640625,-0.1564788818359375
1782986868555273500,3.1832734375,-0.3273773193359375,-0.070648193359375,-0.149139404296875
1782986868565347300,3.193347412109375,-0.334228515625,-0.07183837890625,-0.1634063720703125
1782986868575422500,3.20342236328125,-0.364898681640625,-0.0734405517578125,-0.1914520263671875
1782986868585496300,3.213496337890625,-0.4222564697265625,-0.092926025390625,-0.207733154296875
1782986868595571500,3.223571533203125,-0.4524993896484375,-0.1013336181640625,-0.2032470703125
1782986868605645300,3.233645263671875,-0.5560302734375,-0.14398193359375,-0.19464111328125
1782986868615720400,3.243720458984375,-0.7529754638671875,-0.2115631103515625,-0.1410980224609375
1782986868625794300,3.253794189453125,-1.0076751708984375,-0.3108367919921875,0.0164794921875
1782986868635868700,3.26386865234375,-1.2801971435546875,-0.479766845703125,0.2834930419921875
1782986868645943300,3.273943359375,-1.662689208984375,-0.73779296875,0.57427978515625
1782986868656017700,3.284017578125,-2.090606689453125,-1.0178070068359375,0.688262939453125
1782986868666092300,3.29409228515625,-2.6474456787109375,-1.153045654296875,0.5400390625
1782986868676166700,3.304166748046875,-3.5668792724609375,-0.965728759765625,0.23052978515625
1782986868686241300,3.3142412109375,-4.618377685546875,-0.6215972900390625,-0.0627593994140625
1782986868696315600,3.324315673828125,-5.2863616943359375,-0.460479736328125,-0.190582275390625
1782986868706390500,3.334390625,-5.3211669921875,-0.4522247314453125,-0.160858154296875
1782986868716464600,3.344464599609375,-5.033294677734375,-0.5292510986328125,-0.000274658203125
1782986868726538500,3.35453857421875,-4.5586700439453125,-0.5490264892578125,0.0604705810546875
1782986868736613600,3.364613525390625,-4.0206146240234375,-0.5153961181640625,-0.02264404296875
1782986868746687500,3.3746875,-3.4287261962890625,-0.5388946533203125,-0.1134490966796875
1782986868756762600,3.3847626953125,-2.7344512939453125,-0.580413818359375,-0.23095703125
1782986868766836500,3.39483642578125,-2.0461883544921875,-0.568115234375,-0.390716552734375
1782986868776911600,3.40491162109375,-1.508453369140625,-0.5003509521484375,-0.5082244873046875
1782986868786985500,3.4149853515625,-0.977081298828125,-0.4095916748046875,-0.5335845947265625
1782986868797060600,3.425060546875,-0.4293212890625,-0.36669921875,-0.4911346435546875
1782986868807134500,3.435134521484375,0.02789306640625,-0.345062255859375,-0.3318328857421875
1782986868817208600,3.44520849609375,0.372711181640625,-0.325897216796875,-0.1208953857421875
1782986868827283700,3.45528369140625,0.6462249755859375,-0.2251739501953125,-0.0562286376953125
1782986868837357600,3.465357666015625,0.82080078125,-0.148162841796875,-0.0328216552734375
1782986868847432700,3.4754326171875,0.9898223876953125,-0.1774139404296875,0.222747802734375
1782986868857506600,3.485506591796875,1.1200408935546875,-0.1456756591796875,0.3340911865234375
1782986868867581700,3.495581787109375,1.149627685546875,-0.0054473876953125,0.3464813232421875
1782986868877655600,3.505655517578125,0.9893035888671875,0.1378021240234375,0.3527374267578125
1782986868887730700,3.515730712890625,0.6255035400390625,0.2265167236328125,0.349456787109375
1782986868897804500,3.525804443359375,0.040924072265625,0.28814697265625,0.3049468994140625
1782986868907878400,3.53587841796875,-0.4464874267578125,0.3615264892578125,0.1559600830078125
1782986868917953500,3.54595361328125,-0.6127166748046875,0.4039459228515625,0.0147857666015625
1782986868928027400,3.55602734375,-0.64605712890625,0.31597900390625,-0.0021514892578125
1782986868938102500,3.5661025390625,-0.5043487548828125,0.308197021484375,0.0316619873046875
1782986868948176600,3.5761767578125,-0.3765411376953125,0.3211517333984375,0.0395050048828125
1782986868958251500,3.58625146484375,-0.2587432861328125,0.2118072509765625,-0.0939178466796875
1782986868968325600,3.59632568359375,-0.1246490478515625,0.135772705078125,-0.1040802001953125
1782986868978400500,3.606400390625,0.0013885498046875,0.0505828857421875,-0.202606201171875
1782986868988474600,3.616474609375,0.115997314453125,-0.0231475830078125,-0.19268798828125
1782986868998548500,3.626548583984375,0.119293212890625,-0.1054229736328125,-0.25103759765625
1782986869008623600,3.63662353515625,0.03375244140625,-0.151397705078125,-0.3052825927734375
1782986869018697500,3.646697509765625,0.0265350341796875,-0.1634674072265625,-0.25689697265625
1782986869028772600,3.656772705078125,0.0113677978515625,-0.1437530517578125,-0.1744842529296875
1782986869038847000,3.666846923828125,-0.0059051513671875,-0.145538330078125,-0.1181640625
1782986869048922000,3.676922119140625,0.0392303466796875,-0.1341552734375,-0.0651397705078125
1782986869058996000,3.686995849609375,0.1276092529296875,-0.1339111328125,-0.0345458984375
1782986869069071000,3.697071044921875,0.1828765869140625,-0.1128692626953125,-0.0386199951171875
1782986869079145000,3.70714501953125,0.1649322509765625,-0.07122802734375,-0.0330047607421875
1782986869089219000,3.717218994140625,0.041046142578125,-0.0856781005859375,0.0064697265625
1782986869099294000,3.7272939453125,-0.1309051513671875,-0.1024017333984375,0.0279998779296875
1782986869109368000,3.7373681640625,-0.3217620849609375,-0.1705780029296875,-0.254150390625
1782986869119443000,3.74744287109375,-0.4292449951171875,-0.2010498046875,-0.283905029296875
1782986869129517000,3.75751708984375,-0.5355377197265625,-0.1652679443359375,-0.108856201171875
1782986869139592000,3.767592041015625,-0.721099853515625,-0.168731689453125,-0.1460113525390625
1782986869149666000,3.777666015625,-0.9156494140625,-0.1862030029296875,-0.149658203125
1782986869159741000,3.787740966796875,-1.1763153076171875,-0.3472137451171875,-0.1536102294921875
1782986869169815000,3.79781494140625,-1.4208984375,-0.58489990234375,-0.1625213623046875
1782986869179889000,3.807888916015625,-1.6721343994140625,-0.8906402587890625,-0.1893157958984375
1782986869189964000,3.817964111328125,-1.9837646484375,-1.32806396484375,-0.3213653564453125
1782986869200038000,3.828037841796875,-2.1053314208984375,-1.8111572265625,-0.2672882080078125
1782986869210113000,3.838113037109375,-2.352142333984375,-1.8813934326171875,0.0735015869140625
1782986869220187000,3.848186767578125,-3.0781402587890625,-1.6494140625,0.3470611572265625
1782986869230262000,3.858261962890625,-4.03802490234375,-1.491790771484375,0.2354888916015625
1782986869240336000,3.8683359375,-4.736663818359375,-1.3108673095703125,-0.1440277099609375
1782986869250411000,3.878410888671875,-4.968597412109375,-1.1434173583984375,-0.431182861328125
1782986869260484900,3.88848486328125,-4.630462646484375,-0.923919677734375,-0.542022705078125
1782986869270560000,3.89856005859375,-3.9136199951171875,-0.7442626953125,-0.447265625
1782986869280633900,3.9086337890625,-3.2039947509765625,-0.6342926025390625,-0.1306915283203125
1782986869290708000,3.9187080078125,-2.435943603515625,-0.5815582275390625,0.035369873046875
1782986869300782800,3.928782958984375,-1.5571441650390625,-0.586090087890625,-0.0528106689453125
1782986869310857000,3.93885693359375,-0.8390655517578125,-0.570556640625,-0.1414642333984375
1782986869320931800,3.948931884765625,-0.38201904296875,-0.4901885986328125,-0.164398193359375
1782986869331006000,3.959005859375,-0.1222686767578125,-0.381317138671875,-0.16131591796875
1782986869341080800,3.969080810546875,0.0420379638671875,-0.2976226806640625,-0.0839996337890625
1782986869351155000,3.979155029296875,0.1883392333984375,-0.227081298828125,0.1373748779296875
1782986869361229800,3.989229736328125,0.40826416015625,-0.1594696044921875,0.206298828125
1782986869371304000,3.999303955078125,0.6544036865234375,-0.1253662109375,0.2105255126953125
1782986869381378000,4.0093779296875,0.8264617919921875,-0.12060546875,0.2670745849609375
1782986869391453000,4.019452880859375,0.85247802734375,-0.125732421875,0.2068328857421875
1782986869401527000,4.029527099609375,0.713470458984375,-0.1029815673828125,0.0986175537109375
1782986869411602000,4.039601806640625,0.48773193359375,-0.0540618896484375,0.01116943359375
1782986869421676000,4.049676025390625,0.1991424560546875,0.0036468505859375,-0.058197021484375
1782986869431751000,4.0597509765625,-0.0848236083984375,0.0338592529296875,-0.0693206787109375
1782986869441825000,4.069824951171875,-0.27740478515625,0.0430908203125,-0.0750579833984375
1782986869451900000,4.07989990234375,-0.394439697265625,0.0440521240234375,-0.0573577880859375
1782986869461974000,4.08997412109375,-0.4845428466796875,0.045074462890625,-0.0006256103515625
1782986869472048000,4.100048095703125,-0.5536651611328125,0.043243408203125,0.031585693359375
1782986869482123000,4.110123046875,-0.5447235107421875,0.037841796875,0.013580322265625
1782986869492197000,4.120197021484375,-0.4467620849609375,0.0326080322265625,-0.017974853515625
1782986869502272000,4.13027197265625,-0.2975616455078125,0.0203399658203125,-0.013885498046875
1782986869512346000,4.14034619140625,-0.1376953125,-0.0103302001953125,0.00091552734375
1782986869522421200,4.150421142578125,-0.0072021484375,-0.0454864501953125,-0.0274505615234375
1782986869532495000,4.1604951171875,0.082305908203125,-0.0555267333984375,-0.0726318359375
1782986869542570200,4.1705703125,0.1122894287109375,-0.0675048828125,-0.0774688720703125
1782986869552644000,4.18064404296875,0.1163177490234375,-0.070892333984375,-0.059356689453125
1782986869562718000,4.190718017578125,0.1212615966796875,-0.0581207275390625,-0.0463409423828125
1782986869572793000,4.20079296875,0.0969390869140625,-0.0435028076171875,-0.02423095703125
1782986869582867000,4.210866943359375,0.045806884765625,-0.0352630615234375,0.0066070556640625
1782986869592942000,4.220942138671875,0.00048828125,-0.04608154296875,0.019805908203125
1782986869603016000,4.231015869140625,-0.0325164794921875,-0.062530517578125,0.0031280517578125
1782986869613091000,4.241091064453125,-0.0690460205078125,-0.0917816162109375,-0.018280029296875
1782986869623165000,4.2511650390625,-0.1251678466796875,-0.1252593994140625,-0.04425048828125
1782986869633240000,4.261239990234375,-0.237457275390625,-0.141998291015625,-0.0588531494140625
1782986869643314200,4.271314208984375,-0.4267578125,-0.1662139892578125,-0.0445709228515625
1782986869653388000,4.281387939453125,-0.6786956787109375,-0.229400634765625,-0.0297393798828125
1782986869663463200,4.291463134765625,-1.003204345703125,-0.355255126953125,-0.043670654296875
1782986869673537000,4.301537109375,-1.3982696533203125,-0.5645294189453125,-0.0583648681640625
1782986869683612200,4.311612060546875,-1.8620147705078125,-0.869842529296875,0.0245361328125
1782986869693686000,4.32168603515625,-2.388916015625,-1.2338409423828125,0.215362548828125
1782986869703761200,4.33176123046875,-2.8387908935546875,-1.5080108642578125,0.3409423828125
1782986869713835000,4.3418349609375,-3.1424560546875,-1.678558349609375,0.3355560302734375
1782986869723910100,4.35191015625,-3.451812744140625,-1.7634735107421875,0.330078125
1782986869733984000,4.36198388671875,-3.7494659423828125,-1.7881011962890625,0.33807373046875
1782986869744057900,4.372057861328125,-3.790771484375,-1.8053131103515625,0.261749267578125
1782986869754133000,4.382133056640625,-3.629638671875,-1.820404052734375,0.22882080078125
1782986869764206800,4.392206787109375,-3.46002197265625,-1.777099609375,0.2067108154296875
1782986869774282000,4.402281982421875,-3.458587646484375,-1.55389404296875,-0.0131683349609375
1782986869784356000,4.412356201171875,-3.5102386474609375,-1.176544189453125,-0.2437591552734375
1782986869794431000,4.422430908203125,-3.33648681640625,-0.81097412109375,-0.3424072265625
1782986869804505000,4.432505126953125,-2.8396148681640625,-0.5336761474609375,-0.259735107421875
1782986869814580000,4.442580078125,-2.0992889404296875,-0.294830322265625,-0.0981597900390625
1782986869824654000,4.452654052734375,-1.3972320556640625,-0.0806732177734375,0.0286102294921875
1782986869834728000,4.46272802734375,-0.9904022216796875,0.054046630859375,0.225006103515625
1782986869844803000,4.472802978515625,-0.666839599609375,0.06915283203125,0.3772735595703125
1782986869854877000,4.482876953125,-0.1779327392578125,0.03607177734375,0.204345703125
1782986869864952000,4.4929521484375,0.338409423828125,-0.0956573486328125,-0.104095458984375
1782986869875026000,4.50302587890625,0.7588653564453125,-0.1860809326171875,-0.208282470703125
1782986869885101000,4.51310107421875,1.0745849609375,-0.184417724609375,-0.0764007568359375
1782986869895175000,4.5231748046875,1.2251434326171875,-0.1687469482421875,0.0100860595703125
1782986869905250000,4.53325,1.161346435546875,-0.14129638671875,0.0551910400390625
1782986869915324000,4.543323974609375,0.9267578125,-0.0832061767578125,0.0330810546875
1782986869925398000,4.55339794921875,0.5755462646484375,-0.0059356689453125,-0.0050201416015625
1782986869935473000,4.563472900390625,0.2384490966796875,0.02880859375,-0.0460357666015625
1782986869945547000,4.573547119140625,-0.0240325927734375,0.0495758056640625,-0.1014251708984375
1782986869955622000,4.583621826171875,-0.2061004638671875,0.0525970458984375,-0.1220245361328125
1782986869965696000,4.593696044921875,-0.3379058837890625,0.0471343994140625,-0.145355224609375
1782986869975771000,4.60377099609375,-0.422210693359375,0.0337982177734375,-0.14959716796875
1782986869985845000,4.613844970703125,-0.4222564697265625,0.014373779296875,-0.1146240234375
1782986869995920000,4.623919921875,-0.3768768310546875,-0.0051727294921875,-0.075164794921875
1782986870005994000,4.633993896484375,-0.3309326171875,-0.029327392578125,-0.04803466796875
1782986870016068000,4.644068115234375,-0.2745819091796875,-0.0661163330078125,-0.0359344482421875
1782986870026143000,4.65414306640625,-0.1889801025390625,-0.0966033935546875,-0.054962158203125
1782986870036217000,4.664217041015625,-0.0887298583984375,-0.102447509765625,-0.098052978515625
1782986870046291700,4.674291748046875,-0.0107421875,-0.0996856689453125,-0.137939453125
1782986870056366000,4.684365966796875,0.030609130859375,-0.0944671630859375,-0.1496124267578125
1782986870066440700,4.694440673828125,0.028411865234375,-0.0801239013671875,-0.1317291259765625
1782986870076515000,4.70451513671875,0.00579833984375,-0.069122314453125,-0.1010589599609375
1782986870086589700,4.714589599609375,-0.0270843505859375,-0.0716094970703125,-0.0770263671875
1782986870096664000,4.7246640625,-0.0587310791015625,-0.07940673828125,-0.048583984375
1782986870106738000,4.734738037109375,-0.088531494140625,-0.101654052734375,-0.0359649658203125
1782986870116813000,4.74481298828125,-0.1142730712890625,-0.123748779296875,-0.0467681884765625
1782986870126887000,4.754886962890625,-0.131500244140625,-0.1339263916015625,-0.0367279052734375
1782986870136962000,4.764962158203125,-0.137420654296875,-0.1390380859375,-0.0226593017578125
1782986870147036000,4.775035888671875,-0.1463775634765625,-0.13885498046875,-0.0196685791015625
1782986870157111000,4.785111083984375,-0.16851806640625,-0.139404296875,-0.0136871337890625
1782986870167185000,4.795184814453125,-0.19940185546875,-0.14447021484375,0.00262451171875
1782986870177260000,4.805260009765625,-0.277923583984375,-0.1395721435546875,0.0279083251953125
1782986870187334000,4.815333984375,-0.4531097412109375,-0.1407928466796875,0.0580291748046875
1782986870197408000,4.825407958984375,-0.697540283203125,-0.18798828125,0.06610107421875
1782986870207483000,4.83548291015625,-0.9630279541015625,-0.28192138671875,0.0045166015625
1782986870217557000,4.845556884765625,-1.32122802734375,-0.4542999267578125,-0.06903076171875
1782986870227631900,4.8556318359375,-1.8006439208984375,-0.6849212646484375,-0.1192474365234375
1782986870237706000,4.8657060546875,-2.3748626708984375,-0.9173431396484375,-0.1206512451171875
1782986870247781000,4.875781005859375,-2.8100738525390625,-1.1913604736328125,-0.10443115234375
1782986870257855000,4.88585498046875,-2.939544677734375,-1.370849609375,-0.078582763671875
1782986870267930000,4.89593017578125,-3.1141357421875,-1.5007171630859375,0.0408477783203125
1782986870278004000,4.90600390625,-3.413970947265625,-1.6552734375,0.10968017578125
1782986870288077800,4.916077880859375,-3.5201416015625,-1.7559356689453125,0.1040802001953125
1782986870298153000,4.926153076171875,-3.5062408447265625,-1.9135894775390625,-0.0890350341796875
1782986870308226800,4.936226806640625,-3.4083404541015625,-2.045135498046875,-0.223236083984375
1782986870318302000,4.946302001953125,-3.3632049560546875,-1.7488555908203125,0.0462646484375
1782986870328375800,4.956375732421875,-3.564453125,-1.338958740234375,0.07159423828125
1782986870338450000,4.966449951171875,-3.7218170166015625,-0.929412841796875,-0.0651092529296875
1782986870348523800,4.976523681640625,-3.5243682861328125,-0.5337371826171875,-0.11236572265625
1782986870358599000,4.986598876953125,-2.90789794921875,-0.283660888671875,-0.0689849853515625
1782986870368672800,4.9966728515625,-2.0181884765625,-0.18548583984375,-0.0345001220703125
1782986870378748000,5.006747802734375,-1.1144256591796875,-0.162689208984375,-0.0346221923828125
1782986870388821800,5.01682177734375,-0.37274169921875,-0.1818389892578125,-0.032806396484375
1782986870398897000,5.02689697265625,0.132171630859375,-0.211456298828125,0.0290069580078125
1782986870408970800,5.036970703125,0.429412841796875,-0.219451904296875,0.1685333251953125
1782986870419044900,5.047044921875,0.6201324462890625,-0.22174072265625,0.2757110595703125
1782986870429119700,5.05711962890625,0.7506256103515625,-0.1996002197265625,0.2617034912109375
1782986870439193900,5.06719384765625,0.8610992431640625,-0.180755615234375,0.1817626953125
1782986870449268700,5.077268798828125,0.9915924072265625,-0.1321563720703125,0.13116455078125
1782986870459342800,5.0873427734375,1.071441650390625,-0.060760498046875,0.0859375
1782986870469417700,5.097417724609375,0.9790191650390625,-0.00653076171875,0.0849151611328125
1782986870479491800,5.107491943359375,0.7169342041015625,0.0438232421875,0.0370025634765625
1782986870489566700,5.117566650390625,0.35247802734375,0.0977325439453125,-0.0660400390625
1782986870499640800,5.127640869140625,-0.0527191162109375,0.14019775390625,-0.1490936279296875
1782986870509715000,5.13771484375,-0.401763916015625,0.1633148193359375,-0.226959228515625
1782986870519789800,5.147789794921875,-0.63006591796875,0.1525421142578125,-0.270294189453125
1782986870529864000,5.157864013671875,-0.732330322265625,0.119964599609375,-0.260498046875
1782986870539938800,5.167938720703125,-0.7408599853515625,0.0876617431640625,-0.213043212890625
1782986870550013000,5.178012939453125,-0.6796722412109375,0.0453643798828125,-0.1710357666015625
1782986870560087800,5.188087890625,-0.583160400390625,0.0037078857421875,-0.1421661376953125
1782986870570162000,5.198161865234375,-0.4878387451171875,-0.0102691650390625,-0.115142822265625
1782986870580236800,5.20823681640625,-0.3866729736328125,-0.0256805419921875,-0.0870208740234375
1782986870590311000,5.218310791015625,-0.26898193359375,-0.0317230224609375,-0.0922698974609375
1782986870600385000,5.228385009765625,-0.1664276123046875,-0.027130126953125,-0.101593017578125
1782986870610460000,5.2384599609375,-0.0881195068359375,-0.0331573486328125,-0.0985260009765625
1782986870620534000,5.248533935546875,-0.0332183837890625,-0.03216552734375,-0.08575439453125
1782986870630609200,5.258609130859375,-0.001800537109375,-0.039215087890625,-0.072052001953125
1782986870640683000,5.26868310546875,0.014068603515625,-0.0583953857421875,-0.0692291259765625
1782986870650758100,5.278758056640625,0.0307159423828125,-0.08099365234375,-0.07196044921875
1782986870660832000,5.28883203125,0.0573272705078125,-0.099884033203125,-0.08355712890625
1782986870670907100,5.2989072265625,0.0717926025390625,-0.112579345703125,-0.075592041015625
1782986870680981800,5.308981689453125,0.080902099609375,-0.1197052001953125,-0.0515289306640625
1782986870691056000,5.31905615234375,0.0824737548828125,-0.1257171630859375,-0.0286865234375
1782986870701130800,5.329130859375,0.0748748779296875,-0.1309356689453125,-0.013702392578125
1782986870711205000,5.339205078125,0.045684814453125,-0.1397552490234375,0.002044677734375
1782986870721279700,5.34927978515625,-0.0154571533203125,-0.156951904296875,0.0213775634765625
1782986870731354000,5.35935400390625,-0.11016845703125,-0.1724395751953125,0.0199432373046875
1782986870741428700,5.3694287109375,-0.2828521728515625,-0.1889190673828125,-0.0087127685546875
1782986870751503000,5.379503173828125,-0.5258331298828125,-0.2230224609375,-0.014068603515625
1782986870761577700,5.38957763671875,-0.8173065185546875,-0.2934417724609375,0.0129852294921875
1782986870771652000,5.399652099609375,-1.1941986083984375,-0.4490966796875,0.01483154296875
1782986870781726000,5.409725830078125,-1.6343841552734375,-0.69183349609375,-0.0227813720703125
1782986870791801000,5.419801025390625,-2.0342254638671875,-1.0178375244140625,-0.076934814453125
1782986870801875000,5.429875,-2.38189697265625,-1.3914642333984375,-0.2201385498046875
1782986870811950000,5.4399501953125,-2.6685638427734375,-1.7098236083984375,-0.36737060546875
1782986870822024000,5.45002392578125,-3.01318359375,-1.8078765869140625,-0.3218841552734375
1782986870832099000,5.46009912109375,-3.38372802734375,-1.6961212158203125,-0.2891845703125
1782986870842173000,5.4701728515625,-3.8997955322265625,-1.64813232421875,-0.4486083984375
1782986870852248000,5.480248046875,-4.5921478271484375,-1.63677978515625,-0.56695556640625
1782986870862322000,5.490322021484375,-5.0329742431640625,-1.4925384521484375,-0.406036376953125
1782986870872396000,5.50039599609375,-5.0570831298828125,-1.1419677734375,-0.218292236328125
1782986870882471000,5.510470947265625,-4.6476593017578125,-0.7724609375,-0.121063232421875
1782986870892545000,5.520544921875,-3.9483184814453125,-0.5712432861328125,-0.0462493896484375
1782986870902620000,5.530619873046875,-3.154205322265625,-0.459869384765625,-0.100006103515625
1782986870912694000,5.540694091796875,-2.3678436279296875,-0.3857879638671875,-0.2852783203125
1782986870922769000,5.550768798828125,-1.686676025390625,-0.3262786865234375,-0.439239501953125
1782986870932843000,5.560843017578125,-1.083251953125,-0.2471466064453125,-0.5194244384765625
1782986870942918000,5.57091796875,-0.536529541015625,-0.171783447265625,-0.55181884765625
1782986870952992000,5.580991943359375,-0.0953369140625,-0.0730133056640625,-0.4646148681640625
1782986870963067000,5.59106689453125,0.2470855712890625,-0.022674560546875,-0.2518463134765625
1782986870973141000,5.60114111328125,0.5275726318359375,-0.0428466796875,-0.0229034423828125
1782986870983214800,5.61121484375,0.7330169677734375,-0.10272216796875,0.1741180419921875
1782986870993290000,5.6212900390625,0.9090576171875,-0.161407470703125,0.226837158203125
1782986871003363800,5.63136376953125,1.0419921875,-0.1683197021484375,0.1501007080078125
1782986871013439000,5.64143896484375,1.143310546875,-0.151336669921875,0.06512451171875
1782986871023512800,5.651512939453125,1.1558380126953125,-0.103546142578125,0.045562744140625
1782986871033588000,5.661587890625,1.0145721435546875,-0.0452728271484375,0.0723724365234375
1782986871043662000,5.671662109375,0.766571044921875,0.00811767578125,0.09063720703125
1782986871053737000,5.681737060546875,0.5298004150390625,0.0665740966796875,0.0611572265625
1782986871063811000,5.69181103515625,0.2856597900390625,0.1084136962890625,0.008026123046875
1782986871073885000,5.701885009765625,0.042327880859375,0.1133880615234375,-0.0231475830078125
1782986871083960000,5.7119599609375,-0.139923095703125,0.0890655517578125,-0.0803985595703125
1782986871094034000,5.722033935546875,-0.233551025390625,0.0535125732421875,-0.15240478515625
1782986871104109000,5.732109130859375,-0.271453857421875,0.0247955322265625,-0.1790008544921875
1782986871114183000,5.742182861328125,-0.273681640625,0.008880615234375,-0.145660400390625
1782986871124258000,5.752258056640625,-0.2518157958984375,0.0030975341796875,-0.0880889892578125
1782986871134332000,5.762331787109375,-0.2214813232421875,-0.0030517578125,-0.041961669921875
1782986871144407000,5.772406982421875,-0.2036895751953125,-0.00640869140625,-0.0151824951171875
1782986871154481000,5.78248095703125,-0.2005615234375,0.0003814697265625,-0.0042877197265625
1782986871164556000,5.79255615234375,-0.2203521728515625,0.006744384765625,0.0075836181640625
1782986871174630000,5.8026298828125,-0.253570556640625,0.0038909912109375,0.0265655517578125
1782986871184704000,5.8127041015625,-0.264404296875,-0.00140380859375,0.03216552734375
1782986871194779000,5.82277880859375,-0.251312255859375,-0.0076751708984375,0.0265045166015625
1782986871204853000,5.83285302734375,-0.2335968017578125,-0.0233001708984375,0.0105438232421875
1782986871214928000,5.842927978515625,-0.20672607421875,-0.0429229736328125,-0.01934814453125
1782986871225002000,5.853001953125,-0.1851348876953125,-0.059539794921875,-0.0399627685546875
1782986871235076900,5.863076904296875,-0.175262451171875,-0.074005126953125,-0.047454833984375
1782986871245151000,5.87315087890625,-0.19287109375,-0.0880584716796875,-0.059783935546875
1782986871255225900,5.883225830078125,-0.255462646484375,-0.097076416015625,-0.0606536865234375
1782986871265300000,5.893300048828125,-0.3612823486328125,-0.1092071533203125,-0.0465850830078125
1782986871275373800,5.903373779296875,-0.5317230224609375,-0.123382568359375,-0.0294189453125
1782986871285449000,5.913448974609375,-0.7781524658203125,-0.15301513671875,-0.02008056640625
1782986871295522800,5.923522705078125,-1.0632476806640625,-0.2148590087890625,-0.018035888671875
1782986871305598000,5.933597900390625,-1.3053436279296875,-0.31103515625,-0.0234375
1782986871315671800,5.943671875,-1.503662109375,-0.4297027587890625,0.000762939453125
1782986871325747000,5.953746826171875,-1.697845458984375,-0.56317138671875,0.071807861328125
1782986871335820800,5.96382080078125,-1.91033935546875,-0.721649169921875,0.18695068359375
1782986871345896000,5.97389599609375,-2.139251708984375,-0.92486572265625,0.212158203125
1782986871355969800,5.9839697265625,-2.35382080078125,-1.269012451171875,-0.0147552490234375
1782986871366044200,5.994044189453125,-2.5412139892578125,-1.63433837890625,-0.4081573486328125
1782986871376118800,6.004118896484375,-2.740325927734375,-1.7984161376953125,-0.46832275390625
1782986871386193200,6.014193115234375,-2.835296630859375,-1.8263092041015625,-0.2862396240234375
1782986871396267800,6.024267822265625,-3.0064239501953125,-1.823699951171875,-0.114349365234375
1782986871406342100,6.034342041015625,-3.5178985595703125,-1.8283843994140625,-0.004852294921875
1782986871416417000,6.0444169921875,-4.123992919921875,-1.610687255859375,-0.0055084228515625
1782986871426491100,6.0544912109375,-4.3423309326171875,-1.1702423095703125,0.0635223388671875
1782986871436566000,6.06456591796875,-4.094268798828125,-0.7554168701171875,0.0844879150390625
1782986871446640000,6.07464013671875,-3.4840240478515625,-0.49090576171875,0.0228424072265625
1782986871456715000,6.084715087890625,-2.661590576171875,-0.3045654296875,-0.0295867919921875
1782986871466789000,6.0947890625,-1.8492431640625,-0.1269989013671875,-0.06707763671875
1782986871476863000,6.104863037109375,-1.21246337890625,0.0207672119140625,-0.0602874755859375
1782986871486938000,6.114938232421875,-0.7115631103515625,0.0902099609375,-0.0162353515625
1782986871497012000,6.125011962890625,-0.2928009033203125,0.08203125,-0.0353546142578125
1782986871507087000,6.135087158203125,0.0371246337890625,0.0431365966796875,-0.137481689453125
1782986871517161000,6.145160888671875,0.2307586669921875,-0.005218505859375,-0.2388916015625
1782986871527236000,6.155236083984375,0.3152008056640625,-0.0392608642578125,-0.2189788818359375
1782986871537310200,6.165310302734375,0.3560791015625,-0.0358734130859375,-0.1072998046875
1782986871547385000,6.175385009765625,0.4105682373046875,-0.04046630859375,0.0225372314453125
1782986871557459200,6.185459228515625,0.509674072265625,-0.0485992431640625,0.0786285400390625
1782986871567533000,6.195532958984375,0.615936279296875,-0.0741729736328125,0.0572967529296875
1782986871577608200,6.205608154296875,0.69598388671875,-0.102294921875,0.0058746337890625
1782986871587682000,6.21568212890625,0.7110137939453125,-0.10333251953125,-0.0260772705078125
1782986871597757200,6.225757080078125,0.6519927978515625,-0.0732269287109375,-0.0599365234375
1782986871607831000,6.2358310546875,0.5036163330078125,-0.0274810791015625,-0.07196044921875
1782986871617906200,6.24590625,0.2977447509765625,0.0181427001953125,-0.0735015869140625
1782986871627980000,6.25597998046875,0.0772552490234375,0.0375213623046875,-0.081268310546875
1782986871638055200,6.26605517578125,-0.1230621337890625,0.0272216796875,-0.0989837646484375
1782986871648129000,6.27612890625,-0.28179931640625,0.003997802734375,-0.1095733642578125
1782986871658204200,6.2862041015625,-0.3960723876953125,-0.019683837890625,-0.091217041015625
1782986871668278000,6.296278076171875,-0.4481353759765625,-0.0511627197265625,-0.066680908203125
1782986871678352100,6.30635205078125,-0.4571075439453125,-0.0781707763671875,-0.0490264892578125
1782986871688427000,6.316427001953125,-0.4418487548828125,-0.0789337158203125,-0.0309295654296875
1782986871698501000,6.326501220703125,-0.39727783203125,-0.0720977783203125,-0.0089874267578125
1782986871708576000,6.336575927734375,-0.351531982421875,-0.077972412109375,0.009735107421875
1782986871718650000,6.346650146484375,-0.3070220947265625,-0.0849761962890625,0.01123046875
1782986871728725000,6.35672509765625,-0.2653961181640625,-0.0948944091796875,0.0009765625
1782986871738799000,6.366799072265625,-0.242950439453125,-0.108123779296875,-0.003936767578125
1782986871748874000,6.3768740234375,-0.2290496826171875,-0.12139892578125,0.000518798828125
1782986871758948000,6.386947998046875,-0.2075042724609375,-0.1343231201171875,-0.017730712890625
1782986871769022000,6.39702197265625,-0.1921234130859375,-0.135040283203125,-0.0330810546875
1782986871779097000,6.40709716796875,-0.198822021484375,-0.1267242431640625,-0.020904541015625
1782986871789171000,6.4171708984375,-0.2199554443359375,-0.1154327392578125,-0.00640869140625
1782986871799246000,6.42724609375,-0.252685546875,-0.10260009765625,0.0055389404296875
1782986871809320000,6.43731982421875,-0.3074951171875,-0.0970611572265625,0.014984130859375
1782986871819395000,6.44739501953125,-0.379638671875,-0.1136932373046875,0.020721435546875
1782986871829469000,6.457468994140625,-0.4919891357421875,-0.140289306640625,0.00982666015625
1782986871839544000,6.4675439453125,-0.6627044677734375,-0.207763671875,-0.003936767578125
1782986871849618000,6.477617919921875,-0.9073486328125,-0.271453857421875,-0.045867919921875
1782986871859693000,6.487693115234375,-1.2503509521484375,-0.3524932861328125,-0.06201171875
1782986871869767000,6.497766845703125,-1.582763671875,-0.468719482421875,-0.0817108154296875
1782986871879841000,6.507841064453125,-1.8274078369140625,-0.594512939453125,-0.15289306640625
1782986871889916000,6.517916015625,-1.934173583984375,-0.815460205078125,-0.2896728515625
1782986871899990000,6.527989990234375,-1.8408660888671875,-1.0961761474609375,-0.49517822265625
1782986871910065000,6.53806494140625,-1.778472900390625,-1.3202362060546875,-0.4365692138671875
1782986871920139000,6.548138916015625,-1.9752349853515625,-1.44659423828125,-0.1915283203125
1782986871930214000,6.5582138671875,-2.5486297607421875,-1.518768310546875,-0.024627685546875
1782986871940288000,6.5682880859375,-3.2218475341796875,-1.536773681640625,0.085906982421875
1782986871950363000,6.57836279296875,-3.8842010498046875,-1.548095703125,0.1534881591796875
1782986871960437000,6.58843701171875,-4.4424285888671875,-1.6060028076171875,0.105194091796875
1782986871970512000,6.598511962890625,-4.5603485107421875,-1.578399658203125,0.0602569580078125
1782986871980586000,6.6085859375,-4.3277587890625,-1.387115478515625,0.0362548828125
1782986871990659800,6.618659912109375,-3.9810638427734375,-1.1910858154296875,-0.0986175537109375
1782986872000735000,6.62873486328125,-3.5594329833984375,-1.047698974609375,-0.33428955078125
1782986872010808800,6.638808837890625,-2.9733123779296875,-0.921478271484375,-0.5561981201171875
1782986872020884000,6.648884033203125,-2.315765380859375,-0.7875213623046875,-0.5006866455078125
1782986872030957800,6.658957763671875,-1.6344451904296875,-0.66656494140625,-0.33404541015625
1782986872041032700,6.66903271484375,-0.9742279052734375,-0.547821044921875,-0.1572418212890625
1782986872051106800,6.67910693359375,-0.433990478515625,-0.39361572265625,-0.02679443359375
1782986872061181700,6.689181640625,-0.0907440185546875,-0.2144317626953125,0.029144287109375
1782986872071255800,6.699255859375,0.0724334716796875,-0.0778961181640625,0.0613555908203125
1782986872081330000,6.709329833984375,0.133636474609375,0.0446319580078125,0.0432586669921875
1782986872091404800,6.71940478515625,0.128143310546875,0.1049652099609375,0.140655517578125
1782986872101479000,6.72947900390625,0.2510223388671875,0.05108642578125,0.19451904296875
1782986872111553800,6.7395537109375,0.499969482421875,0.0341949462890625,-0.0233154296875
1782986872121628000,6.7496279296875,0.8352203369140625,0.00018310546875,-0.234222412109375
1782986872131702800,6.759702880859375,1.1154022216796875,-0.015380859375,-0.219970703125
1782986872141777000,6.76977685546875,1.255889892578125,-0.01031494140625,-0.025726318359375
1782986872151851800,6.779851806640625,1.2959136962890625,0.031494140625,0.001129150390625
1782986872161926000,6.78992578125,1.2469635009765625,0.0468292236328125,-0.005645751953125
1782986872172000800,6.800000732421875,1.052276611328125,0.0763702392578125,0.00128173828125
1782986872182075000,6.810074951171875,0.782745361328125,0.1334991455078125,-0.0284271240234375
1782986872192148700,6.820148681640625,0.5271148681640625,0.200042724609375,-0.0561065673828125
1782986872202223900,6.830223876953125,0.287139892578125,0.230987548828125,-0.0828857421875
1782986872212297700,6.840297607421875,0.0730438232421875,0.20831298828125,-0.127899169921875
1782986872222372900,6.850372802734375,-0.06011962890625,0.1618804931640625,-0.1889801025390625
1782986872232446700,6.86044677734375,-0.129364013671875,0.1252593994140625,-0.2345428466796875
1782986872242521900,6.87052197265625,-0.170135498046875,0.0984954833984375,-0.2405548095703125
1782986872252595700,6.880595703125,-0.191680908203125,0.0694427490234375,-0.2325439453125
1782986872262670800,6.8906708984375,-0.2178497314453125,0.0503692626953125,-0.1835784912109375
1782986872272744700,6.90074462890625,-0.2725372314453125,0.039520263671875,-0.0890350341796875
1782986872282818800,6.91081884765625,-0.332794189453125,0.0195465087890625,-0.0230255126953125
1782986872292893700,6.920893798828125,-0.383758544921875,0.0016632080078125,0.0162811279296875
1782986872302967800,6.9309677734375,-0.41900634765625,-0.0092315673828125,0.0444793701171875
1782986872313042700,6.941042724609375,-0.4334716796875,-0.0210113525390625,0.0646514892578125
1782986872323116800,6.95111669921875,-0.4248504638671875,-0.0444183349609375,0.0770416259765625
1782986872333192000,6.96119189453125,-0.398773193359375,-0.070220947265625,0.0716094970703125
1782986872343265800,6.971265869140625,-0.3802642822265625,-0.0967864990234375,0.0343780517578125
1782986872353341000,6.9813408203125,-0.3625030517578125,-0.1177520751953125,0.00494384765625
1782986872363414800,6.991414794921875,-0.3512420654296875,-0.12030029296875,0.00054931640625
1782986872373490000,7.001489990234375,-0.3638153076171875,-0.1149749755859375,0.0070953369140625
1782986872383563800,7.011563720703125,-0.389678955078125,-0.1070556640625,0.0231475830078125
1782986872393637600,7.0216376953125,-0.4308013916015625,-0.10406494140625,0.0294036865234375
1782986872403712800,7.031712646484375,-0.5267791748046875,-0.11212158203125,0.015594482421875
1782986872413786600,7.04178662109375,-0.7043914794921875,-0.1460113525390625,-0.0204315185546875
1782986872423861800,7.05186181640625,-0.949066162109375,-0.226593017578125,-0.09710693359375
1782986872433935600,7.061935546875,-1.2711334228515625,-0.385894775390625,-0.18780517578125
1782986872444010800,7.0720107421875,-1.66668701171875,-0.6454620361328125,-0.28759765625
1782986872454084900,7.0820849609375,-2.125396728515625,-0.9674835205078125,-0.4810791015625
1782986872464159700,7.09215966796875,-2.8328094482421875,-1.373382568359375,-0.793853759765625
1782986872474233900,7.10223388671875,-3.8434906005859375,-1.550140380859375,-0.7666473388671875
1782986872484307700,7.1123076171875,-4.8957366943359375,-1.306976318359375,-0.10772705078125
1782986872494382800,7.1223828125,-5.6686553955078125,-0.9333038330078125,0.631072998046875
1782986872504456700,7.132456787109375,-5.795257568359375,-0.8087005615234375,0.9576568603515625
1782986872514531800,7.14253173828125,-5.3124542236328125,-1.0522918701171875,0.8082427978515625
1782986872524605700,7.152605712890625,-4.516845703125,-1.236053466796875,0.409759521484375
1782986872534680800,7.162680908203125,-3.707611083984375,-1.210845947265625,0.071807861328125
1782986872544754700,7.172754638671875,-3.0375518798828125,-1.0530853271484375,-0.198486328125
1782986872554829800,7.182829833984375,-2.4795989990234375,-0.8360595703125,-0.4568939208984375
1782986872564903700,7.192903564453125,-1.93304443359375,-0.66436767578125,-0.603118896484375
1782986872574978800,7.202978759765625,-1.3827667236328125,-0.521392822265625,-0.5213623046875
1782986872585052700,7.213052734375,-0.8636322021484375,-0.396026611328125,-0.528228759765625
1782986872595126800,7.223126708984375,-0.396240234375,-0.2198638916015625,-0.5809783935546875
1782986872605201700,7.23320166015625,-0.017333984375,-0.0736083984375,-0.440093994140625
1782986872615275800,7.24327587890625,0.3457489013671875,0.0589599609375,-0.272796630859375
1782986872625350700,7.2533505859375,0.6713104248046875,0.143096923828125,-0.13385009765625
1782986872635424800,7.2634248046875,0.9347381591796875,0.12811279296875,-0.01055908203125
1782986872645499600,7.273499755859375,1.1419830322265625,0.0956573486328125,0.178131103515625
1782986872655573800,7.28357373046875,1.2728118896484375,0.081878662109375,0.3314971923828125
1782986872665648600,7.293648681640625,1.2498779296875,0.056915283203125,0.3753509521484375
1782986872675722800,7.30372265625,1.083404541015625,0.0135955810546875,0.301910400390625
1782986872685797600,7.313797607421875,0.851165771484375,0.011810302734375,0.1532135009765625
1782986872695871700,7.323871826171875,0.5371246337890625,0.039642333984375,0.0518798828125
1782986872705945900,7.33394580078125,0.160186767578125,0.068450927734375,-0.0330963134765625
1782986872716020700,7.344020751953125,-0.2434234619140625,0.07958984375,-0.0909881591796875
1782986872726094800,7.3540947265625,-0.5850830078125,0.067352294921875,-0.1388092041015625
1782986872736169700,7.364169677734375,-0.7772064208984375,0.0404510498046875,-0.1655120849609375
1782986872746243800,7.374243896484375,-0.817230224609375,0.0119781494140625,-0.1387176513671875
1782986872756318700,7.384318603515625,-0.74786376953125,-0.0153045654296875,-0.067962646484375
1782986872766392800,7.394392822265625,-0.629547119140625,-0.0340728759765625,0.01446533203125
1782986872776467700,7.4044677734375,-0.507049560546875,-0.0529632568359375,0.0852508544921875
1782986872786541800,7.414541748046875,-0.397857666015625,-0.083526611328125,0.122955322265625
1782986872796616000,7.424615966796875,-0.296844482421875,-0.1063690185546875,0.1264495849609375
1782986872806690800,7.43469091796875,-0.2004241943359375,-0.1197509765625,0.127960205078125
1782986872816765000,7.444764892578125,-0.10662841796875,-0.1274261474609375,0.1096954345703125
1782986872826839800,7.45483984375,-0.021087646484375,-0.1305999755859375,0.0622711181640625
1782986872836914000,7.464913818359375,0.0401763916015625,-0.128021240234375,0.01983642578125
1782986872846988800,7.47498876953125,0.0687255859375,-0.1168975830078125,0.0186767578125
1782986872857063000,7.48506298828125,0.0730133056640625,-0.1164398193359375,0.0234832763671875
1782986872867137800,7.4951376953125,0.0796356201171875,-0.113128662109375,0.0104827880859375
1782986872877212000,7.5052119140625,0.069061279296875,-0.1212005615234375,-0.008514404296875
1782986872887286800,7.515286865234375,0.045989990234375,-0.1329193115234375,-0.021270751953125
1782986872897361000,7.52536083984375,0.026947021484375,-0.1322479248046875,-0.023651123046875
1782986872907434800,7.535434814453125,0.001617431640625,-0.127227783203125,-0.0234222412109375
1782986872917510000,7.545510009765625,-0.0554962158203125,-0.1237945556640625,-0.0341033935546875
1782986872927583700,7.555583740234375,-0.174957275390625,-0.132110595703125,-0.0425872802734375
1782986872937659000,7.565658935546875,-0.34979248046875,-0.147491455078125,-0.036834716796875
1782986872947732700,7.575732666015625,-0.578033447265625,-0.19171142578125,-0.0373687744140625
1782986872957807900,7.585807861328125,-0.8782501220703125,-0.2989959716796875,-0.0550537109375
1782986872967881700,7.5958818359375,-1.2615509033203125,-0.4502410888671875,-0.095733642578125
1782986872977956900,7.605956787109375,-1.754302978515625,-0.6980438232421875,-0.1777191162109375
1782986872988030700,7.61603076171875,-2.312591552734375,-0.9626617431640625,-0.3263702392578125
1782986872998105900,7.62610595703125,-2.8302764892578125,-1.177337646484375,-0.4130706787109375
1782986873008179700,7.6361796875,-3.274078369140625,-1.3327789306640625,-0.3830413818359375
1782986873018253800,7.64625390625,-3.6363983154296875,-1.39715576171875,-0.2734832763671875
1782986873028328700,7.65632861328125,-3.9704742431640625,-1.4742584228515625,-0.1429290771484375
1782986873038402800,7.66640283203125,-4.108795166015625,-1.5682830810546875,-0.0235595703125
1782986873048477700,7.676477783203125,-3.9990997314453125,-1.67547607421875,0.0485687255859375
1782986873058551800,7.6865517578125,-3.8670806884765625,-1.746246337890625,-0.0552215576171875
1782986873068626700,7.696626708984375,-3.8355865478515625,-1.57855224609375,-0.304656982421875
1782986873078700800,7.70670068359375,-3.800933837890625,-1.2010345458984375,-0.483489990234375
1782986873088775700,7.716775634765625,-3.6045379638671875,-0.84814453125,-0.5418548583984375
1782986873098849800,7.726849853515625,-3.108612060546875,-0.6215667724609375,-0.5526275634765625
1782986873108924700,7.736924560546875,-2.3756866455078125,-0.4875030517578125,-0.4553070068359375
1782986873118998800,7.746998779296875,-1.5541839599609375,-0.3682098388671875,-0.2357940673828125
1782986873129072600,7.75707275390625,-0.8237762451171875,-0.223602294921875,-0.016143798828125
1782986873139147800,7.767147705078125,-0.272247314453125,-0.100372314453125,0.0965728759765625
1782986873149221600,7.7772216796875,0.104461669921875,-0.013671875,0.1026153564453125
1782986873159296800,7.787296875,0.3794708251953125,-0.0512237548828125,0.1260528564453125
1782986873169370600,7.79737060546875,0.6501922607421875,-0.1065826416015625,-0.042877197265625
1782986873179445800,7.80744580078125,0.9715576171875,-0.1311492919921875,-0.30029296875
1782986873189519600,7.81751953125,1.3018035888671875,-0.123809814453125,-0.304229736328125
1782986873199594800,7.8275947265625,1.4877166748046875,-0.0714263916015625,-0.12799072265625
1782986873209668600,7.837668701171875,1.428802490234375,-0.0457305908203125,0.0173492431640625
1782986873219743700,7.84774365234375,1.13946533203125,-0.052642822265625,0.02783203125
1782986873229817600,7.857817626953125,0.7566375732421875,-0.0252685546875,-0.0471649169921875
1782986873239891700,7.8678916015625,0.32562255859375,0.0415191650390625,-0.0839080810546875
1782986873249966600,7.877966552734375,-0.1363525390625,0.091461181640625,-0.080291748046875
1782986873260040700,7.888040771484375,-0.543487548828125,0.1162261962890625,-0.1002655029296875
1782986873270115600,7.898115478515625,-0.788330078125,0.121551513671875,-0.1156005859375
1782986873280189700,7.908189697265625,-0.8520050048828125,0.1112518310546875,-0.07861328125
1782986873290264600,7.9182646484375,-0.754791259765625,0.0876922607421875,-0.0193023681640625
1782986873300338700,7.928338623046875,-0.579315185546875,0.0684051513671875,0.0091552734375
1782986873310413600,7.93841357421875,-0.42742919921875,0.0602569580078125,0.017303466796875
1782986873320487700,7.94848779296875,-0.298187255859375,0.053558349609375,0.0199127197265625
1782986873330561500,7.9585615234375,-0.1799774169921875,0.040069580078125,0.02935791015625
1782986873340636700,7.96863671875,-0.0999755859375,0.011627197265625,0.0554656982421875
1782986873350710500,7.97871044921875,-0.044281005859375,-0.0209503173828125,0.079437255859375
1782986873360785700,7.98878564453125,-0.002960205078125,-0.05987548828125,0.08135986328125
1782986873370859500,7.998859619140625,0.0189361572265625,-0.1007232666015625,0.0507354736328125
1782986873380934700,8.0089345703125,0.0294342041015625,-0.1072235107421875,0.014678955078125
1782986873391008500,8.019008544921874,0.0339508056640625,-0.0967559814453125,-0.003143310546875
1782986873401083600,8.029083740234375,0.0194091796875,-0.0881805419921875,-0.0098724365234375
1782986873411157500,8.039157470703126,-0.01080322265625,-0.0908050537109375,-0.0033111572265625
1782986873421232600,8.049232666015625,-0.0245513916015625,-0.092987060546875,-0.0007171630859375
1782986873431306500,8.059306396484375,-0.0345458984375,-0.095611572265625,0.0099945068359375
1782986873441380900,8.069380859375,-0.06402587890625,-0.10943603515625,0.0247955322265625
1782986873451455500,8.07945556640625,-0.1121063232421875,-0.1111907958984375,0.036865234375
1782986873461529900,8.08952978515625,-0.1796417236328125,-0.152496337890625,0.01715087890625
1782986873471604500,8.0996044921875,-0.2689056396484375,-0.2132415771484375,0.0072784423828125
1782986873481678800,8.109678955078126,-0.4427490234375,-0.3108367919921875,0.006591796875
1782986873491753500,8.11975341796875,-0.7061920166015625,-0.461029052734375,-0.0137176513671875
1782986873501827800,8.129827880859375,-1.1092681884765625,-0.6565093994140625,-0.0580596923828125
1782986873511902500,8.13990234375,-1.7413177490234375,-0.8720855712890625,-0.1853790283203125
1782986873521976800,8.149976806640625,-2.5302886962890625,-1.1481781005859375,-0.278778076171875
1782986873532051500,8.160051513671876,-3.1440887451171875,-1.4735260009765625,-0.2517547607421875
1782986873542125800,8.170125732421875,-3.310272216796875,-1.632293701171875,-0.144317626953125
1782986873552199700,8.18019970703125,-3.16876220703125,-1.5930328369140625,-0.0872955322265625
1782986873562274800,8.19027490234375,-2.95556640625,-1.640106201171875,-0.105499267578125
1782986873572348700,8.2003486328125,-2.7386474609375,-1.8299102783203125,-0.3423004150390625
1782986873582423800,8.210423828125,-2.5294189453125,-2.074310302734375,-0.62567138671875
1782986873592497700,8.22049755859375,-2.312896728515625,-2.1865692138671875,-0.7030181884765625
1782986873602572800,8.23057275390625,-2.1813507080078125,-2.043121337890625,-0.405029296875
1782986873612646700,8.240646728515625,-2.3875732421875,-1.6652069091796875,-0.100067138671875
1782986873622721800,8.2507216796875,-3.0522308349609375,-1.1946563720703125,0.0133514404296875
1782986873632795600,8.260795654296874,-3.687835693359375,-0.758880615234375,0.1781158447265625
1782986873642870800,8.270870849609375,-3.8150482177734375,-0.4181060791015625,0.305755615234375
1782986873652944600,8.280944580078126,-3.2879486083984375,-0.2119598388671875,0.327117919921875
1782986873663018800,8.291018798828125,-2.3802032470703125,-0.11248779296875,0.220245361328125
1782986873673093600,8.30109375,-1.478302001953125,-0.1107177734375,0.02972412109375
1782986873683167700,8.311167724609374,-0.7342681884765625,-0.135772705078125,-0.17291259765625
1782986873693243000,8.321242919921875,-0.2091217041015625,-0.16900634765625,-0.2894744873046875
1782986873703316700,8.331316650390624,0.1217041015625,-0.163787841796875,-0.3160858154296875
1782986873713391900,8.341391845703125,0.3006591796875,-0.0941162109375,-0.27105712890625
1782986873723465700,8.3514658203125,0.3940582275390625,-0.0428619384765625,-0.1752777099609375
1782986873733540900,8.361540771484375,0.5130615234375,-0.0125579833984375,-0.1012420654296875
1782986873743614700,8.37161474609375,0.67559814453125,-0.01239013671875,-0.0639495849609375
1782986873753689900,8.38168994140625,0.8299560546875,-0.02874755859375,-0.06915283203125
1782986873763763700,8.391763671875,0.9293060302734375,-0.0533905029296875,-0.078704833984375
1782986873773837600,8.401837646484376,0.9421234130859375,-0.058502197265625,-0.078277587890625
1782986873783912700,8.41191259765625,0.8505096435546875,-0.0375213623046875,-0.082672119140625
1782986873793986600,8.421986572265626,0.646514892578125,0.00006103515625,-0.0847015380859375
1782986873804061700,8.432061767578125,0.3847808837890625,0.0348968505859375,-0.0903167724609375
1782986873814135800,8.4421357421875,0.131988525390625,0.05645751953125,-0.1115264892578125
1782986873824210700,8.452210693359374,-0.0894775390625,0.0795135498046875,-0.133270263671875
1782986873834284800,8.462284912109375,-0.281005859375,0.07977294921875,-0.1223297119140625
1782986873844359700,8.472359619140626,-0.395782470703125,0.0673065185546875,-0.090545654296875
1782986873854433800,8.482433837890625,-0.4323272705078125,0.0594024658203125,-0.0632781982421875
1782986873864508700,8.4925087890625,-0.4166717529296875,0.0380706787109375,-0.0362091064453125
1782986873874582800,8.502582763671874,-0.337554931640625,0.02362060546875,-0.031158447265625
1782986873884656600,8.51265673828125,-0.2272186279296875,0.02520751953125,-0.0396270751953125
1782986873894731800,8.522731689453124,-0.1343231201171875,0.024078369140625,-0.0310516357421875
1782986873904805600,8.5328056640625,-0.0916595458984375,0.0168304443359375,-0.0082244873046875
1782986873914880800,8.542880859375,-0.070953369140625,0.00238037109375,0.0044097900390625
1782986873924954600,8.55295458984375,-0.0669708251953125,-0.006866455078125,0.008819580078125
1782986873935029800,8.56302978515625,-0.076507568359375,-0.00970458984375,0.0304412841796875
1782986873945103600,8.573103515625,-0.0754241943359375,-0.0275421142578125,0.0407257080078125
1782986873955178800,8.5831787109375,-0.0521392822265625,-0.0479888916015625,0.0151824951171875
1782986873965252600,8.593252685546876,-0.031982421875,-0.068145751953125,-0.010528564453125
1782986873975327700,8.60332763671875,-0.0323333740234375,-0.0807037353515625,-0.018585205078125
1782986873985401600,8.613401611328126,-0.0502166748046875,-0.0852203369140625,-0.0064697265625
1782986873995475700,8.623475830078124,-0.0827789306640625,-0.0938873291015625,0.003387451171875
1782986874005550600,8.633550537109375,-0.1457366943359375,-0.1068267822265625,0.0134429931640625
1782986874015624700,8.643624755859374,-0.2556304931640625,-0.1287994384765625,0.0364227294921875
1782986874025699600,8.653699462890625,-0.394500732421875,-0.1714935302734375,0.0455780029296875
1782986874035773700,8.663773681640626,-0.576995849609375,-0.2392120361328125,0.0497283935546875
1782986874045851600,8.6738515625,-0.822021484375,-0.3838348388671875,0.07159423828125
1782986874055925500,8.683925537109374,-1.193572998046875,-0.6128997802734375,0.0706634521484375
1782986874066000600,8.694000732421875,-1.7344207763671875,-0.9048919677734375,0.00909423828125
1782986874076074500,8.704074462890626,-2.3555908203125,-1.269500732421875,-0.1590728759765625
1782986874086149600,8.714149658203125,-2.8352508544921875,-1.5218658447265625,-0.3984832763671875
1782986874096223500,8.724223388671875,-3.243438720703125,-1.6000213623046875,-0.3809814453125
1782986874106297900,8.7342978515625,-3.679931640625,-1.59747314453125,-0.162017822265625
1782986874116372500,8.74437255859375,-4.0060882568359375,-1.6564788818359375,-0.0936279296875
1782986874126446800,8.75444677734375,-4.0071563720703125,-1.775634765625,-0.0950775146484375
1782986874136521500,8.764521484375,-3.5783233642578125,-1.9427947998046875,0.0657806396484375
1782986874146595800,8.774595947265626,-2.9379425048828125,-2.0893096923828125,0.16741943359375
1782986874156670500,8.78467041015625,-2.5345916748046875,-2.0266876220703125,0.0673065185546875
1782986874166744800,8.794744873046875,-2.5923004150390625,-1.6666717529296875,-0.1302337646484375
1782986874176819500,8.8048193359375,-2.923614501953125,-1.219635009765625,-0.3134307861328125
1782986874186893800,8.814893798828125,-3.0556182861328125,-0.8148040771484375,-0.3587646484375
1782986874196968400,8.824968505859376,-2.6815185546875,-0.5080413818359375,-0.3155059814453125
1782986874207042800,8.835042724609375,-1.9933929443359375,-0.336944580078125,-0.2501220703125
1782986874217116700,8.84511669921875,-1.3263397216796875,-0.234954833984375,-0.1659088134765625
1782986874227191800,8.85519189453125,-0.806884765625,-0.159698486328125,-0.0267333984375
1782986874237265700,8.865265625,-0.4118194580078125,-0.1613922119140625,0.0499267578125
1782986874247340800,8.8753408203125,-0.0868377685546875,-0.17742919921875,0.0072784423828125
1782986874257414700,8.88541455078125,0.185211181640625,-0.1779937744140625,-0.031524658203125
1782986874267489800,8.89548974609375,0.4466705322265625,-0.1846923828125,-0.0252685546875
1782986874277563600,8.905563720703125,0.718597412109375,-0.1900177001953125,-0.042938232421875
1782986874287638800,8.915638671875,0.9718475341796875,-0.21221923828125,-0.02099609375
1782986874297712600,8.925712646484374,1.1417388916015625,-0.2357177734375,0.052337646484375
1782986874307787800,8.935787841796875,1.1567230224609375,-0.21234130859375,0.1053924560546875
1782986874317861600,8.945861572265626,0.9757843017578125,-0.16204833984375,0.1067047119140625
1782986874327935700,8.955935791015625,0.6111907958984375,-0.114898681640625,0.0805511474609375
1782986874338010600,8.9660107421875,0.194671630859375,-0.042755126953125,0.0504913330078125
1782986874348083700,8.976083740234374,-0.2264556884765625,0.0420379638671875,0.023162841796875
1782986874358158600,8.98615869140625,-0.59881591796875,0.094482421875,0.0020904541015625
1782986874368232700,8.996232666015626,-0.806884765625,0.115478515625,0.0142822265625
1782986874378307600,9.0063076171875,-0.8045196533203125,0.115997314453125,0.0575714111328125
1782986874388381700,9.016381591796875,-0.6260833740234375,0.108856201171875,0.09405517578125
1782986874398456600,9.02645654296875,-0.381439208984375,0.0982666015625,0.115570068359375
1782986874408530700,9.03653076171875,-0.1752166748046875,0.0608978271484375,0.108978271484375
1782986874418605600,9.04660546875,-0.03680419921875,0.02325439453125,0.0717315673828125
1782986874428679700,9.0566796875,0.017669677734375,0.0086517333984375,0.04461669921875
1782986874438754600,9.066754638671876,0.0056304931640625,0.00372314453125,0.0467376708984375
1782986874448828700,9.07682861328125,-0.044769287109375,0.0006866455078125,0.057098388671875
1782986874458902500,9.086902587890625,-0.0923919677734375,-0.0008697509765625,0.051971435546875
1782986874468977700,9.096977783203124,-0.1185150146484375,-0.00555419921875,0.0224761962890625
1782986874479051500,9.107051513671875,-0.106781005859375,-0.0137481689453125,-0.00762939453125
1782986874489126700,9.117126708984374,-0.07366943359375,-0.0189666748046875,-0.0296478271484375
1782986874499200500,9.127200439453125,-0.0408782958984375,-0.0227508544921875,-0.0352325439453125
1782986874509275600,9.137275634765626,-0.02996826171875,-0.036102294921875,-0.0271453857421875
1782986874519349500,9.147349609375,-0.0342254638671875,-0.058807373046875,-0.0276031494140625
1782986874529424600,9.157424560546875,-0.066162109375,-0.0848541259765625,-0.03118896484375
1782986874539498500,9.16749853515625,-0.1005706787109375,-0.105743408203125,-0.03009033203125
1782986874549573600,9.17757373046875,-0.139251708984375,-0.117919921875,-0.03790283203125
1782986874559647500,9.1876474609375,-0.2502288818359375,-0.13055419921875,-0.048309326171875
1782986874569721600,9.1977216796875,-0.4389495849609375,-0.170166015625,-0.05474853515625
1782986874579796500,9.20779638671875,-0.661041259765625,-0.26190185546875,-0.0523529052734375
1782986874589870600,9.21787060546875,-0.9266815185546875,-0.3834991455078125,-0.0237579345703125
1782986874599945500,9.227945556640625,-1.262664794921875,-0.566192626953125,0.0794830322265625
1782986874610019600,9.23801953125,-1.5252685546875,-0.8542938232421875,0.1639556884765625
1782986874620094500,9.248094482421875,-1.7173919677734375,-1.0985260009765625,0.077056884765625
1782986874630168600,9.25816845703125,-2.0006866455078125,-1.2252960205078125,-0.1278076171875
1782986874640243500,9.268243408203125,-2.5493011474609375,-1.2819061279296875,-0.304534912109375
1782986874650317600,9.278317626953125,-3.293365478515625,-1.2819061279296875,-0.3646697998046875
1782986874660392400,9.288392333984374,-3.8224029541015625,-1.303741455078125,-0.3125
1782986874670466600,9.298466552734375,-3.8109588623046875,-1.43084716796875,-0.1361236572265625
1782986874680541400,9.30854150390625,-3.47869873046875,-1.6849822998046875,0.062896728515625
1782986874690615600,9.318615478515625,-3.2354888916015625,-1.89300537109375,0.22259521484375
1782986874700689700,9.328689697265625,-3.354400634765625,-1.8025970458984375,0.2189178466796875
1782986874710764500,9.3387646484375,-3.7404632568359375,-1.488739013671875,0.07623291015625
1782986874720838700,9.348838623046875,-3.8245697021484375,-1.2103424072265625,-0.0966033935546875
1782986874730913500,9.35891357421875,-3.42681884765625,-1.00537109375,-0.2598876953125
1782986874740987600,9.368987548828125,-2.8768157958984375,-0.887603759765625,-0.282958984375
1782986874751062500,9.3790625,-2.3785400390625,-0.8046417236328125,-0.27557373046875
1782986874761136600,9.38913671875,-1.9023590087890625,-0.6237335205078125,-0.3055419921875
1782986874771211500,9.39921142578125,-1.35699462890625,-0.3883209228515625,-0.2343902587890625
1782986874781285600,9.40928564453125,-0.7672271728515625,-0.164642333984375,-0.0763397216796875
1782986874791359700,9.41935986328125,-0.20916748046875,-0.0255889892578125,0.1040802001953125
1782986874801434600,9.4294345703125,0.2481536865234375,-0.0086517333984375,0.2172088623046875
1782986874811508700,9.4395087890625,0.584716796875,-0.0208740234375,0.110107421875
1782986874821584000,9.449583984375,0.8302154541015625,0.0734100341796875,0.051788330078125
1782986874831657700,9.45965771484375,0.9979095458984375,0.0461883544921875,-0.0459747314453125
1782986874841732900,9.46973291015625,1.110107421875,-0.0242919921875,-0.18328857421875
1782986874851806700,9.479806640625,1.197967529296875,-0.0229339599609375,-0.2091522216796875
1782986874861881900,9.4898818359375,1.170379638671875,0.0293731689453125,-0.1325836181640625
1782986874871955700,9.499955810546876,0.9466705322265625,0.1025543212890625,-0.082275390625
1782986874882030800,9.51003076171875,0.526275634765625,0.1537628173828125,-0.0187835693359375
1782986874892104700,9.520104736328125,0.032623291015625,0.1883392333984375,0.0123443603515625
1782986874902178600,9.530178466796874,-0.4087066650390625,0.2042388916015625,0.060943603515625
1782986874912253700,9.540253662109375,-0.657928466796875,0.211761474609375,0.135955810546875
1782986874922327600,9.55032763671875,-0.6948699951171875,0.2131500244140625,0.1776123046875
1782986874932402700,9.560402587890625,-0.5777587890625,0.19647216796875,0.174713134765625
1782986874942476500,9.5704765625,-0.404083251953125,0.169921875,0.1307220458984375
1782986874952551700,9.5805517578125,-0.2474365234375,0.11334228515625,0.086944580078125
1782986874962625800,9.590625732421875,-0.129058837890625,0.0416259765625,0.0570831298828125
1782986874972700700,9.60070068359375,-0.068023681640625,-0.0130157470703125,0.042572021484375
1782986874982774800,9.61077490234375,-0.050567626953125,-0.05816650390625,0.0397186279296875
1782986874992849700,9.620849609375,-0.0313720703125,-0.092041015625,0.01397705078125
1782986875002923800,9.630923828125,-0.00189208984375,-0.1151275634765625,-0.0260009765625
1782986875012997600,9.64099755859375,0.032562255859375,-0.1266326904296875,-0.0313720703125
1782986875023072800,9.65107275390625,0.0442047119140625,-0.1359405517578125,-0.0327911376953125
1782986875033146600,9.661146728515625,0.027252197265625,-0.152740478515625,-0.0396575927734375
1782986875043221800,9.6712216796875,-0.0128936767578125,-0.167388916015625,-0.0263519287109375
1782986875053293000,9.68129296875,-0.048583984375,-0.174713134765625,-0.035430908203125
1782986875063368200,9.6913681640625,-0.07476806640625,-0.1916656494140625,-0.0636138916015625
1782986875073442000,9.701442138671876,-0.1162567138671875,-0.2073974609375,-0.0769500732421875
1782986875083517200,9.71151708984375,-0.1780242919921875,-0.212646484375,-0.0709381103515625
1782986875093591000,9.721591064453126,-0.2487640380859375,-0.23046875,-0.079254150390625
1782986875103666200,9.731666259765625,-0.332366943359375,-0.25506591796875,-0.0923309326171875
1782986875113740000,9.741739990234375,-0.4634857177734375,-0.2925567626953125,-0.082794189453125
1782986875123815200,9.751815185546874,-0.6616363525390625,-0.3504638671875,-0.052276611328125
1782986875133889000,9.761888916015625,-0.9094696044921875,-0.4619140625,-0.03619384765625
1782986875143963100,9.771963134765626,-1.20562744140625,-0.6286773681640625,-0.02911376953125
1782986875154038000,9.7820380859375,-1.551361083984375,-0.8118133544921875,0.0151214599609375
1782986875164112100,9.792112060546875,-1.960479736328125,-1.040985107421875,0.0910186767578125
1782986875174187000,9.80218701171875,-2.3446044921875,-1.31488037109375,0.2067718505859375
1782986875184261000,9.81226123046875,-2.619232177734375,-1.501678466796875,0.25775146484375
1782986875194336000,9.8223359375,-2.86065673828125,-1.58990478515625,0.1204681396484375
1782986875204410000,9.83241015625,-3.0172119140625,-1.67987060546875,-0.1068267822265625
1782986875214485000,9.842485107421876,-3.05987548828125,-1.7272491455078125,-0.1541748046875
1782986875224559000,9.85255908203125,-3.2532501220703125,-1.7098541259765625,-0.0507049560546875
1782986875234634000,9.862634033203125,-3.6941375732421875,-1.579315185546875,-0.0219879150390625
1782986875244708000,9.8727080078125,-4.1461334228515625,-1.3133697509765625,-0.0457763671875
1782986875254783000,9.882782958984375,-4.40118408203125,-0.8845062255859375,-0.100067138671875
1782986875264857000,9.892857177734374,-4.4258270263671875,-0.4539031982421875,-0.0745391845703125
1782986875274931000,9.902930908203125,-4.088653564453125,-0.2076263427734375,0.079132080078125
1782986875285006000,9.913006103515626,-3.48980712890625,-0.15618896484375,0.2290802001953125
1782986875295080000,9.923079833984374,-2.6743316650390625,-0.1788330078125,0.2765045166015625
1782986875305155000,9.933155029296875,-1.7674407958984375,-0.233856201171875,0.326904296875
1782986875315229000,9.94322900390625,-0.9560089111328125,-0.2380523681640625,0.4333038330078125
1782986875325304000,9.953303955078125,-0.342559814453125,-0.285980224609375,0.3748626708984375
1782986875335378000,9.9633779296875,0.0981292724609375,-0.3332061767578125,-0.09442138671875
1782986875345453000,9.973453125,0.4563751220703125,-0.3287811279296875,-0.517913818359375
1782986875355527000,9.98352685546875,0.773681640625,-0.22137451171875,-0.503814697265625
1782986875365602000,9.99360205078125,1.0444793701171875,-0.1475677490234375,-0.30535888671875
1782986875375676000,10.003676025390625,1.289337158203125,-0.147613525390625,-0.2777862548828125
1782986875385750000,10.01375,1.47747802734375,-0.18572998046875,-0.3139801025390625
1782986875395825000,10.023824951171875,1.5243377685546875,-0.1898956298828125,-0.2881622314453125
1782986875405899000,10.03389892578125,1.3629608154296875,-0.105224609375,-0.2393341064453125
1782986875415974000,10.043973876953125,0.9829559326171875,-0.026885986328125,-0.1910552978515625
1782986875426048000,10.054048095703125,0.476959228515625,0.01605224609375,-0.14764404296875
1782986875436123000,10.064122802734374,0.0462188720703125,0.1203155517578125,-0.166015625
1782986875446197000,10.074197021484375,-0.3661956787109375,0.2151947021484375,-0.1467132568359375
1782986875456272000,10.08427197265625,-0.6418609619140625,0.2569122314453125,-0.1273345947265625
1782986875466346000,10.094345947265625,-0.73492431640625,0.2809906005859375,-0.065338134765625
1782986875476421000,10.104421142578126,-0.6903533935546875,0.2720184326171875,0.04608154296875
1782986875486495000,10.114494873046874,-0.566650390625,0.24371337890625,0.13372802734375
1782986875496568800,10.12456884765625,-0.41827392578125,0.207427978515625,0.1805572509765625
1782986875506644000,10.13464404296875,-0.275360107421875,0.1637420654296875,0.1734619140625
1782986875516717800,10.1447177734375,-0.1403045654296875,0.103302001953125,0.140716552734375
1782986875526793000,10.15479296875,-0.0189208984375,0.0387420654296875,0.092315673828125
1782986875536866800,10.16486669921875,0.0665435791015625,0.007781982421875,0.0241851806640625
1782986875546942000,10.17494189453125,0.093353271484375,-0.0017547607421875,0.0168609619140625
1782986875557015800,10.185015869140624,0.070587158203125,-0.0058135986328125,0.04705810546875
1782986875567091000,10.195091064453125,0.023345947265625,-0.0223541259765625,0.0725860595703125
1782986875577164800,10.205164794921876,-0.016082763671875,-0.0306243896484375,0.0826416015625
1782986875587240000,10.215239990234375,-0.052978515625,-0.0349884033203125,0.0685882568359375
1782986875597314000,10.22531396484375,-0.0922698974609375,-0.063812255859375,0.0485076904296875
1782986875607388000,10.235387939453124,-0.1170654296875,-0.082672119140625,0.0222625732421875
1782986875617463000,10.245463134765625,-0.152587890625,-0.090362548828125,0.010894775390625
1782986875627537000,10.255536865234374,-0.2091217041015625,-0.10870361328125,-0.010528564453125
1782986875637612000,10.265612060546875,-0.3128814697265625,-0.1202545166015625,-0.0434112548828125
1782986875647686000,10.275685791015626,-0.4694061279296875,-0.136138916015625,-0.0674285888671875
1782986875657761000,10.285760986328125,-0.6475830078125,-0.16656494140625,-0.1021575927734375
1782986875667835000,10.2958349609375,-0.8481903076171875,-0.2545013427734375,-0.1489105224609375
1782986875677910000,10.305909912109374,-0.983917236328125,-0.3685302734375,-0.1798248291015625
1782986875687983900,10.31598388671875,-1.0069580078125,-0.548736572265625,-0.2000274658203125
1782986875698059000,10.32605908203125,-1.016571044921875,-0.81634521484375,-0.24102783203125
1782986875708132900,10.3361328125,-1.057098388671875,-1.0710296630859375,-0.2523956298828125
1782986875718207200,10.346207275390626,-1.1690826416015625,-1.1759490966796875,-0.2318115234375
1782986875728281900,10.35628173828125,-1.3821563720703125,-1.218902587890625,-0.205810546875
1782986875738356200,10.366356201171875,-1.6610870361328125,-1.2355499267578125,-0.2705535888671875
1782986875748430800,10.376430908203124,-2.0854339599609375,-1.127777099609375,-0.342529296875
1782986875758505200,10.386505126953125,-2.5991058349609375,-1.0085601806640625,-0.3191986083984375
1782986875768579800,10.396579833984376,-2.951568603515625,-0.9272003173828125,-0.2584228515625
1782986875778654200,10.406654296875,-3.0082855224609375,-0.8431243896484375,-0.1481781005859375
1782986875788728800,10.416728759765626,-2.7999420166015625,-0.7734222412109375,-0.0715179443359375
1782986875798803200,10.42680322265625,-2.414459228515625,-0.750396728515625,-0.1450347900390625
1782986875808877800,10.4368779296875,-2.0530548095703125,-0.7703857421875,-0.2894134521484375
1782986875818952200,10.4469521484375,-1.8520660400390625,-0.7821044921875,-0.3771514892578125
1782986875829026000,10.457026123046875,-1.752960205078125,-0.759613037109375,-0.380218505859375
1782986875839101200,10.46710107421875,-1.6986541748046875,-0.717437744140625,-0.3182220458984375
1782986875849175000,10.477175048828125,-1.6077423095703125,-0.6990966796875,-0.3025970458984375
1782986875859250200,10.487250244140625,-1.4713134765625,-0.6935577392578125,-0.281036376953125
1782986875869324000,10.497323974609374,-1.3437042236328125,-0.70794677734375,-0.2313995361328125
1782986875879399200,10.507399169921875,-1.225982666015625,-0.7037811279296875,-0.182037353515625
1782986875889473000,10.51747314453125,-1.126373291015625,-0.6812896728515625,-0.1204071044921875
1782986875899548200,10.527548095703125,-1.01702880859375,-0.6305694580078125,-0.091552734375
1782986875909622000,10.5376220703125,-0.909576416015625,-0.5713958740234375,-0.081695556640625
1782986875919697200,10.547697265625,-0.826568603515625,-0.5124969482421875,-0.0449371337890625
1782986875929771000,10.55777099609375,-0.7425537109375,-0.4472503662109375,0.000946044921875
1782986875939846100,10.56784619140625,-0.665313720703125,-0.3935546875,0.040008544921875
1782986875949920000,10.577919921875,-0.6030120849609375,-0.367767333984375,0.0512237548828125
1782986875959994000,10.587994140625,-0.5359954833984375,-0.3596954345703125,0.032073974609375
1782986875970069000,10.598069091796875,-0.472320556640625,-0.349853515625,0.0059051513671875
1782986875980143000,10.60814306640625,-0.41705322265625,-0.347381591796875,-0.0224456787109375
1782986875990218000,10.618218017578124,-0.3816070556640625,-0.3412322998046875,-0.07275390625
1782986876000292000,10.6282919921875,-0.3583526611328125,-0.3546600341796875,-0.1120147705078125
1782986876010367000,10.638366943359374,-0.35308837890625,-0.34014892578125,-0.1223602294921875
1782986876020441000,10.648441162109375,-0.3784637451171875,-0.3093109130859375,-0.1085662841796875
1782986876030516000,10.658515869140626,-0.4337310791015625,-0.2996826171875,-0.1043243408203125
1782986876040590000,10.668590087890625,-0.5120697021484375,-0.30670166015625,-0.11651611328125
1782986876050664700,10.678664794921875,-0.598297119140625,-0.3132476806640625,-0.1480865478515625
1782986876060738800,10.68873876953125,-0.657440185546875,-0.3184051513671875,-0.1681365966796875
1782986876070813700,10.698813720703125,-0.7105865478515625,-0.2995147705078125,-0.145355224609375
1782986876080887800,10.7088876953125,-0.790374755859375,-0.269500732421875,-0.1139984130859375
1782986876090961700,10.718961669921875,-0.8723297119140625,-0.2529449462890625,-0.110107421875
1782986876101036800,10.729036865234375,-0.9459075927734375,-0.2547607421875,-0.1216583251953125
1782986876111110700,10.739110595703124,-1.0139617919921875,-0.254150390625,-0.14764404296875
1782986876121185800,10.749185791015625,-1.036376953125,-0.273712158203125,-0.16802978515625
1782986876131259600,10.759259765625,-1.001373291015625,-0.317291259765625,-0.1570892333984375
1782986876141334800,10.769334716796875,-0.9520263671875,-0.3397064208984375,-0.14306640625
1782986876151408600,10.77940869140625,-0.969635009765625,-0.3443145751953125,-0.1239166259765625
1782986876161483800,10.78948388671875,-1.0581817626953125,-0.326171875,-0.1102142333984375
1782986876171557600,10.7995576171875,-1.177337646484375,-0.2922821044921875,-0.1036224365234375
1782986876181632800,10.8096328125,-1.27642822265625,-0.2512054443359375,-0.1082763671875
1782986876191706600,10.81970654296875,-1.3104248046875,-0.21868896484375,-0.076171875
1782986876201780700,10.82978076171875,-1.24908447265625,-0.20745849609375,-0.008209228515625
1782986876211855600,10.839855712890625,-1.1005859375,-0.215118408203125,0.028228759765625
1782986876221929700,10.8499296875,-0.9260101318359375,-0.2552642822265625,0.0255584716796875
1782986876232004600,10.860004638671874,-0.77166748046875,-0.312896728515625,0.02337646484375
1782986876242078700,10.87007861328125,-0.64434814453125,-0.362548828125,0.02740478515625
1782986876252153900,10.88015380859375,-0.5667572021484375,-0.4095001220703125,0.0165863037109375
1782986876262227700,10.890227783203125,-0.56207275390625,-0.44036865234375,-0.009033203125
1782986876272302800,10.900302734375,-0.62371826171875,-0.4465789794921875,-0.0448455810546875
1782986876282376700,10.910376708984375,-0.7163238525390625,-0.441497802734375,-0.0606231689453125
1782986876292451800,10.920451904296876,-0.7848968505859375,-0.426116943359375,-0.048675537109375
1782986876302525700,10.930525634765624,-0.835693359375,-0.410736083984375,-0.0424652099609375
1782986876312599600,10.940599609375,-0.8668212890625,-0.414794921875,-0.0685272216796875
1782986876322674700,10.9506748046875,-0.874603271484375,-0.4305572509765625,-0.103759765625
1782986876332748500,10.96074853515625,-0.8687591552734375,-0.44482421875,-0.120819091796875
1782986876342823700,10.97082373046875,-0.8653564453125,-0.4564361572265625,-0.1250152587890625
1782986876352897500,10.9808974609375,-0.8614654541015625,-0.4686279296875,-0.14068603515625
1782986876362972700,10.99097265625,-0.87908935546875,-0.474822998046875,-0.1441192626953125
1782986876373046500,11.001046630859374,-0.9276885986328125,-0.4684600830078125,-0.129852294921875
1782986876383121700,11.01112158203125,-0.979400634765625,-0.461395263671875,-0.10797119140625
1782986876393195800,11.02119580078125,-0.9961090087890625,-0.457489013671875,-0.0863494873046875
1782986876403270700,11.031270751953125,-0.970062255859375,-0.4557647705078125,-0.0736236572265625
1782986876413344800,11.0413447265625,-0.9234466552734375,-0.4619293212890625,-0.0631256103515625
1782986876423419600,11.051419677734375,-0.8825836181640625,-0.464111328125,-0.0547637939453125
1782986876433493800,11.06149365234375,-0.89471435546875,-0.4633941650390625,-0.0638885498046875
1782986876443567900,11.07156787109375,-0.96380615234375,-0.4653167724609375,-0.0777740478515625
1782986876453642800,11.081642822265625,-0.9879150390625,-0.4705963134765625,-0.1178741455078125
1782986876463716900,11.091716796875,-0.949951171875,-0.4589996337890625,-0.0884552001953125
1782986876473791700,11.101791748046875,-0.9276275634765625,-0.4230804443359375,-0.0142974853515625
1782986876483865900,11.111865966796875,-0.8608245849609375,-0.4292755126953125,-0.01531982421875
1782986876493940700,11.121940673828124,-0.8156585693359375,-0.449249267578125,-0.0605010986328125
1782986876504014800,11.132014892578125,-0.7850341796875,-0.4738922119140625,-0.0852813720703125
1782986876514089700,11.14208984375,-0.755828857421875,-0.495758056640625,-0.078704833984375
1782986876524163800,11.152163818359375,-0.7174224853515625,-0.5071868896484375,-0.0541229248046875
1782986876534238700,11.16223876953125,-0.7013397216796875,-0.5013427734375,-0.0405426025390625
