time,seconds_elapsed,z,y,x
1782987892897782500,0.073782470703125,0.03500569239258766,0.22072362899780273,-0.11680994182825089
1782987892907856400,0.0838564453125,-0.024482401087880135,0.11694157123565674,-0.07193061709403992
1782987892917931500,0.093931640625,-0.07885242998600006,-0.003157404949888587,-0.047177594155073166
1782987892928005400,0.10400537109375,-0.11177798360586166,-0.10729158669710159,-0.04101719707250595
1782987892938079500,0.11407958984375,-0.12506695091724396,-0.17458413541316986,-0.05465255305171013
1782987892948154400,0.124154296875,-0.1328929215669632,-0.1898251324892044,-0.09260711818933487
1782987892958228500,0.134228515625,-0.13631102442741394,-0.17051401734352112,-0.15344636142253876
1782987892968303600,0.1443037109375,-0.12909358739852905,-0.12211372703313828,-0.22784949839115143
1782987892978377500,0.15437744140625,-0.11194150894880295,-0.061856672167778015,-0.2929292321205139
1782987892988452600,0.16445263671875,-0.09318672865629196,-0.028020143508911133,-0.34729233384132385
1782987892998526500,0.1745263671875,-0.0729009285569191,-0.03514091670513153,-0.389993280172348
1782987893008601600,0.1846015625,-0.05945063754916191,-0.06346283107995987,-0.4208262860774994
1782987893018675500,0.194675537109375,-0.05297056585550308,-0.08776070922613144,-0.4344290494918823
1782987893028749600,0.20474951171875,-0.054187364876270294,-0.1033916026353836,-0.43366339802742004
1782987893038824400,0.214824462890625,-0.051585111767053604,-0.09048522263765335,-0.4147816598415375
1782987893048898600,0.224898681640625,-0.04061980918049812,-0.01919586770236492,-0.3800702691078186
1782987893058973400,0.234973388671875,-0.024059729650616646,0.058373115956783295,-0.34604164958000183
1782987893069047600,0.245047607421875,0.0028810733929276466,0.09856127947568893,-0.31089723110198975
1782987893079122400,0.255122314453125,0.03401634469628334,0.13276302814483643,-0.2743992209434509
1782987893089196800,0.26519677734375,0.09283704310655594,0.13677722215652466,-0.23127491772174835
1782987893099271400,0.275271484375,0.16210001707077026,0.10298804193735123,-0.188384011387825
1782987893109345500,0.285345458984375,0.2314165085554123,0.04953334107995033,-0.14450018107891083
1782987893119419400,0.29541943359375,0.286192387342453,0.02414979599416256,-0.12178588658571243
1782987893129494500,0.30549462890625,0.33059820532798767,0.012009243480861187,-0.12288124114274979
1782987893139568400,0.315568359375,0.35857781767845154,0.011788463220000267,-0.14237092435359955
1782987893149643500,0.3256435546875,0.37656083703041077,0.027681943029165268,-0.1548294723033905
1782987893159717600,0.335717529296875,0.3756706118583679,0.04858531057834625,-0.1488972157239914
1782987893169792500,0.34579248046875,0.3587550222873688,0.06606896221637726,-0.12530001997947693
1782987893179866600,0.35586669921875,0.3256646990776062,0.09459950774908066,-0.09121423959732056
1782987893189940500,0.3659404296875,0.28922149538993835,0.13344918191432953,-0.05998574569821358
1782987893200015600,0.376015625,0.2572048008441925,0.13939659297466278,-0.0489322729408741
1782987893210089500,0.38608935546875,0.23809660971164703,0.11365847289562225,-0.0717582255601883
1782987893220164600,0.39616455078125,0.23762230575084686,0.09950350224971771,-0.10935673117637634
1782987893230238500,0.406238525390625,0.2551685571670532,0.10280235856771469,-0.14710970222949982
1782987893240313600,0.416313720703125,0.27213242650032043,0.13283899426460266,-0.1869032382965088
1782987893250387500,0.426387451171875,0.27576178312301636,0.19838018715381622,-0.21846570074558258
1782987893260462600,0.436462646484375,0.2636558413505554,0.3033490478992462,-0.21505185961723328
1782987893270536400,0.446536376953125,0.23832224309444427,0.35019856691360474,-0.15779122710227966
1782987893280610300,0.4566103515625,0.20294080674648285,0.3305792212486267,-0.08135370165109634
1782987893290685400,0.466685546875,0.15466515719890594,0.3225298225879669,0.005154027137905359
1782987893300759600,0.476759521484375,0.10968624800443649,0.3864055871963501,0.07747427374124527
1782987893310834400,0.48683447265625,0.05617722123861313,0.4763389229774475,0.11757349222898483
1782987893320908500,0.496908447265625,-0.004500509239733219,0.5493305921554565,0.11043142527341843
1782987893330983400,0.5069833984375,-0.06932131946086884,0.5756444931030273,0.07585134357213974
1782987893341057500,0.5170576171875,-0.11686840653419495,0.5638624429702759,0.04135164991021156
1782987893351132400,0.52713232421875,-0.13092084228992462,0.5415147542953491,0.023775050416588783
1782987893361206500,0.53720654296875,-0.09802575409412384,0.552700936794281,0.03781356289982796
1782987893371280400,0.5472802734375,-0.025533443316817284,0.5899252891540527,0.0882013663649559
1782987893381355500,0.55735546875,0.07095937430858612,0.6452116966247559,0.14973655343055725
1782987893391429400,0.567429443359375,0.16490957140922546,0.6792011260986328,0.21537069976329803
1782987893401504500,0.57750439453125,0.24529893696308136,0.7015038728713989,0.27204588055610657
1782987893411578400,0.587578369140625,0.31564581394195557,0.7651126980781555,0.3186030089855194
1782987893421653500,0.597653564453125,0.3746285140514374,0.8680068254470825,0.36496949195861816
1782987893431727400,0.607727294921875,0.4271135628223419,0.941340446472168,0.40879127383232117
1782987893441801500,0.617801513671875,0.4719286262989044,0.9454057812690735,0.4414871037006378
1782987893451876400,0.62787646484375,0.49878445267677307,0.7835881114006042,0.452717661857605
1782987893461950500,0.637950439453125,0.5045854449272156,0.44652459025382996,0.44742289185523987
1782987893472025300,0.648025390625,0.4982159435749054,0.020884066820144653,0.43836256861686707
1782987893482099500,0.658099365234375,0.48609602451324463,-0.3132133483886719,0.46130064129829407
1782987893492174300,0.66817431640625,0.4953790009021759,-0.38695546984672546,0.5355820655822754
1782987893502248400,0.67824853515625,0.5128332376480103,-0.26019594073295593,0.6031442880630493
1782987893512323300,0.6883232421875,0.5230858325958252,-0.07789827883243561,0.6341663599014282
1782987893522397400,0.6983974609375,0.5284818410873413,0.1467054784297943,0.5890145897865295
1782987893532471300,0.70847119140625,0.5328717827796936,0.4152597188949585,0.49047574400901794
1782987893542546400,0.71854638671875,0.5334503054618835,0.6551022529602051,0.37259262800216675
1782987893552620300,0.728620361328125,0.559341311454773,0.8035423159599304,0.2807404696941376
1782987893562695400,0.7386953125,0.6037956476211548,0.8120558261871338,0.21577058732509613
1782987893572769300,0.748769287109375,0.652725100517273,0.6761137247085571,0.1605004072189331
1782987893582844400,0.758844482421875,0.7107373476028442,0.43653085827827454,0.11120390892028809
1782987893592918300,0.768918212890625,0.7685079574584961,0.19427001476287842,0.07094570249319077
1782987893602993400,0.778993408203125,0.8121283650398254,0.007872870191931725,0.06290688365697861
1782987893613067300,0.7890673828125,0.8425957560539246,-0.05872213840484619,0.09081149101257324
1782987893623141600,0.7991416015625,0.8610845804214478,0.015676893293857574,0.15856918692588806
1782987893633216300,0.80921630859375,0.8611495494842529,0.1679718792438507,0.24249497056007385
1782987893643290600,0.81929052734375,0.8367183804512024,0.3207923471927643,0.3097590208053589
1782987893653365200,0.829365234375,0.8061474561691284,0.41706615686416626,0.34263521432876587
1782987893663439600,0.839439697265625,0.7645764350891113,0.4670003056526184,0.33877989649772644
1782987893673514200,0.84951416015625,0.7122988700866699,0.46542423963546753,0.30484482645988464
1782987893683588600,0.859588623046875,0.6595250368118286,0.4073423445224762,0.2414303421974182
1782987893693663200,0.869663330078125,0.6201227903366089,0.3081910014152527,0.1721881628036499
1782987893703737600,0.879737548828125,0.5976275205612183,0.2262469083070755,0.10960356891155243
1782987893713811500,0.8898115234375,0.5942045450210571,0.21111269295215607,0.06449069082736969
1782987893723886600,0.899886474609375,0.6086112260818481,0.2279948592185974,0.02212691120803356
1782987893733960400,0.90996044921875,0.6240519285202026,0.2399654984474182,-0.021181946620345116
1782987893744035600,0.92003564453125,0.6341904401779175,0.23889628052711487,-0.07304346561431885
1782987893754109400,0.930109375,0.6268856525421143,0.22191357612609863,-0.12586192786693573
1782987893764184600,0.9401845703125,0.6019200086593628,0.22676755487918854,-0.16645517945289612
1782987893774258400,0.950258544921875,0.5596702694892883,0.23467634618282318,-0.20573361217975616
1782987893784332500,0.96033251953125,0.5101855397224426,0.2229250967502594,-0.23646871745586395
1782987893794407400,0.970407470703125,0.4733907878398895,0.2158256471157074,-0.25644826889038086
1782987893804481500,0.9804814453125,0.4568430483341217,0.21112307906150818,-0.2681850790977478
1782987893814556400,0.990556396484375,0.45331889390945435,0.19199998676776886,-0.27582886815071106
1782987893824630500,1.000630615234375,0.4627821743488312,0.17886799573898315,-0.2958613634109497
1782987893834705400,1.010705322265625,0.4922756254673004,0.1763523817062378,-0.31746411323547363
1782987893844779500,1.020779541015625,0.5363017320632935,0.17138606309890747,-0.35528653860092163
1782987893854854400,1.0308544921875,0.5905532240867615,0.16149774193763733,-0.39772775769233704
1782987893864928500,1.040928466796875,0.6407386064529419,0.15200896561145782,-0.4176443815231323
1782987893875002400,1.05100244140625,0.6728031039237976,0.14088094234466553,-0.41106289625167847
1782987893885077500,1.061077392578125,0.6812397241592407,0.11327099055051804,-0.38191860914230347
1782987893895151400,1.0711513671875,0.6776220798492432,0.1041688323020935,-0.31973913311958313
1782987893905226500,1.0812265625,0.6681756377220154,0.11527746915817261,-0.23730967938899994
1782987893915300400,1.09130029296875,0.6561961770057678,0.13529512286186218,-0.140976220369339
1782987893925375500,1.10137548828125,0.6453350782394409,0.15309153497219086,-0.04500135779380798
1782987893935449300,1.111449462890625,0.6361463665962219,0.13971181213855743,0.030832422897219658
1782987893945524500,1.1215244140625,0.6255156993865967,0.07708177715539932,0.08106738328933716
1782987893955598300,1.131598388671875,0.6153548955917358,-0.05485042557120323,0.11064258962869644
1782987893965672400,1.14167236328125,0.5985000729560852,-0.21003714203834534,0.13979238271713257
1782987893975747300,1.151747314453125,0.5730293393135071,-0.31442534923553467,0.17914831638336182
1782987893985821400,1.161821533203125,0.5386205315589905,-0.39565470814704895,0.21297582983970642
1782987893995896300,1.171896240234375,0.49608054757118225,-0.3994704782962799,0.21759642660617828
1782987894005970400,1.181970458984375,0.43527817726135254,-0.2563900947570801,0.18184365332126617
1782987894016045300,1.19204541015625,0.37629368901252747,-0.03810330107808113,0.10728979110717773
1782987894026119400,1.202119384765625,0.3051161766052246,0.08285326510667801,-0.0236114040017128
1782987894036194300,1.2121943359375,0.20510809123516083,0.07951952517032623,-0.22444118559360504
1782987894046268400,1.222268310546875,0.07822251319885254,-0.004228849895298481,-0.45673200488090515
1782987894056342300,1.23234228515625,-0.05175572633743286,-0.05935308709740639,-0.6897454857826233
1782987894066417400,1.24241748046875,-0.16108578443527222,-0.011011333204805851,-0.903789758682251
1782987894076491300,1.2524912109375,-0.23671583831310272,0.13170693814754486,-1.0593103170394897
1782987894086566400,1.26256640625,-0.2592731714248657,0.34280943870544434,-1.1430035829544067
1782987894096640300,1.27264013671875,-0.23036080598831177,0.5913499593734741,-1.111228346824646
1782987894106715400,1.28271533203125,-0.15680380165576935,0.8068492412567139,-0.9564119577407837
1782987894116789000,1.2927890625,-0.06137315556406975,0.9762188196182251,-0.7024787664413452
1782987894126863000,1.302863037109375,0.028016407042741776,1.046837329864502,-0.4037424921989441
1782987894136938000,1.31293798828125,0.09857073426246643,0.9346299171447754,-0.11363929510116577
1782987894147012000,1.32301220703125,0.14702841639518738,0.6657068133354187,0.1355915516614914
1782987894157087000,1.3330869140625,0.18514251708984375,0.3038215935230255,0.32587334513664246
1782987894167161000,1.3431611328125,0.227153480052948,-0.05907585099339485,0.45577603578567505
1782987894177236000,1.353236083984375,0.28418827056884766,-0.3381817936897278,0.5150595903396606
1782987894187310000,1.36331005859375,0.3446930944919586,-0.4906501770019531,0.49873295426368713
1782987894197385000,1.373385009765625,0.37225839495658875,-0.5327419638633728,0.4433855414390564
1782987894207459000,1.383458984375,0.350411593914032,-0.43365925550460815,0.3559219241142273
1782987894217533000,1.393532958984375,0.28198590874671936,-0.25747063755989075,0.2692165970802307
1782987894227608000,1.403608154296875,0.17518703639507294,-0.06304576992988586,0.1984902173280716
1782987894237682000,1.413681884765625,0.053436897695064545,0.13531897962093353,0.1678236573934555
1782987894247757000,1.423757080078125,-0.07185608148574829,0.30760258436203003,0.1865953952074051
1782987894257831000,1.433830810546875,-0.1738831102848053,0.4448222219944,0.25440213084220886
1782987894267906000,1.443906005859375,-0.24999913573265076,0.5226650238037109,0.3431635797023773
1782987894277980000,1.45397998046875,-0.29281237721443176,0.5147042870521545,0.4341067969799042
1782987894288054000,1.464053955078125,-0.3097679316997528,0.4514928460121155,0.5022529363632202
1782987894298129000,1.47412890625,-0.3177025616168976,0.38332659006118774,0.5323194861412048
1782987894308203000,1.484203125,-0.3258139193058014,0.3329257071018219,0.5204970240592957
1782987894318278000,1.49427783203125,-0.3228681683540344,0.2912917137145996,0.481052428483963
1782987894328352000,1.50435205078125,-0.29673847556114197,0.248909130692482,0.4184415340423584
1782987894338427000,1.514427001953125,-0.2452438622713089,0.23634593188762665,0.34591594338417053
1782987894348501000,1.5245009765625,-0.16707508265972137,0.23070120811462402,0.2703957259654999
1782987894358575900,1.534575927734375,-0.06909498572349548,0.23706403374671936,0.20997527241706848
1782987894368650000,1.54464990234375,0.02162615954875946,0.23417270183563232,0.16999951004981995
1782987894378723800,1.554723876953125,0.08469274640083313,0.2115640640258789,0.15217682719230652
1782987894388799000,1.564799072265625,0.11273132264614105,0.169164776802063,0.16369737684726715
1782987894398872800,1.574872802734375,0.11895566433668137,0.1437116116285324,0.18420878052711487
1782987894408948000,1.584947998046875,0.11473887413740158,0.1397475004196167,0.21104906499385834
1782987894419021800,1.595021728515625,0.11034572869539261,0.1539677232503891,0.2427406907081604
1782987894429097000,1.605096923828125,0.11055212467908859,0.17007797956466675,0.26115137338638306
1782987894439170800,1.6151708984375,0.10337357223033905,0.1979985535144806,0.2684495151042938
1782987894449246000,1.625245849609375,0.1007593423128128,0.23560164868831635,0.2605510652065277
1782987894459319800,1.63531982421875,0.10184936970472336,0.2875348627567291,0.24922357499599457
1782987894469394000,1.645393798828125,0.10395847260951996,0.31915420293807983,0.2343325912952423
1782987894479468800,1.65546875,0.11222412437200546,0.3324492275714874,0.22937458753585815
1782987894489543000,1.66554296875,0.12484238296747208,0.33407196402549744,0.22843098640441895
1782987894499617800,1.67561767578125,0.14739882946014404,0.31797128915786743,0.23332642018795013
1782987894509692000,1.68569189453125,0.16935595870018005,0.27058035135269165,0.23553051054477692
1782987894519766800,1.695766845703125,0.2001977562904358,0.20610548555850983,0.22463099658489227
1782987894529841000,1.7058408203125,0.23994609713554382,0.1273496150970459,0.20313385128974915
1782987894539914800,1.715914794921875,0.28723371028900146,0.05745735764503479,0.17639251053333282
1782987894549990000,1.725989990234375,0.32426077127456665,0.008764978498220444,0.1409234255552292
1782987894560063700,1.736063720703125,0.35839131474494934,0.015332333743572235,0.09646009653806686
1782987894570139000,1.746138916015625,0.37859833240509033,0.059071559458971024,0.056522004306316376
1782987894580212700,1.756212646484375,0.39999762177467346,0.10147973895072937,0.017111480236053467
1782987894590288000,1.766287841796875,0.41925936937332153,0.15766172111034393,-0.01910141110420227
1782987894600361700,1.77636181640625,0.4380413293838501,0.21964333951473236,-0.04894479364156723
1782987894610436900,1.786436767578125,0.4452987015247345,0.2709841728210449,-0.07301170378923416
1782987894620510700,1.7965107421875,0.4484572112560272,0.33341214060783386,-0.08623003959655762
1782987894630584800,1.806584716796875,0.4377988576889038,0.4237930178642273,-0.09500648826360703
1782987894640659700,1.81665966796875,0.4195253252983093,0.5663291215896606,-0.08958908915519714
1782987894650733800,1.82673388671875,0.40667155385017395,0.6155186891555786,-0.08027424663305283
1782987894660808700,1.83680859375,0.4082878530025482,0.46036481857299805,-0.11569321900606155
1782987894670882800,1.8468828125,0.3907681703567505,0.13077519834041595,-0.21033784747123718
1782987894680957700,1.856957763671875,0.3638145923614502,-0.2031164914369583,-0.3445339798927307
1782987894691031800,1.86703173828125,0.3433675467967987,-0.29904940724372864,-0.47726455330848694
1782987894701106000,1.87710595703125,0.33041098713874817,-0.16340608894824982,-0.5721647143363953
1782987894711180800,1.887180908203125,0.34189391136169434,0.05176800116896629,-0.6178639531135559
1782987894721255000,1.8972548828125,0.37671926617622375,0.2833234667778015,-0.5963636636734009
1782987894731329800,1.907329833984375,0.4300145208835602,0.4881552755832672,-0.4924728572368622
1782987894741404000,1.91740380859375,0.47783318161964417,0.6130442023277283,-0.32032400369644165
1782987894751478800,1.927478759765625,0.5089249014854431,0.6846612691879272,-0.10348398238420486
1782987894761553000,1.937552978515625,0.5271449089050293,0.6924792528152466,0.11949609965085983
1782987894771627800,1.947627685546875,0.5203781127929688,0.6004539728164673,0.30867069959640503
1782987894781702000,1.957701904296875,0.5021919012069702,0.427607923746109,0.44476011395454407
1782987894791776000,1.96777587890625,0.48677536845207214,0.2280271351337433,0.5127243399620056
1782987894801851000,1.977850830078125,0.47252851724624634,0.04835750535130501,0.5088449120521545
1782987894811925000,1.987925048828125,0.4653748571872711,-0.09860803186893463,0.4280409812927246
1782987894821999900,1.997999755859375,0.46157214045524597,-0.19043861329555511,0.28899815678596497
1782987894832074000,2.008073974609375,0.4602091908454895,-0.22467519342899323,0.10864786058664322
1782987894842148900,2.01814892578125,0.4674156904220581,-0.19663770496845245,-0.08493199199438095
1782987894852223000,2.028222900390625,0.4892221987247467,-0.07866846024990082,-0.23721127212047577
1782987894862296800,2.038296875,0.5065354108810425,0.0959816426038742,-0.3339226245880127
1782987894872372000,2.0483720703125,0.4984579384326935,0.24356487393379211,-0.3587633967399597
1782987894882445800,2.05844580078125,0.47489216923713684,0.3219323754310608,-0.3237105906009674
1782987894892521000,2.06852099609375,0.45272883772850037,0.3106604218482971,-0.24694757163524628
1782987894902594800,2.0785947265625,0.43790754675865173,0.21460102498531342,-0.15084873139858246
1782987894912670000,2.088669921875,0.4358857274055481,0.09461277723312378,-0.04701657220721245
1782987894922743800,2.098743896484375,0.43765273690223694,0.00258005503565073,0.047661732882261276
1782987894932819000,2.10881884765625,0.44204777479171753,-0.024094274267554283,0.11498891562223434
1782987894942892800,2.118892822265625,0.44456765055656433,0.010874362662434578,0.1545664221048355
1782987894952967000,2.128966796875,0.4489330053329468,0.056020963937044144,0.1706770360469818
1782987894963041800,2.139041748046875,0.4464203119277954,0.09317445755004883,0.15220828354358673
1782987894973116000,2.149115966796875,0.43909120559692383,0.12661805748939514,0.12894785404205322
1782987894983191000,2.15919091796875,0.4136505722999573,0.14431503415107727,0.09548336267471313
1782987894993265000,2.169264892578125,0.37518635392189026,0.13475269079208374,0.053017593920230865
1782987895003340000,2.179340087890625,0.33172860741615295,0.0944950133562088,0.009537228383123875
1782987895013414000,2.189413818359375,0.2908002436161041,0.050902314484119415,-0.04124722257256508
1782987895023487700,2.19948779296875,0.255950391292572,0.010379655286669731,-0.08907999098300934
1782987895033563000,2.20956298828125,0.21716709434986115,-0.013319871388375759,-0.13693304359912872
1782987895043636700,2.21963671875,0.17931877076625824,-0.014114558696746826,-0.17914360761642456
1782987895053712000,2.2297119140625,0.14082559943199158,-0.00127960997633636,-0.21804574131965637
1782987895063785700,2.23978564453125,0.11231166869401932,0.017578233033418655,-0.24296468496322632
1782987895073860900,2.24986083984375,0.08635216951370239,0.024614622816443443,-0.2627813220024109
1782987895083934700,2.259934814453125,0.06206147372722626,0.021006572991609573,-0.2661467492580414
1782987895094009900,2.270009765625,0.0451686754822731,0.015215796418488026,-0.26338282227516174
1782987895104084000,2.280083984375,0.03217191994190216,-0.006631712429225445,-0.24661025404930115
1782987895114158000,2.290157958984375,0.009454786777496338,-0.027678940445184708,-0.23337027430534363
1782987895124233200,2.300233154296875,-0.015123260207474232,-0.0675579160451889,-0.2301880568265915
1782987895134307000,2.31030712890625,-0.039363693445920944,-0.12689176201820374,-0.2381802648305893
1782987895144382200,2.32038232421875,-0.05153460428118706,-0.18405383825302124,-0.24297155439853668
1782987895154456000,2.3304560546875,-0.04305137321352959,-0.2410135269165039,-0.23911157250404358
1782987895164531200,2.34053125,-0.02446756511926651,-0.30682530999183655,-0.2293097972869873
1782987895174605000,2.35060498046875,-0.0032150154002010822,-0.3666249215602875,-0.2106526643037796
1782987895184679000,2.360678955078125,0.011851285584270954,-0.3854806423187256,-0.16829082369804382
1782987895194754000,2.370754150390625,0.012017300352454185,-0.36266374588012695,-0.11694993823766708
1782987895204828200,2.380828125,-0.015114718116819859,-0.32000255584716797,-0.0672076866030693
1782987895214903000,2.390903076171875,-0.06388714164495468,-0.25031623244285583,-0.0337648019194603
1782987895224977200,2.40097705078125,-0.12663601338863373,-0.23759377002716064,-0.026968147605657578
1782987895235052000,2.411052001953125,-0.1978907436132431,-0.31630030274391174,-0.07876316457986832
1782987895245126100,2.421126220703125,-0.27626174688339233,-0.4957089424133301,-0.1771898716688156
1782987895255201000,2.431200927734375,-0.3543742895126343,-0.6688302755355835,-0.30601003766059875
1782987895265275100,2.441275146484375,-0.44287991523742676,-0.7103273868560791,-0.4278091788291931
1782987895275349200,2.451349365234375,-0.537092387676239,-0.5806976556777954,-0.52960205078125
1782987895285424000,2.461424072265625,-0.6261871457099915,-0.33269748091697693,-0.5954851508140564
1782987895295498200,2.471498291015625,-0.6854954957962036,-0.044864267110824585,-0.6081980466842651
1782987895305573000,2.481572998046875,-0.6876856684684753,0.24065908789634705,-0.5523416996002197
1782987895315647200,2.491647216796875,-0.6560478806495667,0.4690251052379608,-0.43604937195777893
1782987895325722000,2.50172216796875,-0.598416805267334,0.5852782130241394,-0.27332594990730286
1782987895335796200,2.511796142578125,-0.5286654829978943,0.5813289880752563,-0.08292371034622192
1782987895345870300,2.521870361328125,-0.46392858028411865,0.459146648645401,0.10455164313316345
1782987895355945200,2.5319453125,-0.40737384557724,0.23051287233829498,0.2727473974227905
1782987895366019300,2.542019287109375,-0.356783926486969,-0.0699007511138916,0.38985884189605713
1782987895376094200,2.55209423828125,-0.3040514588356018,-0.3559870421886444,0.4415879249572754
1782987895386168300,2.562168212890625,-0.25415074825286865,-0.5407784581184387,0.4319555163383484
1782987895396243200,2.5722431640625,-0.21179962158203125,-0.6005990505218506,0.37965327501296997
1782987895406317300,2.5823173828125,-0.18531794846057892,-0.5499699711799622,0.30359339714050293
1782987895416391200,2.59239111328125,-0.16802681982517242,-0.45708805322647095,0.22484230995178223
1782987895426466300,2.60246630859375,-0.18132425844669342,-0.3138800263404846,0.15599799156188965
1782987895436540200,2.6125400390625,-0.21817311644554138,-0.15278460085391998,0.10458189249038696
1782987895446615300,2.622615234375,-0.2836748957633972,-0.03348032012581825,0.06331061571836472
1782987895456689200,2.632689208984375,-0.36549094319343567,0.06983014196157455,0.04962046444416046
1782987895466764300,2.642764404296875,-0.454567551612854,0.17140284180641174,0.06375705450773239
1782987895476838100,2.652838134765625,-0.5296871066093445,0.2423764169216156,0.08798259496688843
1782987895486913300,2.662913330078125,-0.5783427953720093,0.26106539368629456,0.10725722461938858
1782987895496987100,2.672987060546875,-0.5946605205535889,0.23655793070793152,0.11770586669445038
1782987895507061200,2.683061279296875,-0.5855720043182373,0.17868290841579437,0.11173252761363983
1782987895517136100,2.69313623046875,-0.5642910003662109,0.09309141337871552,0.08638966828584671
1782987895527210200,2.703210205078125,-0.5395792722702026,-0.027985474094748497,0.03855130821466446
1782987895537285000,2.71328515625,-0.5112594962120056,-0.14624521136283875,-0.024942884221673012
1782987895547359200,2.723359130859375,-0.47295230627059937,-0.21056906878948212,-0.08667176216840744
1782987895557434000,2.73343408203125,-0.417632520198822,-0.2110828012228012,-0.1254783570766449
1782987895567508200,2.74350830078125,-0.36900240182876587,-0.1872837245464325,-0.14663156867027283
1782987895577582000,2.75358203125,-0.33516737818717957,-0.15490303933620453,-0.14837028086185455
1782987895587657200,2.7636572265625,-0.32417598366737366,-0.11379928141832352,-0.12294508516788483
1782987895597731000,2.77373095703125,-0.33002719283103943,-0.05810476094484329,-0.06465383619070053
1782987895607806200,2.78380615234375,-0.35613417625427246,0.007186896167695522,0.009059798903763294
1782987895617880000,2.793880126953125,-0.3853994607925415,0.04294680804014206,0.09399595111608505
1782987895627955200,2.803955078125,-0.41239991784095764,0.05060020089149475,0.17720136046409607
1782987895638029000,2.814029052734375,-0.43753883242607117,0.029504235833883286,0.24517135322093964
1782987895648104200,2.824104248046875,-0.4523257613182068,0.03801703080534935,0.3030059039592743
1782987895658178000,2.834177978515625,-0.4563891887664795,0.06959886848926544,0.35331955552101135
1782987895668252200,2.844252197265625,-0.4615029990673065,0.12413667142391205,0.3907689154148102
1782987895678327000,2.8543271484375,-0.4648432433605194,0.17092305421829224,0.407709538936615
1782987895688401200,2.864401123046875,-0.4722162187099457,0.18653875589370728,0.3983005881309509
1782987895698476000,2.87447607421875,-0.4720905125141144,0.1609802395105362,0.36102399230003357
1782987895708550100,2.884550048828125,-0.4671838879585266,0.0996609553694725,0.3076803386211395
1782987895718625000,2.894625,-0.46946772933006287,0.03592777997255325,0.23989643156528473
1782987895728699100,2.90469921875,-0.4899439811706543,-0.026598980650305748,0.15223315358161926
1782987895738773000,2.91477294921875,-0.5351710319519043,-0.07120628654956818,0.04805547744035721
1782987895748848000,2.92484814453125,-0.5867756009101868,-0.045630887150764465,-0.05272439494729042
1782987895758922000,2.934921875,-0.6311347484588623,0.07279781997203827,-0.14487166702747345
1782987895768997000,2.9449970703125,-0.6410137414932251,0.21709959208965302,-0.20701919496059418
1782987895779071000,2.955071044921875,-0.6054169535636902,0.29447928071022034,-0.2429284304380417
1782987895789146000,2.96514599609375,-0.5356687307357788,0.28240716457366943,-0.2516084611415863
1782987895799220000,2.975219970703125,-0.4505598247051239,0.2433079183101654,-0.23870520293712616
1782987895809294300,2.98529443359375,-0.36565613746643066,0.2675107419490814,-0.21430692076683044
1782987895819369000,2.995368896484375,-0.283928781747818,0.23681876063346863,-0.18446432054042816
1782987895829443300,3.005443359375,-0.1996469348669052,-0.01156734861433506,-0.19927150011062622
1782987895839518000,3.01551806640625,-0.12852531671524048,-0.4738961160182953,-0.25857579708099365
1782987895849592300,3.02559228515625,-0.08960855007171631,-1.0162142515182495,-0.3676966726779938
1782987895859667000,3.0356669921875,-0.0958019495010376,-1.3915109634399414,-0.4856433868408203
1782987895869741300,3.0457412109375,-0.13928204774856567,-1.4293146133422852,-0.5437548756599426
1782987895879816000,3.05581591796875,-0.1861923635005951,-1.1217783689498901,-0.5016958117485046
1782987895889890300,3.065890380859375,-0.20608510076999664,-0.5350163578987122,-0.33289986848831177
1782987895899964200,3.075964111328125,-0.18836158514022827,0.17812903225421906,-0.08079595118761063
1782987895910039300,3.086039306640625,-0.14733532071113586,0.7579615116119385,0.19027096033096313
1782987895920113200,3.096113037109375,-0.08023154735565186,0.9958979487419128,0.4366002380847931
1782987895930188300,3.106188232421875,0.02221839129924774,0.8908748030662537,0.6338723301887512
1782987895940262100,3.11626220703125,0.12399321794509888,0.5740785598754883,0.765967845916748
1782987895950337300,3.126337158203125,0.18881827592849731,0.10020950436592102,0.8251278400421143
1782987895960411100,3.1364111328125,0.19211328029632568,-0.4936777949333191,0.7855753898620605
1782987895970486300,3.146486328125,0.13812221586704254,-1.006468653678894,0.6556959748268127
1782987895980560100,3.15656005859375,0.06834661215543747,-1.2738370895385742,0.45819413661956787
1782987895990634200,3.16663427734375,-0.009732476435601711,-1.3402626514434814,0.216544508934021
1782987896000709000,3.176709228515625,-0.07679308205842972,-1.275024175643921,-0.033265817910432816
1782987896010783200,3.186783203125,-0.13826949894428253,-1.0924291610717773,-0.23828661441802979
1782987896020858000,3.196858154296875,-0.20302273333072662,-0.8130154609680176,-0.3758981227874756
1782987896030932200,3.20693212890625,-0.2734135389328003,-0.49462759494781494,-0.43464505672454834
1782987896041007000,3.217007080078125,-0.3485914170742035,-0.20100465416908264,-0.4023255407810211
1782987896051081200,3.227081298828125,-0.40312284231185913,0.007385570555925369,-0.30306580662727356
1782987896061155000,3.237155029296875,-0.421714186668396,0.10236071050167084,-0.14871549606323242
1782987896071230200,3.247230224609375,-0.4093318283557892,0.11710743606090546,0.03476990386843681
1782987896081304000,3.257303955078125,-0.3842813968658447,0.058374982327222824,0.21823139488697052
1782987896091379200,3.267379150390625,-0.36153531074523926,-0.04894721508026123,0.3743584156036377
1782987896101453000,3.277453125,-0.3461536765098572,-0.1393929123878479,0.4942740499973297
1782987896111532500,3.287532470703125,-0.3329417407512665,-0.1412145048379898,0.5688908100128174
1782987896121606400,3.2976064453125,-0.3345804214477539,-0.07087211310863495,0.5805927515029907
1782987896131680500,3.307680419921875,-0.33293911814689636,0.020559536293148994,0.5350183248519897
1782987896141755400,3.31775537109375,-0.33409154415130615,0.0996873751282692,0.4526838958263397
1782987896151829500,3.32782958984375,-0.3295077085494995,0.1428297758102417,0.3613462746143341
1782987896161904400,3.337904296875,-0.31537431478500366,0.12598907947540283,0.2692241370677948
1782987896171978500,3.347978515625,-0.29013341665267944,0.054204635322093964,0.19862161576747894
1782987896182053400,3.358053466796875,-0.2641298472881317,-0.0364488922059536,0.14406433701515198
1782987896192127500,3.36812744140625,-0.2395656704902649,-0.1291346251964569,0.10608819872140884
1782987896202202400,3.378202392578125,-0.232876718044281,-0.18780873715877533,0.08038575947284698
1782987896212276500,3.3882763671875,-0.24345532059669495,-0.21074281632900238,0.05784929543733597
1782987896222350300,3.398350341796875,-0.2776896059513092,-0.18889839947223663,0.0284993015229702
1782987896232425500,3.408425537109375,-0.3168061077594757,-0.12433353066444397,0.002462375210598111
1782987896242499300,3.418499267578125,-0.3439100682735443,-0.05298227444291115,-0.01614101603627205
1782987896252574500,3.428574462890625,-0.36856749653816223,0.0010788298677653074,-0.03642870858311653
1782987896262648300,3.4386484375,-0.3816947340965271,0.010837184265255928,-0.047768983989953995
1782987896272723500,3.448723388671875,-0.3801884651184082,-0.01918569579720497,-0.057759031653404236
1782987896282797300,3.45879736328125,-0.35774052143096924,-0.06937579065561295,-0.06449709832668304
1782987896292871400,3.468871337890625,-0.3262728750705719,-0.13152703642845154,-0.07336276024580002
1782987896302946300,3.4789462890625,-0.2940670847892761,-0.19807575643062592,-0.08405186235904694
1782987896313020400,3.4890205078125,-0.26629188656806946,-0.23132026195526123,-0.08056844770908356
1782987896323095300,3.49909521484375,-0.24059659242630005,-0.22832821309566498,-0.07032499462366104
1782987896333169400,3.50916943359375,-0.2194870412349701,-0.23120415210723877,-0.04781382530927658
1782987896343244300,3.519244384765625,-0.19511198997497559,-0.23720665276050568,-0.020759977400302887
1782987896353318400,3.529318359375,-0.1718926876783371,-0.22490736842155457,0.00958141591399908
1782987896363393300,3.539393310546875,-0.1567905992269516,-0.1783580482006073,0.0365673266351223
1782987896373467400,3.54946728515625,-0.15128451585769653,-0.14713753759860992,0.05319051444530487
1782987896383541200,3.559541259765625,-0.15006257593631744,-0.1474306583404541,0.05241219326853752
1782987896393616400,3.569616455078125,-0.1468883454799652,-0.1689806878566742,0.026326529681682587
1782987896403690200,3.579690185546875,-0.13568276166915894,-0.20808620750904083,-0.0010617156513035297
1782987896413765400,3.589765380859375,-0.12010461091995239,-0.27756568789482117,-0.033514998853206635
1782987896423839200,3.599839111328125,-0.09868761152029037,-0.3602144420146942,-0.06533649563789368
1782987896433914400,3.609914306640625,-0.08124843239784241,-0.43619629740715027,-0.09561584144830704
1782987896443988200,3.61998828125,-0.06554415822029114,-0.46760571002960205,-0.12223085016012192
1782987896454062300,3.630062255859375,-0.058534979820251465,-0.44636887311935425,-0.13304726779460907
1782987896464137200,3.64013720703125,-0.04374918341636658,-0.3485852777957916,-0.14714370667934418
1782987896474211300,3.65021142578125,-0.02223217487335205,-0.26069268584251404,-0.1595122218132019
1782987896484286200,3.6602861328125,0.010372898541390896,-0.3049514591693878,-0.19458648562431335
1782987896494360300,3.6703603515625,0.051191169768571854,-0.5047129988670349,-0.2630651295185089
1782987896504435200,3.680435302734375,0.08126020431518555,-0.8938334584236145,-0.3780903220176697
1782987896514509300,3.69050927734375,0.1020890548825264,-1.290385365486145,-0.5334676504135132
1782987896524584200,3.700584228515625,0.11384128779172897,-1.4570341110229492,-0.6821393966674805
1782987896534658600,3.710658447265625,0.11219332367181778,-1.3370027542114258,-0.7680985331535339
1782987896544732400,3.720732421875,0.11757168918848038,-0.9521232843399048,-0.757145345211029
1782987896554807600,3.7308076171875,0.11568909883499146,-0.3686084449291229,-0.6492708325386047
1782987896564881400,3.74088134765625,0.0947040244936943,0.15803691744804382,-0.4971989095211029
1782987896574956500,3.75095654296875,0.08793826401233673,0.378107488155365,-0.35058867931365967
1782987896585030400,3.761030517578125,0.1417592316865921,0.31150051951408386,-0.21326984465122223
1782987896595105500,3.77110546875,0.2485184371471405,0.14875739812850952,-0.0753716304898262
1782987896605179400,3.781179443359375,0.3756907880306244,-0.006791990250349045,0.06222064420580864
1782987896615253500,3.79125341796875,0.4810190796852112,-0.12254202365875244,0.17557808756828308
1782987896625328400,3.801328369140625,0.5576882362365723,-0.16291798651218414,0.26151788234710693
1782987896635402500,3.811402587890625,0.6106462478637695,-0.10894636809825897,0.3165222704410553
1782987896645477400,3.821477294921875,0.653694748878479,-0.004520040936768055,0.34712788462638855
1782987896655551500,3.831551513671875,0.6794520616531372,0.12267812341451645,0.37024837732315063
1782987896665626400,3.84162646484375,0.7005362510681152,0.2660278379917145,0.39814719557762146
1782987896675700500,3.851700439453125,0.7176531553268433,0.38995084166526794,0.4334671199321747
1782987896685775400,3.861775390625,0.7226977944374084,0.48925378918647766,0.4760574400424957
1782987896695849500,3.871849365234375,0.7168668508529663,0.5834207534790039,0.52686607837677
1782987896705923300,3.88192333984375,0.7006750106811523,0.6838927865028381,0.5835274457931519
1782987896715998500,3.89199853515625,0.6818416714668274,0.7729473114013672,0.6329455971717834
1782987896726072300,3.902072265625,0.6604971289634705,0.8294364213943481,0.653063178062439
1782987896736147500,3.9121474609375,0.6472891569137573,0.8485206365585327,0.6480684280395508
1782987896746221300,3.92222119140625,0.6386508941650391,0.8317039012908936,0.6288192868232727
1782987896756296400,3.93229638671875,0.6374274492263794,0.7844834327697754,0.585684597492218
1782987896766370300,3.942370361328125,0.6425086855888367,0.7088467478752136,0.520144522190094
1782987896776444400,3.9524443359375,0.6547440886497498,0.605786144733429,0.43463554978370667
1782987896786519300,3.962519287109375,0.6709282398223877,0.4854483902454376,0.3323870599269867
1782987896796593400,3.972593505859375,0.7017322182655334,0.3873029053211212,0.2230435162782669
1782987896806668300,3.982668212890625,0.7394087314605713,0.30459555983543396,0.11289073526859283
1782987896816742400,3.992742431640625,0.7929617166519165,0.27732959389686584,0.021603966131806374
1782987896826816300,4.002816162109375,0.8620403409004211,0.29165035486221313,-0.04736597090959549
1782987896836891400,4.012891357421875,0.9338410496711731,0.3022116720676422,-0.09892184287309647
1782987896846965200,4.02296533203125,0.9938883781433105,0.29836052656173706,-0.12710364162921906
1782987896857040400,4.033040283203125,1.033050775527954,0.28655073046684265,-0.14004074037075043
1782987896867114200,4.0431142578125,1.046266794204712,0.27326124906539917,-0.13902118802070618
1782987896877189400,4.053189453125,1.047301173210144,0.2689826190471649,-0.1287001073360443
1782987896887263200,4.06326318359375,1.043026089668274,0.290680855512619,-0.11368738114833832
1782987896897337300,4.07333740234375,1.0428038835525513,0.3432956039905548,-0.10915521532297134
1782987896907412200,4.083412109375,1.054644227027893,0.38230204582214355,-0.12216615676879883
1782987896917486300,4.093486328125,1.0780103206634521,0.3887636661529541,-0.1507333368062973
1782987896927561200,4.103561279296875,1.1105881929397583,0.3935978412628174,-0.18820208311080933
1782987896937635300,4.11363525390625,1.1372349262237549,0.4176075756549835,-0.2251095026731491
1782987896947710500,4.12371044921875,1.143513560295105,0.47933727502822876,-0.2528635561466217
1782987896957784300,4.133784423828125,1.135362148284912,0.582127034664154,-0.27073949575424194
1782987896967858400,4.1438583984375,1.1270928382873535,0.7292703986167908,-0.2686697542667389
1782987896977933300,4.153933349609375,1.1360589265823364,0.8974220752716064,-0.2590714693069458
1782987896988007400,4.16400732421875,1.151172161102295,1.034284234046936,-0.24167823791503906
1782987896998082300,4.174082275390625,1.164474606513977,1.097101092338562,-0.22947189211845398
1782987897008156400,4.184156494140625,1.1719529628753662,1.0784724950790405,-0.22221891582012177
1782987897018231300,4.194231201171875,1.1643198728561401,1.0062278509140015,-0.2188611924648285
1782987897028305400,4.204305419921875,1.1418330669403076,0.9077001810073853,-0.22851990163326263
1782987897038380300,4.21438037109375,1.1065560579299927,0.8284090757369995,-0.23331065475940704
1782987897048454400,4.224454345703125,1.0832124948501587,0.8018980026245117,-0.22739261388778687
1782987897058528500,4.234528564453125,1.063552737236023,0.8402360677719116,-0.2088514268398285
1782987897068603400,4.244603271484375,1.0387804508209229,0.983592689037323,-0.18869414925575256
1782987897078677500,4.254677490234375,1.0058175325393677,1.3259263038635254,-0.17963753640651703
1782987897088752400,4.26475244140625,0.9650522470474243,1.694228172302246,-0.18867763876914978
1782987897098826500,4.274826416015625,0.9467898607254028,1.8817567825317383,-0.21653243899345398
1782987897108901400,4.2849013671875,0.9462639093399048,1.832762598991394,-0.27431806921958923
1782987897118971400,4.294971435546875,0.9470306634902954,1.4564517736434937,-0.37587106227874756
1782987897129045200,4.305045166015625,0.9350189566612244,0.7994753122329712,-0.5278468728065491
1782987897139120400,4.315120361328125,0.9282130002975464,0.1479921042919159,-0.7057036757469177
1782987897149194200,4.3251943359375,0.9328351616859436,-0.14614678919315338,-0.836678683757782
1782987897159269400,4.335269287109375,0.9333416819572449,-0.013882754370570183,-0.9048449993133545
1782987897169343200,4.34534326171875,0.9378477334976196,0.3590964078903198,-0.9211441874504089
1782987897179418400,4.35541845703125,0.9504532217979431,0.7937051653862,-0.891473114490509
1782987897189492200,4.3654921875,0.9712437391281128,1.0985238552093506,-0.827155590057373
1782987897199567400,4.3755673828125,1.0165231227874756,1.1821410655975342,-0.7331902384757996
1782987897209641200,4.38564111328125,1.0846803188323975,1.1555041074752808,-0.6224455237388611
1782987897219716400,4.39571630859375,1.1497524976730347,1.054752230644226,-0.5156005620956421
1782987897229790200,4.405790283203125,1.1883130073547363,0.9020292162895203,-0.42999130487442017
1782987897239865300,4.415865234375,1.2131211757659912,0.6963450312614441,-0.3728683590888977
1782987897249939200,4.425939208984375,1.2370449304580688,0.4925757646560669,-0.32409101724624634
1782987897260013300,4.436013427734375,1.2625540494918823,0.3648422956466675,-0.2862009108066559
1782987897270088200,4.446088134765625,1.2909120321273804,0.3549557030200958,-0.2515571117401123
1782987897280162300,4.456162353515625,1.3096266984939575,0.4491162896156311,-0.21676291525363922
1782987897290237200,4.4662373046875,1.3407831192016602,0.6084913611412048,-0.16223807632923126
1782987897300311300,4.476311279296875,1.3747949600219727,0.7735474109649658,-0.11121271550655365
1782987897310386200,4.48638623046875,1.4096707105636597,0.8736283779144287,-0.04232398048043251
1782987897320460300,4.496460205078125,1.4308042526245117,0.9121549725532532,0.028761116787791252
1782987897330535200,4.50653515625,1.447287917137146,0.8895620703697205,0.10403991490602493
1782987897340609300,4.516609375,1.4657849073410034,0.830863893032074,0.19012126326560974
1782987897350683100,4.52668310546875,1.4782171249389648,0.7370784878730774,0.2642512619495392
1782987897360758300,4.53675830078125,1.4814214706420898,0.6283330917358398,0.31147417426109314
1782987897370832100,4.54683203125,1.48664128780365,0.5328232645988464,0.32938438653945923
1782987897380907300,4.5569072265625,1.4908214807510376,0.4673137366771698,0.3213331401348114
1782987897390981000,4.566981201171875,1.4830896854400635,0.4059428572654724,0.28554973006248474
1782987897401056300,4.57705615234375,1.4606828689575195,0.3413417637348175,0.21488435566425323
1782987897411130000,4.587130126953125,1.4292008876800537,0.27769261598587036,0.1289421021938324
1782987897421205200,4.597205322265625,1.3905307054519653,0.22035370767116547,0.0328613705933094
1782987897431279000,4.607279052734375,1.3454214334487915,0.17462803423404694,-0.05394163355231285
1782987897441353200,4.617353271484375,1.2825261354446411,0.15996520221233368,-0.12415400892496109
1782987897451428000,4.627427978515625,1.2032051086425781,0.19019953906536102,-0.18227270245552063
1782987897461502200,4.637502197265625,1.1185702085494995,0.24838189780712128,-0.21718567609786987
1782987897471577000,4.6475771484375,1.0407840013504028,0.3029404580593109,-0.22916723787784576
1782987897481651200,4.657651123046875,0.9850952625274658,0.3431645631790161,-0.21482399106025696
1782987897491726000,4.66772607421875,0.9454509615898132,0.3728734254837036,-0.17215131223201752
1782987897501800200,4.67780029296875,0.9115508198738098,0.36998629570007324,-0.10729269683361053
1782987897511874300,4.687874267578125,0.8748857378959656,0.3501972556114197,-0.04104018956422806
1782987897521949200,4.69794921875,0.842790961265564,0.3553784191608429,0.03711852431297302
1782987897532023300,4.708023193359375,0.8138731718063354,0.39144593477249146,0.11165124922990799
1782987897542098200,4.71809814453125,0.7855339646339417,0.4307155907154083,0.1728094071149826
1782987897552172300,4.72817236328125,0.758178174495697,0.45703986287117004,0.219390407204628
1782987897562247200,4.7382470703125,0.7375636696815491,0.43894845247268677,0.249425008893013
1782987897572321300,4.7483212890625,0.7121224999427795,0.3604661822319031,0.26371654868125916
1782987897582396200,4.758396240234375,0.6890366077423096,0.2722918391227722,0.26956939697265625
1782987897592470300,4.76847021484375,0.6709681153297424,0.23773227632045746,0.27790454030036926
1782987897602544400,4.77854443359375,0.6329395174980164,0.30670255422592163,0.29424941539764404
1782987897612619300,4.788619384765625,0.577294647693634,0.45058223605155945,0.308372437953949
1782987897622693400,4.798693359375,0.5078591108322144,0.5124256014823914,0.3003201186656952
1782987897632768500,4.8087685546875,0.4267139136791229,0.3804927170276642,0.2436617910861969
1782987897642842400,4.81884228515625,0.32995596528053284,0.1365615576505661,0.14325875043869019
1782987897652917500,4.82891748046875,0.20706254243850708,-0.07527320832014084,0.012454734183847904
1782987897662991400,4.838991455078125,0.0543944425880909,-0.18848179280757904,-0.15315313637256622
1782987897673066500,4.84906640625,-0.09771795570850372,-0.19573649764060974,-0.34322741627693176
1782987897683140400,4.859140380859375,-0.22380691766738892,-0.06308524310588837,-0.5123583674430847
1782987897693214200,4.869214111328125,-0.29582682251930237,0.19118016958236694,-0.6377792358398438
1782987897703289300,4.879289306640625,-0.3043433427810669,0.4821819067001343,-0.6800063252449036
1782987897713363200,4.88936328125,-0.25196099281311035,0.8045119643211365,-0.6511759757995605
1782987897723438300,4.899438232421875,-0.15410207211971283,1.023244857788086,-0.5548235774040222
1782987897733512200,4.90951220703125,-0.04523887112736702,1.0432918071746826,-0.4322991371154785
1782987897743587300,4.91958740234375,0.05349808931350708,0.9209114909172058,-0.30539047718048096
1782987897753661200,4.9296611328125,0.15502126514911652,0.7188119292259216,-0.18438149988651276
1782987897763735300,4.9397353515625,0.26904475688934326,0.5314151048660278,-0.06061747297644615
1782987897773810400,4.949810546875,0.3900802731513977,0.41265779733657837,0.053691230714321136
1782987897783884300,4.95988427734375,0.5067552328109741,0.3823055028915405,0.1588195264339447
1782987897793959400,4.96995947265625,0.6056450605392456,0.4410634934902191,0.2515687048435211
1782987897804033300,4.980033203125,0.6771453619003296,0.5321446657180786,0.3208068907260895
1782987897814108400,4.9901083984375,0.7301536202430725,0.6024900674819946,0.3646790683269501
1782987897824182300,5.000182373046875,0.7524136900901794,0.6656532883644104,0.3863268494606018
1782987897834257400,5.01025732421875,0.7376880049705505,0.7364752888679504,0.3734254240989685
1782987897844331300,5.020331298828125,0.6936478018760681,0.7830837965011597,0.34175512194633484
1782987897854405000,5.030405029296875,0.6324736475944519,0.8178028464317322,0.2979225218296051
1782987897864480300,5.040480224609375,0.575842559337616,0.8426067233085632,0.2508727014064789
1782987897874554000,5.05055419921875,0.5369330048561096,0.8261375427246094,0.1955127716064453
1782987897884629200,5.060629150390625,0.523084282875061,0.7315559387207031,0.13462784886360168
1782987897894703400,5.070703369140625,0.5384455919265747,0.6167320609092712,0.07769089192152023
1782987897904778200,5.0807783203125,0.5794180631637573,0.5162267088890076,0.026479365304112434
1782987897914852400,5.090852294921875,0.6401334404945374,0.4334036409854889,-0.018766935914754868
1782987897924927200,5.10092724609375,0.7092427611351013,0.3814810812473297,-0.0478566437959671
1782987897935001300,5.11100146484375,0.7866582870483398,0.34201428294181824,-0.055561333894729614
1782987897945075200,5.1210751953125,0.8495520353317261,0.309827595949173,-0.05241241306066513
1782987897955150300,5.131150390625,0.894742488861084,0.2594011723995209,-0.04515222832560539
1782987897965224200,5.14122412109375,0.9132802486419678,0.1845754235982895,-0.04410480707883835
1782987897975299300,5.15129931640625,0.9201732873916626,0.12272845208644867,-0.05868300423026085
1782987897985373200,5.161373291015625,0.9073581695556641,0.07939057052135468,-0.09002947807312012
1782987897995448300,5.1714482421875,0.884685754776001,0.05859042704105377,-0.14053195714950562
1782987898005522200,5.181522216796875,0.8510169982910156,0.05154476687312126,-0.192301943898201
1782987898015597300,5.191597412109375,0.8190305829048157,0.0867050439119339,-0.2215452492237091
1782987898025671200,5.201671142578125,0.7826493978500366,0.15383747220039368,-0.23016244173049927
1782987898035745300,5.211745361328125,0.742875874042511,0.23557128012180328,-0.23021267354488373
1782987898045820200,5.221820068359375,0.7221154570579529,0.32180947065353394,-0.2226407676935196
1782987898055894300,5.231894287109375,0.7174772620201111,0.3934212625026703,-0.19506412744522095
1782987898065969200,5.24196923828125,0.7228671908378601,0.44728848338127136,-0.15018028020858765
1782987898076043300,5.252043212890625,0.7274481058120728,0.48223820328712463,-0.09516683220863342
1782987898086118100,5.2621181640625,0.7202857732772827,0.482205867767334,-0.04973381385207176
1782987898096192300,5.272192138671875,0.7118425369262695,0.4700709283351898,-0.012423192150890827
1782987898106266400,5.282266357421875,0.7087569832801819,0.46891510486602783,-0.0025521861389279366
1782987898116341000,5.292341064453125,0.710453450679779,0.4947485029697418,-0.02491511031985283
1782987898126415000,5.3024150390625,0.7085551023483276,0.541462779045105,-0.06307660788297653
1782987898136490000,5.312489990234375,0.7040621638298035,0.6104978322982788,-0.10140911489725113
1782987898146564000,5.322564208984375,0.694011926651001,0.7054213881492615,-0.12636959552764893
1782987898156639000,5.332638916015625,0.6903641819953918,0.8298730254173279,-0.12335652858018875
1782987898166713000,5.342713134765625,0.6901189088821411,0.9621383547782898,-0.09470570832490921
1782987898176788000,5.3527880859375,0.7045745849609375,1.0635403394699097,-0.04752498120069504
1782987898186862000,5.362862060546875,0.7301267981529236,1.0937674045562744,0.0017871755408123136
1782987898196936000,5.37293603515625,0.7659242153167725,1.0406886339187622,0.04335044324398041
1782987898207011000,5.383010986328125,0.8039728403091431,0.9413887858390808,0.06559503078460693
1782987898217085000,5.3930849609375,0.8449312448501587,0.8629546761512756,0.06910590082406998
1782987898227160000,5.40316015625,0.8849636316299438,0.8359965682029724,0.050871506333351135
1782987898237234000,5.41323388671875,0.9075055718421936,0.9144644737243652,0.01707259751856327
1782987898247309000,5.42330908203125,0.9167512655258179,1.0862077474594116,-0.02517792023718357
1782987898257383000,5.4333828125,0.9140881299972534,1.1799898147583008,-0.06815443187952042
1782987898267458000,5.4434580078125,0.9029521346092224,1.1477247476577759,-0.1467893123626709
1782987898277532000,5.453531982421875,0.8851129412651062,1.0004796981811523,-0.26309630274772644
1782987898287606000,5.46360595703125,0.8478590250015259,0.7236068844795227,-0.40959545969963074
1782987898297681000,5.473680908203125,0.8099046349525452,0.41458648443222046,-0.5513818264007568
1782987898307755000,5.483755126953125,0.79146409034729,0.2182915210723877,-0.6522663235664368
1782987898317830000,5.493829833984375,0.7703019380569458,0.2199038416147232,-0.6805687546730042
1782987898327904000,5.503904052734375,0.7783209681510925,0.4096551239490509,-0.6108280420303345
1782987898337979000,5.513978759765625,0.8210421800613403,0.8279129266738892,-0.42896661162376404
1782987898348053000,5.524052978515625,0.8761802315711975,1.3494794368743896,-0.1724996417760849
1782987898358127900,5.5341279296875,0.9156186580657959,1.7237908840179443,0.08038371801376343
1782987898368202000,5.544201904296875,0.9394059777259827,1.7580690383911133,0.27033528685569763
1782987898378275800,5.55427587890625,0.9693736433982849,1.4935498237609863,0.38909682631492615
1782987898388351000,5.56435107421875,1.0158047676086426,1.1099097728729248,0.4365791082382202
1782987898398424800,5.5744248046875,1.0561137199401855,0.6797827482223511,0.40912485122680664
1782987898408500000,5.5845,1.0747987031936646,0.30331215262413025,0.31282496452331543
1782987898418573800,5.59457373046875,1.0753623247146606,0.10315912216901779,0.1556788682937622
1782987898428649000,5.60464892578125,1.067301630973816,0.08105728030204773,-0.018384799361228943
1782987898438722800,5.614722900390625,1.051812767982483,0.15103976428508759,-0.19581753015518188
1782987898448798000,5.6247978515625,1.0412507057189941,0.22712121903896332,-0.34115156531333923
1782987898458871800,5.634871826171875,1.03396737575531,0.30018046498298645,-0.4384452998638153
1782987898468946000,5.64494580078125,1.0150922536849976,0.37776100635528564,-0.4788888692855835
1782987898479020800,5.655020751953125,0.9867684841156006,0.45575442910194397,-0.4561508297920227
1782987898489095000,5.665094970703125,0.9425565004348755,0.544248640537262,-0.38610729575157166
1782987898499169800,5.675169677734375,0.9030597805976868,0.647229015827179,-0.2741399109363556
1782987898509244000,5.685243896484375,0.8764644265174866,0.7288133502006531,-0.14769329130649567
1782987898519318800,5.69531884765625,0.8621740937232971,0.7439572215080261,-0.04151049628853798
1782987898529393000,5.705392822265625,0.8667083382606506,0.6572608947753906,0.03333897516131401
1782987898539467800,5.7154677734375,0.8846495151519775,0.5346618890762329,0.08062327653169632
1782987898549542000,5.7255419921875,0.9034881591796875,0.4289568066596985,0.09885847568511963
1782987898559615700,5.73561572265625,0.9119542837142944,0.3522070050239563,0.09145521372556686
1782987898569691000,5.74569091796875,0.9009785652160645,0.2969368100166321,0.05922349914908409
1782987898579764700,5.7557646484375,0.8908975124359131,0.2660304307937622,0.022373462095856667
1782987898589840000,5.76583984375,0.8776053786277771,0.2697815001010895,-0.00889444537460804
1782987898599913700,5.775913818359375,0.8581314086914062,0.28655609488487244,-0.02925010398030281
1782987898609988900,5.78598876953125,0.8241859674453735,0.2746245861053467,-0.04773031175136566
1782987898620062700,5.796062744140625,0.777024507522583,0.23798394203186035,-0.061899781227111816
1782987898630137000,5.80613720703125,0.7159613966941833,0.22911907732486725,-0.07257506251335144
1782987898640211700,5.816211669921875,0.6324882507324219,0.23550637066364288,-0.08611337840557098
1782987898650286000,5.8262861328125,0.5421719551086426,0.23654501140117645,-0.10995612293481827
1782987898660360700,5.836360595703125,0.4498347043991089,0.23556062579154968,-0.15042436122894287
1782987898670435000,5.84643505859375,0.3795703947544098,0.24654589593410492,-0.1918911188840866
1782987898680509700,5.856509765625,0.3476467728614807,0.28221678733825684,-0.21777690947055817
1782987898690584000,5.866583984375,0.3525507152080536,0.3199963867664337,-0.21870343387126923
1782987898700658700,5.87665869140625,0.36939749121665955,0.39598822593688965,-0.19285106658935547
1782987898710733000,5.886733154296875,0.38983139395713806,0.45672693848609924,-0.14847055077552795
1782987898720807000,5.896806884765625,0.41076499223709106,0.4610655605792999,-0.08455226570367813
1782987898730882000,5.906882080078125,0.4292324185371399,0.4540438652038574,-0.01336543820798397
1782987898740956000,5.916955810546875,0.4330407977104187,0.41202259063720703,0.07238466292619705
1782987898751031000,5.927031005859375,0.42869478464126587,0.3392075002193451,0.1666073054075241
1782987898761105000,5.93710498046875,0.41733720898628235,0.21817022562026978,0.2399032711982727
1782987898771180000,5.947179931640625,0.40089887380599976,0.06978608667850494,0.28941142559051514
1782987898781254000,5.95725390625,0.39160123467445374,-0.05089825019240379,0.30831480026245117
1782987898791329000,5.9673291015625,0.39314186573028564,-0.1503414809703827,0.3050375282764435
1782987898801403000,5.97740283203125,0.400005966424942,-0.19085535407066345,0.2807197868824005
1782987898811477000,5.98747705078125,0.4156872034072876,-0.1615603119134903,0.2381766140460968
1782987898821551900,5.9975517578125,0.43518173694610596,-0.013807129114866257,0.1993783712387085
1782987898831626000,6.0076259765625,0.43774235248565674,0.18158979713916779,0.1641215831041336
1782987898841700900,6.017700927734375,0.41411569714546204,0.21432548761367798,0.08570146560668945
1782987898851775000,6.02777490234375,0.3881267011165619,0.07170335203409195,-0.04075554013252258
1782987898861849900,6.037849853515625,0.3676125407218933,-0.1019258052110672,-0.18284356594085693
1782987898871924000,6.047924072265625,0.336921751499176,-0.18666385114192963,-0.31764131784439087
1782987898881999000,6.0579990234375,0.28308728337287903,-0.14215584099292755,-0.41999921202659607
1782987898892073000,6.068072998046875,0.2248559147119522,0.020974494516849518,-0.46934038400650024
1782987898902146800,6.078146728515625,0.18611864745616913,0.21163319051265717,-0.4573933482170105
1782987898912222000,6.088221923828125,0.16711539030075073,0.3443906903266907,-0.40449073910713196
1782987898922295800,6.0982958984375,0.17175427079200745,0.38432416319847107,-0.3168478310108185
1782987898932371000,6.108370849609375,0.19700396060943604,0.38560834527015686,-0.21219570934772491
1782987898942444800,6.11844482421875,0.24250555038452148,0.34606900811195374,-0.09232737123966217
1782987898952520000,6.12852001953125,0.2855326533317566,0.2723521888256073,0.013705854304134846
1782987898962593800,6.13859375,0.329416424036026,0.18939173221588135,0.09970761835575104
1782987898972669000,6.1486689453125,0.37411198019981384,0.11543016135692596,0.1702725887298584
1782987898982742800,6.15874267578125,0.4031866788864136,0.05462023243308067,0.22153432667255402
1782987898992817000,6.16881689453125,0.4058394730091095,-0.000818524626083672,0.2471829652786255
1782987899002892000,6.17889208984375,0.3747292160987854,-0.028321675956249237,0.24939650297164917
1782987899012966000,6.1889658203125,0.3091214597225189,-0.02364702895283699,0.2215920388698578
1782987899023041000,6.199041015625,0.21562451124191284,-0.001818906283006072,0.1672988086938858
1782987899033115000,6.209114990234375,0.10859818756580353,0.046752091497182846,0.0902482271194458
1782987899043190000,6.21918994140625,0.007402971386909485,0.13767948746681213,0.00561830447986722
1782987899053264000,6.229263916015625,-0.06707898527383804,0.23882953822612762,-0.06417755782604218
1782987899063339000,6.239339111328125,-0.10874941200017929,0.37660568952560425,-0.09819502383470535
1782987899073412900,6.249412841796875,-0.12495341897010803,0.46932125091552734,-0.09235577285289764
1782987899083486700,6.25948681640625,-0.12546037137508392,0.4902295470237732,-0.07757425308227539
1782987899093561900,6.269561767578125,-0.1017632931470871,0.44649752974510193,-0.058396294713020325
1782987899103635700,6.2796357421875,-0.0488552488386631,0.34739306569099426,-0.04975138232111931
1782987899113714400,6.28971435546875,0.01316364947706461,0.23784714937210083,-0.052138108760118484
1782987899123788300,6.299788330078125,0.07289179414510727,0.15587686002254486,-0.06473049521446228
1782987899133863400,6.309863525390625,0.13151995837688446,0.09951610863208771,-0.09764610230922699
1782987899143937300,6.319937255859375,0.17925605177879333,0.08056677132844925,-0.168904110789299
1782987899154012400,6.330012451171875,0.2350090593099594,0.09354887902736664,-0.2604316473007202
1782987899164086300,6.340086181640625,0.28812241554260254,0.10810620337724686,-0.3621060252189636
1782987899174160400,6.350160400390625,0.3337271809577942,0.1471303105354309,-0.4325048327445984
1782987899184235300,6.3602353515625,0.3701028525829315,0.2476382702589035,-0.4576070308685303
1782987899194309400,6.370309326171875,0.3972809612751007,0.33495718240737915,-0.43325507640838623
1782987899204384300,6.38038427734375,0.42261821031570435,0.3500024974346161,-0.37515854835510254
1782987899214458400,6.390458251953125,0.43748289346694946,0.31733667850494385,-0.2958839535713196
1782987899224533200,6.400533203125,0.4498516917228699,0.2744203805923462,-0.2135123908519745
1782987899234607400,6.410607421875,0.45029351115226746,0.22818391025066376,-0.1406773328781128
1782987899244682200,6.42068212890625,0.43798545002937317,0.17916233837604523,-0.10291355848312378
1782987899254756400,6.43075634765625,0.42949771881103516,0.1438980996608734,-0.10133057832717896
1782987899264830500,6.44083056640625,0.42924848198890686,0.15642665326595306,-0.1326719969511032
1782987899274905300,6.4509052734375,0.43954771757125854,0.20596279203891754,-0.1868918240070343
1782987899284979500,6.4609794921875,0.4571238160133362,0.24766159057617188,-0.2501690983772278
1782987899295054300,6.471054443359375,0.469987154006958,0.25413599610328674,-0.3252028524875641
1782987899305128400,6.48112841796875,0.49005627632141113,0.241138756275177,-0.3880622088909149
1782987899315203300,6.491203369140625,0.5158817172050476,0.21234598755836487,-0.4337995946407318
1782987899325277400,6.50127734375,0.5402770042419434,0.19837500154972076,-0.4374646842479706
1782987899335352300,6.511352294921875,0.5514127016067505,0.23690082132816315,-0.3920324742794037
1782987899345426400,6.521426513671875,0.5410292744636536,0.32347822189331055,-0.3183528780937195
1782987899355500500,6.53150048828125,0.5223652720451355,0.4121457636356354,-0.22577817738056183
1782987899365575400,6.541575439453125,0.49760621786117554,0.48455652594566345,-0.1295681893825531
1782987899375649500,6.5516494140625,0.4877099096775055,0.5597476959228516,-0.011622905731201172
1782987899385724400,6.561724365234375,0.47980797290802,0.6898237466812134,0.11880572885274887
1782987899395798500,6.571798583984375,0.4702988862991333,0.8092843890190125,0.2204902619123459
1782987899405873400,6.581873291015625,0.46517887711524963,0.8393402695655823,0.27994558215141296
1782987899415947500,6.591947509765625,0.4843091368675232,0.7829750180244446,0.2929806709289551
1782987899426022400,6.6020224609375,0.5139049291610718,0.6972166895866394,0.273548424243927
1782987899436096500,6.612096435546875,0.5474234819412231,0.6455529928207397,0.22021782398223877
1782987899446170400,6.62217041015625,0.5729892253875732,0.6729951500892639,0.14386722445487976
1782987899456245500,6.63224560546875,0.5764132738113403,0.846563458442688,0.05538636073470116
1782987899466319400,6.6423193359375,0.5801244974136353,0.9885441660881042,-0.02394280955195427
1782987899476394500,6.65239453125,0.6085007190704346,0.9561098217964172,-0.09833794832229614
1782987899486468400,6.66246826171875,0.6368729472160339,0.7794228792190552,-0.18136410415172577
1782987899496543500,6.67254345703125,0.6600301861763,0.4831453859806061,-0.28369393944740295
1782987899506617300,6.682617431640625,0.6678544878959656,0.25395119190216064,-0.3725856840610504
1782987899516692500,6.6926923828125,0.6609672904014587,0.13354727625846863,-0.43167349696159363
1782987899526766300,6.702766357421875,0.6446418762207031,0.13315147161483765,-0.45052289962768555
1782987899536840400,6.71284033203125,0.6304091215133667,0.27475759387016296,-0.4068755507469177
1782987899546915300,6.722915283203125,0.620720386505127,0.5262212753295898,-0.28346356749534607
1782987899556989400,6.732989501953125,0.6195118427276611,0.7794820666313171,-0.09444760531187057
1782987899567064300,6.743064208984375,0.6230165958404541,0.8931297063827515,0.10363134741783142
1782987899577138400,6.753138427734375,0.6244283318519592,0.8423360586166382,0.27653732895851135
1782987899587213600,6.763213623046875,0.6273992657661438,0.6723272204399109,0.40381935238838196
1782987899597287400,6.773287353515625,0.6231626868247986,0.4785260558128357,0.46545901894569397
1782987899607362600,6.783362548828125,0.6042117476463318,0.35322338342666626,0.45713117718696594
1782987899617436400,6.7934365234375,0.5776099562644958,0.2923733592033386,0.40327033400535583
1782987899627510300,6.80351025390625,0.5707221627235413,0.25266140699386597,0.3251241147518158
1782987899637585400,6.81358544921875,0.580597460269928,0.261552631855011,0.226220965385437
1782987899647659300,6.8236591796875,0.5912700891494751,0.29292163252830505,0.13391920924186707
1782987899657734400,6.833734375,0.588796854019165,0.3317398726940155,0.041663315147161484
1782987899667808300,6.843808349609375,0.563916802406311,0.3967408239841461,-0.04140767827630043
1782987899677883400,6.85388330078125,0.5272578597068787,0.4733738303184509,-0.10586097836494446
1782987899687957200,6.863957275390625,0.4844641387462616,0.5219506025314331,-0.1505107283592224
1782987899698032400,6.874032470703125,0.4432200491428375,0.49199211597442627,-0.17128737270832062
1782987899708106500,6.8841064453125,0.4241354763507843,0.40497228503227234,-0.16024024784564972
1782987899718180400,6.894180419921875,0.4272220730781555,0.30483341217041016,-0.12691238522529602
1782987899728255500,6.90425537109375,0.44732263684272766,0.1814364492893219,-0.09458345174789429
1782987899738329300,6.914329345703125,0.47679823637008667,0.039713140577077866,-0.08077868819236755
1782987899748404500,6.924404541015625,0.5099684596061707,-0.04989296570420265,-0.07916384190320969
1782987899758478300,6.934478271484375,0.5326287746429443,-0.07166297733783722,-0.08631575852632523
1782987899768553500,6.944553466796875,0.5442893505096436,-0.04735986515879631,-0.10463722795248032
1782987899778627300,6.95462744140625,0.5455764532089233,-0.02046753279864788,-0.11231858283281326
1782987899788702500,6.964702392578125,0.5436837673187256,0.05006185919046402,-0.09303890913724899
1782987899798776300,6.9747763671875,0.519431471824646,0.15680880844593048,-0.045271653681993484
1782987899808850200,6.98485009765625,0.47725149989128113,0.22447334229946136,0.012595107778906822
1782987899818925300,6.99492529296875,0.4309591054916382,0.2427612692117691,0.057976704090833664
1782987899828999200,7.004999267578125,0.38839009404182434,0.22614464163780212,0.08076565712690353
1782987899839074300,7.01507421875,0.360321968793869,0.183995321393013,0.07880663126707077
1782987899849148400,7.0251484375,0.35083234310150146,0.13397614657878876,0.051360517740249634
1782987899859223300,7.035223388671875,0.3450125455856323,0.09619760513305664,0.01667577400803566
1782987899869297400,7.04529736328125,0.3342045545578003,0.08426788449287415,-0.01801806129515171
1782987899879372300,7.055372314453125,0.30457210540771484,0.08662691712379456,-0.05093606561422348
1782987899889446400,7.0654462890625,0.2662278115749359,0.0939938947558403,-0.07943475246429443
1782987899899521300,7.075521240234375,0.22955100238323212,0.0735301598906517,-0.10725732892751694
1782987899909595400,7.085595458984375,0.2005549520254135,0.012361180037260056,-0.14768779277801514
1782987899919669500,7.09566943359375,0.1787700355052948,-0.09273407608270645,-0.19696186482906342
1782987899929744400,7.105744384765625,0.17058098316192627,-0.1856335997581482,-0.23398815095424652
1782987899939818500,7.115818603515625,0.16754470765590668,-0.2407892644405365,-0.2544116973876953
1782987899949893400,7.125893310546875,0.16277416050434113,-0.27035656571388245,-0.26532503962516785
1782987899959967500,7.135967529296875,0.15259289741516113,-0.3297293484210968,-0.26908302307128906
1782987899970042400,7.14604248046875,0.13175703585147858,-0.39342933893203735,-0.2793797254562378
1782987899980116500,7.156116455078125,0.10255920886993408,-0.42839449644088745,-0.2873303294181824
1782987899990191400,7.16619140625,0.07101169228553772,-0.4461292624473572,-0.2861999273300171
1782987900000265500,7.176265380859375,0.0471404492855072,-0.4325319528579712,-0.25367072224617004
1782987900010339600,7.186339599609375,0.028918277472257614,-0.3579893112182617,-0.19145385921001434
1782987900020414500,7.19641455078125,0.017264552414417267,-0.1810600906610489,-0.10395755618810654
1782987900030488600,7.206488525390625,0.0034695803187787533,-0.051231853663921356,-0.01748175546526909
1782987900040563500,7.2165634765625,-0.011039321310818195,-0.1325022131204605,0.03605124354362488
1782987900050637600,7.226637451171875,-0.021726325154304504,-0.3390044569969177,0.05057834833860397
1782987900060712400,7.23671240234375,-0.0351334773004055,-0.571357011795044,0.020397808402776718
1782987900070786600,7.24678662109375,-0.05648447945713997,-0.6760175824165344,-0.045387037098407745
1782987900080861400,7.256861328125,-0.09015002846717834,-0.5848378539085388,-0.13958090543746948
1782987900090935600,7.266935546875,-0.12050476670265198,-0.407270610332489,-0.23076210916042328
1782987900101009400,7.277009521484375,-0.14211073517799377,-0.24673444032669067,-0.29614725708961487
1782987900111084500,7.28708447265625,-0.16999498009681702,-0.08661758899688721,-0.32122647762298584
1782987900121158400,7.297158447265625,-0.18645544350147247,0.05940859019756317,-0.2991802990436554
1782987900131233300,7.3072333984375,-0.18249863386154175,0.17445839941501617,-0.22148755192756653
1782987900141307400,7.317307373046875,-0.16432201862335205,0.2612755596637726,-0.08953458070755005
1782987900151382300,7.32738232421875,-0.1296362727880478,0.29689738154411316,0.06869973242282867
1782987900161456400,7.337456298828125,-0.09773267060518265,0.2626861333847046,0.22145280241966248
1782987900171531300,7.34753125,-0.07977251708507538,0.15508335828781128,0.3359812796115875
1782987900181605400,7.35760546875,-0.07112842798233032,-0.005896738730370998,0.39735355973243713
1782987900191679200,7.36767919921875,-0.058308202773332596,-0.20099791884422302,0.41616013646125793
1782987900201754400,7.37775439453125,-0.042164649814367294,-0.3581334948539734,0.4087589681148529
1782987900211828200,7.387828125,-0.022249996662139893,-0.40309399366378784,0.40107905864715576
1782987900221903400,7.3979033203125,-0.03302647918462753,-0.3474602997303009,0.38705751299858093
1782987900231977200,7.407977294921875,-0.06847145408391953,-0.21972346305847168,0.3602585196495056
1782987900242052400,7.41805224609375,-0.11789146810770035,-0.05891193449497223,0.3313446044921875
1782987900252126200,7.428126220703125,-0.1703190952539444,0.09820356220006943,0.29541781544685364
1782987900262201300,7.438201416015625,-0.22078199684619904,0.2107604742050171,0.2664484977722168
1782987900272275200,7.448275146484375,-0.2682417333126068,0.2702171206474304,0.2512938976287842
1782987900282349300,7.458349365234375,-0.3090874254703522,0.26895344257354736,0.24013498425483704
1782987900292424200,7.468424072265625,-0.34027448296546936,0.19733311235904694,0.22269390523433685
1782987900302498300,7.478498291015625,-0.3627190589904785,0.07175999879837036,0.19458957016468048
1782987900312573400,7.488573486328125,-0.3674803674221039,-0.04362207278609276,0.1504698544740677
1782987900322647300,7.498647216796875,-0.35177889466285706,-0.09788823872804642,0.08892394602298737
1782987900332722400,7.508722412109375,-0.32509946823120117,-0.09890417754650116,0.029766244813799858
1782987900342796300,7.51879638671875,-0.2826785147190094,-0.05998580902814865,-0.028362039476633072
1782987900352871400,7.528871337890625,-0.22769732773303986,0.024234788492321968,-0.058870285749435425
1782987900362945300,7.5389453125,-0.15808522701263428,0.14847657084465027,-0.057117924094200134
1782987900373019100,7.54901904296875,-0.09188846498727798,0.25679871439933777,-0.031016577035188675
1782987900383094300,7.55909423828125,-0.042259663343429565,0.3158620595932007,0.014065946452319622
1782987900393168100,7.569168212890625,-0.00013962271623313427,0.33556875586509705,0.06500633805990219
1782987900403243300,7.5792431640625,0.02845340594649315,0.31432390213012695,0.12322969734668732
1782987900413317000,7.589317138671875,0.04520174860954285,0.25129473209381104,0.17069648206233978
1782987900423392300,7.599392333984375,0.055777959525585175,0.19309720396995544,0.21795587241649628
1782987900433466400,7.60946630859375,0.06789357960224152,0.16955238580703735,0.26397407054901123
1782987900443541200,7.619541259765625,0.08915359526872635,0.21600298583507538,0.32077983021736145
1782987900453615400,7.629615478515625,0.1151292622089386,0.3221963346004486,0.39253106713294983
1782987900463690200,7.639690185546875,0.12732814252376556,0.3204040229320526,0.43805965781211853
1782987900473764400,7.649764404296875,0.1228894516825676,0.21927574276924133,0.4130791425704956
1782987900483838200,7.659838134765625,0.10803434252738953,0.14498713612556458,0.3313155770301819
1782987900493913300,7.669913330078125,0.08996114134788513,0.15091902017593384,0.24095745384693146
1782987900503987200,7.6799873046875,0.06028261035680771,0.23095525801181793,0.1573840081691742
1782987900514062300,7.690062255859375,-0.012834147550165653,0.3838364779949188,0.09300950914621353
1782987900524136200,7.70013623046875,-0.10051393508911133,0.5732772350311279,0.07216202467679977
1782987900534211300,7.71021142578125,-0.14756156504154205,0.6517762541770935,0.07513780146837234
1782987900544285200,7.72028515625,-0.11895095556974411,0.546455979347229,0.04997439309954643
1782987900554360300,7.7303603515625,-0.011573986150324345,0.27954337000846863,0.0003328579186927527
1782987900564434200,7.74043408203125,0.12703874707221985,0.005908125080168247,-0.05642096698284149
1782987900574508500,7.750508544921875,0.2366400510072708,-0.11985963582992554,-0.10603092610836029
1782987900584583200,7.760583251953125,0.27320897579193115,-0.06711839139461517,-0.1622166931629181
1782987900594657500,7.770657470703125,0.25154948234558105,0.14984427392482758,-0.2208307385444641
1782987900604732200,7.780732177734375,0.2327294647693634,0.2572844624519348,-0.2862515449523926
1782987900614806500,7.790806640625,0.23378022015094757,0.13559362292289734,-0.3998378813266754
1782987900624881200,7.800881103515625,0.26573869585990906,-0.10288979113101959,-0.5380998849868774
1782987900634955500,7.81095556640625,0.30212515592575073,-0.2981449067592621,-0.660471498966217
1782987900645030100,7.821030029296875,0.3308097720146179,-0.2788260877132416,-0.7186916470527649
1782987900655104500,7.8311044921875,0.34335753321647644,-0.08776289969682693,-0.6977594494819641
1782987900665178400,7.841178466796875,0.3412492871284485,0.1445358544588089,-0.6128266453742981
1782987900675253500,7.85125341796875,0.3236056864261627,0.3002512454986572,-0.49383217096328735
1782987900685327400,7.861327392578125,0.31019800901412964,0.32638058066368103,-0.3678356111049652
1782987900695402500,7.871402587890625,0.3082130551338196,0.33316564559936523,-0.24038046598434448
1782987900705476400,7.881476318359375,0.3074313998222351,0.4657295346260071,-0.10125774890184402
1782987900715551500,7.891551513671875,0.3032834231853485,0.663554847240448,0.043881867080926895
1782987900725625300,7.901625244140625,0.29353785514831543,0.8293667435646057,0.17947112023830414
1782987900735700500,7.911700439453125,0.2825389504432678,0.8905009627342224,0.28557679057121277
1782987900745774300,7.9217744140625,0.2830026149749756,0.8415898680686951,0.36018073558807373
1782987900755849500,7.931849365234375,0.300290048122406,0.6848241686820984,0.38462430238723755
1782987900765923300,7.94192333984375,0.3316058814525604,0.4889638423919678,0.34641939401626587
1782987900775997400,7.95199755859375,0.37911394238471985,0.29394155740737915,0.27484187483787537
1782987900786072300,7.962072265625,0.4380717873573303,0.11402108520269394,0.15753495693206787
1782987900796146400,7.972146484375,0.4895714819431305,-0.059565261006355286,0.014535177499055862
1782987900806221300,7.98222119140625,0.5359331369400024,-0.23030424118041992,-0.14243046939373016
1782987900816295400,7.99229541015625,0.5757297277450562,-0.36457404494285583,-0.29219865798950195
1782987900826370300,8.002370361328126,0.6085648536682129,-0.4146912693977356,-0.3911641240119934
1782987900836444400,8.0124443359375,0.6159756779670715,-0.3967099189758301,-0.44054773449897766
1782987900846519300,8.022519287109375,0.6057848334312439,-0.36175408959388733,-0.4376629889011383
1782987900856593400,8.032593505859374,0.5680122971534729,-0.33821743726730347,-0.40930742025375366
1782987900866667300,8.042667236328125,0.5262832045555115,-0.34514114260673523,-0.3658238351345062
1782987900876742400,8.052742431640626,0.4826180934906006,-0.34711775183677673,-0.32312530279159546
1782987900886816300,8.062816162109375,0.4325128495693207,-0.32459086179733276,-0.2906142473220825
1782987900896891400,8.072891357421875,0.3732466697692871,-0.258699506521225,-0.2702396810054779
1782987900906965200,8.08296533203125,0.30249953269958496,-0.14374202489852905,-0.2528385818004608
1782987900917040400,8.093040283203125,0.23791085183620453,0.0006798147223889828,-0.24380943179130554
1782987900927114200,8.1031142578125,0.18107286095619202,0.09713338315486908,-0.2511799931526184
1782987900937189400,8.113189453125,0.14243152737617493,0.12169566750526428,-0.2735030949115753
1782987900947263200,8.12326318359375,0.12029001861810684,0.06987322121858597,-0.3056815266609192
1782987900957337300,8.13333740234375,0.11322466284036636,-0.023593192920088768,-0.34515565633773804
1782987900967412200,8.143412109375,0.11138255149126053,-0.12491368502378464,-0.38206467032432556
1782987900977486300,8.153486328125,0.1145496591925621,-0.1770658791065216,-0.39245280623435974
1782987900987561200,8.163561279296875,0.10682249814271927,-0.1427832841873169,-0.394936740398407
1782987900997635300,8.17363525390625,0.09457073360681534,-0.13432307541370392,-0.4010428190231323
1782987901007710200,8.183710205078125,0.08519107848405838,-0.14835447072982788,-0.41194605827331543
1782987901017784300,8.193784423828125,0.08427636325359344,-0.10257237404584885,-0.41684144735336304
1782987901027859200,8.203859130859374,0.08506865054368973,-0.017713142558932304,-0.4185256361961365
1782987901037933300,8.213933349609375,0.10297779738903046,0.020848674699664116,-0.43140897154808044
1782987901048008200,8.22400830078125,0.12773028016090393,-0.00047845172230154276,-0.4456148147583008
1782987901058082300,8.234082275390625,0.15917980670928955,-0.00850510410964489,-0.4393676519393921
1782987901068156200,8.24415625,0.1834651678800583,0.01894489675760269,-0.39630675315856934
1782987901078231300,8.254231201171875,0.19864121079444885,0.04440300166606903,-0.31369540095329285
1782987901088305200,8.26430517578125,0.18976569175720215,0.0586080402135849,-0.20233239233493805
1782987901098380300,8.27438037109375,0.17271168529987335,0.07018635421991348,-0.08501531183719635
1782987901108454100,8.2844541015625,0.15558063983917236,0.0749126672744751,0.024958858266472816
1782987901118527000,8.29452685546875,0.13861434161663055,0.039498962461948395,0.11467833071947098
1782987901128600800,8.304600830078124,0.12069658935070038,-0.06472197920084,0.1843290477991104
1782987901138676000,8.314676025390625,0.09521184116601944,-0.20842748880386353,0.2205010950565338
1782987901148749800,8.324749755859376,0.049388159066438675,-0.32667264342308044,0.21877004206180573
1782987901158824000,8.334823974609375,-0.011783132329583168,-0.3685539960861206,0.1852051317691803
1782987901168899000,8.344899169921876,-0.07316979765892029,-0.3044804632663727,0.125737264752388
1782987901178973000,8.354972900390624,-0.12393436580896378,-0.10790295898914337,0.055633679032325745
1782987901189048000,8.365048095703125,-0.1550922840833664,0.055876120924949646,0.0006710962043143809
1782987901199122000,8.375121826171876,-0.16691841185092926,0.03950050473213196,-0.05731536075472832
1782987901209197000,8.385197021484375,-0.1687655746936798,-0.19655144214630127,-0.14035272598266602
1782987901219271000,8.39527099609375,-0.17743809521198273,-0.5524587035179138,-0.24013032019138336
1782987901229346000,8.405345947265625,-0.19485676288604736,-0.7832796573638916,-0.33822864294052124
1782987901239420000,8.415419921875,-0.21238644421100616,-0.8296909332275391,-0.4060613512992859
1782987901249495000,8.4254951171875,-0.23442623019218445,-0.7685146927833557,-0.43271932005882263
1782987901259569000,8.43556884765625,-0.2609602212905884,-0.5968614816665649,-0.40677112340927124
1782987901269642800,8.445642822265626,-0.2522527277469635,-0.2763305902481079,-0.288516104221344
1782987901279718000,8.4557177734375,-0.21074870228767395,0.13873642683029175,-0.106846883893013
1782987901289791700,8.465791748046875,-0.1521967053413391,0.5074476003646851,0.09766737371683121
1782987901299867000,8.475866943359375,-0.08953475952148438,0.7086710929870605,0.2830071449279785
1782987901309941000,8.48594091796875,-0.027086568996310234,0.6404590606689453,0.41375184059143066
1782987901320016000,8.496015869140624,0.019564127549529076,0.33347561955451965,0.48022496700286865
1782987901330090000,8.506090087890625,0.03596280515193939,-0.08071491122245789,0.47727444767951965
1782987901340164900,8.516164794921876,0.013559242710471153,-0.46380487084388733,0.40504851937294006
1782987901350239000,8.526239013671875,-0.043471820652484894,-0.6933589577674866,0.277327299118042
1782987901360312800,8.536312744140625,-0.12351659685373306,-0.7489827871322632,0.10020536184310913
1782987901370388000,8.546387939453124,-0.21757625043392181,-0.691766083240509,-0.09720784425735474
1782987901380461800,8.5564619140625,-0.3214976489543915,-0.541083574295044,-0.2776745855808258
1782987901390537000,8.566536865234376,-0.4290243685245514,-0.3433404266834259,-0.398434042930603
1782987901400610800,8.57661083984375,-0.5306164026260376,-0.13793180882930756,-0.43733304738998413
1782987901410686000,8.58668603515625,-0.6043292284011841,0.04082941263914108,-0.3818538188934326
1782987901420759800,8.596759765625,-0.6360743641853333,0.18630094826221466,-0.24855437874794006
1782987901430835000,8.6068349609375,-0.6191121339797974,0.2768966555595398,-0.07986629754304886
1782987901440908800,8.61690869140625,-0.5798543095588684,0.2836727201938629,0.09446846693754196
1782987901450983200,8.626983154296875,-0.5352895259857178,0.19987556338310242,0.23630869388580322
1782987901461057800,8.637057861328126,-0.4947041869163513,0.06714454293251038,0.33842235803604126
1782987901471132200,8.647132080078125,-0.4648730456829071,-0.040322791785001755,0.3885939121246338
1782987901481206800,8.657206787109375,-0.4411371052265167,-0.09681057184934616,0.37680062651634216
1782987901491281200,8.66728125,-0.418368399143219,-0.1169014573097229,0.31886088848114014
1782987901501355800,8.677355712890625,-0.3898535668849945,-0.11445572972297668,0.21495366096496582
1782987901511430100,8.68743017578125,-0.3407856225967407,-0.10151063650846481,0.10404738783836365
1782987901521504800,8.6975048828125,-0.27745646238327026,-0.08127439767122269,0.011417226865887642
1782987901531579100,8.7075791015625,-0.22118569910526276,-0.08353009074926376,-0.05670590326189995
1782987901541653800,8.71765380859375,-0.18439185619354248,-0.09520047903060913,-0.09245724976062775
1782987901551728000,8.72772802734375,-0.17877258360385895,-0.10126875340938568,-0.09912101179361343
1782987901561802000,8.737802001953124,-0.18795043230056763,-0.07654430717229843,-0.09717021137475967
1782987901571877000,8.747877197265625,-0.21007224917411804,-0.046792272478342056,-0.0932372510433197
1782987901581951000,8.757950927734376,-0.21676692366600037,-0.039529066532850266,-0.08899711817502975
1782987901592026000,8.768026123046875,-0.21628835797309875,-0.023806029930710793,-0.07786670327186584
1782987901602100000,8.778099853515625,-0.19244424998760223,0.021097298711538315,-0.060293152928352356
1782987901612175000,8.788175048828125,-0.15878961980342865,0.0651923269033432,-0.040852874517440796
1782987901622249000,8.7982490234375,-0.1148744523525238,0.06511615961790085,-0.026343373581767082
1782987901632324000,8.808323974609374,-0.07007768750190735,0.04196956753730774,-0.009118047542870045
1782987901642398000,8.81839794921875,-0.022618485614657402,0.02267065830528736,0.002569809788838029
1782987901652473000,8.82847314453125,0.021545514464378357,0.005955860018730164,0.004960263147950172
1782987901662547000,8.838546875,0.057899195700883865,-0.0001404543872922659,0.004215678665786982
1782987901672621000,8.84862109375,0.09023795276880264,0.008858367800712585,0.001018820214085281
1782987901682696000,8.858696044921874,0.1057780310511589,0.03584630787372589,-0.008877752348780632
1782987901692770000,8.86877001953125,0.11576062440872192,0.08964109420776367,-0.016588935628533363
1782987901702845000,8.878844970703126,0.11931797116994858,0.16147013008594513,-0.015679743140935898
1782987901712919000,8.8889189453125,0.11440124362707138,0.23910100758075714,-0.015428340062499046
1782987901722994000,8.898993896484376,0.10623519122600555,0.289154589176178,-0.013804344460368156
1782987901733068000,8.909068115234374,0.10314672440290451,0.2928348183631897,-0.008698532357811928
1782987901743143000,8.919142822265625,0.09908601641654968,0.2386559545993805,-0.012058598920702934
1782987901753217000,8.929217041015624,0.09085578471422195,0.14111368358135223,-0.03245282173156738
1782987901763291000,8.939290771484375,0.0791177973151207,0.04882536083459854,-0.07039178162813187
1782987901773366000,8.949365966796876,0.0721975713968277,0.005223290994763374,-0.12090395390987396
1782987901783440000,8.95943994140625,0.06271179020404816,0.047060344368219376,-0.17455913126468658
1782987901793515000,8.969514892578125,0.04804256930947304,0.23375247418880463,-0.22514773905277252
1782987901803588900,8.9795888671875,0.046712588518857956,0.42370882630348206,-0.2641278803348541
1782987901813664000,8.9896640625,0.05932585150003433,0.39935898780822754,-0.28272661566734314
1782987901823737900,8.99973779296875,0.06538533419370651,0.15723590552806854,-0.2733748257160187
1782987901833813000,9.00981298828125,0.044996440410614014,-0.15382689237594604,-0.25374066829681396
1782987901843886800,9.019886962890626,-0.006768953055143356,-0.30628055334091187,-0.21194718778133392
1782987901853961000,9.0299609375,-0.0921459048986435,-0.20486924052238464,-0.14626723527908325
1782987901864035800,9.040035888671875,-0.18582922220230103,-0.011162636801600456,-0.07031915336847305
1782987901874110000,9.05010986328125,-0.25887706875801086,0.08114305883646011,-0.02066211961209774
1782987901884184800,9.060184814453125,-0.3023667633533478,0.12666325271129608,0.01583775505423546
1782987901894259000,9.070259033203126,-0.30886727571487427,0.22036950290203094,0.05577797815203667
1782987901904333800,9.080333740234375,-0.283186674118042,0.4273880422115326,0.11874382197856903
1782987901914408000,9.090407958984375,-0.22991521656513214,0.6561863422393799,0.19309820234775543
1782987901924482800,9.10048291015625,-0.16940684616565704,0.7798144817352295,0.24872329831123352
1782987901934557000,9.110556884765625,-0.09577524662017822,0.7439537048339844,0.2845790386199951
1782987901944632000,9.120632080078124,-0.017944036051630974,0.6039630770683289,0.2928379774093628
1782987901954706000,9.130705810546875,0.059855155646800995,0.4373900890350342,0.2898195683956146
1782987901964779800,9.14077978515625,0.12597408890724182,0.2554798424243927,0.2496018409729004
1782987901974855000,9.15085498046875,0.17158286273479462,0.07577265053987503,0.17530177533626556
1782987901984928800,9.1609287109375,0.19985783100128174,-0.07298184186220169,0.07146838307380676
1782987901995004000,9.17100390625,0.23564112186431885,-0.161379873752594,-0.04054710268974304
1782987902005077800,9.181077880859375,0.279291570186615,-0.1839980036020279,-0.1348796784877777
1782987902015153000,9.19115283203125,0.34009605646133423,-0.13835914433002472,-0.19754384458065033
1782987902025226800,9.201226806640625,0.4207271635532379,-0.040170349180698395,-0.22202381491661072
1782987902035302000,9.211302001953126,0.516019344329834,0.04712221026420593,-0.2125815749168396
1782987902045375700,9.221375732421874,0.6240907907485962,0.08771064877510071,-0.17590460181236267
1782987902055449900,9.231449951171875,0.7259287238121033,0.0815638080239296,-0.115269735455513
1782987902065525000,9.24152490234375,0.8092199563980103,0.05936187505722046,-0.03467979654669762
1782987902075598800,9.251598876953125,0.870503306388855,0.05563957616686821,0.053059641271829605
1782987902085674000,9.261674072265626,0.9125227332115173,0.09145009517669678,0.1306745707988739
1782987902095747800,9.271747802734374,0.939668595790863,0.1321120411157608,0.17966368794441223
1782987902105823000,9.281822998046875,0.9578751921653748,0.16033807396888733,0.19124384224414825
1782987902115895800,9.291895751953126,0.9669413566589355,0.16953717172145844,0.17112445831298828
1782987902125970700,9.301970703125,0.9696506261825562,0.16769719123840332,0.13289330899715424
1782987902136044800,9.312044921875,0.957026481628418,0.13430674374103546,0.07862022519111633
1782987902146119700,9.32211962890625,0.930849552154541,0.08296488225460052,0.020829103887081146
1782987902156193800,9.33219384765625,0.8978053331375122,0.0443359911441803,-0.0286116823554039
1782987902166267600,9.342267578125,0.8634920120239258,0.03623700141906738,-0.06166606396436691
1782987902176342800,9.3523427734375,0.8240817189216614,0.0835251584649086,-0.08475247770547867
1782987902186416600,9.362416748046876,0.770557701587677,0.16232526302337646,-0.09834759682416916
1782987902196491800,9.37249169921875,0.7093939781188965,0.2210618108510971,-0.11994316428899765
1782987902206565600,9.382565673828125,0.6529656648635864,0.2559226453304291,-0.14042285084724426
1782987902216640800,9.392640869140624,0.6149311661720276,0.24662581086158752,-0.1598956137895584
1782987902226714600,9.402714599609375,0.6074385643005371,0.20162537693977356,-0.1593114286661148
1782987902236789800,9.412789794921874,0.6121417284011841,0.20173083245754242,-0.12822487950325012
1782987902246863600,9.422863525390625,0.6155785322189331,0.23701687157154083,-0.08163057267665863
1782987902256938800,9.432938720703126,0.617160439491272,0.2551703155040741,-0.03217300772666931
1782987902267012600,9.4430126953125,0.615256130695343,0.24913859367370605,0.019242675974965096
1782987902277086700,9.453086669921875,0.6120313405990601,0.26118752360343933,0.07781171053647995
1782987902287161600,9.46316162109375,0.6104753613471985,0.30800503492355347,0.15038423240184784
1782987902297235700,9.473235595703125,0.6043162941932678,0.3601239025592804,0.2190628945827484
1782987902307310600,9.483310546875,0.5883823037147522,0.3516658544540405,0.2794671952724457
1782987902317384700,9.493384765625,0.5686930418014526,0.28709831833839417,0.3139026463031769
1782987902327459600,9.50345947265625,0.5396220088005066,0.2204645276069641,0.32510337233543396
1782987902337533700,9.51353369140625,0.508884847164154,0.18553876876831055,0.31273192167282104
1782987902347608600,9.523608642578125,0.46756020188331604,0.19425177574157715,0.2795843183994293
1782987902357682700,9.5336826171875,0.42915022373199463,0.23478321731090546,0.23345623910427094
1782987902367756500,9.543756591796875,0.3968518376350403,0.3176118731498718,0.17955002188682556
1782987902377831700,9.553831787109376,0.39229968190193176,0.4472457468509674,0.13534581661224365
1782987902387905500,9.563905517578124,0.4039583206176758,0.4535014033317566,0.09385191649198532
1782987902397980700,9.573980712890625,0.4283906817436218,0.30125752091407776,0.04917179420590401
1782987902408054500,9.584054443359374,0.4464656412601471,0.10703549534082413,-0.0148703558370471
1782987902418129700,9.594129638671875,0.44822973012924194,-0.06480523943901062,-0.0864982083439827
1782987902428203500,9.60420361328125,0.43109259009361267,-0.13962523639202118,-0.18070097267627716
1782987902438278700,9.614278564453125,0.40460824966430664,-0.09722026437520981,-0.2757289707660675
1782987902448352500,9.6243525390625,0.3788209557533264,0.04175782576203346,-0.35450059175491333
1782987902458427600,9.634427734375,0.3673592209815979,0.23718565702438354,-0.3891744315624237
1782987902468501500,9.64450146484375,0.3780556321144104,0.4696885049343109,-0.3554341793060303
1782987902478575600,9.65457568359375,0.4263845682144165,0.709929347038269,-0.24170337617397308
1782987902488650500,9.664650390625,0.503572404384613,0.9216274619102478,-0.06355676054954529
1782987902498724600,9.674724609375,0.5929275751113892,0.9996391534805298,0.14057134091854095
1782987902508799500,9.684799560546875,0.6846343278884888,0.8962586522102356,0.3328019976615906
1782987902518873600,9.69487353515625,0.7609272599220276,0.6474142670631409,0.4617115259170532
1782987902528948500,9.704948486328124,0.8223042488098145,0.35931387543678284,0.5214831829071045
1782987902539022600,9.715022705078125,0.865750253200531,0.15068742632865906,0.5075750946998596
1782987902549097500,9.725097412109376,0.8876587748527527,0.06270744651556015,0.4202563464641571
1782987902559171600,9.735171630859375,0.8718947172164917,0.07423680275678635,0.26729342341423035
1782987902569245700,9.74524560546875,0.83071368932724,0.1864403635263443,0.08847396820783615
1782987902579320600,9.755320556640624,0.7819629311561584,0.38703685998916626,-0.07659807801246643
1782987902589394700,9.765394775390625,0.7361549735069275,0.6465796232223511,-0.1891619712114334
1782987902599469600,9.775469482421874,0.7027629017829895,0.9189373254776001,-0.232935830950737
1782987902609543700,9.785543701171875,0.6895822286605835,1.1527618169784546,-0.20539651811122894
1782987902619618600,9.79561865234375,0.6982966065406799,1.2528241872787476,-0.12693658471107483
1782987902629692700,9.805692626953125,0.7215738892555237,1.2298864126205444,-0.024728167802095413
1782987902639767600,9.815767578125,0.7672808766365051,1.1384990215301514,0.08760716766119003
1782987902649841700,9.825841552734374,0.8252817392349243,1.0024057626724243,0.17562390863895416
1782987902659916500,9.83591650390625,0.8833969831466675,0.8457406163215637,0.210994154214859
1782987902669990700,9.84599072265625,0.9338568449020386,0.7042446136474609,0.18650133907794952
1782987902680064800,9.856064697265625,0.9803287386894226,0.6194828748703003,0.10793621838092804
1782987902690139600,9.8661396484375,1.0070286989212036,0.5758686661720276,0.0018190221162512898
1782987902700213800,9.8762138671875,1.0230867862701416,0.5405796766281128,-0.12624786794185638
1782987902710288600,9.88628857421875,1.0360146760940552,0.4992946982383728,-0.24982856214046478
1782987902720362800,9.89636279296875,1.056563377380371,0.47193366289138794,-0.3446463942527771
1782987902730437600,9.906437744140625,1.0822248458862305,0.4737849533557892,-0.39658278226852417
1782987902740511700,9.91651171875,1.0994248390197754,0.5028848052024841,-0.42189186811447144
1782987902750586600,9.926586669921875,1.10578191280365,0.5497047305107117,-0.4250299334526062
1782987902760660700,9.93666064453125,1.1060460805892944,0.6268783807754517,-0.39337533712387085
1782987902770735600,9.946735595703124,1.0971821546554565,0.7062000632286072,-0.35430195927619934
1782987902780809700,9.956809814453125,1.095923900604248,0.7584584355354309,-0.3101150393486023
1782987902790883600,9.966883544921876,1.1225918531417847,0.8175081014633179,-0.24669621884822845
1782987902800958700,9.976958740234375,1.1725537776947021,0.9166906476020813,-0.16666582226753235
1782987902811032600,9.987032470703125,1.2324599027633667,1.0409375429153442,-0.08914587646722794
1782987902821107700,9.997107666015625,1.293113350868225,1.1391046047210693,-0.03162772208452225
1782987902831181800,10.007181884765625,1.3610714673995972,1.1942263841629028,0.0033370237797498703
1782987902841256700,10.017256591796874,1.4336655139923096,1.2027381658554077,0.01759851723909378
1782987902851330800,10.027330810546875,1.4955055713653564,1.1597007513046265,0.013430258259177208
1782987902861405700,10.03740576171875,1.5514295101165771,1.052126407623291,-0.002870418131351471
1782987902871479800,10.047479736328125,1.5873405933380127,0.9645494818687439,-0.00927386898547411
1782987902881553700,10.0575537109375,1.6062239408493042,0.952289342880249,0.0048475428484380245
1782987902891628800,10.06762890625,1.6084425449371338,1.0102633237838745,0.040317170321941376
1782987902901702700,10.07770263671875,1.6098636388778687,1.1081621646881104,0.08263559639453888
1782987902911777800,10.08777783203125,1.602129340171814,1.2658857107162476,0.12371785938739777
1782987902921851600,10.0978515625,1.6028265953063965,1.532212734222412,0.1426050066947937
1782987902931926800,10.1079267578125,1.6251941919326782,1.836419939994812,0.1327737271785736
1782987902942000600,10.118000732421875,1.6504151821136475,1.9046506881713867,0.0536314994096756
1782987902952075800,10.12807568359375,1.6745442152023315,1.5207030773162842,-0.09407208859920502
1782987902962149600,10.138149658203124,1.6807283163070679,0.7895767092704773,-0.2958044111728668
1782987902972224800,10.148224853515625,1.6102851629257202,0.16744364798069,-0.480837881565094
1782987902982298600,10.158298583984376,1.4414373636245728,0.1086016371846199,-0.5759736895561218
1782987902992372700,10.168372802734375,1.276228904724121,0.597849428653717,-0.5163792967796326
1782987903002447600,10.178447509765626,1.1679329872131348,1.4152721166610718,-0.3316371738910675
1782987903012521700,10.188521728515624,1.139844536781311,2.2403512001037598,-0.10716298222541809
1782987903022596600,10.1985966796875,1.1870429515838623,2.7500123977661133,0.10766570270061493
1782987903032670700,10.208670654296874,1.3029143810272217,2.8408143520355225,0.3182421922683716
1782987903042745600,10.21874560546875,1.4576644897460938,2.6807210445404053,0.5034570693969727
1782987903052819700,10.22881982421875,1.6013438701629639,2.3602230548858643,0.5994001626968384
1782987903062894600,10.23889453125,1.7086561918258667,1.892579197883606,0.5797279477119446
1782987903072968700,10.24896875,1.7736716270446777,1.3460818529129028,0.4292144775390625
1782987903083043600,10.259043701171874,1.8005757331848145,0.8676843643188477,0.18274664878845215
1782987903093117700,10.26911767578125,1.8104373216629028,0.5707579851150513,-0.11746345460414886
1782987903103191600,10.279191650390626,1.8278945684432983,0.47127798199653625,-0.42572566866874695
1782987903113266700,10.2892666015625,1.8682138919830322,0.566332221031189,-0.6844766736030579
1782987903123340800,10.2993408203125,1.9227335453033447,0.829192578792572,-0.8375064730644226
1782987903133416000,10.309416015625,1.9522804021835327,1.1488006114959717,-0.8504282832145691
1782987903143489800,10.31948974609375,1.9414210319519043,1.4649417400360107,-0.7228308916091919
1782987903153565000,10.32956494140625,1.8966959714889526,1.6371806859970093,-0.511378288269043
1782987903163638800,10.339638671875,1.8559154272079468,1.6166311502456665,-0.2817762792110443
1782987903173714000,10.3497138671875,1.8356614112854004,1.510722041130066,-0.08199623227119446
1782987903183787800,10.359787841796875,1.8416738510131836,1.3141263723373413,0.05704128369688988
1782987903193863000,10.36986279296875,1.844558596611023,1.0819053649902344,0.11823013424873352
1782987903203936800,10.379936767578124,1.825368881225586,0.8995770812034607,0.09363105148077011
1782987903214011000,10.390010986328125,1.784246802330017,0.8337045311927795,-0.0009072717512026429
1782987903224085800,10.400085693359374,1.7439590692520142,0.8651825785636902,-0.13877752423286438
1782987903234159900,10.410159912109375,1.7178230285644531,0.9248301982879639,-0.27655962109565735
1782987903244234800,10.42023486328125,1.710702657699585,0.9902833700180054,-0.38555029034614563
1782987903254308900,10.430308837890625,1.719396948814392,1.0333585739135742,-0.42494553327560425
1782987903264383700,10.4403837890625,1.7165061235427856,1.0766836404800415,-0.4009547233581543
1782987903274457900,10.450457763671874,1.7015107870101929,1.0857497453689575,-0.3165145218372345
1782987903284532700,10.46053271484375,1.677597999572754,1.0481775999069214,-0.20677310228347778
1782987903294606800,10.47060693359375,1.6419261693954468,1.0065312385559082,-0.12255687266588211
1782987903304680700,10.4806806640625,1.5913716554641724,0.9494044780731201,-0.07864826917648315
1782987903314755800,10.490755859375,1.5270217657089233,0.9186111092567444,-0.06643692404031754
1782987903324829700,10.50082958984375,1.4503618478775024,0.9790552854537964,-0.06395592540502548
1782987903334904800,10.51090478515625,1.367313027381897,1.0813329219818115,-0.09218847751617432
1782987903344978700,10.520978759765624,1.3088828325271606,1.1520930528640747,-0.1460072249174118
1782987903355053800,10.5310537109375,1.2801717519760132,1.2233599424362183,-0.21017634868621826
1782987903365127700,10.541127685546876,1.275565505027771,1.3142772912979126,-0.2519480288028717
1782987903375202800,10.551202880859375,1.2627921104431152,1.461646556854248,-0.2648795545101166
1782987903385276700,10.561276611328125,1.2550992965698242,1.664070963859558,-0.2777998745441437
1782987903395351800,10.571351806640624,1.2381818294525146,1.8576236963272095,-0.34394264221191406
1782987903405425700,10.58142578125,1.211779236793518,1.8716317415237427,-0.41835615038871765
1782987903415500000,10.5915,1.081851840019226,1.5612589120864868,-0.4406560957431793
1782987903425575000,10.601574951171875,0.9706023931503296,1.001599669456482,-0.5570404529571533
1782987903435649000,10.61164892578125,0.9938638806343079,0.590481698513031,-0.6837456822395325
1782987903445724000,10.621723876953125,1.0374001264572144,0.6335282325744629,-0.7727464437484741
1782987903455798000,10.631798095703125,1.0558496713638306,0.974148154258728,-0.7892861366271973
1782987903465873000,10.641872802734374,1.082046389579773,1.4174944162368774,-0.7393074035644531
1782987903475947000,10.651947021484375,1.1030250787734985,1.8343729972839355,-0.6059688925743103
1782987903486022000,10.66202197265625,1.1018339395523071,2.048140525817871,-0.39143213629722595
1782987903496096000,10.672095947265625,1.14657461643219,2.0249881744384766,-0.10771230608224869
