time,seconds_elapsed,z,y,x
1782984777028551700,0.0625517578125,-0.6838531494140625,-0.6345977783203125,0.02093505859375
1782984777038626600,0.07262646484375,-0.6672210693359375,-0.6354217529296875,0.0195465087890625
1782984777048700700,0.08270068359375,-0.6772918701171875,-0.647369384765625,0.011199951171875
1782984777058774500,0.0927744140625,-0.69976806640625,-0.65167236328125,0.0120086669921875
1782984777068849700,0.102849609375,-0.71844482421875,-0.65380859375,0.01568603515625
1782984777078923500,0.112923583984375,-0.737884521484375,-0.6515045166015625,0.02154541015625
1782984777088998700,0.12299853515625,-0.76055908203125,-0.64617919921875,0.0260772705078125
1782984777099072800,0.13307275390625,-0.782928466796875,-0.6412353515625,0.022796630859375
1782984777109146600,0.143146728515625,-0.783355712890625,-0.6404876708984375,0.0170135498046875
1782984777119221800,0.1532216796875,-0.7762451171875,-0.641876220703125,0.0228271484375
1782984777129295600,0.163295654296875,-0.7685089111328125,-0.644134521484375,0.0267486572265625
1782984777139370800,0.173370849609375,-0.7562408447265625,-0.6456298828125,0.0221405029296875
1782984777149444600,0.183444580078125,-0.750244140625,-0.6487579345703125,0.0239105224609375
1782984777159518500,0.1935185546875,-0.74951171875,-0.6511993408203125,0.0260162353515625
1782984777169593600,0.203593505859375,-0.7530059814453125,-0.6523284912109375,0.030609130859375
1782984777179667500,0.21366748046875,-0.7636566162109375,-0.653076171875,0.0335235595703125
1782984777189742600,0.22374267578125,-0.7745208740234375,-0.649749755859375,0.030059814453125
1782984777199816400,0.23381640625,-0.77581787109375,-0.6428985595703125,0.0275421142578125
1782984777209890600,0.243890625,-0.774993896484375,-0.6436004638671875,0.0252685546875
1782984777219965700,0.253965576171875,-0.77178955078125,-0.646270751953125,0.0211639404296875
1782984777230039600,0.26403955078125,-0.7633209228515625,-0.6432952880859375,0.01800537109375
1782984777240113400,0.274113525390625,-0.74896240234375,-0.642974853515625,0.015838623046875
1782984777250188500,0.2841884765625,-0.7373504638671875,-0.6454315185546875,0.0191192626953125
1782984777260262400,0.294262451171875,-0.73602294921875,-0.6451873779296875,0.02471923828125
1782984777270337500,0.304337646484375,-0.7373046875,-0.645294189453125,0.0215301513671875
1782984777280411400,0.314411376953125,-0.7378387451171875,-0.64752197265625,0.017303466796875
1782984777290485500,0.324485595703125,-0.733428955078125,-0.646392822265625,0.0182647705078125
1782984777300560400,0.334560302734375,-0.7244873046875,-0.6432037353515625,0.0172576904296875
1782984777310634500,0.344634521484375,-0.72265625,-0.6446380615234375,0.01934814453125
1782984777320709400,0.35470947265625,-0.747314453125,-0.64300537109375,0.0189666748046875
1782984777330783500,0.364783447265625,-0.7696685791015625,-0.6399993896484375,0.006622314453125
1782984777340857600,0.374857666015625,-0.7826080322265625,-0.6421661376953125,-0.006622314453125
1782984777350932500,0.384932373046875,-0.787628173828125,-0.64361572265625,-0.004180908203125
1782984777361006600,0.395006591796875,-0.7833404541015625,-0.646453857421875,0.000152587890625
1782984777371081500,0.40508154296875,-0.774139404296875,-0.6478729248046875,0.0005645751953125
1782984777381155600,0.415155517578125,-0.76019287109375,-0.64898681640625,0.000732421875
1782984777391229700,0.425229736328125,-0.7617340087890625,-0.6492767333984375,0.012664794921875
1782984777401304600,0.4353046875,-0.7632293701171875,-0.64581298828125,0.0251617431640625
1782984777411378700,0.445378662109375,-0.7629547119140625,-0.639892578125,0.028289794921875
1782984777421453600,0.45545361328125,-0.7632904052734375,-0.635894775390625,0.02911376953125
1782984777431527700,0.465527587890625,-0.7620697021484375,-0.630126953125,0.0345001220703125
1782984777441601500,0.4756015625,-0.76519775390625,-0.628265380859375,0.0353546142578125
1782984777451676700,0.4856767578125,-0.7642364501953125,-0.628082275390625,0.028900146484375
1782984777461750500,0.49575048828125,-0.7660369873046875,-0.6299591064453125,0.0226593017578125
1782984777471825700,0.50582568359375,-0.7668609619140625,-0.6328277587890625,0.0151214599609375
1782984777481899500,0.5158994140625,-0.7668304443359375,-0.6340484619140625,0.01580810546875
1782984777491973600,0.5259736328125,-0.76263427734375,-0.6329345703125,0.02020263671875
1782984777502048500,0.536048583984375,-0.7586822509765625,-0.6305694580078125,0.02325439453125
1782984777512122600,0.54612255859375,-0.753082275390625,-0.632537841796875,0.0268402099609375
1782984777522197500,0.556197509765625,-0.749298095703125,-0.633087158203125,0.0257415771484375
1782984777532271600,0.566271728515625,-0.7496795654296875,-0.6320953369140625,0.0251922607421875
1782984777542345500,0.576345458984375,-0.7512969970703125,-0.633514404296875,0.018707275390625
1782984777552420600,0.586420654296875,-0.7581787109375,-0.6346893310546875,0.0071258544921875
1782984777562494500,0.596494384765625,-0.7703857421875,-0.635162353515625,-0.000732421875
1782984777572569600,0.606569580078125,-0.778472900390625,-0.6357879638671875,0.00091552734375
1782984777582643500,0.6166435546875,-0.7748870849609375,-0.6316986083984375,0.003387451171875
1782984777592717600,0.626717529296875,-0.7740020751953125,-0.6297760009765625,0.0063934326171875
1782984777602792400,0.63679248046875,-0.774871826171875,-0.6295166015625,0.0106048583984375
1782984777612866600,0.646866455078125,-0.77508544921875,-0.6323089599609375,0.0093536376953125
1782984777622941400,0.65694140625,-0.7775421142578125,-0.6370697021484375,0.0101470947265625
1782984777633015600,0.667015625,-0.7785797119140625,-0.6391448974609375,0.0116119384765625
1782984777643089400,0.67708935546875,-0.773223876953125,-0.6380462646484375,0.0153961181640625
1782984777653164500,0.68716455078125,-0.7701416015625,-0.6352691650390625,0.020294189453125
1782984777663238400,0.69723828125,-0.769927978515625,-0.6344451904296875,0.0246429443359375
1782984777673313500,0.7073134765625,-0.7782135009765625,-0.6343536376953125,0.0203094482421875
1782984777683387400,0.717387451171875,-0.7889862060546875,-0.6367645263671875,0.0176544189453125
1782984777693461800,0.727461669921875,-0.791534423828125,-0.6355133056640625,0.01739501953125
1782984777703536400,0.737536376953125,-0.780914306640625,-0.633026123046875,0.0211639404296875
1782984777713610800,0.74761083984375,-0.7641448974609375,-0.633636474609375,0.0255279541015625
1782984777723684600,0.7576845703125,-0.7491607666015625,-0.6353607177734375,0.031463623046875
1782984777733759700,0.767759765625,-0.7381591796875,-0.6380157470703125,0.0357666015625
1782984777743833600,0.77783349609375,-0.7274017333984375,-0.6396484375,0.035064697265625
1782984777753908700,0.78790869140625,-0.7242889404296875,-0.6384429931640625,0.0358428955078125
1782984777763982600,0.797982666015625,-0.72589111328125,-0.6376800537109375,0.0333099365234375
1782984777774056700,0.808056640625,-0.7330474853515625,-0.6376495361328125,0.02532958984375
1782984777784131600,0.818131591796875,-0.74212646484375,-0.6352996826171875,0.02313232421875
1782984777794205700,0.828205810546875,-0.746856689453125,-0.636962890625,0.020599365234375
1782984777804280600,0.838280517578125,-0.7500152587890625,-0.6372222900390625,0.0208587646484375
1782984777814354700,0.848354736328125,-0.7578582763671875,-0.63714599609375,0.01861572265625
1782984777824428500,0.858428466796875,-0.7639617919921875,-0.6371002197265625,0.0183563232421875
1782984777834503700,0.868503662109375,-0.771514892578125,-0.6390533447265625,0.0164031982421875
1782984777844577500,0.87857763671875,-0.78143310546875,-0.6397247314453125,0.0139312744140625
1782984777854652700,0.888652587890625,-0.7853546142578125,-0.6438446044921875,0.0113067626953125
1782984777864726500,0.8987265625,-0.7843475341796875,-0.647857666015625,0.011474609375
1782984777874800600,0.908800537109375,-0.78057861328125,-0.6471405029296875,0.016845703125
1782984777884879000,0.918879150390625,-0.7731170654296875,-0.6429290771484375,0.0244140625
1782984777894953000,0.928952880859375,-0.7660064697265625,-0.6421661376953125,0.0289306640625
1782984777905028000,0.939028076171875,-0.762603759765625,-0.6412200927734375,0.0267181396484375
1782984777915102000,0.94910205078125,-0.762939453125,-0.6443939208984375,0.020599365234375
1782984777925176000,0.959176025390625,-0.7610626220703125,-0.6473388671875,0.018280029296875
1782984777935251000,0.9692509765625,-0.7549285888671875,-0.6459197998046875,0.017730712890625
1782984777945325000,0.979324951171875,-0.750640869140625,-0.6410675048828125,0.017974853515625
1782984777955400000,0.98939990234375,-0.7481536865234375,-0.6383056640625,0.0177001953125
1782984777965474000,0.99947412109375,-0.7557220458984375,-0.6360015869140625,0.0181884765625
1782984777975548000,1.0095478515625,-0.759033203125,-0.6349029541015625,0.012176513671875
1782984777985623000,1.019623046875,-0.7549591064453125,-0.63604736328125,0.0020904541015625
1782984777995697000,1.02969677734375,-0.755859375,-0.6407928466796875,0.0067138671875
1782984778005772000,1.03977197265625,-0.76446533203125,-0.6406097412109375,0.0083160400390625
1782984778015846000,1.049845947265625,-0.763458251953125,-0.6343841552734375,0.0113372802734375
1782984778025920300,1.059920166015625,-0.75543212890625,-0.63238525390625,0.0191192626953125
1782984778035995000,1.069994873046875,-0.7531585693359375,-0.6342620849609375,0.026611328125
1782984778046069200,1.0800693359375,-0.755889892578125,-0.6334075927734375,0.016754150390625
1782984778056144000,1.090143798828125,-0.757904052734375,-0.632843017578125,0.0064697265625
1782984778066218200,1.10021826171875,-0.754486083984375,-0.6356658935546875,0.00390625
1782984778076292000,1.1102919921875,-0.7559661865234375,-0.6362457275390625,0.008758544921875
1782984778086367200,1.1203671875,-0.7632904052734375,-0.6392822265625,0.0116729736328125
1782984778096441000,1.130441162109375,-0.7717437744140625,-0.639129638671875,0.013519287109375
1782984778106516200,1.14051611328125,-0.7733154296875,-0.640899658203125,0.0152435302734375
1782984778116590000,1.150590087890625,-0.7707061767578125,-0.643890380859375,0.02362060546875
1782984778126664200,1.160664306640625,-0.7681427001953125,-0.6400909423828125,0.0303497314453125
1782984778136739000,1.170739013671875,-0.7704315185546875,-0.6398468017578125,0.0346832275390625
1782984778146813200,1.180813232421875,-0.773590087890625,-0.64154052734375,0.0374908447265625
1782984778156888000,1.19088818359375,-0.772216796875,-0.64013671875,0.0419158935546875
1782984778166962200,1.200962158203125,-0.7659149169921875,-0.6396026611328125,0.0437164306640625
1782984778177036000,1.2110361328125,-0.7657623291015625,-0.6429595947265625,0.0420989990234375
1782984778187111200,1.221111083984375,-0.7640533447265625,-0.6396484375,0.0381317138671875
1782984778197185000,1.23118505859375,-0.757965087890625,-0.6395263671875,0.03472900390625
1782984778207260200,1.24126025390625,-0.7577362060546875,-0.639892578125,0.0405120849609375
1782984778217334000,1.251333984375,-0.7596588134765625,-0.64031982421875,0.043121337890625
1782984778227408100,1.261408203125,-0.7566986083984375,-0.63580322265625,0.0399627685546875
1782984778237483000,1.27148291015625,-0.757568359375,-0.6358642578125,0.04083251953125
1782984778247557000,1.28155712890625,-0.757720947265625,-0.634307861328125,0.040496826171875
1782984778257632000,1.291632080078125,-0.7582855224609375,-0.6367950439453125,0.0340576171875
1782984778267706000,1.3017060546875,-0.7594757080078125,-0.6379852294921875,0.0307464599609375
1782984778277780000,1.311780029296875,-0.7586212158203125,-0.6363983154296875,0.0361480712890625
1782984778287855000,1.321855224609375,-0.7575225830078125,-0.6335906982421875,0.038421630859375
1782984778297929000,1.331928955078125,-0.7547149658203125,-0.632354736328125,0.039794921875
1782984778308004000,1.342004150390625,-0.75714111328125,-0.630889892578125,0.037017822265625
1782984778318078000,1.352077880859375,-0.76348876953125,-0.6308746337890625,0.034637451171875
1782984778328152000,1.362152099609375,-0.764923095703125,-0.6324615478515625,0.0317840576171875
1782984778338227000,1.37222705078125,-0.7672882080078125,-0.634674072265625,0.0312957763671875
1782984778348301000,1.382301025390625,-0.768798828125,-0.6336212158203125,0.0368194580078125
1782984778358376000,1.3923759765625,-0.765289306640625,-0.634002685546875,0.036468505859375
1782984778368450000,1.402449951171875,-0.7613067626953125,-0.6388702392578125,0.038848876953125
1782984778378524200,1.412524169921875,-0.760162353515625,-0.6386566162109375,0.045013427734375
1782984778388599000,1.42259912109375,-0.7573394775390625,-0.634246826171875,0.0437774658203125
1782984778398673200,1.432673095703125,-0.759521484375,-0.634765625,0.0405120849609375
1782984778408748000,1.442748046875,-0.7700958251953125,-0.637359619140625,0.040740966796875
1782984778418822100,1.452822265625,-0.78216552734375,-0.6349029541015625,0.037017822265625
1782984778428896300,1.462896240234375,-0.7867584228515625,-0.6339263916015625,0.0277862548828125
1782984778438971100,1.47297119140625,-0.78857421875,-0.6389617919921875,0.0259857177734375
1782984778449045200,1.483045166015625,-0.7858428955078125,-0.6338043212890625,0.0264129638671875
1782984778459120000,1.4931201171875,-0.7801361083984375,-0.6337432861328125,0.0260772705078125
1782984778469194200,1.5031943359375,-0.7751922607421875,-0.6342010498046875,0.0213775634765625
1782984778479268000,1.51326806640625,-0.7736968994140625,-0.635894775390625,0.0183258056640625
1782984778489343200,1.52334326171875,-0.7696990966796875,-0.6341552734375,0.0223541259765625
1782984778499417000,1.5334169921875,-0.7653045654296875,-0.6363067626953125,0.0227813720703125
1782984778509492200,1.5434921875,-0.763763427734375,-0.637603759765625,0.0202789306640625
1782984778519566000,1.553566162109375,-0.771697998046875,-0.6389923095703125,0.0135498046875
1782984778529640200,1.56364013671875,-0.7732696533203125,-0.6442718505859375,0.0085296630859375
1782984778539715000,1.573715087890625,-0.7760772705078125,-0.64874267578125,0.0093841552734375
1782984778549789200,1.5837890625,-0.793212890625,-0.651123046875,0.018829345703125
1782984778559864000,1.593864013671875,-0.7881317138671875,-0.6476593017578125,0.029754638671875
1782984778569938200,1.603938232421875,-0.7743377685546875,-0.6445159912109375,0.0396728515625
1782984778580012000,1.614011962890625,-0.758087158203125,-0.6472625732421875,0.04443359375
1782984778590087200,1.624087158203125,-0.75244140625,-0.6539459228515625,0.0433349609375
1782984778600161000,1.6341611328125,-0.7503814697265625,-0.6591033935546875,0.029693603515625
1782984778610236200,1.644236083984375,-0.76806640625,-0.6642303466796875,0.017425537109375
1782984778620310000,1.65431005859375,-0.790374755859375,-0.6723785400390625,0.016998291015625
1782984778630383900,1.6643837890625,-0.7943115234375,-0.6745147705078125,0.0247650146484375
1782984778640459000,1.674458984375,-0.7950592041015625,-0.6761016845703125,0.0330657958984375
1782984778650532900,1.684532958984375,-0.7903289794921875,-0.675079345703125,0.0404052734375
1782984778660607000,1.69460693359375,-0.777557373046875,-0.6742706298828125,0.0401763916015625
1782984778670682000,1.70468212890625,-0.7509002685546875,-0.6749725341796875,0.03955078125
1782984778680756000,1.714755859375,-0.7165069580078125,-0.676513671875,0.0404205322265625
1782984778690831000,1.7248310546875,-0.6925811767578125,-0.6802520751953125,0.040252685546875
1782984778700905000,1.734905029296875,-0.67803955078125,-0.6869049072265625,0.0413055419921875
1782984778710980000,1.74497998046875,-0.6762237548828125,-0.6875152587890625,0.03887939453125
1782984778721054000,1.755053955078125,-0.6803436279296875,-0.6951904296875,0.02691650390625
1782984778731128000,1.765128173828125,-0.6723480224609375,-0.702606201171875,0.017181396484375
1782984778741203000,1.775202880859375,-0.653594970703125,-0.7091827392578125,0.0124664306640625
1782984778751277000,1.785277099609375,-0.636077880859375,-0.7142791748046875,0.0069427490234375
1782984778761351200,1.79535107421875,-0.6260528564453125,-0.720306396484375,0.003265380859375
1782984778771426000,1.805426025390625,-0.62139892578125,-0.7226409912109375,0.002197265625
1782984778781500200,1.815500244140625,-0.635162353515625,-0.7260894775390625,0.00286865234375
1782984778791575300,1.8255751953125,-0.6589813232421875,-0.7252960205078125,-0.0023956298828125
1782984778801649200,1.835649169921875,-0.677703857421875,-0.72589111328125,-0.008636474609375
1782984778811724300,1.845724365234375,-0.681243896484375,-0.725067138671875,-0.0134124755859375
1782984778821798100,1.855798095703125,-0.673675537109375,-0.7285919189453125,-0.013275146484375
1782984778831872000,1.8658720703125,-0.6647491455078125,-0.732177734375,-0.009063720703125
1782984778841947100,1.875947021484375,-0.6608428955078125,-0.7324066162109375,-0.0082855224609375
1782984778852021000,1.88602099609375,-0.6593475341796875,-0.732452392578125,-0.00750732421875
1782984778862095000,1.89609521484375,-0.6589508056640625,-0.7321929931640625,0
1782984778872170000,1.906169921875,-0.6592559814453125,-0.731536865234375,0.006256103515625
1782984778882241800,1.91624169921875,-0.663970947265625,-0.7281646728515625,0.005462646484375
1782984778892317000,1.92631689453125,-0.6745758056640625,-0.7259674072265625,0.004180908203125
1782984778902390800,1.936390869140625,-0.6786346435546875,-0.725372314453125,0.000244140625
1782984778912465000,1.94646484375,-0.683319091796875,-0.72540283203125,-0.00079345703125
1782984778922539800,1.956539794921875,-0.68621826171875,-0.724884033203125,-0.0000762939453125
1782984778932614000,1.96661376953125,-0.681304931640625,-0.7215728759765625,-0.0012359619140625
1782984778942688800,1.976688720703125,-0.6738128662109375,-0.7203216552734375,-0.0010223388671875
1782984778952763000,1.986762939453125,-0.6758575439453125,-0.7259674072265625,-0.0019683837890625
1782984778962836700,1.996836669921875,-0.6793365478515625,-0.7271728515625,-0.00799560546875
1782984778972911900,2.006911865234375,-0.6834259033203125,-0.7270660400390625,-0.0095672607421875
1782984778982985700,2.01698583984375,-0.6763763427734375,-0.731689453125,-0.0118255615234375
1782984778993060900,2.027060791015625,-0.6715240478515625,-0.73541259765625,-0.0066070556640625
1782984779003134700,2.037134765625,-0.670654296875,-0.73358154296875,-0.0022430419921875
1782984779013208600,2.04720849609375,-0.6676025390625,-0.73284912109375,0.000762939453125
1782984779023283700,2.05728369140625,-0.6688079833984375,-0.7295074462890625,-0.0001678466796875
1782984779033357800,2.06735791015625,-0.675567626953125,-0.7299041748046875,-0.0016326904296875
1782984779043432700,2.0774326171875,-0.6810760498046875,-0.7295379638671875,-0.0111846923828125
1782984779053506800,2.0875068359375,-0.679412841796875,-0.7312164306640625,-0.01806640625
1782984779063580700,2.09758056640625,-0.68206787109375,-0.73675537109375,-0.0162353515625
1782984779073655800,2.10765576171875,-0.692352294921875,-0.7376251220703125,-0.012542724609375
1782984779083729700,2.117729736328125,-0.701507568359375,-0.7346954345703125,-0.0136566162109375
1782984779093804800,2.1278046875,-0.706512451171875,-0.731048583984375,-0.0142974853515625
1782984779103878700,2.137878662109375,-0.7046051025390625,-0.7316741943359375,-0.0084228515625
1782984779113952500,2.147952392578125,-0.6949005126953125,-0.7316436767578125,-0.006744384765625
1782984779124027600,2.158027587890625,-0.6878814697265625,-0.7326202392578125,-0.0033721923828125
1782984779134101500,2.1681015625,-0.678741455078125,-0.7335052490234375,-0.006866455078125
1782984779144176600,2.1781767578125,-0.6727447509765625,-0.734771728515625,-0.0066986083984375
1782984779154250800,2.188250732421875,-0.6728515625,-0.735992431640625,-0.0025177001953125
1782984779164324900,2.198324951171875,-0.671600341796875,-0.733154296875,0.0028228759765625
1782984779174399700,2.208399658203125,-0.67535400390625,-0.7323455810546875,0.00616455078125
1782984779184473900,2.218473876953125,-0.685882568359375,-0.7322845458984375,0.0069580078125
1782984779194548700,2.228548828125,-0.690582275390625,-0.7318878173828125,0.0113067626953125
1782984779204622800,2.238622802734375,-0.692413330078125,-0.728424072265625,0.0124664306640625
1782984779214696700,2.24869677734375,-0.6885833740234375,-0.7253265380859375,0.011260986328125
1782984779224771800,2.258771728515625,-0.683868408203125,-0.725982666015625,0.00616455078125
1782984779234845700,2.268845703125,-0.6781158447265625,-0.7272796630859375,0.0004425048828125
1782984779244920800,2.2789208984375,-0.6693572998046875,-0.726654052734375,0.0001373291015625
1782984779254994700,2.28899462890625,-0.66326904296875,-0.72503662109375,0.0087127685546875
1782984779265068800,2.29906884765625,-0.6623077392578125,-0.7252960205078125,0.01654052734375
1782984779275144000,2.30914404296875,-0.6651153564453125,-0.7220611572265625,0.02069091796875
1782984779285217800,2.3192177734375,-0.6672515869140625,-0.7228240966796875,0.0236968994140625
1782984779295293000,2.32929296875,-0.67169189453125,-0.719757080078125,0.0202178955078125
1782984779305366800,2.33936669921875,-0.6804962158203125,-0.7185211181640625,0.013336181640625
1782984779315440600,2.349440673828125,-0.681976318359375,-0.7188568115234375,0.001739501953125
1782984779325515800,2.359515869140625,-0.67962646484375,-0.721893310546875,-0.0037841796875
1782984779335589600,2.369589599609375,-0.6784820556640625,-0.725372314453125,-0.0066680908203125
1782984779345664800,2.379664794921875,-0.673736572265625,-0.72344970703125,-0.00567626953125
1782984779355738600,2.389738525390625,-0.6677093505859375,-0.7255096435546875,-0.0049896240234375
1782984779365812700,2.399812744140625,-0.6667938232421875,-0.729766845703125,-0.003662109375
1782984779375887600,2.4098876953125,-0.6680908203125,-0.73291015625,-0.0019378662109375
1782984779385961700,2.419961669921875,-0.6673126220703125,-0.7317047119140625,-0.002410888671875
1782984779396036900,2.430036865234375,-0.6708526611328125,-0.733978271484375,0.0029144287109375
1782984779406110700,2.44011083984375,-0.6721038818359375,-0.734100341796875,0.001678466796875
1782984779416184600,2.4501845703125,-0.6718902587890625,-0.73565673828125,0.000457763671875
1782984779426259700,2.460259765625,-0.6684417724609375,-0.7338714599609375,0.002960205078125
1782984779436333600,2.47033349609375,-0.664886474609375,-0.732666015625,0.0023040771484375
1782984779446408700,2.48040869140625,-0.6631011962890625,-0.7335205078125,-0.0005645751953125
1782984779456482600,2.490482666015625,-0.6622314453125,-0.7331695556640625,0.001617431640625
1782984779466556700,2.500556640625,-0.66278076171875,-0.7316131591796875,0.00677490234375
1782984779476631600,2.510631591796875,-0.6666717529296875,-0.7324371337890625,0.0036468505859375
1782984779486705700,2.52070556640625,-0.6744537353515625,-0.7309417724609375,0.007354736328125
1782984779496780500,2.530780517578125,-0.6791229248046875,-0.7323455810546875,0.008056640625
1782984779506854700,2.540854736328125,-0.6819000244140625,-0.7309722900390625,0.00439453125
1782984779516928800,2.5509287109375,-0.6778564453125,-0.7286529541015625,0.0019378662109375
1782984779527003600,2.561003662109375,-0.66864013671875,-0.7275390625,0.0031280517578125
1782984779537077800,2.571077880859375,-0.6623992919921875,-0.729766845703125,0.0041656494140625
1782984779547152600,2.581152587890625,-0.6612701416015625,-0.7297821044921875,0.004791259765625
1782984779557226800,2.591226806640625,-0.6601104736328125,-0.7310638427734375,0.004180908203125
1782984779567300900,2.60130078125,-0.666107177734375,-0.73321533203125,0.0031890869140625
1782984779577375700,2.611375732421875,-0.67584228515625,-0.7330322265625,0.0057525634765625
1782984779587449900,2.621449951171875,-0.6797943115234375,-0.730743408203125,0.0062255859375
1782984779597524700,2.631524658203125,-0.68121337890625,-0.7298736572265625,0.0070648193359375
1782984779607598800,2.641598876953125,-0.6760711669921875,-0.728729248046875,0.010650634765625
1782984779617672700,2.651672607421875,-0.670623779296875,-0.729766845703125,0.00994873046875
1782984779627747800,2.661747802734375,-0.6660919189453125,-0.7333526611328125,0.00726318359375
1782984779637821700,2.67182177734375,-0.66510009765625,-0.738037109375,0.0072479248046875
1782984779647896800,2.681896728515625,-0.6678466796875,-0.73809814453125,0.0073394775390625
1782984779657970700,2.691970703125,-0.6741943359375,-0.737823486328125,0.0045623779296875
1782984779668044800,2.702044921875,-0.67864990234375,-0.73614501953125,0.0002288818359375
1782984779678119700,2.71211962890625,-0.679107666015625,-0.7382659912109375,0.0012359619140625
1782984779688193800,2.72219384765625,-0.6823577880859375,-0.7361602783203125,-0.0000152587890625
1782984779698268700,2.7322685546875,-0.6815338134765625,-0.73651123046875,-0.0017547607421875
1782984779708342800,2.7423427734375,-0.6803741455078125,-0.73583984375,-0.000762939453125
1782984779718416600,2.752416748046875,-0.673980712890625,-0.7366943359375,0.0005950927734375
1782984779728491800,2.76249169921875,-0.6673126220703125,-0.737945556640625,0.001129150390625
1782984779738565600,2.772565673828125,-0.6620025634765625,-0.7379913330078125,0.004730224609375
1782984779748640800,2.782640869140625,-0.6585235595703125,-0.7374420166015625,0.0050048828125
1782984779758714600,2.792714599609375,-0.6596832275390625,-0.737091064453125,0.0081939697265625
1782984779768788700,2.802788818359375,-0.66290283203125,-0.7375946044921875,0.0104827880859375
1782984779778863600,2.812863525390625,-0.6694793701171875,-0.734619140625,0.0098724365234375
1782984779788937700,2.822937744140625,-0.6779022216796875,-0.7319793701171875,0.0052032470703125
1782984779799012600,2.8330126953125,-0.6778564453125,-0.7321929931640625,0.00274658203125
1782984779809086700,2.843086669921875,-0.6717071533203125,-0.733001708984375,0.002288818359375
1782984779819160600,2.85316064453125,-0.670074462890625,-0.7333831787109375,0.00177001953125
1782984779829235700,2.863235595703125,-0.6683502197265625,-0.7321929931640625,0.00439453125
1782984779839309600,2.8733095703125,-0.665985107421875,-0.7282257080078125,0.0077667236328125
1782984779849384700,2.883384765625,-0.671905517578125,-0.7284393310546875,0.0090484619140625
1782984779859458600,2.89345849609375,-0.6836700439453125,-0.7296600341796875,0.00482177734375
1782984779869533700,2.90353369140625,-0.6894683837890625,-0.728668212890625,0.000244140625
1782984779879607600,2.913607666015625,-0.689361572265625,-0.72845458984375,0.0027923583984375
1782984779889681400,2.923681396484375,-0.684906005859375,-0.72857666015625,0.011474609375
1782984779899756500,2.933756591796875,-0.67803955078125,-0.731719970703125,0.0225982666015625
1782984779909830400,2.943830322265625,-0.6741943359375,-0.7333526611328125,0.0279998779296875
1782984779919904300,2.953904296875,-0.673858642578125,-0.73388671875,0.03167724609375
1782984779929979400,2.9639794921875,-0.6748504638671875,-0.7332000732421875,0.0344085693359375
1782984779940053200,2.97405322265625,-0.6779022216796875,-0.726837158203125,0.0310516357421875
1782984779950128400,2.98412841796875,-0.6816253662109375,-0.7218017578125,0.01971435546875
1782984779960202200,2.9942021484375,-0.682647705078125,-0.7205047607421875,0.0088348388671875
1782984779970276400,3.0042763671875,-0.681884765625,-0.7212371826171875,0.0032501220703125
1782984779980351500,3.0143515625,-0.6801910400390625,-0.7244110107421875,0.0027313232421875
1782984779990425300,3.02442529296875,-0.6820068359375,-0.7255859375,0.00030517578125
1782984780000500500,3.03450048828125,-0.685272216796875,-0.7257843017578125,-0.002166748046875
1782984780010574300,3.04457421875,-0.6824951171875,-0.7303466796875,-0.0009002685546875
1782984780020649500,3.0546494140625,-0.68304443359375,-0.73602294921875,0.006439208984375
1782984780030723300,3.064723388671875,-0.682861328125,-0.7318878173828125,0.01202392578125
1782984780040797200,3.074797119140625,-0.6845245361328125,-0.726470947265625,0.0091400146484375
1782984780050872300,3.084872314453125,-0.6845245361328125,-0.7276763916015625,0.007904052734375
1782984780060946200,3.0949462890625,-0.683868408203125,-0.7305450439453125,0.0022125244140625
1782984780071021300,3.105021240234375,-0.6829986572265625,-0.72918701171875,-0.003570556640625
1782984780081095200,3.11509521484375,-0.682891845703125,-0.727325439453125,-0.0034637451171875
1782984780091169300,3.125169189453125,-0.68194580078125,-0.72308349609375,-0.0002593994140625
1782984780101244200,3.135244140625,-0.6803131103515625,-0.7199859619140625,0.000335693359375
1782984780111318300,3.145318359375,-0.681427001953125,-0.719635009765625,0.002105712890625
1782984780121393400,3.155393310546875,-0.6825408935546875,-0.7237091064453125,0.00299072265625
1782984780131467300,3.16546728515625,-0.6849822998046875,-0.7236785888671875,0.000732421875
1782984780141541000,3.175541015625,-0.6879119873046875,-0.7198944091796875,0.0030059814453125
1782984780151616300,3.1856162109375,-0.692535400390625,-0.7176666259765625,0.0037384033203125
1782984780161690000,3.195690185546875,-0.690643310546875,-0.715087890625,0.002685546875
1782984780171765200,3.20576513671875,-0.6890716552734375,-0.7144012451171875,-0.001495361328125
1782984780181839000,3.215839111328125,-0.6800689697265625,-0.71807861328125,-0.0025177001953125
1782984780191913500,3.22591357421875,-0.67620849609375,-0.719207763671875,0.001190185546875
1782984780201988000,3.235988037109375,-0.67645263671875,-0.7190704345703125,0.000457763671875
1782984780212062500,3.2460625,-0.6778564453125,-0.7190704345703125,-0.002349853515625
1782984780222137000,3.25613720703125,-0.6809539794921875,-0.719696044921875,-0.003662109375
1782984780232211500,3.26621142578125,-0.68524169921875,-0.7210845947265625,-0.0023193359375
1782984780242285300,3.276285400390625,-0.69244384765625,-0.7201385498046875,-0.0023956298828125
1782984780252360400,3.2863603515625,-0.6984710693359375,-0.719146728515625,-0.0039825439453125
1782984780262434300,3.296434326171875,-0.702484130859375,-0.7181854248046875,-0.0044708251953125
1782984780272509400,3.306509521484375,-0.699554443359375,-0.7189178466796875,-0.006011962890625
1782984780282583300,3.316583251953125,-0.695770263671875,-0.7183380126953125,-0.0042877197265625
1782984780292657400,3.326657470703125,-0.6893463134765625,-0.717620849609375,-0.001708984375
1782984780302732300,3.336732177734375,-0.6813201904296875,-0.7191619873046875,-0.0052490234375
1782984780312806400,3.346806396484375,-0.6756591796875,-0.7218170166015625,-0.0081787109375
1782984780322881300,3.35688134765625,-0.678741455078125,-0.7253875732421875,-0.006378173828125
1782984780332955400,3.366955322265625,-0.6846771240234375,-0.721832275390625,-0.006378173828125
1782984780343029200,3.377029296875,-0.690887451171875,-0.720184326171875,-0.0089263916015625
1782984780353104400,3.3871044921875,-0.6980743408203125,-0.7197113037109375,-0.0092315673828125
1782984780363178200,3.39717822265625,-0.702545166015625,-0.7210540771484375,-0.007965087890625
1782984780373253400,3.40725341796875,-0.699371337890625,-0.72198486328125,-0.0068359375
1782984780383327200,3.4173271484375,-0.6931304931640625,-0.7205963134765625,-0.0034942626953125
1782984780393401300,3.4274013671875,-0.68621826171875,-0.7203216552734375,-0.0003662109375
1782984780403476200,3.437476318359375,-0.6839141845703125,-0.7211761474609375,-0.0012359619140625
1782984780413550300,3.44755029296875,-0.684356689453125,-0.7202606201171875,-0.006072998046875
1782984780423625200,3.457625244140625,-0.683380126953125,-0.7203216552734375,-0.007965087890625
1782984780433699300,3.46769921875,-0.6784515380859375,-0.7178955078125,-0.001922607421875
1782984780443773200,3.477773193359375,-0.675994873046875,-0.716278076171875,0.00006103515625
1782984780453848300,3.487848388671875,-0.6791534423828125,-0.719024658203125,-0.0030670166015625
1782984780463922200,3.497922119140625,-0.6823577880859375,-0.7222442626953125,-0.004302978515625
1782984780473997300,3.507997314453125,-0.6807403564453125,-0.719573974609375,-0.00146484375
1782984780484071200,3.5180712890625,-0.67999267578125,-0.7158660888671875,-0.00128173828125
1782984780494145300,3.528145263671875,-0.681121826171875,-0.7125701904296875,-0.0016937255859375
1782984780504220200,3.53822021484375,-0.682830810546875,-0.715911865234375,-0.0085296630859375
1782984780514294300,3.548294189453125,-0.6742706298828125,-0.717803955078125,-0.011627197265625
1782984780524369200,3.558369140625,-0.6700286865234375,-0.7210235595703125,-0.005584716796875
1782984780534443300,3.568443359375,-0.68450927734375,-0.71966552734375,0.00018310546875
1782984780544517400,3.578517333984375,-0.6921844482421875,-0.7216796875,-0.00079345703125
1782984780554592300,3.58859228515625,-0.69403076171875,-0.717498779296875,0.001922607421875
1782984780564666400,3.598666259765625,-0.6992645263671875,-0.7147064208984375,0.0093841552734375
1782984780574741200,3.6087412109375,-0.7039337158203125,-0.7143402099609375,0.009124755859375
1782984780584815400,3.6188154296875,-0.7047882080078125,-0.709564208984375,0.001556396484375
1782984780594889500,3.628889404296875,-0.70294189453125,-0.7063751220703125,0.0026092529296875
1782984780604964400,3.63896435546875,-0.7040252685546875,-0.7134857177734375,-0.0034027099609375
1782984780615038500,3.64903857421875,-0.7062225341796875,-0.7192840576171875,-0.0188446044921875
1782984780625113300,3.65911328125,-0.7074432373046875,-0.7162628173828125,-0.0196075439453125
1782984780635187500,3.6691875,-0.7064056396484375,-0.7053070068359375,-0.00689697265625
1782984780645261300,3.67926123046875,-0.7048187255859375,-0.7310028076171875,-0.0172576904296875
1782984780655336400,3.68933642578125,-0.700408935546875,-0.721710205078125,-0.014556884765625
1782984780665410300,3.699410400390625,-0.696014404296875,-0.718231201171875,-0.0140838623046875
1782984780675485400,3.7094853515625,-0.688201904296875,-0.7233428955078125,-0.01580810546875
1782984780685559300,3.719559326171875,-0.6838531494140625,-0.7135009765625,-0.00811767578125
1782984780695633400,3.72963330078125,-0.684722900390625,-0.719512939453125,-0.014190673828125
1782984780705708300,3.739708251953125,-0.685577392578125,-0.711273193359375,-0.0134735107421875
1782984780715782400,3.749782470703125,-0.6878204345703125,-0.7199859619140625,-0.0238800048828125
1782984780725857300,3.759857177734375,-0.6893310546875,-0.7188262939453125,-0.0272369384765625
1782984780735931400,3.769931396484375,-0.6883087158203125,-0.7135009765625,-0.0247955322265625
1782984780746005200,3.780005126953125,-0.6841888427734375,-0.714691162109375,-0.02337646484375
1782984780756080400,3.790080322265625,-0.6773223876953125,-0.71380615234375,-0.0201263427734375
1782984780766154200,3.800154296875,-0.675537109375,-0.71636962890625,-0.021331787109375
1782984780776229400,3.8102294921875,-0.6850738525390625,-0.7164764404296875,-0.021820068359375
1782984780786303200,3.82030322265625,-0.689910888671875,-0.7156524658203125,-0.0244598388671875
1782984780796377300,3.83037744140625,-0.6902008056640625,-0.7122344970703125,-0.0269317626953125
1782984780806452200,3.8404521484375,-0.6874847412109375,-0.7144927978515625,-0.02789306640625
1782984780816526300,3.8505263671875,-0.6810760498046875,-0.717803955078125,-0.0255889892578125
1782984780826601200,3.860601318359375,-0.6757354736328125,-0.71484375,-0.0264434814453125
1782984780836675300,3.87067529296875,-0.67535400390625,-0.7114410400390625,-0.02947998046875
1782984780846750200,3.880750244140625,-0.6721038818359375,-0.70904541015625,-0.0285186767578125
1782984780856824300,3.89082421875,-0.67236328125,-0.710845947265625,-0.0271759033203125
1782984780866898200,3.900898193359375,-0.6768035888671875,-0.7113494873046875,-0.022857666015625
1782984780876973300,3.910973388671875,-0.6901092529296875,-0.711334228515625,-0.02276611328125
1782984780887047200,3.921047119140625,-0.7084197998046875,-0.7133026123046875,-0.029937744140625
1782984780897122000,3.9311220703125,-0.72528076171875,-0.7144317626953125,-0.0330047607421875
1782984780907196200,3.941196044921875,-0.7332000732421875,-0.7143096923828125,-0.03387451171875
1782984780917270300,3.951270263671875,-0.7342071533203125,-0.71441650390625,-0.0313873291015625
1782984780927345200,3.96134521484375,-0.72784423828125,-0.7138824462890625,-0.0316162109375
1782984780937419300,3.971419189453125,-0.7210845947265625,-0.7134246826171875,-0.0350494384765625
1782984780947494100,3.981494140625,-0.7111663818359375,-0.71588134765625,-0.0367889404296875
1782984780957567200,3.991567138671875,-0.7069244384765625,-0.7130584716796875,-0.0364532470703125
1782984780967641300,4.001641357421875,-0.7029571533203125,-0.709320068359375,-0.0350341796875
1782984780977716200,4.01171630859375,-0.700714111328125,-0.7087249755859375,-0.0325164794921875
1782984780987790300,4.021790283203125,-0.6967926025390625,-0.70721435546875,-0.0307464599609375
1782984780997865200,4.031865234375,-0.6954498291015625,-0.706207275390625,-0.0286712646484375
1782984781007939300,4.041939208984375,-0.697265625,-0.7068634033203125,-0.0270233154296875
1782984781018013200,4.05201318359375,-0.6993560791015625,-0.7081756591796875,-0.024749755859375
1782984781028088300,4.06208837890625,-0.706939697265625,-0.7057037353515625,-0.021881103515625
1782984781038162200,4.072162109375,-0.706573486328125,-0.7053375244140625,-0.0179290771484375
1782984781048237300,4.0822373046875,-0.703460693359375,-0.703582763671875,-0.014923095703125
1782984781058311200,4.092311279296875,-0.697113037109375,-0.7022705078125,-0.0129547119140625
1782984781068385300,4.10238525390625,-0.69384765625,-0.701751708984375,-0.0095977783203125
1782984781078460200,4.112460205078125,-0.68701171875,-0.701141357421875,-0.0100860595703125
1782984781088534300,4.1225341796875,-0.678070068359375,-0.704132080078125,-0.009613037109375
1782984781098609200,4.132609130859375,-0.6780853271484375,-0.70556640625,-0.007110595703125
1782984781108683300,4.142683349609375,-0.678466796875,-0.7032470703125,-0.0041656494140625
1782984781118758100,4.152758056640625,-0.6799468994140625,-0.7033233642578125,-0.0022125244140625
1782984781128832300,4.162832275390625,-0.68609619140625,-0.7075958251953125,-0.0012664794921875
1782984781138906400,4.17290625,-0.69580078125,-0.7120819091796875,-0.0074005126953125
1782984781148981200,4.182981201171875,-0.697906494140625,-0.71148681640625,-0.016876220703125
1782984781159055400,4.193055419921875,-0.7007598876953125,-0.710693359375,-0.019775390625
1782984781169130200,4.203130126953125,-0.7015533447265625,-0.7114715576171875,-0.01654052734375
1782984781179204400,4.213204345703125,-0.7011566162109375,-0.713470458984375,-0.0080413818359375
1782984781189278500,4.223278564453125,-0.701904296875,-0.71343994140625,0.000030517578125
1782984781199353300,4.233353271484375,-0.7002716064453125,-0.7143707275390625,0.00531005859375
1782984781209427500,4.243427490234375,-0.69970703125,-0.7126922607421875,0.0078125
1782984781219502300,4.25350244140625,-0.700347900390625,-0.710052490234375,0.00335693359375
1782984781229576400,4.263576416015625,-0.6991424560546875,-0.71221923828125,-0.009521484375
1782984781239650300,4.273650390625,-0.7015533447265625,-0.714019775390625,-0.02069091796875
1782984781249725400,4.283725341796875,-0.697998046875,-0.7154083251953125,-0.028533935546875
1782984781259799300,4.29379931640625,-0.6932373046875,-0.7137451171875,-0.031646728515625
1782984781269874400,4.30387451171875,-0.691802978515625,-0.7136993408203125,-0.0311431884765625
1782984781279948300,4.3139482421875,-0.6961822509765625,-0.7162017822265625,-0.02410888671875
1782984781290022100,4.324022216796875,-0.6998291015625,-0.712310791015625,-0.02008056640625
1782984781300097300,4.33409716796875,-0.70330810546875,-0.7143707275390625,-0.02191162109375
1782984781310171100,4.344171142578125,-0.701812744140625,-0.7194976806640625,-0.0246429443359375
1782984781320246300,4.354246337890625,-0.701171875,-0.7224578857421875,-0.0233612060546875
1782984781330320400,4.3643203125,-0.7016143798828125,-0.7178497314453125,-0.0184326171875
1782984781340394200,4.374394287109375,-0.70367431640625,-0.7109832763671875,-0.0136260986328125
1782984781350469400,4.384469482421875,-0.702423095703125,-0.712005615234375,-0.0147705078125
1782984781360543200,4.394543212890625,-0.6981048583984375,-0.7094573974609375,-0.016510009765625
1782984781370618400,4.404618408203125,-0.7001190185546875,-0.707489013671875,-0.0159759521484375
1782984781380692200,4.414692138671875,-0.7015533447265625,-0.7099609375,-0.0148773193359375
1782984781390766000,4.42476611328125,-0.7025299072265625,-0.710479736328125,-0.0158538818359375
1782984781400841200,4.43484130859375,-0.7009124755859375,-0.71044921875,-0.01495361328125
1782984781410915000,4.4449150390625,-0.697906494140625,-0.704559326171875,-0.0083465576171875
1782984781420990200,4.454990234375,-0.6975555419921875,-0.7017669677734375,-0.0070037841796875
1782984781431064000,4.46506396484375,-0.6972808837890625,-0.7026519775390625,-0.00909423828125
1782984781441138200,4.47513818359375,-0.7012939453125,-0.70184326171875,-0.0122833251953125
1782984781451213300,4.48521337890625,-0.702056884765625,-0.7019805908203125,-0.0174560546875
1782984781461287200,4.495287109375,-0.694793701171875,-0.7052001953125,-0.019287109375
1782984781471362300,4.5053623046875,-0.6886749267578125,-0.7065582275390625,-0.01251220703125
1782984781481436200,4.515436279296875,-0.683685302734375,-0.706512451171875,-0.0055389404296875
1782984781491510300,4.52551025390625,-0.6767120361328125,-0.7072906494140625,-0.0072784423828125
1782984781501585200,4.535585205078125,-0.6715240478515625,-0.7103424072265625,-0.0108184814453125
1782984781511659300,4.5456591796875,-0.677093505859375,-0.712554931640625,-0.0101165771484375
1782984781521734100,4.555734130859375,-0.681610107421875,-0.710693359375,-0.0132598876953125
1782984781531808300,4.565808349609375,-0.6827239990234375,-0.71282958984375,-0.0146636962890625
1782984781541882400,4.57588232421875,-0.6820526123046875,-0.7143096923828125,-0.013885498046875
1782984781551957200,4.585957275390625,-0.6833038330078125,-0.7161407470703125,-0.01702880859375
1782984781562031400,4.59603125,-0.6865234375,-0.716583251953125,-0.0189056396484375
1782984781572106200,4.606106201171875,-0.6908721923828125,-0.7223968505859375,-0.021087646484375
1782984781582180400,4.616180419921875,-0.6945648193359375,-0.7243194580078125,-0.0237579345703125
1782984781592254200,4.626254150390625,-0.693450927734375,-0.7238006591796875,-0.024993896484375
1782984781602329300,4.636329345703125,-0.689239501953125,-0.722869873046875,-0.025634765625
1782984781612403200,4.6464033203125,-0.682403564453125,-0.7241363525390625,-0.0265960693359375
1782984781622478300,4.656478271484375,-0.6756591796875,-0.724273681640625,-0.026275634765625
1782984781632552200,4.66655224609375,-0.6737213134765625,-0.7242889404296875,-0.025665283203125
1782984781642627300,4.67662744140625,-0.680328369140625,-0.7234954833984375,-0.028594970703125
1782984781652701200,4.686701171875,-0.6875762939453125,-0.725128173828125,-0.0281829833984375
1782984781662775300,4.696775390625,-0.694580078125,-0.72125244140625,-0.0235595703125
1782984781672850200,4.70685009765625,-0.70233154296875,-0.7206268310546875,-0.0245208740234375
1782984781682924300,4.71692431640625,-0.70794677734375,-0.72247314453125,-0.0315704345703125
1782984781692999400,4.72699951171875,-0.70849609375,-0.722259521484375,-0.036376953125
1782984781703073300,4.7370732421875,-0.7022857666015625,-0.7193603515625,-0.035003662109375
1782984781713147100,4.747147216796875,-0.6882781982421875,-0.7162933349609375,-0.0282135009765625
1782984781723222300,4.75722216796875,-0.674957275390625,-0.715667724609375,-0.02276611328125
1782984781733296000,4.767296142578125,-0.6685333251953125,-0.720123291015625,-0.0269622802734375
1782984781743371300,4.777371337890625,-0.6703643798828125,-0.721710205078125,-0.025970458984375
1782984781753445000,4.787445068359375,-0.6787109375,-0.7222137451171875,-0.02423095703125
1782984781763519200,4.797519287109375,-0.688720703125,-0.7224884033203125,-0.0265350341796875
1782984781773594000,4.807593994140625,-0.697021484375,-0.718231201171875,-0.02618408203125
1782984781783668200,4.817668212890625,-0.699981689453125,-0.7152862548828125,-0.0240325927734375
1782984781793743000,4.8277431640625,-0.696746826171875,-0.71392822265625,-0.02606201171875
1782984781803817200,4.837817138671875,-0.688262939453125,-0.71612548828125,-0.030029296875
1782984781813891000,4.84789111328125,-0.6799468994140625,-0.7184906005859375,-0.0280303955078125
1782984781823966200,4.85796630859375,-0.677001953125,-0.7203826904296875,-0.01776123046875
1782984781834040000,4.8680400390625,-0.677825927734375,-0.723052978515625,-0.0091094970703125
1782984781844115200,4.878115234375,-0.6837005615234375,-0.72039794921875,-0.0042724609375
1782984781854189000,4.88818896484375,-0.68463134765625,-0.713592529296875,-0.0035858154296875
1782984781864263400,4.898263427734375,-0.6858367919921875,-0.7127532958984375,-0.006072998046875
1782984781874338000,4.908338134765625,-0.690826416015625,-0.7140350341796875,-0.0135955810546875
1782984781884412400,4.918412353515625,-0.697723388671875,-0.7117462158203125,-0.0217437744140625
1782984781894487000,4.928487060546875,-0.6934814453125,-0.7122039794921875,-0.0306854248046875
1782984781904561400,4.9385615234375,-0.6863250732421875,-0.71673583984375,-0.0334625244140625
1782984781914635300,4.94863525390625,-0.6861572265625,-0.7211456298828125,-0.02978515625
1782984781924710400,4.95871044921875,-0.6842193603515625,-0.7213897705078125,-0.0322113037109375
1782984781934784300,4.9687841796875,-0.6839599609375,-0.725982666015625,-0.0265960693359375
1782984781944859400,4.978859375,-0.685699462890625,-0.7254180908203125,-0.0180816650390625
1782984781954933200,4.988933349609375,-0.6896514892578125,-0.72589111328125,-0.0152130126953125
1782984781965008400,4.99900830078125,-0.6960601806640625,-0.725494384765625,-0.0130615234375
1782984781975082200,5.009082275390625,-0.700439453125,-0.7241058349609375,-0.0138092041015625
1782984781985156400,5.01915625,-0.7020263671875,-0.720428466796875,-0.0095977783203125
1782984781995231200,5.029231201171875,-0.6981201171875,-0.715789794921875,-0.0089874267578125
1782984782005305300,5.039305419921875,-0.690399169921875,-0.717041015625,-0.01422119140625
1782984782015380200,5.049380126953125,-0.685028076171875,-0.7145843505859375,-0.016815185546875
1782984782025454300,5.059454345703125,-0.6831817626953125,-0.7148590087890625,-0.015899658203125
1782984782035528200,5.069528076171875,-0.6821746826171875,-0.712371826171875,-0.01544189453125
1782984782045603300,5.079603271484375,-0.6836090087890625,-0.70880126953125,-0.0142974853515625
1782984782055677200,5.08967724609375,-0.684173583984375,-0.7054290771484375,-0.0145416259765625
1782984782065752300,5.09975244140625,-0.68548583984375,-0.7057342529296875,-0.0125885009765625
1782984782075826200,5.109826171875,-0.682647705078125,-0.70635986328125,-0.0119781494140625
1782984782085900300,5.119900390625,-0.67950439453125,-0.70599365234375,-0.012664794921875
1782984782095975200,5.12997509765625,-0.6750030517578125,-0.70758056640625,-0.009613037109375
1782984782106049300,5.14004931640625,-0.675201416015625,-0.7114105224609375,-0.0047607421875
1782984782116124200,5.150124267578125,-0.68304443359375,-0.7178497314453125,-0.0053863525390625
1782984782126198300,5.1601982421875,-0.6880035400390625,-0.7248687744140625,-0.0096435546875
1782984782136272100,5.170272216796875,-0.6955413818359375,-0.7299041748046875,-0.006866455078125
1782984782146347300,5.18034716796875,-0.6970672607421875,-0.730194091796875,-0.00543212890625
1782984782156421000,5.190421142578125,-0.693695068359375,-0.733367919921875,-0.006011962890625
1782984782166496300,5.200496337890625,-0.693511962890625,-0.7351531982421875,-0.0041656494140625
1782984782176570000,5.210570068359375,-0.693145751953125,-0.7347564697265625,-0.0045166015625
1782984782186644200,5.220644287109375,-0.6920166015625,-0.7347564697265625,-0.0063934326171875
1782984782196719000,5.230718994140625,-0.68975830078125,-0.7338104248046875,-0.008941650390625
1782984782206793200,5.240793212890625,-0.6901397705078125,-0.734405517578125,-0.0098419189453125
1782984782216868000,5.2508681640625,-0.6902313232421875,-0.734039306640625,-0.013214111328125
1782984782226942200,5.260942138671875,-0.691650390625,-0.730316162109375,-0.0119781494140625
1782984782237016300,5.271016357421875,-0.690521240234375,-0.7274627685546875,-0.0117034912109375
1782984782247091200,5.28109130859375,-0.6912384033203125,-0.72747802734375,-0.0166015625
1782984782257165300,5.291165283203125,-0.6945953369140625,-0.7248992919921875,-0.022216796875
1782984782267240200,5.301240234375,-0.6933135986328125,-0.720367431640625,-0.0239715576171875
1782984782277314300,5.311314208984375,-0.6903533935546875,-0.719512939453125,-0.027618408203125
1782984782287389200,5.32138916015625,-0.6912078857421875,-0.72064208984375,-0.032562255859375
1782984782297463300,5.33146337890625,-0.6924285888671875,-0.7149810791015625,-0.0303802490234375
1782984782307537400,5.341537353515625,-0.6897735595703125,-0.7132110595703125,-0.0312652587890625
1782984782317612300,5.3516123046875,-0.68701171875,-0.7151947021484375,-0.0333099365234375
1782984782327686400,5.361686279296875,-0.68328857421875,-0.71417236328125,-0.035064697265625
1782984782337761300,5.37176123046875,-0.683807373046875,-0.7094573974609375,-0.0347442626953125
1782984782347835400,5.38183544921875,-0.6807403564453125,-0.70684814453125,-0.0351409912109375
1782984782357909200,5.3919091796875,-0.676361083984375,-0.70941162109375,-0.0321502685546875
1782984782367984400,5.401984375,-0.6765289306640625,-0.710418701171875,-0.0248870849609375
1782984782378058200,5.412058349609375,-0.674041748046875,-0.7099151611328125,-0.0277862548828125
1782984782388133400,5.42213330078125,-0.6702728271484375,-0.7079010009765625,-0.0296630859375
1782984782398207200,5.432207275390625,-0.671661376953125,-0.705047607421875,-0.0257720947265625
1782984782408281000,5.442281005859375,-0.677398681640625,-0.707550048828125,-0.022796630859375
1782984782418356200,5.452356201171875,-0.6841278076171875,-0.7100372314453125,-0.0254364013671875
1782984782428430300,5.462430419921875,-0.6873779296875,-0.706268310546875,-0.0272979736328125
1782984782438505200,5.472505126953125,-0.685333251953125,-0.7053070068359375,-0.0312957763671875
1782984782448579300,5.482579345703125,-0.6851654052734375,-0.71282958984375,-0.0295867919921875
1782984782458653200,5.492653076171875,-0.6842193603515625,-0.7159423828125,-0.0233001708984375
1782984782468728300,5.502728271484375,-0.6846466064453125,-0.7144012451171875,-0.010894775390625
1782984782478802200,5.51280224609375,-0.6805419921875,-0.7109222412109375,-0.00079345703125
1782984782488877300,5.522877197265625,-0.677764892578125,-0.7122802734375,0.0010833740234375
1782984782498951200,5.532951171875,-0.67791748046875,-0.710845947265625,0.001953125
1782984782509025000,5.54302490234375,-0.6801300048828125,-0.7062835693359375,-0.0000762939453125
1782984782519100200,5.55310009765625,-0.680999755859375,-0.70733642578125,-0.013702392578125
1782984782529174000,5.563174072265625,-0.6842498779296875,-0.710174560546875,-0.024017333984375
1782984782539249200,5.573249267578125,-0.6878662109375,-0.7149200439453125,-0.0306396484375
1782984782549323300,5.5833232421875,-0.6888885498046875,-0.716552734375,-0.02880859375
1782984782559397000,5.593397216796875,-0.6916656494140625,-0.716796875,-0.0281829833984375
1782984782569472300,5.60347216796875,-0.694183349609375,-0.7209625244140625,-0.027801513671875
1782984782579546000,5.613546142578125,-0.69976806640625,-0.7255096435546875,-0.0237884521484375
1782984782589621200,5.623621337890625,-0.7035064697265625,-0.71917724609375,-0.018707275390625
1782984782599695000,5.633695068359375,-0.693634033203125,-0.7190093994140625,-0.0261383056640625
1782984782609770200,5.643770263671875,-0.684539794921875,-0.72393798828125,-0.02459716796875
1782984782619844000,5.653843994140625,-0.685394287109375,-0.723480224609375,-0.0194091796875
1782984782629918200,5.663918212890625,-0.6890869140625,-0.7154998779296875,-0.01885986328125
1782984782639993000,5.6739931640625,-0.6881561279296875,-0.70831298828125,-0.0216522216796875
1782984782650067200,5.684067138671875,-0.6858978271484375,-0.705841064453125,-0.0207672119140625
1782984782660142000,5.69414208984375,-0.6781005859375,-0.7096710205078125,-0.0157623291015625
1782984782670216400,5.704216552734375,-0.67803955078125,-0.713775634765625,-0.0148468017578125
1782984782680290300,5.714290283203125,-0.6844635009765625,-0.7098236083984375,-0.0144500732421875
1782984782690365400,5.724365478515625,-0.6865234375,-0.710235595703125,-0.015045166015625
1782984782700439300,5.734439208984375,-0.684539794921875,-0.71539306640625,-0.0132293701171875
1782984782710514400,5.744514404296875,-0.6890106201171875,-0.7203521728515625,-0.008209228515625
1782984782720588300,5.75458837890625,-0.6977081298828125,-0.7158050537109375,-0.011322021484375
1782984782730662100,5.764662109375,-0.701080322265625,-0.712127685546875,-0.011505126953125
1782984782740737300,5.7747373046875,-0.7065887451171875,-0.71466064453125,-0.0107421875
1782984782750811100,5.78481103515625,-0.703582763671875,-0.7185211181640625,-0.0194549560546875
1782984782760886300,5.79488623046875,-0.6922454833984375,-0.71710205078125,-0.0227813720703125
1782984782770960100,5.804960205078125,-0.6842041015625,-0.716583251953125,-0.0175323486328125
1782984782781034200,5.8150341796875,-0.6790924072265625,-0.7161712646484375,-0.013916015625
1782984782791109400,5.825109375,-0.6777496337890625,-0.716278076171875,-0.013702392578125
1782984782801183200,5.835183349609375,-0.6803741455078125,-0.7185821533203125,-0.01422119140625
1782984782811258400,5.84525830078125,-0.6875762939453125,-0.7202301025390625,-0.01495361328125
1782984782821332200,5.855332275390625,-0.6990814208984375,-0.7225799560546875,-0.0162811279296875
1782984782831406000,5.865406005859375,-0.7078399658203125,-0.724945068359375,-0.020111083984375
1782984782841481200,5.875481201171875,-0.7138824462890625,-0.7243499755859375,-0.0221405029296875
1782984782851555000,5.88555517578125,-0.7132720947265625,-0.722076416015625,-0.0228118896484375
1782984782861630200,5.895630126953125,-0.707061767578125,-0.720916748046875,-0.0207061767578125
1782984782871704000,5.9057041015625,-0.7001190185546875,-0.7223663330078125,-0.020263671875
1782984782881779200,5.915779296875,-0.6949310302734375,-0.72186279296875,-0.0174713134765625
1782984782891853600,5.925853515625,-0.696197509765625,-0.7186126708984375,-0.01513671875
1782984782901927400,5.935927490234375,-0.6998443603515625,-0.7193756103515625,-0.0167083740234375
1782984782912002600,5.94600244140625,-0.7078704833984375,-0.7236785888671875,-0.0227508544921875
1782984782922076400,5.956076416015625,-0.709625244140625,-0.722015380859375,-0.020721435546875
1782984782932151600,5.966151611328125,-0.7075958251953125,-0.7143707275390625,-0.013458251953125
1782984782942225700,5.9762255859375,-0.70928955078125,-0.710174560546875,-0.015350341796875
1782984782952299500,5.986299560546875,-0.707977294921875,-0.7071380615234375,-0.0204315185546875
1782984782962374700,5.996374755859375,-0.7015228271484375,-0.7054443359375,-0.0171051025390625
1782984782972448500,6.006448486328125,-0.697052001953125,-0.7018280029296875,-0.0133209228515625
1782984782982523600,6.016523681640625,-0.696014404296875,-0.6999664306640625,-0.0133056640625
1782984782992597500,6.026597412109375,-0.69830322265625,-0.70269775390625,-0.0189208984375
1782984783002671400,6.03667138671875,-0.70196533203125,-0.7063751220703125,-0.0236968994140625
1782984783012746500,6.04674658203125,-0.7040557861328125,-0.7057952880859375,-0.02410888671875
1782984783022820400,6.0568203125,-0.7050628662109375,-0.7025146484375,-0.024932861328125
1782984783032895500,6.0668955078125,-0.7019805908203125,-0.70263671875,-0.0250244140625
1782984783042969300,6.07696923828125,-0.6997833251953125,-0.70123291015625,-0.022186279296875
1782984783053043700,6.087043701171875,-0.7023773193359375,-0.697662353515625,-0.0243377685546875
1782984783063118600,6.09711865234375,-0.7030029296875,-0.6960906982421875,-0.0303955078125
1782984783073192700,6.107192626953125,-0.70037841796875,-0.6979217529296875,-0.0403900146484375
1782984783083267600,6.117267578125,-0.7009735107421875,-0.6978607177734375,-0.037628173828125
1782984783093341700,6.127341796875,-0.700439453125,-0.700439453125,-0.02899169921875
1782984783103415600,6.13741552734375,-0.6995086669921875,-0.706573486328125,-0.01812744140625
1782984783113490700,6.14749072265625,-0.7029571533203125,-0.708984375,-0.01226806640625
1782984783123564500,6.157564453125,-0.7033538818359375,-0.7067718505859375,-0.0090179443359375
1782984783133639700,6.1676396484375,-0.6993865966796875,-0.7045745849609375,-0.0101470947265625
1782984783143713500,6.177713623046875,-0.6946563720703125,-0.70550537109375,-0.0164794921875
1782984783153788700,6.18778857421875,-0.6969146728515625,-0.704925537109375,-0.026153564453125
1782984783163862500,6.197862548828125,-0.70245361328125,-0.70751953125,-0.03424072265625
1782984783173936600,6.2079365234375,-0.7033843994140625,-0.7094573974609375,-0.0330810546875
1782984783184011800,6.21801171875,-0.7066802978515625,-0.71490478515625,-0.028228759765625
1782984783194085600,6.228085693359375,-0.7082061767578125,-0.7188873291015625,-0.0277252197265625
1782984783204160800,6.238160888671875,-0.7032928466796875,-0.7179107666015625,-0.026336669921875
1782984783214234600,6.248234619140625,-0.697479248046875,-0.7186279296875,-0.0254974365234375
1782984783224308500,6.25830859375,-0.6958770751953125,-0.7150421142578125,-0.023956298828125
1782984783234383600,6.268383544921875,-0.697784423828125,-0.7122650146484375,-0.0256195068359375
1782984783244457500,6.27845751953125,-0.7019500732421875,-0.7086639404296875,-0.02093505859375
1782984783254532600,6.28853271484375,-0.707977294921875,-0.7005462646484375,-0.0175933837890625
1782984783264606500,6.2986064453125,-0.7024078369140625,-0.6963958740234375,-0.0203399658203125
1782984783274680600,6.3086806640625,-0.6908721923828125,-0.6989288330078125,-0.021026611328125
1782984783284755500,6.31875537109375,-0.68060302734375,-0.696807861328125,-0.0134429931640625
1782984783294829600,6.32882958984375,-0.6729736328125,-0.6901702880859375,-0.015380859375
1782984783304904400,6.338904541015625,-0.666015625,-0.6877288818359375,-0.0193939208984375
1782984783314978600,6.348978515625,-0.663909912109375,-0.6900482177734375,-0.0197906494140625
1782984783325052400,6.359052490234375,-0.6669158935546875,-0.6947021484375,-0.0168914794921875
1782984783335127600,6.36912744140625,-0.6725616455078125,-0.6952667236328125,-0.0159912109375
1782984783345201400,6.379201416015625,-0.67523193359375,-0.6994476318359375,-0.019439697265625
1782984783355276500,6.389276611328125,-0.6810302734375,-0.701507568359375,-0.0189056396484375
1782984783365350400,6.399350341796875,-0.6852264404296875,-0.7007598876953125,-0.016326904296875
1782984783375425500,6.409425537109375,-0.688323974609375,-0.70257568359375,-0.01617431640625
1782984783385499400,6.41949951171875,-0.6971282958984375,-0.706085205078125,-0.01800537109375
1782984783395573500,6.429573486328125,-0.699951171875,-0.7122039794921875,-0.02056884765625
1782984783405648400,6.4396484375,-0.7027130126953125,-0.71490478515625,-0.016754150390625
1782984783415722500,6.449722412109375,-0.70404052734375,-0.7147369384765625,-0.016693115234375
1782984783425797400,6.45979736328125,-0.7089080810546875,-0.7157135009765625,-0.0143890380859375
1782984783435871500,6.46987158203125,-0.712860107421875,-0.7176361083984375,-0.0092926025390625
1782984783445945600,6.479945556640625,-0.71234130859375,-0.7259368896484375,-0.0070037841796875
1782984783456020500,6.4900205078125,-0.7113189697265625,-0.7309112548828125,-0.0066070556640625
1782984783466094600,6.500094482421875,-0.709381103515625,-0.7298431396484375,-0.013427734375
1782984783476169500,6.51016943359375,-0.7073974609375,-0.73699951171875,-0.0161895751953125
1782984783486243600,6.52024365234375,-0.709197998046875,-0.74237060546875,-0.01605224609375
1782984783496317700,6.530317626953125,-0.7148590087890625,-0.74188232421875,-0.015899658203125
1782984783506392600,6.540392578125,-0.7149658203125,-0.7391815185546875,-0.0156097412109375
1782984783516466700,6.550466796875,-0.7154388427734375,-0.734771728515625,-0.014862060546875
1782984783526541600,6.56054150390625,-0.708648681640625,-0.7268524169921875,-0.0146636962890625
1782984783536615700,6.57061572265625,-0.69873046875,-0.7293243408203125,-0.0198211669921875
1782984783546689500,6.580689453125,-0.704345703125,-0.725250244140625,-0.0191650390625
1782984783556764700,6.5907646484375,-0.7068328857421875,-0.7139434814453125,-0.020751953125
1782984783566838500,6.600838623046875,-0.7057952880859375,-0.7060089111328125,-0.02252197265625
1782984783576913700,6.61091357421875,-0.707122802734375,-0.702850341796875,-0.0202484130859375
1782984783586987500,6.620987548828125,-0.7060394287109375,-0.6965789794921875,-0.0223236083984375
1782984783597062700,6.631062744140625,-0.7036285400390625,-0.6913299560546875,-0.0216522216796875
1782984783607136500,6.641136474609375,-0.7010650634765625,-0.6888427734375,-0.0247650146484375
1782984783617210600,6.651210693359375,-0.6945343017578125,-0.6856231689453125,-0.0265960693359375
1782984783627285500,6.661285400390625,-0.689605712890625,-0.6863250732421875,-0.0256195068359375
1782984783637359600,6.671359619140625,-0.683563232421875,-0.6887359619140625,-0.027984619140625
1782984783647434500,6.6814345703125,-0.6782989501953125,-0.68798828125,-0.027130126953125
1782984783657508600,6.691508544921875,-0.67919921875,-0.68597412109375,-0.0246124267578125
1782984783667582500,6.70158251953125,-0.688262939453125,-0.683929443359375,-0.0257110595703125
1782984783677657600,6.71165771484375,-0.7017059326171875,-0.6848602294921875,-0.0274658203125
1782984783687731500,6.7217314453125,-0.7126312255859375,-0.684112548828125,-0.0298614501953125
1782984783697806600,6.731806640625,-0.717559814453125,-0.680023193359375,-0.030853271484375
1782984783707880400,6.74188037109375,-0.713409423828125,-0.68243408203125,-0.0374908447265625
1782984783717954600,6.75195458984375,-0.7039031982421875,-0.685546875,-0.03436279296875
1782984783728029400,6.762029541015625,-0.6908111572265625,-0.686309814453125,-0.0244598388671875
1782984783738103600,6.772103515625,-0.6809844970703125,-0.6876220703125,-0.0149078369140625
1782984783748178400,6.782178466796875,-0.6794586181640625,-0.690399169921875,-0.0093231201171875
1782984783758252500,6.79225244140625,-0.6841583251953125,-0.6907958984375,-0.0062408447265625
1782984783768326400,6.802326416015625,-0.6916656494140625,-0.69195556640625,-0.015960693359375
1782984783778401500,6.812401611328125,-0.699127197265625,-0.6959075927734375,-0.028594970703125
1782984783788475400,6.822475341796875,-0.708465576171875,-0.698150634765625,-0.0344696044921875
1782984783798550500,6.832550537109375,-0.7183837890625,-0.6990814208984375,-0.0365142822265625
1782984783808624400,6.842624267578125,-0.7225341796875,-0.704254150390625,-0.038665771484375
1782984783818699500,6.852699462890625,-0.721832275390625,-0.7083282470703125,-0.0387725830078125
1782984783828773400,6.8627734375,-0.7228851318359375,-0.7122802734375,-0.0346832275390625
1782984783838847700,6.87284765625,-0.719268798828125,-0.71380615234375,-0.0277099609375
1782984783848922400,6.88292236328125,-0.71746826171875,-0.7170562744140625,-0.02716064453125
1782984783858996700,6.892996826171875,-0.7126312255859375,-0.7183380126953125,-0.027862548828125
1782984783869071400,6.9030712890625,-0.7091064453125,-0.7166748046875,-0.02825927734375
1782984783879145700,6.913145751953125,-0.705474853515625,-0.7155914306640625,-0.0212249755859375
1782984783889219600,6.923219482421875,-0.71044921875,-0.71356201171875,-0.0177001953125
1782984783899294500,6.93329443359375,-0.7126922607421875,-0.7102203369140625,-0.0171051025390625
1782984783909368600,6.94336865234375,-0.711669921875,-0.7086334228515625,-0.0200347900390625
1782984783919443500,6.953443359375,-0.713531494140625,-0.7100067138671875,-0.0167694091796875
1782984783929517600,6.963517578125,-0.7191925048828125,-0.7057037353515625,-0.015899658203125
1782984783939591400,6.97359130859375,-0.7182464599609375,-0.69989013671875,-0.0139617919921875
1782984783949666600,6.98366650390625,-0.7185211181640625,-0.6982269287109375,-0.0108184814453125
1782984783959740400,6.993740478515625,-0.7192840576171875,-0.69873046875,-0.0102691650390625
1782984783969815600,7.003815673828125,-0.714324951171875,-0.698760986328125,-0.0115814208984375
1782984783979889400,7.013889404296875,-0.706634521484375,-0.6996612548828125,-0.01251220703125
1782984783989963500,7.023963623046875,-0.7012481689453125,-0.6988372802734375,-0.0150299072265625
1782984784000038400,7.034038330078125,-0.6995391845703125,-0.6962127685546875,-0.019378662109375
1782984784010112500,7.044112548828125,-0.7051544189453125,-0.6927947998046875,-0.0213470458984375
1782984784020187400,7.0541875,-0.711517333984375,-0.691375732421875,-0.022674560546875
1782984784030261500,7.064261474609375,-0.716094970703125,-0.687774658203125,-0.0169525146484375
1782984784040336400,7.07433642578125,-0.7211151123046875,-0.6846771240234375,-0.0107269287109375
1782984784050410500,7.084410400390625,-0.7211456298828125,-0.684112548828125,-0.0118255615234375
1782984784060484400,7.094484375,-0.7202911376953125,-0.6847686767578125,-0.0135650634765625
1782984784070559500,7.1045595703125,-0.7189788818359375,-0.684112548828125,-0.0127716064453125
1782984784080633300,7.11463330078125,-0.7130279541015625,-0.6828765869140625,-0.0107269287109375
1782984784090708500,7.12470849609375,-0.70703125,-0.6833038330078125,-0.00958251953125
1782984784100782300,7.1347822265625,-0.703399658203125,-0.68487548828125,-0.011383056640625
1782984784110856400,7.1448564453125,-0.7098388671875,-0.6854705810546875,-0.0107574462890625
1782984784120931300,7.154931396484375,-0.7189178466796875,-0.68353271484375,-0.0159912109375
1782984784131005400,7.16500537109375,-0.7278900146484375,-0.682098388671875,-0.0157623291015625
1782984784141080300,7.175080322265625,-0.7323150634765625,-0.68310546875,-0.0168304443359375
1782984784151154400,7.185154541015625,-0.7317657470703125,-0.683502197265625,-0.0155181884765625
1782984784161228500,7.195228515625,-0.7299041748046875,-0.6820068359375,-0.0145263671875
1782984784171303400,7.205303466796875,-0.73199462890625,-0.678253173828125,-0.0121612548828125
1782984784181377500,7.21537744140625,-0.731109619140625,-0.676910400390625,-0.0103912353515625
1782984784191452400,7.225452392578125,-0.7319793701171875,-0.6779327392578125,-0.006256103515625
1782984784201526500,7.235526611328125,-0.7300567626953125,-0.67791748046875,-0.004608154296875
1782984784211600600,7.2456005859375,-0.72601318359375,-0.6784210205078125,-0.0070648193359375
1782984784221675500,7.255675537109375,-0.7270660400390625,-0.678253173828125,-0.0037689208984375
1782984784231749600,7.26574951171875,-0.7265625,-0.6756439208984375,-0.0016632080078125
1782984784241824500,7.275824462890625,-0.7259979248046875,-0.6768646240234375,-0.003265380859375
1782984784251898600,7.285898681640625,-0.7229156494140625,-0.68212890625,-0.004058837890625
1782984784261973500,7.295973388671875,-0.722930908203125,-0.6816864013671875,-0.004608154296875
1782984784272047600,7.306047607421875,-0.7196807861328125,-0.6778106689453125,-0.0062713623046875
1782984784282121500,7.31612158203125,-0.719146728515625,-0.68145751953125,-0.009429931640625
1782984784292196600,7.326196533203125,-0.71563720703125,-0.6884307861328125,-0.0154266357421875
1782984784302270500,7.3362705078125,-0.7146453857421875,-0.6918792724609375,-0.0194091796875
1782984784312345600,7.346345703125,-0.7183990478515625,-0.6917266845703125,-0.02490234375
1782984784322419500,7.35641943359375,-0.7259979248046875,-0.6887359619140625,-0.020416259765625
1782984784332493600,7.36649365234375,-0.7339935302734375,-0.6862945556640625,-0.0134735107421875
1782984784342568400,7.376568359375,-0.740234375,-0.6895599365234375,-0.021484375
1782984784352642600,7.386642578125,-0.7285614013671875,-0.6953125,-0.0313568115234375
1782984784362717400,7.396717529296875,-0.7198486328125,-0.6943359375,-0.01953125
1782984784372791600,7.40679150390625,-0.7146453857421875,-0.6932525634765625,-0.0099639892578125
1782984784382865400,7.416865478515625,-0.714263916015625,-0.6916046142578125,-0.005859375
1782984784392940500,7.4269404296875,-0.71881103515625,-0.6890411376953125,-0.0041961669921875
1782984784403014400,7.437014404296875,-0.7213592529296875,-0.68939208984375,-0.0095977783203125
1782984784413089500,7.447089599609375,-0.7213134765625,-0.6925201416015625,-0.0171661376953125
1782984784423163400,7.457163330078125,-0.7187347412109375,-0.6937713623046875,-0.0228271484375
1782984784433237500,7.467237548828125,-0.7196502685546875,-0.691986083984375,-0.0269012451171875
1782984784443312400,7.4773125,-0.7254791259765625,-0.6921539306640625,-0.0267486572265625
1782984784453386500,7.487386474609375,-0.7322998046875,-0.6904449462890625,-0.024810791015625
1782984784463461400,7.49746142578125,-0.736297607421875,-0.6911773681640625,-0.0207366943359375
1782984784473535500,7.507535400390625,-0.7344512939453125,-0.6922149658203125,-0.01934814453125
1782984784483609300,7.517609375,-0.7261199951171875,-0.6924896240234375,-0.0146636962890625
1782984784493684500,7.5276845703125,-0.7153167724609375,-0.6912689208984375,-0.0120697021484375
1782984784503758300,7.53775830078125,-0.7091522216796875,-0.6909332275390625,-0.0103759765625
1782984784513833500,7.54783349609375,-0.7078094482421875,-0.6849365234375,-0.0095062255859375
1782984784523907300,7.5579072265625,-0.7075347900390625,-0.6820831298828125,-0.0106658935546875
1782984784533982500,7.567982421875,-0.70513916015625,-0.6798553466796875,-0.0081634521484375
1782984784544056300,7.578056396484375,-0.7053985595703125,-0.680511474609375,-0.0068817138671875
1782984784554130400,7.58813037109375,-0.7120513916015625,-0.6795196533203125,-0.00921630859375
1782984784564205300,7.598205322265625,-0.7211151123046875,-0.6800689697265625,-0.015289306640625
1782984784574279400,7.608279541015625,-0.730010986328125,-0.6833648681640625,-0.015289306640625
1782984784584354300,7.618354248046875,-0.7335968017578125,-0.680908203125,-0.0096893310546875
1782984784594428400,7.628428466796875,-0.7360687255859375,-0.6799468994140625,-0.00299072265625
1782984784604502500,7.63850244140625,-0.7363433837890625,-0.6787261962890625,-0.0041656494140625
1782984784614577400,7.648577392578125,-0.7301788330078125,-0.681396484375,-0.0055084228515625
1782984784624651500,7.658651611328125,-0.7232208251953125,-0.681365966796875,-0.003662109375
1782984784634726400,7.668726318359375,-0.71490478515625,-0.6803131103515625,-0.0052947998046875
1782984784644800500,7.678800537109375,-0.7115020751953125,-0.6795806884765625,-0.004364013671875
1782984784654874600,7.68887451171875,-0.7068634033203125,-0.6815643310546875,-0.0063018798828125
1782984784664949500,7.698949462890625,-0.7082061767578125,-0.680816650390625,-0.007965087890625
1782984784675023600,7.709023681640625,-0.7109832763671875,-0.6832427978515625,-0.0095062255859375
1782984784685098500,7.719098388671875,-0.7171783447265625,-0.684234619140625,-0.009521484375
1782984784695172600,7.729172607421875,-0.7216339111328125,-0.6831207275390625,-0.0108489990234375
1782984784705246500,7.73924658203125,-0.7208099365234375,-0.6840972900390625,-0.0121612548828125
1782984784715321600,7.749321533203125,-0.715911865234375,-0.6888275146484375,-0.0116424560546875
1782984784725395500,7.7593955078125,-0.712066650390625,-0.6917266845703125,-0.010650634765625
1782984784735470600,7.769470703125,-0.7103271484375,-0.6914215087890625,-0.00958251953125
1782984784745544400,7.77954443359375,-0.70941162109375,-0.6895751953125,-0.0122222900390625
1782984784755619600,7.78961962890625,-0.7109527587890625,-0.6889801025390625,-0.0145416259765625
1782984784765693400,7.799693359375,-0.7152862548828125,-0.6908721923828125,-0.0157928466796875
1782984784775767600,7.809767578125,-0.71661376953125,-0.6923370361328125,-0.01837158203125
1782984784785842400,7.819842529296875,-0.7150421142578125,-0.6948394775390625,-0.01922607421875
1782984784795916500,7.82991650390625,-0.70928955078125,-0.6894073486328125,-0.014892578125
1782984784805991400,7.839991455078125,-0.710205078125,-0.686676025390625,-0.0127410888671875
1782984784816065500,7.8500654296875,-0.7109222412109375,-0.6874847412109375,-0.01544189453125
1782984784826139400,7.860139404296875,-0.7158660888671875,-0.6943359375,-0.02069091796875
1782984784836214500,7.870214599609375,-0.72528076171875,-0.6981964111328125,-0.024261474609375
1782984784846288400,7.880288330078125,-0.7246551513671875,-0.69659423828125,-0.0249481201171875
1782984784856363500,7.890363525390625,-0.72332763671875,-0.69268798828125,-0.0201873779296875
1782984784866437400,7.900437255859375,-0.717437744140625,-0.6941375732421875,-0.016357421875
1782984784876511200,7.91051123046875,-0.716064453125,-0.69500732421875,-0.0146331787109375
1782984784886586400,7.92058642578125,-0.7193603515625,-0.692291259765625,-0.01177978515625
1782984784896659700,7.93065966796875,-0.7201995849609375,-0.69097900390625,-0.011749267578125
1782984784906734600,7.940734619140625,-0.7197265625,-0.6880340576171875,-0.00665283203125
1782984784916808700,7.95080859375,-0.7152099609375,-0.6860504150390625,-0.0000457763671875
1782984784926882600,7.960882568359375,-0.7133331298828125,-0.6857757568359375,-0.00189208984375
1782984784936957700,7.970957763671875,-0.7165374755859375,-0.69012451171875,-0.00201416015625
1782984784947031600,7.981031494140625,-0.7246551513671875,-0.698272705078125,-0.00189208984375
1782984784957106700,7.991106689453125,-0.72210693359375,-0.69061279296875,-0.014312744140625
1782984784967180500,8.0011806640625,-0.71533203125,-0.6908111572265625,-0.0206146240234375
1782984784977255700,8.011255615234376,-0.7124786376953125,-0.6965484619140625,-0.0206451416015625
1782984784987329500,8.02132958984375,-0.7086029052734375,-0.697174072265625,-0.0233612060546875
1782984784997403600,8.031403564453125,-0.7082366943359375,-0.6965789794921875,-0.025177001953125
1782984785007478500,8.041478515625,-0.71221923828125,-0.6962890625,-0.0220184326171875
1782984785017552600,8.051552734375,-0.7143402099609375,-0.697113037109375,-0.014404296875
1782984785027627500,8.06162744140625,-0.71484375,-0.6952362060546875,-0.0058135986328125
1782984785037701600,8.07170166015625,-0.7147064208984375,-0.6917266845703125,-0.0027923583984375
1782984785047775500,8.081775390625,-0.7137603759765625,-0.6886444091796875,-0.0049896240234375
1782984785057850600,8.0918505859375,-0.7160797119140625,-0.6857757568359375,-0.0120849609375
1782984785067924500,8.101924560546875,-0.71630859375,-0.6841888427734375,-0.019256591796875
1782984785077999600,8.11199951171875,-0.713043212890625,-0.6838836669921875,-0.024993896484375
1782984785088073500,8.122073486328125,-0.7082061767578125,-0.685943603515625,-0.0233001708984375
1782984785098147600,8.132147705078125,-0.708038330078125,-0.686767578125,-0.0243377685546875
1782984785108222500,8.142222412109374,-0.7022705078125,-0.688507080078125,-0.0249786376953125
1782984785118296600,8.152296630859375,-0.700653076171875,-0.6941070556640625,-0.0222320556640625
1782984785128371500,8.162371337890624,-0.70343017578125,-0.6983489990234375,-0.0230865478515625
1782984785138445600,8.172445556640625,-0.7107696533203125,-0.7006072998046875,-0.023040771484375
1782984785148519400,8.18251953125,-0.71734619140625,-0.7004852294921875,-0.023101806640625
1782984785158594600,8.192594482421875,-0.7187957763671875,-0.700469970703125,-0.0208892822265625
1782984785168668400,8.20266845703125,-0.722412109375,-0.7014923095703125,-0.015777587890625
1782984785178743600,8.21274365234375,-0.726593017578125,-0.698699951171875,-0.011077880859375
1782984785188817400,8.2228173828125,-0.7313079833984375,-0.6934356689453125,-0.0126953125
1782984785198892500,8.232892578125,-0.72869873046875,-0.692230224609375,-0.0136871337890625
1782984785208966400,8.24296630859375,-0.723175048828125,-0.6920928955078125,-0.0159759521484375
1782984785219040500,8.25304052734375,-0.718597412109375,-0.6921234130859375,-0.0112152099609375
1782984785229115400,8.263115478515624,-0.716766357421875,-0.6906890869140625,-0.00665283203125
1782984785239189500,8.273189453125,-0.7118377685546875,-0.6897125244140625,-0.000885009765625
1782984785249264400,8.283264404296874,-0.7068328857421875,-0.6894989013671875,0.005035400390625
1782984785259338500,8.29333837890625,-0.7025909423828125,-0.6896514892578125,0.010498046875
1782984785269412600,8.30341259765625,-0.701385498046875,-0.69244384765625,0.0120086669921875
1782984785279487500,8.313487548828125,-0.706451416015625,-0.691558837890625,0.0081329345703125
1782984785289561600,8.3235615234375,-0.7109222412109375,-0.6897430419921875,0.005035400390625
1782984785299636500,8.333636474609374,-0.715484619140625,-0.689239501953125,0.00048828125
1782984785309710600,8.343710693359375,-0.7227783203125,-0.69024658203125,0.000335693359375
1782984785319785500,8.353785400390626,-0.7304229736328125,-0.69134521484375,-0.0034027099609375
1782984785329859600,8.363859619140625,-0.733795166015625,-0.69482421875,-0.0073699951171875
1782984785339934500,8.3739345703125,-0.7299652099609375,-0.6966400146484375,-0.0067291259765625
1782984785350008600,8.384008544921874,-0.726654052734375,-0.6971893310546875,-0.0079345703125
1782984785360082700,8.394082763671875,-0.7160797119140625,-0.696533203125,-0.00537109375
1782984785370157600,8.404157470703124,-0.708526611328125,-0.696807861328125,-0.003082275390625
1782984785380231700,8.414231689453125,-0.7054443359375,-0.696624755859375,-0.0049896240234375
1782984785390306600,8.424306640625,-0.7061309814453125,-0.6986846923828125,-0.0065155029296875
1782984785400380700,8.434380615234375,-0.71246337890625,-0.7005615234375,-0.0103607177734375
1782984785410454500,8.44445458984375,-0.718719482421875,-0.69854736328125,-0.009857177734375
1782984785420529700,8.45452978515625,-0.7257537841796875,-0.699798583984375,-0.017822265625
1782984785430603500,8.464603515625,-0.7291107177734375,-0.7031402587890625,-0.0216064453125
1782984785440678700,8.4746787109375,-0.7268829345703125,-0.699615478515625,-0.016204833984375
1782984785450752500,8.48475244140625,-0.7193145751953125,-0.6960296630859375,-0.0123138427734375
1782984785460827600,8.49482763671875,-0.715484619140625,-0.6949005126953125,-0.01019287109375
1782984785470901500,8.504901611328124,-0.719268798828125,-0.695770263671875,-0.0163726806640625
1782984785480975600,8.5149755859375,-0.7178192138671875,-0.6957550048828125,-0.021697998046875
1782984785491050500,8.525050537109376,-0.710662841796875,-0.6959991455078125,-0.0149993896484375
1782984785501124600,8.53512451171875,-0.70184326171875,-0.691253662109375,-0.0089111328125
1782984785511199500,8.545199462890626,-0.6971893310546875,-0.688873291015625,-0.00860595703125
1782984785521273600,8.555273681640625,-0.7010498046875,-0.6917572021484375,-0.0141448974609375
1782984785531347500,8.565347412109375,-0.7119140625,-0.6938018798828125,-0.01275634765625
1782984785541422600,8.575422607421874,-0.714080810546875,-0.688812255859375,-0.0116424560546875
1782984785551496400,8.585496337890625,-0.7124176025390625,-0.68658447265625,-0.0113983154296875
1782984785561571600,8.595571533203126,-0.7160797119140625,-0.6887054443359375,-0.0115203857421875
1782984785571645400,8.6056455078125,-0.7196807861328125,-0.689605712890625,-0.0140533447265625
1782984785581719600,8.615719482421875,-0.716156005859375,-0.6906890869140625,-0.0184173583984375
1782984785591794400,8.62579443359375,-0.7089080810546875,-0.688507080078125,-0.0127716064453125
1782984785601868500,8.63586865234375,-0.69940185546875,-0.68865966796875,-0.0049896240234375
1782984785611943400,8.645943359375,-0.70123291015625,-0.692718505859375,-0.0047454833984375
1782984785622017500,8.656017578125,-0.7067108154296875,-0.6950225830078125,-0.011138916015625
1782984785632091600,8.666091552734375,-0.7074127197265625,-0.695465087890625,-0.017120361328125
1782984785642166500,8.67616650390625,-0.7115325927734375,-0.694610595703125,-0.0182647705078125
1782984785652240600,8.68624072265625,-0.7115631103515625,-0.6956329345703125,-0.020050048828125
1782984785662315500,8.6963154296875,-0.7085113525390625,-0.69525146484375,-0.0205230712890625
1782984785672389600,8.7063896484375,-0.7038726806640625,-0.69476318359375,-0.0113525390625
1782984785682464500,8.716464599609376,-0.7027740478515625,-0.697509765625,0.0001373291015625
1782984785692538600,8.72653857421875,-0.7059478759765625,-0.6993408203125,0.00634765625
1782984785702612700,8.73661279296875,-0.7096405029296875,-0.698150634765625,0.008758544921875
1782984785712687600,8.7466875,-0.7080841064453125,-0.6942138671875,0.0039215087890625
1782984785722761700,8.75676171875,-0.70904541015625,-0.6934967041015625,-0.00604248046875
1782984785732836600,8.766836669921876,-0.705810546875,-0.6933135986328125,-0.0157012939453125
1782984785742910700,8.77691064453125,-0.704254150390625,-0.6944122314453125,-0.0219268798828125
1782984785752984600,8.786984619140625,-0.7017059326171875,-0.6974334716796875,-0.026123046875
1782984785763059700,8.797059814453124,-0.7009429931640625,-0.7003173828125,-0.0294036865234375
1782984785773133600,8.807133544921875,-0.70306396484375,-0.7044525146484375,-0.0280303955078125
1782984785783208700,8.817208740234374,-0.70574951171875,-0.7069549560546875,-0.023956298828125
1782984785793282600,8.827282470703125,-0.709442138671875,-0.7064056396484375,-0.02520751953125
1782984785803356700,8.837356689453125,-0.71527099609375,-0.705413818359375,-0.024017333984375
1782984785813431600,8.847431640625,-0.72015380859375,-0.7070770263671875,-0.0319976806640625
1782984785823505700,8.857505615234375,-0.7215576171875,-0.711029052734375,-0.034912109375
1782984785833580500,8.86758056640625,-0.7155914306640625,-0.7070159912109375,-0.029510498046875
1782984785843654700,8.877654541015625,-0.70794677734375,-0.703948974609375,-0.0257110595703125
1782984785853729500,8.8877294921875,-0.69927978515625,-0.7017059326171875,-0.0250701904296875
1782984785863803600,8.8978037109375,-0.6951141357421875,-0.699951171875,-0.0310821533203125
1782984785873877500,8.90787744140625,-0.6964874267578125,-0.7033233642578125,-0.0317535400390625
1782984785883952600,8.91795263671875,-0.6988983154296875,-0.702850341796875,-0.02740478515625
1782984785894026800,8.92802685546875,-0.6996917724609375,-0.6985626220703125,-0.0206146240234375
1782984785904102000,8.938101806640624,-0.7014007568359375,-0.698883056640625,-0.015594482421875
1782984785914175700,8.94817578125,-0.700439453125,-0.6995086669921875,-0.01336669921875
1782984785924249900,8.958249755859375,-0.698333740234375,-0.6997528076171875,-0.0134124755859375
1782984785934324700,8.96832470703125,-0.69158935546875,-0.699310302734375,-0.0107574462890625
1782984785944398800,8.97839892578125,-0.6883087158203125,-0.700164794921875,-0.010589599609375
1782984785954473700,8.9884736328125,-0.68670654296875,-0.7021636962890625,-0.0113372802734375
1782984785964547800,8.9985478515625,-0.69244384765625,-0.70233154296875,-0.0146331787109375
1782984785974621700,9.00862158203125,-0.7020416259765625,-0.7027130126953125,-0.017333984375
1782984785984696800,9.01869677734375,-0.70947265625,-0.699249267578125,-0.0188751220703125
1782984785994770700,9.028770751953125,-0.711395263671875,-0.6995086669921875,-0.0139923095703125
1782984786004845800,9.038845703125,-0.709197998046875,-0.7000885009765625,-0.0137786865234375
1782984786014919700,9.048919677734375,-0.7084808349609375,-0.6977996826171875,-0.01531982421875
1782984786024994800,9.058994873046874,-0.699859619140625,-0.6973114013671875,-0.01019287109375
1782984786035068700,9.069068603515625,-0.6951141357421875,-0.694854736328125,-0.0103302001953125
1782984786045142800,9.079142822265625,-0.6977386474609375,-0.6939697265625,-0.0180816650390625
1782984786055217700,9.0892177734375,-0.7036285400390625,-0.6959228515625,-0.0229339599609375
1782984786065291800,9.099291748046875,-0.709442138671875,-0.6970977783203125,-0.024200439453125
1782984786075366700,9.10936669921875,-0.7104644775390625,-0.6938934326171875,-0.020172119140625
1782984786085440800,9.119440673828125,-0.711273193359375,-0.6930389404296875,-0.0180206298828125
1782984786095515000,9.129514892578126,-0.710205078125,-0.6961822509765625,-0.0183563232421875
1782984786105589800,9.13958984375,-0.7119903564453125,-0.697265625,-0.017303466796875
1782984786115664000,9.149663818359375,-0.710662841796875,-0.69647216796875,-0.01690673828125
1782984786125738800,9.15973876953125,-0.7072296142578125,-0.6991119384765625,-0.019500732421875
1782984786135812900,9.169812744140625,-0.705352783203125,-0.7000732421875,-0.019866943359375
1782984786145887000,9.179886962890626,-0.7050018310546875,-0.6992034912109375,-0.01947021484375
1782984786155961900,9.1899619140625,-0.70196533203125,-0.697540283203125,-0.01824951171875
1782984786166036000,9.200035888671875,-0.7025909423828125,-0.69537353515625,-0.0142669677734375
1782984786176110800,9.21011083984375,-0.70458984375,-0.696533203125,-0.0134735107421875
1782984786186185000,9.22018505859375,-0.704742431640625,-0.69500732421875,-0.0074005126953125
1782984786196259800,9.230259765625,-0.704498291015625,-0.69512939453125,-0.0068206787109375
1782984786206334000,9.240333984375,-0.706451416015625,-0.6987457275390625,-0.0085296630859375
1782984786216407800,9.25040771484375,-0.7043914794921875,-0.6980743408203125,-0.0100555419921875
1782984786226483000,9.26048291015625,-0.702117919921875,-0.698150634765625,-0.00933837890625
1782984786236556800,9.270556884765625,-0.6971282958984375,-0.7010650634765625,-0.009765625
1782984786246632000,9.2806318359375,-0.6976776123046875,-0.7043304443359375,-0.008392333984375
1782984786256705800,9.290705810546875,-0.7020416259765625,-0.7037506103515625,-0.0052947998046875
1782984786266780000,9.30077978515625,-0.70660400390625,-0.701446533203125,-0.004669189453125
1782984786276854800,9.310854736328125,-0.7112884521484375,-0.6972503662109375,-0.0070037841796875
1782984786286929000,9.320928955078125,-0.714996337890625,-0.696197509765625,-0.0107879638671875
1782984786297003800,9.331003662109374,-0.7206878662109375,-0.6978759765625,-0.0150299072265625
1782984786307078000,9.341077880859375,-0.724700927734375,-0.6951904296875,-0.0203857421875
1782984786317151700,9.35115185546875,-0.7200164794921875,-0.6936187744140625,-0.0189971923828125
1782984786327227000,9.361226806640625,-0.716705322265625,-0.694366455078125,-0.0084381103515625
1782984786337300700,9.37130078125,-0.715728759765625,-0.6985931396484375,0.0022430419921875
1782984786347375900,9.3813759765625,-0.7152099609375,-0.697235107421875,0.0095367431640625
1782984786357449700,9.39144970703125,-0.7133026123046875,-0.695831298828125,0.011505126953125
1782984786367524900,9.40152490234375,-0.71075439453125,-0.6929168701171875,0.0118560791015625
1782984786377598700,9.4115986328125,-0.7051849365234375,-0.6882171630859375,-0.0000152587890625
1782984786387672800,9.4216728515625,-0.7063446044921875,-0.689178466796875,-0.01080322265625
1782984786397747700,9.431747802734375,-0.7054595947265625,-0.6876220703125,-0.01202392578125
1782984786407821800,9.44182177734375,-0.7099761962890625,-0.688690185546875,-0.014739990234375
1782984786417896700,9.451896728515624,-0.7183837890625,-0.69830322265625,-0.014923095703125
1782984786427970800,9.461970703125,-0.724212646484375,-0.7017669677734375,-0.0152435302734375
1782984786438044700,9.472044677734376,-0.72412109375,-0.701904296875,-0.0142059326171875
1782984786448119800,9.482119873046875,-0.7198944091796875,-0.7060394287109375,-0.013702392578125
1782984786458193700,9.492193603515625,-0.7137298583984375,-0.707000732421875,-0.0146026611328125
1782984786468268800,9.502268798828124,-0.712127685546875,-0.7069854736328125,-0.015594482421875
1782984786478342700,9.5123427734375,-0.7110443115234375,-0.70440673828125,-0.0122222900390625
1782984786488417000,9.5224169921875,-0.7088623046875,-0.6993865966796875,-0.0095367431640625
1782984786498491600,9.53249169921875,-0.7096710205078125,-0.697235107421875,-0.0041351318359375
1782984786508566000,9.54256591796875,-0.711822509765625,-0.696746826171875,-0.00433349609375
1782984786518640600,9.552640625,-0.7100372314453125,-0.6965179443359375,-0.0086669921875
1782984786528715000,9.562715087890625,-0.711273193359375,-0.698150634765625,-0.0103302001953125
1782984786538789600,9.57278955078125,-0.71624755859375,-0.6987762451171875,-0.011566162109375
1782984786548864000,9.582864013671875,-0.718841552734375,-0.698944091796875,-0.01031494140625
1782984786558937900,9.592937744140626,-0.7109375,-0.6983642578125,-0.00885009765625
1782984786569013000,9.603012939453125,-0.703094482421875,-0.6969757080078125,-0.0058135986328125
1782984786579086800,9.6130869140625,-0.6999664306640625,-0.6975250244140625,-0.0074310302734375
1782984786589162000,9.623161865234374,-0.70281982421875,-0.696624755859375,-0.0137786865234375
1782984786599235800,9.63323583984375,-0.7037506103515625,-0.693817138671875,-0.0142059326171875
1782984786609310000,9.64331005859375,-0.7080841064453125,-0.6947021484375,-0.016510009765625
1782984786619384800,9.653384765625,-0.711334228515625,-0.6937103271484375,-0.01788330078125
1782984786629459000,9.663458984375,-0.7154388427734375,-0.694000244140625,-0.0187530517578125
1782984786639533800,9.673533935546875,-0.7153472900390625,-0.6944122314453125,-0.0178375244140625
1782984786649608000,9.68360791015625,-0.71441650390625,-0.6943206787109375,-0.0195770263671875
1782984786659681800,9.693681884765626,-0.71319580078125,-0.6949615478515625,-0.0186614990234375
1782984786669757000,9.7037568359375,-0.709991455078125,-0.695037841796875,-0.015869140625
1782984786679830800,9.713830810546876,-0.7108917236328125,-0.69305419921875,-0.0125885009765625
1782984786689906000,9.723906005859375,-0.7083892822265625,-0.691375732421875,-0.0081329345703125
1782984786699979800,9.733979736328125,-0.707275390625,-0.6915435791015625,-0.00616455078125
1782984786710054000,9.744053955078124,-0.7063446044921875,-0.6900482177734375,-0.0078125
1782984786720128800,9.754128662109375,-0.706268310546875,-0.693603515625,-0.0135955810546875
1782984786730203000,9.764202880859376,-0.70928955078125,-0.697418212890625,-0.0138092041015625
1782984786740277800,9.77427783203125,-0.7131500244140625,-0.7000732421875,-0.0134124755859375
1782984786750352000,9.784351806640625,-0.715789794921875,-0.6957855224609375,-0.0123138427734375
1782984786760426800,9.7944267578125,-0.7128448486328125,-0.6935882568359375,-0.01239013671875
1782984786770500900,9.8045009765625,-0.709442138671875,-0.6974029541015625,-0.0092620849609375
1782984786780574700,9.81457470703125,-0.70855712890625,-0.7001800537109375,-0.008148193359375
1782984786790649900,9.82464990234375,-0.710174560546875,-0.7008209228515625,-0.012939453125
1782984786800723700,9.8347236328125,-0.7095947265625,-0.70098876953125,-0.0156402587890625
1782984786810798800,9.844798828125,-0.7111358642578125,-0.70208740234375,-0.0140533447265625
1782984786820872700,9.854872802734375,-0.7102813720703125,-0.7018585205078125,-0.016387939453125
1782984786830946800,9.86494677734375,-0.7083740234375,-0.6990203857421875,-0.0128936767578125
1782984786841021700,9.875021728515625,-0.706451416015625,-0.698516845703125,-0.0146026611328125
1782984786851095800,9.885095703125,-0.70928955078125,-0.6978759765625,-0.0115509033203125
1782984786861170700,9.895170654296875,-0.7031402587890625,-0.6949462890625,-0.0146942138671875
1782984786871244800,9.905244873046875,-0.6991729736328125,-0.6934967041015625,-0.0149383544921875
1782984786881319700,9.915319580078124,-0.6972503662109375,-0.6944732666015625,-0.0159149169921875
1782984786891394000,9.92539404296875,-0.694183349609375,-0.69415283203125,-0.0137939453125
1782984786901468200,9.93546826171875,-0.6931304931640625,-0.6929931640625,-0.0149078369140625
1782984786911543000,9.94554296875,-0.694488525390625,-0.694793701171875,-0.014312744140625
1782984786921617200,9.9556171875,-0.6955413818359375,-0.6960296630859375,-0.007720947265625
1782984786931692000,9.965692138671875,-0.6939849853515625,-0.6950225830078125,-0.0077056884765625
1782984786941766100,9.97576611328125,-0.702301025390625,-0.7005767822265625,-0.0102691650390625
1782984786951840300,9.98584033203125,-0.71063232421875,-0.7004241943359375,-0.0149078369140625
1782984786961915100,9.9959150390625,-0.7139892578125,-0.7002105712890625,-0.02337646484375
1782984786971989200,10.0059892578125,-0.714630126953125,-0.700775146484375,-0.0261688232421875
1782984786982064000,10.016064208984375,-0.7155914306640625,-0.7005615234375,-0.0255279541015625
1782984786992138200,10.02613818359375,-0.711578369140625,-0.7030181884765625,-0.0139617919921875
1782984787002212000,10.036212158203124,-0.712432861328125,-0.706329345703125,-0.0049896240234375
1782984787012287200,10.046287353515625,-0.709320068359375,-0.7059173583984375,-0.00030517578125
1782984787022361000,10.056361083984376,-0.706268310546875,-0.7047882080078125,0.0056610107421875
1782984787032436200,10.066436279296875,-0.6965179443359375,-0.7028961181640625,0.001708984375
1782984787042510000,10.076510009765625,-0.6963653564453125,-0.7032470703125,-0.0023956298828125
1782984787052584200,10.086584228515624,-0.7021026611328125,-0.7006378173828125,-0.0141143798828125
1782984787062659000,10.0966591796875,-0.7095794677734375,-0.699859619140625,-0.0229644775390625
1782984787072733200,10.106733154296874,-0.722137451171875,-0.70263671875,-0.0219573974609375
1782984787082808000,10.11680810546875,-0.7265167236328125,-0.7044677734375,-0.0228729248046875
1782984787092882200,10.126882080078126,-0.725738525390625,-0.7036895751953125,-0.019012451171875
1782984787102957000,10.13695703125,-0.721160888671875,-0.7075347900390625,-0.0126495361328125
1782984787113031200,10.14703125,-0.716766357421875,-0.71142578125,-0.0160980224609375
1782984787123105000,10.15710498046875,-0.71661376953125,-0.7115020751953125,-0.019287109375
1782984787133180200,10.16718017578125,-0.7092742919921875,-0.7090301513671875,-0.021453857421875
1782984787143254000,10.17725390625,-0.7030029296875,-0.70635986328125,-0.017578125
1782984787153329200,10.1873291015625,-0.703857421875,-0.7030487060546875,-0.0113525390625
1782984787163403000,10.197403076171875,-0.7102813720703125,-0.7010650634765625,-0.005035400390625
1782984787173477000,10.20747705078125,-0.7177276611328125,-0.70147705078125,-0.0069427490234375
1782984787183552000,10.217552001953125,-0.72662353515625,-0.700836181640625,-0.0106201171875
1782984787193626000,10.227626220703126,-0.7259368896484375,-0.6997528076171875,-0.01068115234375
1782984787203701000,10.237700927734375,-0.7195587158203125,-0.6993255615234375,-0.015045166015625
1782984787213775000,10.247775146484376,-0.70697021484375,-0.70098876953125,-0.0167694091796875
1782984787223850000,10.25785009765625,-0.6996307373046875,-0.699615478515625,-0.0147552490234375
1782984787233924000,10.267924072265625,-0.6995849609375,-0.6976776123046875,-0.0140228271484375
1782984787243998000,10.277998046875,-0.707305908203125,-0.6958160400390625,-0.0155487060546875
1782984787254073000,10.288072998046875,-0.7102813720703125,-0.6946868896484375,-0.012725830078125
1782984787264147000,10.29814697265625,-0.7132110595703125,-0.6947021484375,-0.0190277099609375
1782984787274222000,10.30822216796875,-0.71160888671875,-0.6914520263671875,-0.0216217041015625
1782984787284296000,10.3182958984375,-0.7090911865234375,-0.6917266845703125,-0.015869140625
1782984787294370000,10.3283701171875,-0.7080230712890625,-0.6930694580078125,-0.0157928466796875
1782984787304445000,10.33844482421875,-0.7042388916015625,-0.692535400390625,-0.015594482421875
1782984787314519000,10.34851904296875,-0.7024688720703125,-0.69122314453125,-0.01385498046875
1782984787324594000,10.358593994140625,-0.7064056396484375,-0.69195556640625,-0.0144500732421875
1782984787334668000,10.36866796875,-0.710479736328125,-0.690582275390625,-0.018310546875
1782984787344743000,10.378742919921875,-0.7074127197265625,-0.6891021728515625,-0.01727294921875
1782984787354817300,10.3888173828125,-0.701324462890625,-0.6915283203125,-0.0150146484375
1782984787364891100,10.39889111328125,-0.6918792724609375,-0.6964263916015625,-0.0146942138671875
1782984787374966300,10.40896630859375,-0.69134521484375,-0.6998443603515625,-0.010528564453125
1782984787385040100,10.4190400390625,-0.6943511962890625,-0.696258544921875,-0.0110321044921875
1782984787395115300,10.429115234375,-0.7067413330078125,-0.69512939453125,-0.0104827880859375
1782984787405189000,10.439189208984375,-0.7194061279296875,-0.6897735595703125,-0.015411376953125
1782984787415263200,10.44926318359375,-0.724822998046875,-0.6919403076171875,-0.0185546875
1782984787425338000,10.459338134765625,-0.718536376953125,-0.6953277587890625,-0.0162811279296875
1782984787435412200,10.469412109375,-0.7110137939453125,-0.69110107421875,-0.008453369140625
1782984787445487000,10.479487060546875,-0.7045440673828125,-0.6849822998046875,-0.0079193115234375
1782984787455561200,10.489561279296876,-0.696075439453125,-0.6844024658203125,-0.0097808837890625
1782984787465635000,10.499635009765624,-0.6899871826171875,-0.693084716796875,-0.0115966796875
1782984787475710200,10.509710205078125,-0.69134521484375,-0.697998046875,-0.0178375244140625
1782984787485784000,10.5197841796875,-0.6908416748046875,-0.7002410888671875,-0.0285491943359375
1782984787495859200,10.529859130859375,-0.6976318359375,-0.6965484619140625,-0.02978515625
1782984787505933000,10.53993310546875,-0.7153472900390625,-0.6944427490234375,-0.0206756591796875
1782984787516008200,10.55000830078125,-0.736114501953125,-0.690673828125,-0.0157623291015625
1782984787526082000,10.56008203125,-0.7509307861328125,-0.6877593994140625,-0.027069091796875
1782984787536156200,10.57015625,-0.75604248046875,-0.691253662109375,-0.0311737060546875
