time,seconds_elapsed,z,y,x
1782984777028551700,0.0625517578125,-0.038781482726335526,0.009297894313931465,0.1914205551147461
1782984777038626600,0.07262646484375,-0.027951207011938095,0.07293785363435745,0.07123663276433945
1782984777048700700,0.08270068359375,-0.034579016268253326,0.1110311821103096,-0.03223862871527672
1782984777058774500,0.0927744140625,-0.04812145605683327,0.1007567048072815,-0.10314475744962692
1782984777068849700,0.102849609375,-0.055746085941791534,0.05794239416718483,-0.12860111892223358
1782984777078923500,0.112923583984375,-0.05366349592804909,0.03169640898704529,-0.11748374998569489
1782984777088998700,0.12299853515625,-0.05475432425737381,0.022182533517479897,-0.07534988224506378
1782984777099072800,0.13307275390625,-0.05583636835217476,0.011056645773351192,-0.01462634652853012
1782984777109146600,0.143146728515625,-0.06228920817375183,-0.0049010151997208595,0.03117443062365055
1782984777119221800,0.1532216796875,-0.049851711839437485,0.0003664509567897767,0.06539152562618256
1782984777129295600,0.163295654296875,-0.039434224367141724,0.010587130673229694,0.07009812444448471
1782984777139370800,0.173370849609375,-0.030491596087813377,0.026820428669452667,0.055689893662929535
1782984777149444600,0.183444580078125,-0.0270148403942585,0.033788323402404785,0.025722140446305275
1782984777159518500,0.1935185546875,-0.01600879430770874,0.023133814334869385,-0.0014658038271591067
1782984777169593600,0.203593505859375,-0.012826316058635712,-0.00025060345069505274,-0.029563218355178833
1782984777179667500,0.21366748046875,-0.0005930859479121864,-0.0043534692376852036,-0.04573553055524826
1782984777189742600,0.22374267578125,0.008125570602715015,-0.004818723537027836,-0.04196103289723396
1782984777199816400,0.23381640625,0.013303554616868496,-0.01575472764670849,-0.020781977102160454
1782984777209890600,0.243890625,0.009471000172197819,-0.0318191833794117,0.00230816169641912
1782984777219965700,0.253965576171875,0.010914965532720089,-0.034203510731458664,0.022069882601499557
1782984777230039600,0.26403955078125,0.011233213357627392,-0.022337796166539192,0.03551085665822029
1782984777240113400,0.274113525390625,0.00407490273937583,-0.027093935757875443,0.02400573343038559
1782984777250188500,0.2841884765625,0.007241667713969946,-0.044686246663331985,0.003787281457334757
1782984777260262400,0.294262451171875,0.01737925596535206,-0.04705299437046051,-0.018847458064556122
1782984777270337500,0.304337646484375,0.019902069121599197,-0.05345337092876434,-0.038965776562690735
1782984777280411400,0.314411376953125,0.020245617255568504,-0.04689214006066322,-0.06166709214448929
1782984777290485500,0.324485595703125,0.025840384885668755,-0.034035466611385345,-0.08910111337900162
1782984777300560400,0.334560302734375,0.03145219758152962,-0.03907123580574989,-0.12309343367815018
1782984777310634500,0.344634521484375,0.03831223398447037,-0.06920064240694046,-0.1492089182138443
1782984777320709400,0.35470947265625,0.04093491658568382,-0.07150773704051971,-0.15202975273132324
1782984777330783500,0.364783447265625,0.0281557384878397,-0.0444263219833374,-0.13627848029136658
1782984777340857600,0.374857666015625,0.00836978293955326,-0.00827683787792921,-0.11230417340993881
1782984777350932500,0.384932373046875,-0.009383114986121655,0.029328860342502594,-0.0869910940527916
1782984777361006600,0.395006591796875,-0.014567224308848381,0.08148553967475891,-0.061881475150585175
1782984777371081500,0.40508154296875,-0.021937789395451546,0.1286112368106842,-0.05469680204987526
1782984777381155600,0.415155517578125,-0.033360354602336884,0.14766934514045715,-0.06445489078760147
1782984777391229700,0.425229736328125,-0.026181535795331,0.13490162789821625,-0.06919744610786438
1782984777401304600,0.4353046875,-0.016030099242925644,0.11787576973438263,-0.0667627826333046
1782984777411378700,0.445378662109375,-0.021191570907831192,0.09168171882629395,-0.06558273732662201
1782984777421453600,0.45545361328125,-0.016564860939979553,0.05653970688581467,-0.06408044695854187
1782984777431527700,0.465527587890625,-0.001207477180287242,0.02172766625881195,-0.056650497019290924
1782984777441601500,0.4756015625,0.011300059035420418,0.003493002150207758,-0.04928312823176384
1782984777451676700,0.4856767578125,0.016396017745137215,0.015296930447220802,-0.039514653384685516
1782984777461750500,0.49575048828125,0.018336396664381027,0.037223003804683685,-0.024831846356391907
1782984777471825700,0.50582568359375,0.013378123752772808,0.051303666085004807,-0.009413741528987885
1782984777481899500,0.5158994140625,0.006050169467926025,0.05408134311437607,-0.00009081379539566115
1782984777491973600,0.5259736328125,0.010268882848322392,0.04451287165284157,0.009938650764524937
1782984777502048500,0.536048583984375,0.017541974782943726,0.02869556099176407,0.011420433409512043
1782984777512122600,0.54612255859375,0.025011343881487846,0.007558051031082869,0.005511944647878408
1782984777522197500,0.556197509765625,0.0330522246658802,-0.008312257938086987,-0.00785739067941904
1782984777532271600,0.566271728515625,0.048886582255363464,-0.019449330866336823,-0.0191904716193676
1782984777542345500,0.576345458984375,0.04885915294289589,-0.023988157510757446,-0.03056456707417965
1782984777552420600,0.586420654296875,0.03795617073774338,-0.0036581179592758417,-0.03389884531497955
1782984777562494500,0.596494384765625,0.02461240254342556,0.020963871851563454,-0.020719392225146294
1782984777572569600,0.606569580078125,0.010034791193902493,0.04086167737841606,-0.01270061545073986
1782984777582643500,0.6166435546875,0.0018322548130527139,0.048880189657211304,-0.0015941682504490018
1782984777592717600,0.626717529296875,-0.002103364560753107,0.05624915659427643,0.007753793615847826
1782984777602792400,0.63679248046875,-0.006109025329351425,0.06880410015583038,0.021326327696442604
1782984777612866600,0.646866455078125,-0.009718939661979675,0.07492697238922119,0.03353132680058479
1782984777622941400,0.65694140625,-0.010968228802084923,0.07928416877985,0.050454385578632355
1782984777633015600,0.667015625,-0.011011638678610325,0.0761946365237236,0.05901911109685898
1782984777643089400,0.67708935546875,-0.008892827667295933,0.07209177315235138,0.0638735219836235
1782984777653164500,0.68716455078125,-0.0070129018276929855,0.06515876203775406,0.06214353069663048
1782984777663238400,0.69723828125,-0.008241417817771435,0.07596427202224731,0.06161010265350342
1782984777673313500,0.7073134765625,-0.015075089409947395,0.0872851014137268,0.06828664243221283
1782984777683387400,0.717387451171875,-0.021646173670887947,0.09263326227664948,0.08322218805551529
1782984777693461800,0.727461669921875,-0.02034015953540802,0.10362972319126129,0.10979973524808884
1782984777703536400,0.737536376953125,-0.020724985748529434,0.10910331457853317,0.1257757693529129
1782984777713610800,0.74761083984375,-0.012428972870111465,0.10019690543413162,0.12462874501943588
1782984777723684600,0.7576845703125,-0.001187503570690751,0.08241204917430878,0.11264585703611374
1782984777733759700,0.767759765625,0.012169048190116882,0.057136788964271545,0.08131323009729385
1782984777743833600,0.77783349609375,0.018450912088155746,0.026222815737128258,0.04243560880422592
1782984777753908700,0.78790869140625,0.02521747164428234,0.0007720504072494805,0.0031941954512149096
1782984777763982600,0.797982666015625,0.03050491213798523,-0.007463508751243353,-0.030841002240777016
1782984777774056700,0.808056640625,0.03512682765722275,-0.006420615129172802,-0.0539199560880661
1782984777784131600,0.818131591796875,0.03472895175218582,-0.008588162250816822,-0.06745254248380661
1782984777794205700,0.828205810546875,0.029830865561962128,-0.01576005481183529,-0.07013141363859177
1782984777804280600,0.838280517578125,0.025722406804561615,-0.022945262491703033,-0.06277576833963394
1782984777814354700,0.848354736328125,0.021224329248070717,-0.02184884063899517,-0.05742867290973663
1782984777824428500,0.858428466796875,0.01516723446547985,-0.02215483784675598,-0.047084420919418335
1782984777834503700,0.868503662109375,0.012833506800234318,-0.014852982014417648,-0.039507463574409485
1782984777844577500,0.87857763671875,0.01486203633248806,0.011474229395389557,-0.020906614139676094
1782984777854652700,0.888652587890625,0.007011836860328913,0.03027241863310337,-0.003796069882810116
1782984777864726500,0.8987265625,0.0015733955660834908,0.030309436842799187,0.012778379023075104
1782984777874800600,0.908800537109375,0.001065264455974102,0.02123631350696087,0.025127723813056946
1782984777884879000,0.918879150390625,0.010128268040716648,0.0014833806781098247,0.028794096782803535
1782984777894953000,0.928952880859375,0.013864150270819664,-0.018373681232333183,0.02738635055720806
1782984777905028000,0.939028076171875,0.017343303188681602,-0.01546178013086319,0.026187129318714142
1782984777915102000,0.94910205078125,0.020845094695687294,-0.013019661419093609,0.021701566874980927
1782984777925176000,0.959176025390625,0.015559252351522446,-0.01847647875547409,0.01543701346963644
1782984777935251000,0.9692509765625,0.011293401010334492,-0.03081250749528408,0.008266185410320759
1782984777945325000,0.979324951171875,0.008006793446838856,-0.043536026030778885,-0.0018884475575760007
1782984777955400000,0.98939990234375,0.012035624124109745,-0.06473745405673981,-0.015376559458673
1782984777965474000,0.99947412109375,0.01636805385351181,-0.07040785253047943,-0.019301259890198708
1782984777975548000,1.0095478515625,0.012880378402769566,-0.03395051136612892,-0.009725597687065601
1782984777985623000,1.019623046875,0.005160407163202763,-0.006866161711513996,-0.005004345905035734
1782984777995697000,1.02969677734375,0.007668838836252689,0.008738630451261997,-0.0070821442641317844
1782984778005772000,1.03977197265625,0.007568437606096268,0.026144519448280334,-0.006047772243618965
1782984778015846000,1.049845947265625,0.003709516953676939,0.014135260134935379,0.00012064119800925255
1782984778025920300,1.059920166015625,0.007821970619261265,-0.03305409103631973,-0.0032522522378712893
1782984778035995000,1.069994873046875,0.009279518388211727,-0.061041783541440964,-0.0011502192355692387
1782984778046069200,1.0800693359375,-0.0031273500062525272,-0.06424396485090256,0.0027238810434937477
1782984778056144000,1.090143798828125,-0.02034708298742771,-0.051295679062604904,0.010906443931162357
1782984778066218200,1.10021826171875,-0.039081357419490814,-0.039858199656009674,0.004893558565527201
1782984778076292000,1.1102919921875,-0.056881390511989594,-0.020795825868844986,-0.009229983203113079
1782984778086367200,1.1203671875,-0.06995432078838348,0.011041732504963875,-0.0255181435495615
1782984778096441000,1.130441162109375,-0.07834194600582123,0.04255864396691322,-0.04077858850359917
1782984778106516200,1.14051611328125,-0.08274415135383606,0.06285619735717773,-0.04819389432668686
1782984778116590000,1.150590087890625,-0.07994809746742249,0.07119614630937576,-0.05121178925037384
1782984778126664200,1.160664306640625,-0.07221241295337677,0.07259484380483627,-0.0474652536213398
1782984778136739000,1.170739013671875,-0.06710606813430786,0.05909767374396324,-0.03845551237463951
1782984778146813200,1.180813232421875,-0.058646801859140396,0.03642139211297035,-0.022400114685297012
1782984778156888000,1.19088818359375,-0.048464205116033554,0.019903400912880898,-0.010662231594324112
1782984778166962200,1.200962158203125,-0.041742388159036636,0.006512227933853865,0.0033933997619897127
1782984778177036000,1.2110361328125,-0.03738012909889221,0.0047087352722883224,0.012132562696933746
1782984778187111200,1.221111083984375,-0.03298910707235336,0.011739213950932026,0.007574562914669514
1782984778197185000,1.23118505859375,-0.028680913150310516,0.014398912899196148,-0.0017331852577626705
1782984778207260200,1.24126025390625,-0.021938055753707886,0.02003096602857113,-0.01073759887367487
1782984778217334000,1.251333984375,-0.013850035145878792,0.01721893437206745,-0.015594938769936562
1782984778227408100,1.261408203125,-0.005362807307392359,0.005090099759399891,-0.023920247331261635
1782984778237483000,1.27148291015625,0.0008106662426143885,-0.0024202808272093534,-0.019468506798148155
1782984778247557000,1.28155712890625,0.008675247430801392,0.00038962045800872147,-0.013975470326840878
1782984778257632000,1.291632080078125,0.0020572920329868793,0.0034445326309651136,-0.013072924688458443
1782984778267706000,1.3017060546875,-0.0033454629592597485,0.0005520732956938446,-0.014962171204388142
1782984778277780000,1.311780029296875,-0.005391835700720549,-0.001999235013499856,-0.01841895468533039
1782984778287855000,1.321855224609375,-0.006286657880991697,-0.005891445092856884,-0.02610830031335354
1782984778297929000,1.331928955078125,-0.009920541197061539,-0.006040581967681646,-0.030224481597542763
1782984778308004000,1.342004150390625,-0.01399011816829443,0.006542587652802467,-0.03441789373755455
1782984778318078000,1.352077880859375,-0.012283829972147942,0.022551115602254868,-0.034983016550540924
1782984778328152000,1.362152099609375,-0.015293735079467297,0.04224279522895813,-0.035109251737594604
1782984778338227000,1.37222705078125,-0.015740081667900085,0.054790809750556946,-0.02700898051261902
1782984778348301000,1.382301025390625,-0.01095597818493843,0.0641893744468689,-0.017954498529434204
1782984778358376000,1.3923759765625,-0.005983323790132999,0.05974721908569336,-0.014365890063345432
1782984778368450000,1.402449951171875,0.0015313175972551107,0.04639093577861786,-0.021104220300912857
1782984778378524200,1.412524169921875,0.0126393623650074,0.0436319001019001,-0.026090988889336586
1782984778388599000,1.42259912109375,0.024281371384859085,0.03524640575051308,-0.039498940110206604
1782984778398673200,1.432673095703125,0.028839902952313423,0.015063637867569923,-0.046236470341682434
1782984778408748000,1.442748046875,0.03687625750899315,0.012840164825320244,-0.04356105998158455
1782984778418822100,1.452822265625,0.040767934173345566,0.01948847994208336,-0.04075302183628082
1782984778428896300,1.462896240234375,0.040760479867458344,0.018424279987812042,-0.027215376496315002
1782984778438971100,1.47297119140625,0.04512433335185051,0.01629854552447796,-0.011032677255570889
1782984778449045200,1.483045166015625,0.04246436804533005,0.010605506598949432,0.01607270911335945
1782984778459120000,1.4931201171875,0.04062971845269203,0.015896407887339592,0.03766908124089241
1782984778469194200,1.5031943359375,0.03524640575051308,0.024980716407299042,0.05301661416888237
1782984778479268000,1.51326806640625,0.035579830408096313,0.025779666379094124,0.059415388852357864
1782984778489343200,1.52334326171875,0.04241456836462021,0.026922160759568214,0.06822352856397629
1782984778499417000,1.5334169921875,0.04789268970489502,0.017463944852352142,0.08030842244625092
1782984778509492200,1.5434921875,0.049726009368896484,0.0267192292958498,0.09656515717506409
1782984778519566000,1.553566162109375,0.0351521298289299,0.051474109292030334,0.12911458313465118
1782984778529640200,1.56364013671875,0.022189725190401077,0.07249177992343903,0.15653207898139954
1782984778539715000,1.573715087890625,0.016447948291897774,0.09606767445802689,0.20131953060626984
1782984778549789200,1.5837890625,0.01583435758948326,0.08900816738605499,0.25121626257896423
1782984778559864000,1.593864013671875,0.022274145856499672,0.05597059056162834,0.3031476140022278
1782984778569938200,1.603938232421875,0.03345489501953125,0.0017329188995063305,0.33453136682510376
1782984778580012000,1.614011962890625,0.05209595710039139,-0.02552187070250511,0.35868918895721436
1782984778590087200,1.624087158203125,0.05726808309555054,-0.03690102696418762,0.3660581409931183
1782984778600161000,1.6341611328125,0.05125226825475693,-0.02184617705643177,0.37406015396118164
1782984778610236200,1.644236083984375,0.04334427788853645,0.018981413915753365,0.4090716540813446
1782984778620310000,1.65431005859375,0.048403751105070114,0.0452289953827858,0.46759462356567383
1782984778630383900,1.6643837890625,0.06059516966342926,0.043167710304260254,0.5416536927223206
1782984778640459000,1.674458984375,0.0781286209821701,0.027187146246433258,0.6167334914207458
1782984778650532900,1.684532958984375,0.08532741665840149,-0.008321845903992653,0.683819591999054
1782984778660607000,1.69460693359375,0.08131296187639236,-0.05194122716784477,0.7420831918716431
1782984778670682000,1.70468212890625,0.08173374831676483,-0.09421651065349579,0.7666550874710083
1782984778680756000,1.714755859375,0.09226681292057037,-0.13349813222885132,0.7579164505004883
1782984778690831000,1.7248310546875,0.11667947471141815,-0.16712933778762817,0.7248844504356384
1782984778700905000,1.734905029296875,0.14244769513607025,-0.1864098161458969,0.6773747801780701
1782984778710980000,1.74497998046875,0.16279877722263336,-0.1824963092803955,0.638380765914917
1782984778721054000,1.755053955078125,0.17052540183067322,-0.1493476778268814,0.5990948677062988
1782984778731128000,1.765128173828125,0.16362541913986206,-0.12167689949274063,0.5452255010604858
1782984778741203000,1.775202880859375,0.15530197322368622,-0.1000983715057373,0.46714454889297485
1782984778751277000,1.785277099609375,0.1528491973876953,-0.07707374542951584,0.37781599164009094
1782984778761351200,1.79535107421875,0.148165762424469,-0.06909038871526718,0.2891242206096649
1782984778771426000,1.805426025390625,0.13811366260051727,-0.07971107214689255,0.21315115690231323
1782984778781500200,1.815500244140625,0.12623330950737,-0.09085240960121155,0.15862266719341278
1782984778791575300,1.8255751953125,0.11372257024049759,-0.0771951824426651,0.13807158172130585
1782984778801649200,1.835649169921875,0.09840673208236694,-0.04884423688054085,0.12998463213443756
1782984778811724300,1.845724365234375,0.07905939966440201,-0.02106134220957756,0.11890134960412979
1782984778821798100,1.855798095703125,0.06208547577261925,-0.005092230159789324,0.101401187479496
1782984778831872000,1.8658720703125,0.04892146959900856,0.019873572513461113,0.07974223047494888
1782984778841947100,1.875947021484375,0.03250494599342346,0.0429525263607502,0.05230368301272392
1782984778852021000,1.88602099609375,0.024980716407299042,0.046777624636888504,0.023242471739649773
1782984778862095000,1.89609521484375,0.02051779255270958,0.038001179695129395,-0.012715528719127178
1782984778872170000,1.906169921875,0.020195815712213516,0.026098178699612617,-0.03484160453081131
1782984778882241800,1.91624169921875,0.025235049426555634,0.017543306574225426,-0.04669560119509697
1782984778892317000,1.92631689453125,0.0252225324511528,0.005626993253827095,-0.04772304743528366
1782984778902390800,1.936390869140625,0.024143153801560402,0.0020756677258759737,-0.0370488315820694
1782984778912465000,1.94646484375,0.01769537292420864,-0.006216616835445166,-0.021510884165763855
1782984778922539800,1.956539794921875,0.012074239552021027,-0.01417467463761568,-0.01050563808530569
1782984778932614000,1.96661376953125,0.003862382611259818,-0.012576778419315815,-0.003962250892072916
1782984778942688800,1.976688720703125,0.005049353465437889,-0.01273044291883707,-0.007435812149196863
1782984778952763000,1.986762939453125,0.0028453213162720203,0.0023457121569663286,-0.0121277691796422
1782984778962836700,1.996836669921875,0.006625678390264511,0.019393937662243843,-0.004721784498542547
1782984778972911900,2.006911865234375,-0.0014082795241847634,0.026310965418815613,0.00250470289029181
1782984778982985700,2.01698583984375,-0.00478543434292078,0.02112339437007904,0.0018250643042847514
1782984778993060900,2.027060791015625,0.0005430185701698065,0.007123423274606466,-0.0016911072889342904
1782984779003134700,2.037134765625,0.014248711057007313,-0.004082892090082169,-0.01278610248118639
1782984779013208600,2.04720849609375,0.01973402313888073,-0.018745457753539085,-0.02647262066602707
1782984779023283700,2.05728369140625,0.025723472237586975,-0.024387365207076073,-0.04511980712413788
1782984779033357800,2.06735791015625,0.03056723065674305,-0.012947756797075272,-0.04873931035399437
1782984779043432700,2.0774326171875,0.026931749656796455,0.006020075641572475,-0.049306031316518784
1782984779053506800,2.0875068359375,0.01895025558769703,0.013169597834348679,-0.04730226844549179
1782984779063580700,2.09758056640625,0.016037289053201675,0.010068346746265888,-0.04385320842266083
1782984779073655800,2.10765576171875,0.007920240983366966,0.008466455154120922,-0.03267405554652214
1782984779083729700,2.117729736328125,0.003291134489700198,0.007978830486536026,-0.0025214808993041515
1782984779093804800,2.1278046875,-0.006487993057817221,0.022456306964159012,0.034148115664720535
1782984779103878700,2.137878662109375,-0.014389325864613056,0.016576845198869705,0.056117329746484756
1782984779113952500,2.147952392578125,-0.011887552216649055,0.012842562049627304,0.07342734187841415
1782984779124027600,2.158027587890625,-0.005560147576034069,0.0192506592720747,0.07296688854694366
1782984779134101500,2.1681015625,-0.009702161885797977,0.025783659890294075,0.07027363032102585
1782984779144176600,2.1781767578125,-0.015300393104553223,0.03468075022101402,0.0549178421497345
1782984779154250800,2.188250732421875,-0.01636512391269207,0.035659193992614746,0.04376106336712837
1782984779164324900,2.198324951171875,-0.016166452318429947,0.02739007957279682,0.03296780213713646
1782984779174399700,2.208399658203125,-0.016996826976537704,0.030557909980416298,0.03659769147634506
1782984779184473900,2.218473876953125,-0.016443155705928802,0.021702365949749947,0.050518568605184555
1782984779194548700,2.228548828125,-0.0170852430164814,0.00532419141381979,0.06259973347187042
1782984779204622800,2.238622802734375,-0.006932741031050682,-0.0023819312918931246,0.07471098750829697
1782984779214696700,2.24869677734375,-0.001466602785512805,-0.005915679503232241,0.07910867035388947
1782984779224771800,2.258771728515625,0.00033955302205868065,0.006263222079724073,0.08141043782234192
1782984779234845700,2.268845703125,-0.002211222657933831,0.016504675149917603,0.07752355188131332
1782984779244920800,2.2789208984375,-0.005569735076278448,0.03825177997350693,0.06740780174732208
1782984779254994700,2.28899462890625,-0.004114849958568811,0.05058381333947182,0.0575391910970211
1782984779265068800,2.29906884765625,0.009456618689000607,0.04789268970489502,0.03889493644237518
1782984779275144000,2.30914404296875,0.023317839950323105,0.025043301284313202,0.019365709275007248
1782984779285217800,2.3192177734375,0.033432792872190475,0.0033217607997357845,0.004305266309529543
1782984779295293000,2.32929296875,0.03897056728601456,-0.013758955523371696,-0.003379285102710128
1782984779305366800,2.33936669921875,0.037810228765010834,-0.027891552075743675,0.0007323693134821951
1782984779315440600,2.349440673828125,0.02653387188911438,-0.03485625237226486,0.01727672480046749
1782984779325515800,2.359515869140625,0.015563246794044971,-0.029036978259682655,0.03074539639055729
1782984779335589600,2.369589599609375,0.006711964961141348,-0.0145286088809371,0.03652472048997879
1782984779345664800,2.379664794921875,-0.001958222361281514,0.004520716145634651,0.037991590797901154
1782984779355738600,2.389738525390625,-0.007237140089273453,0.013617807999253273,0.02431625872850418
1782984779365812700,2.399812744140625,-0.005602492019534111,0.024104004725813866,0.012506737373769283
1782984779375887600,2.4098876953125,-0.003014165675267577,0.024095483124256134,0.007290403358638287
1782984779385961700,2.419961669921875,0.0012884372845292091,0.018632806837558746,0.0075881448574364185
1782984779396036900,2.430036865234375,0.006895190104842186,0.019040269777178764,0.016887636855244637
1782984779406110700,2.44011083984375,0.008229433558881283,0.012712866067886353,0.019887953996658325
1782984779416184600,2.4501845703125,0.006415288895368576,0.000499875342939049,0.017232783138751984
1782984779426259700,2.460259765625,0.007527690846472979,0.00344559783115983,0.010963435284793377
1782984779436333600,2.47033349609375,0.005780124571174383,0.016460731625556946,0.004019242711365223
1782984779446408700,2.48040869140625,0.003525758860632777,0.022097045555710793,-0.003934554290026426
1782984779456482600,2.490482666015625,0.001228516222909093,0.033012278378009796,-0.01660321094095707
1782984779466556700,2.500556640625,0.001668736687861383,0.03147776424884796,-0.02557673305273056
1782984779476631600,2.510631591796875,0.006959639023989439,0.017042633146047592,-0.025471271947026253
1782984779486705700,2.52070556640625,0.007498396094888449,0.009546367451548576,-0.02081233821809292
1782984779496780500,2.530780517578125,0.00857244897633791,0.011001784354448318,-0.01119086891412735
1782984779506854700,2.540854736328125,0.01095624454319477,0.009925068356096745,0.003424558788537979
1782984779516928800,2.5509287109375,0.01008219551295042,0.008027033880352974,0.008370847441256046
1782984779527003600,2.561003662109375,0.007911453023552895,0.009818010032176971,0.0049039446748793125
1782984779537077800,2.571077880859375,0.007888549007475376,0.01381168607622385,0.001999235013499856
1782984779547152600,2.581152587890625,0.012234562076628208,0.019817380234599113,-0.01272618118673563
1782984779557226800,2.591226806640625,0.011458250693976879,0.024702683091163635,-0.02521454356610775
1782984779567300900,2.60130078125,0.010320281609892845,0.02082725055515766,-0.0319448821246624
1782984779577375700,2.611375732421875,0.010990865528583527,0.018143316730856895,-0.021796375513076782
1782984779587449900,2.621449951171875,0.007877896539866924,0.01967596635222435,-0.0037670412566512823
1782984779597524700,2.631524658203125,0.006909571588039398,0.013189039193093777,0.00498064374551177
1782984779607598800,2.641598876953125,0.0152588477358222,0.007904794998466969,0.007002782076597214
1782984779617672700,2.651672607421875,0.02003629319369793,0.010602310299873352,0.004160123877227306
1782984779627747800,2.661747802734375,0.016773387789726257,0.0046903593465685844,-0.010201504454016685
1782984779637821700,2.67182177734375,0.019096728414297104,0.001970472978428006,-0.026249714195728302
1782984779647896800,2.681896728515625,0.02136201411485672,0.010745588690042496,-0.03597664460539818
1782984779657970700,2.691970703125,0.026378078386187553,0.01500851009041071,-0.04282496124505997
1782984779668044800,2.702044921875,0.027589550241827965,0.01618962176144123,-0.03960679844021797
1782984779678119700,2.71211962890625,0.02917972393333912,0.02052018791437149,-0.0333920456469059
1782984779688193800,2.72219384765625,0.02526887133717537,0.01655128039419651,-0.019470637664198875
1782984779698268700,2.7322685546875,0.022761238738894463,0.01745755411684513,-0.0023001721128821373
1782984779708342800,2.7423427734375,0.020011791959404945,0.022009162232279778,0.011798868887126446
1782984779718416600,2.752416748046875,0.015858059749007225,0.02532346546649933,0.011038536205887794
1782984779728491800,2.76249169921875,0.015124358236789703,0.029831131920218468,-0.0010343717876821756
1782984779738565600,2.772565673828125,0.015138738788664341,0.02610963024199009,-0.024292023852467537
1782984779748640800,2.782640869140625,0.02040966786444187,0.01543355081230402,-0.044749096035957336
1782984779758714600,2.792714599609375,0.022824356332421303,0.00387303507886827,-0.053636595606803894
1782984779768788700,2.802788818359375,0.029395971447229385,-0.006025668233633041,-0.05867769569158554
1782984779778863600,2.812863525390625,0.03315156325697899,-0.004077299498021603,-0.057131461799144745
1782984779788937700,2.822937744140625,0.030186397954821587,0.006238454952836037,-0.04204785078763962
1782984779799012600,2.8330126953125,0.03375157341361046,0.010575679130852222,-0.03563921898603439
1782984779809086700,2.843086669921875,0.031682029366493225,0.021577198058366776,-0.032214127480983734
1782984779819160600,2.85316064453125,0.029499834403395653,0.027423102408647537,-0.034876223653554916
1782984779829235700,2.863235595703125,0.029035113751888275,0.03226446360349655,-0.047271110117435455
1782984779839309600,2.8733095703125,0.04007285088300705,0.03416675701737404,-0.05639403313398361
1782984779849384700,2.883384765625,0.05134068429470062,0.03744244575500488,-0.05491464585065842
1782984779859458600,2.89345849609375,0.04717603325843811,0.04367450997233391,-0.03928002715110779
1782984779869533700,2.90353369140625,0.03232837840914726,0.06114378198981285,-0.017014402896165848
1782984779879607600,2.913607666015625,0.02677222527563572,0.07259830087423325,-0.000731836655177176
1782984779889681400,2.923681396484375,0.03346634656190872,0.07726442813873291,0.005565473809838295
1782984779899756500,2.933756591796875,0.0393090546131134,0.06741126626729965,-0.0020572920329868793
1782984779909830400,2.943830322265625,0.047561660408973694,0.04759787768125534,-0.021735122427344322
1782984779919904300,2.953904296875,0.06125723198056221,0.018866632133722305,-0.04212960973381996
1782984779929979400,2.9639794921875,0.07772861421108246,-0.0038365498185157776,-0.059853747487068176
1782984779940053200,2.97405322265625,0.08601264655590057,-0.014826349914073944,-0.06857825815677643
1782984779950128400,2.98412841796875,0.09080526977777481,-0.015053251758217812,-0.06808371096849442
1782984779960202200,2.9942021484375,0.09111792594194412,0.005441637244075537,-0.056412409991025925
1782984779970276400,3.0042763671875,0.09093070775270462,0.017726533114910126,-0.03867122903466225
1782984779980351500,3.0143515625,0.08809018135070801,0.03905818611383438,-0.029942452907562256
1782984779990425300,3.02442529296875,0.08625099807977676,0.06048837676644325,-0.020267454907298088
1782984780000500500,3.03450048828125,0.08662091195583344,0.07903169840574265,-0.019839217886328697
1782984780010574300,3.04457421875,0.0936007872223854,0.07061771303415298,-0.018261294811964035
1782984780020649500,3.0546494140625,0.09061805158853531,0.0592244416475296,-0.01660454273223877
1782984780030723300,3.064723388671875,0.09445007145404816,0.05064266920089722,-0.022067485377192497
1782984780040797200,3.074797119140625,0.1058148443698883,0.052559614181518555,-0.029455626383423805
1782984780050872300,3.084872314453125,0.10916163772344589,0.056296296417713165,-0.0362943597137928
1782984780060946200,3.0949462890625,0.10461349785327911,0.05792961269617081,-0.04399222508072853
1782984780071021300,3.105021240234375,0.09956147521734238,0.07091518491506577,-0.04587321728467941
1782984780081095200,3.11509521484375,0.09194403886795044,0.08657803386449814,-0.04801972210407257
1782984780091169300,3.125169189453125,0.09089315682649612,0.09464874118566513,-0.05128023028373718
1782984780101244200,3.135244140625,0.08848139643669128,0.10416422039270401,-0.051652275025844574
1782984780111318300,3.145318359375,0.08235346525907516,0.10297751426696777,-0.04670998081564903
1782984780121393400,3.155393310546875,0.07597572356462479,0.09993112087249756,-0.04008350521326065
1782984780131467300,3.16546728515625,0.07653232663869858,0.09159862250089645,-0.03152303770184517
1782984780141541000,3.175541015625,0.07595948129892349,0.08237104117870331,-0.03081090934574604
1782984780151616300,3.1856162109375,0.08357398957014084,0.07356130331754684,-0.024576449766755104
1782984780161690000,3.195690185546875,0.08794210851192474,0.0843990370631218,-0.016623983159661293
1782984780171765200,3.20576513671875,0.08432047069072723,0.08842653781175613,-0.012419651262462139
1782984780181839000,3.215839111328125,0.08637430518865585,0.08814077824354172,-0.011624963954091072
1782984780191913500,3.22591357421875,0.08874664455652237,0.08558893948793411,-0.011768242344260216
1782984780201988000,3.235988037109375,0.08369436115026474,0.08709495514631271,-0.024999093264341354
1782984780212062500,3.2460625,0.08269594609737396,0.08554153144359589,-0.03742034360766411
1782984780222137000,3.25613720703125,0.07982265949249268,0.0842786580324173,-0.04950843006372452
1782984780232211500,3.26621142578125,0.08234573900699615,0.08706645667552948,-0.056469134986400604
1782984780242285300,3.276285400390625,0.08335641026496887,0.0943901538848877,-0.049134522676467896
1782984780252360400,3.2863603515625,0.07692380994558334,0.09289505332708359,-0.028205804526805878
1782984780262434300,3.296434326171875,0.07269763946533203,0.09299465268850327,-0.0024429175537079573
1782984780272509400,3.306509521484375,0.07035113126039505,0.0933334082365036,0.008048605173826218
1782984780282583300,3.316583251953125,0.07333493232727051,0.08562649041414261,0.013333382084965706
1782984780292657400,3.326657470703125,0.07576426863670349,0.08318010717630386,0.009246495552361012
1782984780302732300,3.336732177734375,0.07746735960245132,0.08275506645441055,-0.0008290420519188046
1782984780312806400,3.346806396484375,0.07726495712995529,0.07771876454353333,-0.01543594803661108
1782984780322881300,3.35688134765625,0.07673392444849014,0.07240016758441925,-0.024691497907042503
1782984780332955400,3.366955322265625,0.07470352947711945,0.0850943848490715,-0.03061729669570923
1782984780343029200,3.377029296875,0.07243611663579941,0.08731439709663391,-0.02887638844549656
1782984780353104400,3.3871044921875,0.0660029873251915,0.09333181381225586,-0.014532070606946945
1782984780363178200,3.39717822265625,0.06347351521253586,0.09618645161390305,0.002086054068058729
1782984780373253400,3.40725341796875,0.062080416828393936,0.08690214157104492,0.01611851528286934
1782984780383327200,3.4173271484375,0.06285806000232697,0.07562578469514847,0.023014238104224205
1782984780393401300,3.4274013671875,0.06651084870100021,0.0686831921339035,0.021686652675271034
1782984780403476200,3.437476318359375,0.06228228285908699,0.07375305145978928,0.013768009841442108
1782984780413550300,3.44755029296875,0.05950407311320305,0.0759645402431488,0.002916161436587572
1782984780423625200,3.457625244140625,0.059422045946121216,0.07666974514722824,-0.010791128501296043
1782984780433699300,3.46769921875,0.06734788417816162,0.07635096460580826,-0.012325908057391644
1782984780443773200,3.477773193359375,0.0717594102025032,0.07763806730508804,-0.015906261280179024
1782984780453848300,3.487848388671875,0.07692966610193253,0.07343453913927078,-0.018207499757409096
1782984780463922200,3.497922119140625,0.07423081994056702,0.07072184234857559,-0.015244998969137669
1782984780473997300,3.507997314453125,0.07511312514543533,0.06411320716142654,-0.01775582693517208
1782984780484071200,3.5180712890625,0.07754858583211899,0.05922284349799156,-0.020615262910723686
1782984780494145300,3.528145263671875,0.08075796067714691,0.057611096650362015,-0.016517458483576775
1782984780504220200,3.53822021484375,0.07470539957284927,0.06591882556676865,-0.01625540293753147
1782984780514294300,3.548294189453125,0.06443411856889725,0.08160804212093353,-0.026452379301190376
1782984780524369200,3.558369140625,0.06906215846538544,0.08199979364871979,-0.0344940610229969
1782984780534443300,3.568443359375,0.07430725544691086,0.0931677594780922,-0.042264364659786224
1782984780544517400,3.578517333984375,0.073931485414505,0.10310374945402145,-0.04904504120349884
1782984780554592300,3.58859228515625,0.08280567079782486,0.08821268379688263,-0.054974302649497986
1782984780564666400,3.598666259765625,0.10231491923332214,0.0829010084271431,-0.05109088122844696
1782984780574741200,3.6087412109375,0.10922635346651077,0.07734192907810211,-0.042997535318136215
1782984780584815400,3.6188154296875,0.1156858503818512,0.07051651179790497,-0.04011918976902962
1782984780594889500,3.628889404296875,0.1161566972732544,0.06069690361618996,-0.0384584441781044
1782984780604964400,3.63896435546875,0.10142409056425095,0.04704686999320984,-0.026762904599308968
1782984780615038500,3.64903857421875,0.07436610758304596,0.05156465619802475,-0.017242103815078735
1782984780625113300,3.65911328125,0.06994792819023132,0.06501095741987228,-0.0003779025573749095
1782984780635187500,3.6691875,0.06671778112649918,0.053938865661621094,0.01170406024903059
1782984780645261300,3.67926123046875,0.06021673604846001,0.052509013563394547,0.016102537512779236
1782984780655336400,3.68933642578125,0.06660352647304535,0.06240025907754898,0.013258547522127628
1782984780665410300,3.699410400390625,0.06897533684968948,0.04832572117447853,0.0008024104172363877
1782984780675485400,3.7094853515625,0.08071401715278625,0.053454700857400894,-0.017062339931726456
1782984780685559300,3.719559326171875,0.08624833822250366,0.04146594926714897,-0.03130705654621124
1782984780695633400,3.72963330078125,0.09139968454837799,0.03544720634818077,-0.042343463748693466
1782984780705708300,3.739708251953125,0.08422166854143143,0.026631077751517296,-0.03977750614285469
1782984780715782400,3.749782470703125,0.07186353951692581,0.02346857450902462,-0.03454412892460823
1782984780725857300,3.759857177734375,0.05696794390678406,0.022853383794426918,-0.018197912722826004
1782984780735931400,3.769931396484375,0.04765167459845543,0.011885154992341995,-0.012312326580286026
1782984780746005200,3.780005126953125,0.04029682278633118,-0.008583367802202702,-0.01489639189094305
1782984780756080400,3.790080322265625,0.03724990040063858,-0.0227348729968071,-0.022778283804655075
1782984780766154200,3.800154296875,0.0369604155421257,-0.030919034034013748,-0.027936825528740883
1782984780776229400,3.8102294921875,0.03292252868413925,-0.03502722457051277,-0.027520574629306793
1782984780786303200,3.82030322265625,0.029525667428970337,-0.0384397991001606,-0.024541562423110008
1782984780796377300,3.83037744140625,0.0231721643358469,-0.060673732310533524,-0.014026869088411331
1782984780806452200,3.8404521484375,0.013469736091792583,-0.07893076539039612,0.00021198761533014476
1782984780816526300,3.8505263671875,0.002385925967246294,-0.09173498302698135,0.00971707608550787
1782984780826601200,3.860601318359375,-0.004579837899655104,-0.09994470328092575,0.012061722576618195
1782984780836675300,3.87067529296875,-0.00882038939744234,-0.09866825491189957,-0.00464721629396081
1782984780846750200,3.880750244140625,-0.007044061087071896,-0.09499708563089371,-0.020839501172304153
1782984780856824300,3.89082421875,-0.0056863813661038876,-0.09542745351791382,-0.04851560294628143
1782984780866898200,3.900898193359375,-0.0013028184184804559,-0.0963078960776329,-0.06893592327833176
1782984780876973300,3.910973388671875,-0.006487726699560881,-0.09490334242582321,-0.0808197483420372
1782984780887047200,3.921047119140625,-0.008238755166530609,-0.07920294255018234,-0.07492803782224655
1782984780897122000,3.9311220703125,-0.009734652936458588,-0.05386349931359291,-0.05758420005440712
1782984780907196200,3.941196044921875,-0.015301991254091263,-0.047260988503694534,-0.03839319571852684
1782984780917270300,3.951270263671875,-0.021873872727155685,-0.05115745961666107,-0.022895995527505875
1782984780927345200,3.96134521484375,-0.029524069279432297,-0.0540216900408268,-0.0062427157536149025
1782984780937419300,3.971419189453125,-0.04025368019938469,-0.04953639209270477,-0.002828543307259679
1782984780947494100,3.981494140625,-0.04477839171886444,-0.03889014199376106,-0.005799565929919481
1782984780957567200,3.991567138671875,-0.04989565536379814,-0.03281227499246597,-0.008597216568887234
1782984780967641300,4.001641357421875,-0.05380304530262947,-0.024810008704662323,-0.014008226804435253
1782984780977716200,4.01171630859375,-0.05777914449572563,-0.021405955776572227,-0.01655394211411476
1782984780987790300,4.021790283203125,-0.05500093474984169,-0.014199974946677685,-0.010875817388296127
1782984780997865200,4.031865234375,-0.05121098831295967,-0.008233695290982723,-0.005904494319111109
1782984781007939300,4.041939208984375,-0.045160021632909775,-0.004378769546747208,0.0030573089607059956
1782984781018013200,4.05201318359375,-0.03940253332257271,-0.0025270734913647175,0.012268117628991604
1782984781028088300,4.06208837890625,-0.03676999732851982,0.006262423470616341,0.027751203626394272
1782984781038162200,4.072162109375,-0.032292161136865616,0.0037736992817372084,0.040941040962934494
1782984781048237300,4.0822373046875,-0.026461169123649597,0.002406965009868145,0.05684357509016991
1782984781058311200,4.092311279296875,-0.022523684427142143,0.002329733222723007,0.059791162610054016
1782984781068385300,4.10238525390625,-0.013851366937160492,0.005378786474466324,0.06130436807870865
1782984781078460200,4.112460205078125,-0.007012103218585253,0.004542287439107895,0.05158090218901634
1782984781088534300,4.1225341796875,-0.006888532545417547,0.003567836945876479,0.036617666482925415
1782984781098609200,4.132609130859375,-0.007649397477507591,0.004655472002923489,0.023670176044106483
1782984781108683300,4.142683349609375,-0.007709851488471031,0.0038434739690274,0.007740743923932314
1782984781118758100,4.152758056640625,0.00045300371129997075,-0.009034241549670696,-0.00882038939744234
1782984781128832300,4.162832275390625,0.0031180288642644882,-0.028331506997346878,-0.016264457255601883
1782984781138906400,4.17290625,-0.0016684704460203648,-0.03196246176958084,-0.016888702288269997
1782984781148981200,4.182981201171875,-0.01344763208180666,-0.016103070229291916,-0.016562998294830322
1782984781159055400,4.193055419921875,-0.02617381326854229,0.003442934714257717,-0.013233247213065624
1782984781169130200,4.203130126953125,-0.025492576882243156,0.025188976898789406,-0.002400306984782219
1782984781179204400,4.213204345703125,-0.02424515224993229,0.032306008040905,0.010029997676610947
1782984781189278500,4.223278564453125,-0.012201006524264812,0.016458602622151375,0.018267953768372536
1782984781199353300,4.233353271484375,0.001490304945036769,-0.00695058424025774,0.02009221911430359
1782984781209427500,4.243427490234375,0.01062228437513113,-0.03538462147116661,0.01695900969207287
1782984781219502300,4.25350244140625,0.018392322584986687,-0.054064568132162094,0.009289105422794819
1782984781229576400,4.263576416015625,0.013381319120526314,-0.06229479983448982,0.008493886329233646
1782984781239650300,4.273650390625,0.0017182715237140656,-0.05459107458591461,-0.0018069547368213534
1782984781249725400,4.283725341796875,-0.005524461157619953,-0.03729943558573723,-0.007125020958483219
1782984781259799300,4.29379931640625,-0.018976088613271713,-0.01858566887676716,-0.013577860780060291
1782984781269874400,4.30387451171875,-0.028779983520507812,-0.013852432370185852,-0.014974155463278294
1782984781279948300,4.3139482421875,-0.02574451081454754,-0.009073922410607338,-0.004429901950061321
1782984781290022100,4.324022216796875,-0.020771058276295662,-0.005062402691692114,0.004029096569865942
1782984781300097300,4.33409716796875,-0.016827449202537537,-0.001210406655445695,0.016332633793354034
1782984781310171100,4.344171142578125,-0.01865677535533905,-0.005817409139126539,0.022178007289767265
1782984781320246300,4.354246337890625,-0.027356790378689766,-0.016656208783388138,0.01925971545279026
1782984781330320400,4.3643203125,-0.023672573268413544,-0.02413143590092659,0.023129820823669434
1782984781340394200,4.374394287109375,-0.02173006348311901,-0.03123408555984497,0.022117020562291145
1782984781350469400,4.384469482421875,-0.022719161584973335,-0.04602448269724846,0.02112152986228466
1782984781360543200,4.394543212890625,-0.025192171335220337,-0.052854426205158234,0.020871460437774658
1782984781370618400,4.404618408203125,-0.03245354816317558,-0.06084444373846054,0.026508040726184845
1782984781380692200,4.414692138671875,-0.046065229922533035,-0.06921529024839401,0.03880438581109047
1782984781390766000,4.42476611328125,-0.06053951010107994,-0.0774761512875557,0.04037591814994812
1782984781400841200,4.43484130859375,-0.06422106176614761,-0.08249807357788086,0.05131964758038521
1782984781410915000,4.4449150390625,-0.061162423342466354,-0.09044095128774643,0.053591590374708176
1782984781420990200,4.454990234375,-0.061462294310331345,-0.1024739071726799,0.04998673498630524
1782984781431064000,4.46506396484375,-0.05831550434231758,-0.09691589325666428,0.04544870927929878
1782984781441138200,4.47513818359375,-0.06454890221357346,-0.07988551259040833,0.05657432973384857
1782984781451213300,4.48521337890625,-0.07594136893749237,-0.06623547524213791,0.0756678655743599
1782984781461287200,4.495287109375,-0.08459877222776413,-0.0655856654047966,0.08764968812465668
1782984781471362300,4.5053623046875,-0.0802873820066452,-0.06619925796985626,0.08228901028633118
1782984781481436200,4.515436279296875,-0.06580644100904465,-0.06370627135038376,0.06102526932954788
1782984781491510300,4.52551025390625,-0.05692347139120102,-0.054785482585430145,0.03877509385347366
1782984781501585200,4.535585205078125,-0.04393550008535385,-0.04760320484638214,0.013936588540673256
1782984781511659300,4.5456591796875,-0.028776520863175392,-0.038127146661281586,0.0031281490810215473
1782984781521734100,4.555734130859375,-0.019636020064353943,-0.03524134308099747,0.0011829761788249016
1782984781531808300,4.565808349609375,-0.01948555000126362,-0.03965819627046585,-0.006987868342548609
1782984781541882400,4.57588232421875,-0.01369077805429697,-0.05290635675191879,-0.011917113326489925
1782984781551957200,4.585957275390625,-0.014987205155193806,-0.047197870910167694,-0.01962163858115673
1782984781562031400,4.59603125,-0.014167217537760735,-0.035227227956056595,-0.026434004306793213
1782984781572106200,4.606106201171875,-0.0060325926169753075,-0.024476580321788788,-0.024776719510555267
1782984781582180400,4.616180419921875,-0.010669955052435398,-0.019226158037781715,-0.018147578462958336
1782984781592254200,4.626254150390625,-0.012559201568365097,-0.019755061715841293,-0.00932346098124981
1782984781602329300,4.636329345703125,-0.01113307848572731,-0.021869612857699394,-0.007001983001828194
1782984781612403200,4.6464033203125,-0.00887977797538042,-0.024996962398290634,-0.01564686931669712
1782984781622478300,4.656478271484375,-0.008052866905927658,-0.02269226312637329,-0.028562668710947037
1782984781632552200,4.66655224609375,-0.012051869183778763,-0.019419770687818527,-0.04392537847161293
1782984781642627300,4.67662744140625,-0.015667643398046494,-0.01575792394578457,-0.06155896931886673
1782984781652701200,4.686701171875,-0.01770203188061714,-0.022004101425409317,-0.07488489151000977
1782984781662775300,4.696775390625,-0.011404188349843025,-0.029017269611358643,-0.07159136235713959
1782984781672850200,4.70685009765625,-0.013643906451761723,-0.02545982040464878,-0.05277266725897789
1782984781682924300,4.71692431640625,-0.020788902416825294,-0.023764718323946,-0.02003469504415989
1782984781692999400,4.72699951171875,-0.03398513048887253,-0.024539431557059288,0.006077866069972515
1782984781703073300,4.7370732421875,-0.04289047420024872,-0.029327262192964554,0.023486150428652763
1782984781713147100,4.747147216796875,-0.039137016981840134,-0.03591538965702057,0.023435018956661224
1782984781723222300,4.75722216796875,-0.03738865256309509,-0.03822754696011543,0.009469934739172459
1782984781733296000,4.767296142578125,-0.03743765130639076,-0.03332306817173958,-0.012890764512121677
1782984781743371300,4.777371337890625,-0.03442801535129547,-0.030612504109740257,-0.028067320585250854
1782984781753445000,4.787445068359375,-0.0329827181994915,-0.03320828825235367,-0.033495109528303146
1782984781763519200,4.797519287109375,-0.0359358973801136,-0.045703306794166565,-0.025657959282398224
1782984781773594000,4.807593994140625,-0.04520689323544502,-0.06078745052218437,-0.007671768311411142
1782984781783668200,4.817668212890625,-0.049736663699150085,-0.07664258033037186,0.010118946433067322
1782984781793743000,4.8277431640625,-0.05634263530373573,-0.05687366798520088,0.017402159050107002
1782984781803817200,4.837817138671875,-0.0650104284286499,-0.03467968478798866,0.016111858189105988
1782984781813891000,4.84789111328125,-0.07175354659557343,-0.01321194227784872,0.00920335203409195
1782984781823966200,4.85796630859375,-0.06982621550559998,-0.008897088468074799,-0.010706440545618534
1782984781834040000,4.8680400390625,-0.060936588793992996,-0.033179525285959244,-0.029505161568522453
1782984781844115200,4.878115234375,-0.04399542137980461,-0.051960669457912445,-0.03885685279965401
1782984781854189000,4.88818896484375,-0.037568945437669754,-0.08441901206970215,-0.03952770307660103
1782984781864263400,4.898263427734375,-0.038171619176864624,-0.12347320467233658,-0.03501790389418602
1782984781874338000,4.908338134765625,-0.039866987615823746,-0.13603612780570984,-0.01943787932395935
1782984781884412400,4.918412353515625,-0.049735065549612045,-0.12430970370769501,-0.0008623315370641649
1782984781894487000,4.928487060546875,-0.06513719260692596,-0.11014194786548615,0.008643022738397121
1782984781904561400,4.9385615234375,-0.06920277327299118,-0.09231315553188324,0.007121026515960693
1782984781914635300,4.94863525390625,-0.07811983674764633,-0.06741685420274734,0.005149488337337971
1782984781924710400,4.95871044921875,-0.09006544202566147,-0.04518265649676323,-0.004836300387978554
1782984781934784300,4.9687841796875,-0.09207719564437866,-0.045097172260284424,-0.012945625931024551
1782984781944859400,4.978859375,-0.08330527693033218,-0.04384468495845795,-0.02058064192533493
1782984781954933200,4.988933349609375,-0.07499914616346359,-0.053648047149181366,-0.013688381761312485
1782984781965008400,4.99900830078125,-0.0717863067984581,-0.05723639205098152,-0.0015757924411445856
1782984781975082200,5.009082275390625,-0.06935883313417435,-0.06628288328647614,0.01269741915166378
1782984781985156400,5.01915625,-0.059843361377716064,-0.0744209736585617,0.027948277071118355
1782984781995231200,5.029231201171875,-0.057496581226587296,-0.07282174378633499,0.03328604996204376
1782984782005305300,5.039305419921875,-0.060444969683885574,-0.06888745725154877,0.024294421076774597
1782984782015380200,5.049380126953125,-0.05891924351453781,-0.05978982895612717,0.010118946433067322
1782984782025454300,5.059454345703125,-0.06069796904921532,-0.053939662873744965,-0.010536796413362026
1782984782035528200,5.069528076171875,-0.06238481402397156,-0.04302017018198967,-0.014158429577946663
1782984782045603300,5.079603271484375,-0.05915999412536621,-0.03316674008965492,-0.012761867605149746
1782984782055677200,5.08967724609375,-0.060029249638319016,-0.02696637064218521,-0.008929579518735409
1782984782065752300,5.09975244140625,-0.054135940968990326,-0.024769794195890427,0.000773381965700537
1782984782075826200,5.109826171875,-0.05423048138618469,-0.021230453625321388,0.010765562765300274
1782984782085900300,5.119900390625,-0.05134228244423866,-0.01720135658979416,0.01104759145528078
1782984782095975200,5.12997509765625,-0.04505668953061104,-0.016866864636540413,0.0028937908355146646
1782984782106049300,5.14004931640625,-0.03620221093297005,-0.006307963281869888,0.0014588796766474843
1782984782116124200,5.150124267578125,-0.03243543580174446,-0.005710882600396872,-0.00018961707246489823
1782984782126198300,5.1601982421875,-0.0322122648358345,-0.007896006107330322,-0.0008239820599555969
1782984782136272100,5.170272216796875,-0.027038009837269783,-0.0012389025650918484,0.0054365769028663635
1782984782146347300,5.18034716796875,-0.02315938100218773,0.0009097357979044318,0.010186058469116688
1782984782156421000,5.190421142578125,-0.018820559605956078,-0.008105597458779812,0.01810576766729355
1782984782166496300,5.200496337890625,-0.013112073764204979,-0.008172442205250263,0.02341504395008087
1782984782176570000,5.210570068359375,-0.009438509121537209,-0.006223541218787432,0.030189061537384987
1782984782186644200,5.220644287109375,-0.00720571493729949,-0.0062858592718839645,0.029707562178373337
1782984782196719000,5.230718994140625,-0.0030988543294370174,-0.005055478774011135,0.03226526081562042
1782984782206793200,5.240793212890625,-0.0031212246976792812,-0.0034756914246827364,0.027367176488041878
1782984782216868000,5.2508681640625,-0.0011222560424357653,-0.008686965331435204,0.021338578313589096
1782984782226942200,5.260942138671875,0.008333031088113785,-0.011611648835241795,0.018213091418147087
1782984782237016300,5.271016357421875,0.007744472473859787,-0.020203005522489548,0.02341451123356819
1782984782247091200,5.28109130859375,0.001130511867813766,-0.035532426089048386,0.02497645653784275
1782984782257165300,5.291165283203125,0.0001816275907913223,-0.040829986333847046,0.03440191596746445
1782984782267240200,5.301240234375,-0.005874933209270239,-0.03429805114865303,0.034862641245126724
1782984782277314300,5.311314208984375,-0.012466789223253727,-0.03171931207180023,0.033124130219221115
1782984782287389200,5.32138916015625,-0.016259929165244102,-0.03245354816317558,0.039145536720752716
1782984782297463300,5.33146337890625,-0.017839716747403145,-0.032279111444950104,0.04339274764060974
1782984782307537400,5.341537353515625,-0.023859526962041855,-0.02991235814988613,0.047575242817401886
1782984782317612300,5.3516123046875,-0.03223596513271332,-0.034919898957014084,0.03898388519883156
1782984782327686400,5.361686279296875,-0.037615817040205,-0.029692914336919785,0.0273866169154644
1782984782337761300,5.37176123046875,-0.034157171845436096,-0.019349996000528336,0.019878899678587914
1782984782347835400,5.38183544921875,-0.039257392287254333,-0.015904398635029793,0.012373845092952251
1782984782357909200,5.3919091796875,-0.031922779977321625,-0.020052537322044373,0.002304699504747987
1782984782367984400,5.401984375,-0.024509603157639503,-0.017418138682842255,-0.0025752766523510218
1782984782378058200,5.412058349609375,-0.02859089896082878,-0.01383858360350132,-0.008191883563995361
1782984782388133400,5.42213330078125,-0.03467408940196037,-0.018433602526783943,-0.01008086372166872
1782984782398207200,5.432207275390625,-0.03662725165486336,-0.02798343077301979,-0.01182097289711237
1782984782408281000,5.442281005859375,-0.03857402503490448,-0.044019121676683426,-0.023514913395047188
1782984782418356200,5.452356201171875,-0.038907453417778015,-0.04741492122411728,-0.03364797309041023
1782984782428430300,5.462430419921875,-0.038671497255563736,-0.028013525530695915,-0.03148016333580017
1782984782438505200,5.472505126953125,-0.04560024291276932,-0.005993976723402739,-0.023860592395067215
1782984782448579300,5.482579345703125,-0.05118435621261597,0.01299223117530346,-0.01543461624532938
1782984782458653200,5.492653076171875,-0.04887832701206207,0.02076892741024494,-0.01013652328401804
1782984782468728300,5.502728271484375,-0.03478940576314926,0.018501246348023415,-0.014643657021224499
1782984782478802200,5.51280224609375,-0.01836329512298107,0.0004396878939587623,-0.026334401220083237
1782984782488877300,5.522877197265625,-0.005821137689054012,-0.03578249737620354,-0.043542418628931046
1782984782498951200,5.532951171875,0.0015315839555114508,-0.06970211863517761,-0.05703505501151085
1782984782509025000,5.54302490234375,0.010211358778178692,-0.07397516071796417,-0.06604985892772675
1782984782519100200,5.55310009765625,0.01085797417908907,-0.06996417045593262,-0.07032343000173569
1782984782529174000,5.563174072265625,0.0007470166892744601,-0.06346659362316132,-0.06340693682432175
1782984782539249200,5.573249267578125,-0.006274673622101545,-0.04189791530370712,-0.0531415157020092
1782984782549323300,5.5833232421875,-0.013273460790514946,-0.02678048051893711,-0.034159835427999496
1782984782559397000,5.593397216796875,-0.013068397529423237,-0.01378265768289566,-0.01996598392724991
1782984782569472300,5.60347216796875,-0.016532370820641518,-0.025438513606786728,-0.01949780061841011
1782984782579546000,5.613546142578125,-0.012687299400568008,-0.030581876635551453,-0.022471753880381584
1782984782589621200,5.623621337890625,-0.007602259516716003,-0.013522200286388397,-0.025852102786302567
1782984782599695000,5.633695068359375,-0.0060264673084020615,-0.01356481108814478,-0.03162823244929314
1782984782609770200,5.643770263671875,-0.0068144965916872025,-0.018937738612294197,-0.03761102631688118
1782984782619844000,5.653843994140625,-0.008978847414255142,-0.011509649455547333,-0.03652205690741539
1782984782629918200,5.663918212890625,-0.013403955847024918,-0.008074171841144562,-0.0286465585231781
1782984782639993000,5.6739931640625,-0.017005614936351776,-0.005260275676846504,-0.025857429951429367
1782984782650067200,5.684067138671875,-0.019996877759695053,-0.0018647453980520368,-0.023188676685094833
1782984782660142000,5.69414208984375,-0.026766633614897728,-0.012624981813132763,-0.03111211210489273
1782984782670216400,5.704216552734375,-0.031087080016732216,-0.017768610268831253,-0.03507969155907631
1782984782680290300,5.714290283203125,-0.033057551831007004,-0.00439075380563736,-0.03725522756576538
1782984782690365400,5.724365478515625,-0.03057708404958248,0.0006719155353493989,-0.0463818795979023
1782984782700439300,5.734439208984375,-0.02713894285261631,-0.009876333177089691,-0.055385492742061615
1782984782710514400,5.744514404296875,-0.01594913937151432,-0.011261975392699242,-0.06536595523357391
1782984782720588300,5.75458837890625,-0.013381319120526314,-0.010898454114794731,-0.0683918371796608
1782984782730662100,5.764662109375,-0.003284742822870612,-0.01757127046585083,-0.06317897140979767
1782984782740737300,5.7747373046875,0.0025355955585837364,-0.014483335427939892,-0.04465774819254875
1782984782750811100,5.78481103515625,-0.005146026145666838,-0.0049340385012328625,-0.022039787843823433
1782984782760886300,5.79488623046875,-0.009403621777892113,-0.009363674558699131,-0.011157047003507614
1782984782770960100,5.804960205078125,-0.0070251524448394775,-0.008107461035251617,-0.010890464298427105
1782984782781034200,5.8150341796875,-0.005262672435492277,-0.009194031357765198,-0.028375182300806046
1782984782791109400,5.825109375,0.006325540132820606,-0.00395585922524333,-0.053522080183029175
1782984782801183200,5.835183349609375,0.014207165688276291,-0.00043888893560506403,-0.07435252517461777
1782984782811258400,5.84525830078125,0.017858359962701797,-0.00324852392077446,-0.07668226212263107
1782984782821332200,5.855332275390625,0.01864851824939251,-0.007847003638744354,-0.06625199317932129
1782984782831406000,5.865406005859375,0.013906494714319706,-0.015116901136934757,-0.04482020065188408
1782984782841481200,5.875481201171875,0.0086028091609478,-0.013117932714521885,-0.01955425925552845
1782984782851555000,5.88555517578125,0.007149788551032543,-0.00580862071365118,-0.0035489285364747047
1782984782861630200,5.895630126953125,0.0021995047573000193,0.0005925533478148282,0.00785525981336832
1782984782871704000,5.9057041015625,0.004402738064527512,-0.004277036525309086,0.004345746245235205
1782984782881779200,5.915779296875,0.0049582733772695065,-0.00839534867554903,-0.0038013961166143417
1782984782891853600,5.925853515625,0.004583832807838917,-0.006822752300649881,-0.010399377904832363
1782984782901927400,5.935927490234375,0.00166580721270293,-0.0036464000586420298,-0.013519803062081337
1782984782912002600,5.94600244140625,-0.007363373879343271,-0.007951133884489536,-0.013018596917390823
1782984782922076400,5.956076416015625,-0.01203961856663227,-0.010696586221456528,-0.013363742269575596
1782984782932151600,5.966151611328125,-0.006968959700316191,-0.005839246790856123,-0.005431783385574818
1782984782942225700,5.9762255859375,-0.007726629264652729,-0.005834719631820917,0.0022240057587623596
1782984782952299500,5.986299560546875,-0.00977300200611353,-0.010320015251636505,0.014166951179504395
1782984782962374700,5.996374755859375,-0.007149255834519863,-0.012464659288525581,0.019527629017829895
1782984782972448500,6.006448486328125,0.001148088718764484,-0.01683703623712063,0.01708684116601944
1782984782982523600,6.016523681640625,0.005628324579447508,-0.01949380710721016,0.011574630625545979
1782984782992597500,6.026597412109375,0.006443251855671406,-0.021747905761003494,0.005629656370729208
1782984783002671400,6.03667138671875,0.0022599585354328156,-0.014126204885542393,0.0014839133946225047
1782984783012746500,6.04674658203125,0.004584365524351597,-0.003582750679925084,0.0023997745011001825
1782984783022820400,6.0568203125,-0.0013076120521873236,-0.005410744342952967,0.0016399745363742113
1782984783032895500,6.0668955078125,0.004292482975870371,-0.0095082838088274,0.0035779569298028946
1782984783042969300,6.07696923828125,0.003954261541366577,-0.02189890667796135,0.0018847191240638494
1782984783053043700,6.087043701171875,0.004311657976359129,-0.027716049924492836,0.004412591457366943
1782984783063118600,6.09711865234375,-0.001389637473039329,-0.012204468250274658,0.008649947121739388
1782984783073192700,6.107192626953125,-0.011930163018405437,0.0059961071237921715,0.016653278842568398
1782984783083267600,6.117267578125,-0.014185060746967793,0.03651779890060425,0.024690432474017143
1782984783093341700,6.127341796875,-0.006642189808189869,0.05071644112467766,0.033197902143001556
1782984783103415600,6.13741552734375,0.00618119677528739,0.03841263800859451,0.03122982382774353
1782984783113490700,6.14749072265625,0.01870843954384327,0.020322581753134727,0.034320954233407974
1782984783123564500,6.157564453125,0.029560821130871773,-0.006013683974742889,0.030052706599235535
1782984783133639700,6.1676396484375,0.03609329089522362,-0.030855650082230568,0.019474364817142487
1782984783143713500,6.177713623046875,0.03062102571129799,-0.04300498962402344,0.012593822553753853
1782984783153788700,6.18778857421875,0.023366576060652733,-0.03062768466770649,0.014303571544587612
1782984783163862500,6.197862548828125,0.01571637950837612,-0.008070975542068481,0.018542258068919182
1782984783173936600,6.2079365234375,0.01101643219590187,0.010809770785272121,0.023310115560889244
1782984783184011800,6.21801171875,0.013084376230835915,0.028900356963276863,0.03267938271164894
1782984783194085600,6.228085693359375,0.014488928020000458,0.03737826272845268,0.034933749586343765
1782984783204160800,6.238160888671875,0.02082165889441967,0.03350922465324402,0.027834827080368996
1782984783214234600,6.248234619140625,0.023482423275709152,0.03392228111624718,0.020744159817695618
1782984783224308500,6.25830859375,0.03019891493022442,0.03731541335582733,0.012180766090750694
1782984783234383600,6.268383544921875,0.026163160800933838,0.03670075535774231,0.012168515473604202
1782984783244457500,6.27845751953125,0.02756211906671524,0.03831862658262253,0.017846642062067986
1782984783254532600,6.28853271484375,0.03472575545310974,0.047681234776973724,0.0324799120426178
1782984783264606500,6.2986064453125,0.03365463390946388,0.03626985847949982,0.04553605988621712
1782984783274680600,6.3086806640625,0.026441993191838264,0.01920432038605213,0.03873860836029053
1782984783284755500,6.31875537109375,0.025193769484758377,0.01715981215238571,0.025056617334485054
1782984783294829600,6.32882958984375,0.020899422466754913,0.02461053803563118,0.0013488910626620054
1782984783304904400,6.338904541015625,0.018847724422812462,0.031385354697704315,-0.02142326720058918
1782984783314978600,6.348978515625,0.018489528447389603,0.0316988080739975,-0.0450737364590168
1782984783325052400,6.359052490234375,0.019696472212672234,0.030732613056898117,-0.07039453834295273
1782984783335127600,6.36912744140625,0.019353989511728287,0.02846120297908783,-0.09208998084068298
1782984783345201400,6.379201416015625,0.021030716598033905,0.026705380529165268,-0.10495970398187637
1782984783355276500,6.389276611328125,0.01950339414179325,0.025913622230291367,-0.11129722744226456
1782984783365350400,6.399350341796875,0.021268270909786224,0.0205721203237772,-0.108639657497406
1782984783375425500,6.409425537109375,0.02400094084441662,0.020681044086813927,-0.10458313673734665
1782984783385499400,6.41949951171875,0.026795661076903343,0.015456986613571644,-0.0919799879193306
1782984783395573500,6.429573486328125,0.0329587496817112,0.028367992490530014,-0.08205891400575638
1782984783405648400,6.4396484375,0.034324683248996735,0.039445675909519196,-0.07197751849889755
1782984783415722500,6.449722412109375,0.04151175543665886,0.03759504482150078,-0.06112780049443245
1782984783425797400,6.45979736328125,0.046590406447649,0.043287817388772964,-0.046544600278139114
1782984783435871500,6.46987158203125,0.04613607004284859,0.04056873172521591,-0.031796544790267944
1782984783445945600,6.479945556640625,0.042807649821043015,0.028737904503941536,-0.017559552565217018
1782984783456020500,6.4900205078125,0.037939127534627914,0.032161664217710495,0.0003504719934426248
1782984783466094600,6.500094482421875,0.03460991010069847,0.046243928372859955,0.003242132253944874
1782984783476169500,6.51016943359375,0.020022178068757057,0.040537573397159576,0.00026312030968256295
1782984783486243600,6.52024365234375,0.009214270859956741,0.03323225677013397,-0.0019971043802797794
1782984783496317700,6.530317626953125,0.010893660597503185,0.038473621010780334,0.003742273896932602
1782984783506392600,6.540392578125,0.013579990714788437,0.0392770990729332,0.0040975394658744335
1782984783516466700,6.550466796875,0.018760638311505318,0.06993620842695236,-0.011048389598727226
1782984783526541600,6.56054150390625,0.010436927899718285,0.025073396041989326,-0.0171494260430336
1782984783536615700,6.57061572265625,0.006304767448455095,0.037392113357782364,-0.027416443452239037
1782984783546689500,6.580689453125,-0.006351372692734003,0.026575418189167976,-0.028993034735322
1782984783556764700,6.5907646484375,-0.01449851505458355,0.021383585408329964,-0.026519492268562317
1782984783566838500,6.600838623046875,-0.02154790237545967,0.018519354984164238,-0.019054384902119637
1782984783576913700,6.61091357421875,-0.02382277511060238,0.02353834919631481,-0.009603625163435936
1782984783586987500,6.620987548828125,-0.027898741886019707,0.021523134782910347,-0.0007683219737373292
1782984783597062700,6.631062744140625,-0.03320136293768883,0.018673818558454514,0.0005379585199989378
1782984783607136500,6.641136474609375,-0.033373404294252396,0.016871390864253044,0.004085821565240622
1782984783617210600,6.651210693359375,-0.03415850177407265,0.019898073747754097,0.005130846053361893
1782984783627285500,6.661285400390625,-0.033254627138376236,0.027894748374819756,-0.0015683355741202831
1782984783637359600,6.671359619140625,-0.03447515144944191,0.02069622278213501,-0.013893445022404194
1782984783647434500,6.6814345703125,-0.033609624952077866,0.012583968229591846,-0.03424931690096855
1782984783657508600,6.691508544921875,-0.029041504487395287,0.003763579297810793,-0.04781785607337952
1782984783667582500,6.70158251953125,-0.021577464416623116,-0.007934356108307838,-0.056104548275470734
1782984783677657600,6.71165771484375,-0.017173128202557564,-0.02165629342198372,-0.05975867062807083
1782984783687731500,6.7217314453125,-0.016996560618281364,-0.017593640834093094,-0.0476016066968441
1782984783697806600,6.731806640625,-0.016105998307466507,0.002338788006454706,-0.026487000286579132
1782984783707880400,6.74188037109375,-0.021282386034727097,0.01287425309419632,-0.007871238514780998
1782984783717954600,6.75195458984375,-0.016507070511579514,0.020003801211714745,0.0015899071004241705
1782984783728029400,6.762029541015625,-0.00717695290222764,0.018140655010938644,-0.009790578857064247
1782984783738103600,6.772103515625,0.001312405802309513,-0.00469541922211647,-0.03448660299181938
1782984783748178400,6.782178466796875,0.018381936475634575,-0.03839479386806488,-0.06045615300536156
1782984783758252500,6.79225244140625,0.025899240747094154,-0.05643424764275551,-0.08633675426244736
1782984783768326400,6.802326416015625,0.027220435440540314,-0.0633171871304512,-0.10757013410329819
1782984783778401500,6.812401611328125,0.022118352353572845,-0.06191929429769516,-0.11371857672929764
1782984783788475400,6.822475341796875,0.01068007480353117,-0.05650029331445694,-0.10159986466169357
1782984783798550500,6.832550537109375,0.0036402747500687838,-0.040160734206438065,-0.07373600453138351
1782984783808624400,6.842624267578125,-0.008710667490959167,-0.030668430030345917,-0.04939045384526253
1782984783818699500,6.852699462890625,-0.01751667633652687,-0.03196965157985687,-0.02635570801794529
1782984783828773400,6.8627734375,-0.02261742763221264,-0.025200162082910538,-0.013909423723816872
1782984783838847700,6.87284765625,-0.01980646140873432,-0.029709426686167717,-0.007439540233463049
1782984783848922400,6.88292236328125,-0.01991405338048935,-0.027890753000974655,-0.010043046437203884
1782984783858996700,6.892996826171875,-0.023300528526306152,-0.024048877879977226,-0.01260953489691019
1782984783869071400,6.9030712890625,-0.03414119407534599,-0.018984876573085785,-0.016529973596334457
1782984783879145700,6.913145751953125,-0.03592444583773613,-0.02835068106651306,-0.029410086572170258
1782984783889219600,6.923219482421875,-0.03543549031019211,-0.031619444489479065,-0.03648530691862106
1782984783899294500,6.93329443359375,-0.03479499742388725,-0.026163427159190178,-0.039373237639665604
1782984783909368600,6.94336865234375,-0.041197769343853,-0.027063308283686638,-0.03959188237786293
1782984783919443500,6.953443359375,-0.04476454108953476,-0.02678127959370613,-0.030613569542765617
1782984783929517600,6.963517578125,-0.046839144080877304,-0.023323165252804756,-0.021191837266087532
1782984783939591400,6.97359130859375,-0.052567336708307266,-0.027905667200684547,-0.010573548264801502
1782984783949666600,6.98366650390625,-0.04638401046395302,-0.031626902520656586,0.00020586235041264445
1782984783959740400,6.993740478515625,-0.04242442175745964,-0.03694816306233406,0.007849400863051414
1782984783969815600,7.003815673828125,-0.042461175471544266,-0.0426715649664402,0.0032977922819554806
1782984783979889400,7.013889404296875,-0.04129018262028694,-0.04965224117040634,-0.0075697689317166805
1782984783989963500,7.023963623046875,-0.045334458351135254,-0.04631982743740082,-0.02443024143576622
1782984784000038400,7.034038330078125,-0.04758882522583008,-0.03600061312317848,-0.03554574400186539
1782984784010112500,7.044112548828125,-0.05615727975964546,-0.01913268119096756,-0.04193759709596634
1782984784020187400,7.0541875,-0.060741111636161804,-0.01338744442909956,-0.040882453322410583
1782984784030261500,7.064261474609375,-0.05684570595622063,-0.011124290525913239,-0.035981435328722
1782984784040336400,7.07433642578125,-0.05216679722070694,-0.013643373735249043,-0.023137276992201805
1782984784050410500,7.084410400390625,-0.05210181698203087,-0.021282652392983437,-0.011828696355223656
1782984784060484400,7.094484375,-0.05365843325853348,-0.02095002308487892,-0.006703176535665989
1782984784070559500,7.1045595703125,-0.05288238823413849,-0.025438249111175537,-0.006899451371282339
1782984784080633300,7.11463330078125,-0.047378700226545334,-0.029403695836663246,-0.01708364486694336
1782984784090708500,7.12470849609375,-0.04646044224500656,-0.035419244319200516,-0.02899649739265442
1782984784100782300,7.1347822265625,-0.04512859508395195,-0.03958096355199814,-0.0454135537147522
1782984784110856400,7.1448564453125,-0.04595604166388512,-0.03948802128434181,-0.05341795086860657
1782984784120931300,7.154931396484375,-0.05070951581001282,-0.029624205082654953,-0.057381000369787216
1782984784131005400,7.16500537109375,-0.04662476107478142,-0.028787173330783844,-0.048720136284828186
1782984784141080300,7.175080322265625,-0.05493542179465294,-0.028872128576040268,-0.032816801220178604
1782984784151154400,7.185154541015625,-0.05830831453204155,-0.034989409148693085,-0.026070216670632362
1782984784161228500,7.195228515625,-0.06320133805274963,-0.030423153191804886,-0.02557886391878128
1782984784171303400,7.205303466796875,-0.05929075554013252,-0.024080835282802582,-0.02785986103117466
1782984784181377500,7.21537744140625,-0.0623248927295208,-0.016218917444348335,-0.031915854662656784
1782984784191452400,7.225452392578125,-0.057910170406103134,-0.010030263103544712,-0.04210750758647919
1782984784201526500,7.235526611328125,-0.05584701895713806,-0.00890987180173397,-0.0440894290804863
1782984784211600600,7.2456005859375,-0.0580609068274498,-0.0049404301680624485,-0.040532246232032776
1782984784221675500,7.255675537109375,-0.055328503251075745,-0.00007669904152862728,-0.04177327826619148
1782984784231749600,7.26574951171875,-0.04863970726728439,-0.007115433923900127,-0.043595146387815475
1782984784241824500,7.275824462890625,-0.0453653521835804,-0.007745271548628807,-0.0388597808778286
1782984784251898600,7.285898681640625,-0.0341249480843544,-0.013965350575745106,-0.026486201211810112
1782984784261973500,7.295973388671875,-0.022457638755440712,-0.010191651061177254,-0.014701182022690773
1782984784272047600,7.306047607421875,-0.007760717533528805,-0.0049462891183793545,-0.004078098572790623
1782984784282121500,7.31612158203125,-0.003456516657024622,-0.022756977006793022,-0.0012490225490182638
1782984784292196600,7.326196533203125,-0.005829926114529371,-0.019754795357584953,0.0004799016169272363
1782984784302270500,7.3362705078125,-0.011122958734631538,-0.01287425309419632,0.000603738590143621
1782984784312345600,7.346345703125,-0.008503739722073078,-0.011604724451899529,-0.005598230753093958
1782984784322419500,7.35641943359375,0.0011848403373733163,-0.018968364223837852,-0.0007566040731035173
1782984784332493600,7.36649365234375,0.014688132330775261,-0.01341913640499115,0.022099442780017853
1782984784342568400,7.376568359375,0.004677309654653072,0.0162426196038723,0.042035866528749466
1782984784352642600,7.386642578125,-0.0034932682756334543,0.030824225395917892,0.049922019243240356
1782984784362717400,7.396717529296875,0.0011238539591431618,0.034333206713199615,0.051412858068943024
1782984784372791600,7.40679150390625,0.011985556222498417,0.026928553357720375,0.044430315494537354
1782984784382865400,7.416865478515625,0.016091618686914444,0.0021638183388859034,0.02672215737402439
1782984784392940500,7.4269404296875,0.023431023582816124,-0.016383767127990723,0.019465576857328415
1782984784403014400,7.437014404296875,0.023010777309536934,-0.01768844947218895,0.012089685536921024
1782984784413089500,7.447089599609375,0.0171414352953434,-0.019297530874609947,0.008933840319514275
1782984784423163400,7.457163330078125,0.007953263819217682,-0.014614894986152649,0.01290381420403719
1782984784433237500,7.467237548828125,-0.002953978255391121,-0.007869108580052853,0.020924722775816917
1782984784443312400,7.4773125,-0.009920274838805199,0.005618737079203129,0.03153315931558609
1782984784453386500,7.487386474609375,-0.010804444551467896,0.017138773575425148,0.03550446406006813
1782984784463461400,7.49746142578125,-0.007392136380076408,0.026504045352339745,0.04382737725973129
1782984784473535500,7.507535400390625,-0.0034647725988179445,0.01949220895767212,0.0473555326461792
1782984784483609300,7.517609375,0.0022066952660679817,0.01206944603472948,0.044730186462402344
1782984784493684500,7.5276845703125,0.007957259193062782,0.008040616288781166,0.039499737322330475
1782984784503758300,7.53775830078125,0.014395717531442642,-0.0031292142812162638,0.025111477822065353
1782984784513833500,7.54783349609375,0.014535000547766685,-0.00035686357296071947,0.014768825843930244
1782984784523907300,7.5579072265625,0.016692694276571274,0.0007014766451902688,0.005270928610116243
1782984784533982500,7.567982421875,0.01594940572977066,-0.012123508378863335,-0.0062605589628219604
1782984784544056300,7.578056396484375,0.018010692670941353,-0.006868292577564716,-0.016594955697655678
1782984784554130400,7.58813037109375,0.010713896714150906,0.004081827122718096,-0.02257694862782955
1782984784564205300,7.598205322265625,-0.0001174454009742476,0.017725201323628426,-0.023251792415976524
1782984784574279400,7.608279541015625,-0.007024087477475405,0.03362427279353142,-0.021384384483098984
1782984784584354300,7.618354248046875,-0.00401471508666873,0.03701341152191162,-0.015802398324012756
1782984784594428400,7.628428466796875,0.003421895671635866,0.03576012700796127,-0.010921623557806015
1782984784604502500,7.63850244140625,0.010861968621611595,0.036063194274902344,0.00421285443007946
1782984784614577400,7.648577392578125,0.016465792432427406,0.033661555498838425,0.014278272166848183
1782984784624651500,7.658651611328125,0.01949886605143547,0.027689950540661812,0.018376344814896584
1782984784634726400,7.668726318359375,0.02147280052304268,0.024325046688318253,0.012691027484834194
1782984784644800500,7.678800537109375,0.026559438556432724,0.028718464076519012,0.01101696491241455
1782984784654874600,7.68887451171875,0.0354437455534935,0.030644727870821953,0.0034437335561960936
1782984784664949500,7.698949462890625,0.036433376371860504,0.03810424357652664,-0.0034908715169876814
1782984784675023600,7.709023681640625,0.03346741199493408,0.042264632880687714,0.00045327001134864986
1782984784685098500,7.719098388671875,0.029272135347127914,0.041795916855335236,0.006956443190574646
1782984784695172600,7.729172607421875,0.0360323041677475,0.04066913202404976,0.015171496197581291
1782984784705246500,7.73924658203125,0.035111915320158005,0.04001133143901825,0.02215110883116722
1782984784715321600,7.749321533203125,0.02967427298426628,0.02971581742167473,0.020201142877340317
1782984784725395500,7.7593955078125,0.030233535915613174,0.024396419525146484,0.014071078039705753
1782984784735470600,7.769470703125,0.02996322512626648,0.029170401394367218,0.001731587341055274
1782984784745544400,7.77954443359375,0.03136830776929855,0.026944000273942947,-0.008551943115890026
1782984784755619600,7.78961962890625,0.031183484941720963,0.025856630876660347,-0.011037470772862434
1782984784765693400,7.799693359375,0.028783710673451424,0.03068334423005581,-0.0041223070584237576
1782984784775767600,7.809767578125,0.026568492874503136,0.021767079830169678,0.007721569389104843
1782984784785842400,7.819842529296875,0.025078454986214638,0.014711301773786545,0.007770305033773184
1782984784795916500,7.82991650390625,0.02575835958123207,0.011722968891263008,0.004565723240375519
1782984784805991400,7.839991455078125,0.030351513996720314,0.014763765968382359,-0.0013073458103463054
1782984784816065500,7.8500654296875,0.03242851421236992,0.01943468488752842,-0.010436927899718285
1782984784826139400,7.860139404296875,0.030048979446291924,0.025314411148428917,-0.011495002545416355
1782984784836214500,7.870214599609375,0.015393070876598358,0.03575293719768524,-0.01028432883322239
1782984784846288400,7.880288330078125,0.004342550411820412,0.042755454778671265,-0.007368167862296104
1782984784856363500,7.890363525390625,-0.004169445019215345,0.04597175121307373,-0.008418518118560314
1782984784866437400,7.900437255859375,-0.010995659045875072,0.04885116219520569,-0.011224690824747086
1782984784876511200,7.91051123046875,-0.016990967094898224,0.04939258471131325,-0.018128670752048492
1782984784886586400,7.92058642578125,-0.02652588300406933,0.04712996259331703,-0.01967756450176239
1782984784896659700,7.93065966796875,-0.025844912976026535,0.03929920122027397,-0.023913055658340454
1782984784906734600,7.940734619140625,-0.022781211882829666,0.035298336297273636,-0.02870914340019226
1782984784916808700,7.95080859375,-0.012763465754687786,0.02912566065788269,-0.028194885700941086
1782984784926882600,7.960882568359375,0.0002985403698403388,0.01798832230269909,-0.02701910026371479
1782984784936957700,7.970957763671875,0.011501925997436047,-0.004977181553840637,-0.02364141307771206
1782984784947031600,7.981031494140625,0.017770741134881973,-0.007480553351342678,-0.012825783342123032
1782984784957106700,7.991106689453125,0.010726413689553738,0.004295678809285164,-0.0038077877834439278
1782984784967180500,8.0011806640625,0.0036557212006300688,0.004503138829022646,0.0018413095967844129
1782984784977255700,8.011255615234376,0.0007382282637991011,0.01041429117321968,0.004581968765705824
1782984784987329500,8.02132958984375,-0.005846970248967409,0.02202167920768261,-0.00001917476038215682
1782984784997403600,8.031403564453125,-0.010206298902630806,0.03549860417842865,0.002295911079272628
1782984785007478500,8.041478515625,-0.009111206978559494,0.04097592830657959,-0.003490072675049305
1782984785017552600,8.051552734375,0.000922252656891942,0.03382374346256256,-0.005025118589401245
1782984785027627500,8.06162744140625,0.006880809087306261,0.017956629395484924,-0.008015315979719162
1782984785037701600,8.07170166015625,0.017019197344779968,0.0007933556917123497,-0.01575925573706627
1782984785047775500,8.081775390625,0.024348748847842216,-0.015588547103106976,-0.019997144117951393
1782984785057850600,8.0918505859375,0.02713920921087265,-0.024628646671772003,-0.017249559983611107
1782984785067924500,8.101924560546875,0.02274525910615921,-0.016205867752432823,-0.00929176900535822
1782984785077999600,8.11199951171875,0.016630109399557114,-0.016110260039567947,-0.00005459480235003866
1782984785088073500,8.122073486328125,0.01390170119702816,-0.01404604408890009,0.012818593531847
1782984785098147600,8.132147705078125,0.013107013888657093,-0.006942860782146454,0.01967383548617363
1782984785108222500,8.142222412109374,0.01164280716329813,-0.007889880798757076,0.014406636357307434
1782984785118296600,8.152296630859375,0.014688132330775261,-0.006795587949454784,-0.0015422365395352244
1782984785128371500,8.162371337890624,0.016581106930971146,-0.002682868391275406,-0.010459299199283123
1782984785138445600,8.172445556640625,0.01956571266055107,0.0017270599491894245,-0.02155376225709915
1782984785148519400,8.18251953125,0.017480723559856415,0.006572415120899677,-0.02069409377872944
1782984785158594600,8.192594482421875,0.017350228503346443,-0.00038828887045383453,-0.009254218079149723
1782984785168668400,8.20266845703125,0.014850052073597908,-0.008201736956834793,-0.0031649006996303797
1782984785178743600,8.21274365234375,0.013517140410840511,-0.01053333468735218,0.0017475662752985954
1782984785188817400,8.2228173828125,0.012760802172124386,0.0014242585748434067,0.005319397896528244
1782984785198892500,8.232892578125,0.010267817415297031,0.012261992320418358,0.004289287142455578
1782984785208966400,8.24296630859375,0.0057196710258722305,0.02496740221977234,0.009129848331212997
1782984785219040500,8.25304052734375,0.0013145363191142678,0.03844033181667328,0.014652445912361145
1782984785229115400,8.263115478515624,-0.0023007048293948174,0.04404788464307785,0.014711568132042885
1782984785239189500,8.273189453125,0.002296710154041648,0.044442832469940186,0.014285461977124214
1782984785249264400,8.283264404296874,0.009724265895783901,0.033308155834674835,0.010870757512748241
1782984785259338500,8.29333837890625,0.018004566431045532,0.014335529878735542,0.002001898130401969
1782984785269412600,8.30341259765625,0.028901422396302223,0.0034445326309651136,-0.008554872125387192
1782984785279487500,8.313487548828125,0.03472815454006195,0.0009949569357559085,-0.01763492077589035
1782984785289561600,8.3235615234375,0.04134690761566162,0.0077471355907619,-0.022165756672620773
1782984785299636500,8.333636474609374,0.04049443081021309,0.014679077081382275,-0.02340252697467804
1782984785309710600,8.343710693359375,0.044327251613140106,0.02166987583041191,-0.017650365829467773
1782984785319785500,8.353785400390626,0.04313521832227707,0.02875521592795849,-0.003540938952937722
1782984785329859600,8.363859619140625,0.04548972100019455,0.03634202852845192,0.013246030546724796
1782984785339934500,8.3739345703125,0.04405374452471733,0.042807918041944504,0.03268950432538986
1782984785350008600,8.384008544921874,0.04458477720618248,0.0418342649936676,0.04272056743502617
1782984785360082700,8.394082763671875,0.04483538120985031,0.031685758382081985,0.039504267275333405
1782984785370157600,8.404157470703124,0.04508572071790695,0.030665766447782516,0.026692863553762436
1782984785380231700,8.414231689453125,0.048655152320861816,0.03639129549264908,0.004935103934258223
1782984785390306600,8.424306640625,0.04614618793129921,0.03315768763422966,-0.010938934050500393
1782984785400380700,8.434380615234375,0.044493965804576874,0.030899060890078545,-0.01230327133089304
1782984785410454500,8.44445458984375,0.038290929049253464,0.037094905972480774,-0.005055478774011135
1782984785420529700,8.45452978515625,0.03148096054792404,0.04068857431411743,0.00806112214922905
1782984785430603500,8.464603515625,0.02798769250512123,0.05019818991422653,0.017076987773180008
1782984785440678700,8.4746787109375,0.025375131517648697,0.050389137119054794,0.022347116842865944
1782984785450752500,8.48475244140625,0.02828862890601158,0.04584498703479767,0.029649239033460617
1782984785460827600,8.49482763671875,0.02959704026579857,0.04758749157190323,0.03677905350923538
1782984785470901500,8.504901611328124,0.0273906122893095,0.05854027345776558,0.03989282250404358
1782984785480975600,8.5149755859375,0.029695844277739525,0.05693145841360092,0.04388197138905525
1782984785491050500,8.525050537109376,0.03032807819545269,0.051898352801799774,0.039726372808218
1782984785501124600,8.53512451171875,0.037093572318553925,0.04527320712804794,0.0305792149156332
1782984785511199500,8.545199462890626,0.035838957875967026,0.045094773173332214,0.016989368945360184
1782984785521273600,8.555273681640625,0.035465314984321594,0.04368755966424942,0.0036280243657529354
1782984785531347500,8.565347412109375,0.037515684962272644,0.05121605098247528,-0.0021728731226176023
1782984785541422600,8.575422607421874,0.03832528367638588,0.05459826439619064,0.00001704423084447626
1782984785551496400,8.585496337890625,0.03880678489804268,0.047085221856832504,0.0065441858023405075
1782984785561571600,8.595571533203126,0.04005394130945206,0.04767617583274841,0.02116999961435795
1782984785571645400,8.6056455078125,0.0362275131046772,0.05636980012059212,0.028961876407265663
1782984785581719600,8.615719482421875,0.03383040055632591,0.06529884785413742,0.03284423425793648
1782984785591794400,8.62579443359375,0.040526919066905975,0.06075336039066315,0.029199697077274323
1782984785601868500,8.63586865234375,0.04910389706492424,0.054675497114658356,0.024275511503219604
1782984785611943400,8.645943359375,0.05493062734603882,0.04236530140042305,0.021032847464084625
1782984785622017500,8.656017578125,0.052930060774087906,0.0300215482711792,0.024746891111135483
1782984785632091600,8.666091552734375,0.0451405793428421,0.028849491849541664,0.02726304531097412
1782984785642166500,8.67616650390625,0.03514333814382553,0.04370700195431709,0.027589550241827965
1782984785652240600,8.68624072265625,0.026152508333325386,0.0664549246430397,0.028725121170282364
1782984785662315500,8.6963154296875,0.0248467605561018,0.0847572311758995,0.02774294838309288
1782984785672389600,8.7063896484375,0.032103076577186584,0.09310677647590637,0.02726224809885025
1782984785682464500,8.716464599609376,0.044202350080013275,0.08193747699260712,0.026134131476283073
1782984785692538600,8.72653857421875,0.060981061309576035,0.05597858130931854,0.023190008476376534
1782984785702612700,8.73661279296875,0.07198631018400192,0.029332589358091354,0.019588083028793335
1782984785712687600,8.7466875,0.07578637450933456,0.01281353272497654,0.017797106876969337
1782984785722761700,8.75676171875,0.07044380903244019,0.004746552091091871,0.01781042292714119
1782984785732836600,8.766836669921876,0.05987318605184555,0.008264055475592613,0.014056696556508541
1782984785742910700,8.77691064453125,0.05314071476459503,0.012664396315813065,0.01666073501110077
1782984785752984600,8.786984619140625,0.04516960680484772,0.0289355106651783,0.021206218749284744
1782984785763059700,8.797059814453124,0.04045847803354263,0.03363359346985817,0.020119115710258484
1782984785773133600,8.807133544921875,0.041079793125391006,0.03466983139514923,0.02220570296049118
1782984785783208700,8.817208740234374,0.04225238040089607,0.028750687837600708,0.022155635058879852
1782984785793282600,8.827282470703125,0.044679854065179825,0.019334282726049423,0.015571502968668938
1782984785803356700,8.837356689453125,0.046844735741615295,0.02153671719133854,0.021741515025496483
1782984785813431600,8.847431640625,0.04009362310171127,0.028965605422854424,0.02689233422279358
1782984785823505700,8.857505615234375,0.02888571098446846,0.02731098234653473,0.038718368858098984
1782984785833580500,8.86758056640625,0.024630511179566383,0.02321477420628071,0.04698561877012253
1782984785843654700,8.877654541015625,0.02052871137857437,0.013539244420826435,0.04398077353835106
1782984785853729500,8.8877294921875,0.015529691241681576,0.012636166997253895,0.034388333559036255
1782984785863803600,8.8978037109375,0.002216282533481717,0.023485884070396423,0.021987590938806534
1782984785873877500,8.90787744140625,-0.0068094367161393166,0.028977856040000916,0.014479606412351131
1782984785883952600,8.91795263671875,-0.008669122122228146,0.03361202031373978,0.018638931214809418
1782984785894026800,8.92802685546875,-0.011171960271894932,0.02743987925350666,0.02990436926484108
1782984785904102000,8.938101806640624,-0.014094780199229717,0.018159829080104828,0.03820757195353508
1782984785914175700,8.94817578125,-0.015274027362465858,0.01085584331303835,0.04049229994416237
1782984785924249900,8.958249755859375,-0.01582982949912548,-0.005219529382884502,0.03693458065390587
1782984785934324700,8.96832470703125,-0.013875601813197136,-0.01571051962673664,0.025951439514756203
1782984785944398800,8.97839892578125,-0.01213016640394926,-0.02521773800253868,0.009302954189479351
1782984785954473700,8.9884736328125,-0.012372779659926891,-0.030408505350351334,-0.004944158717989922
1782984785964547800,8.9985478515625,-0.019900737330317497,-0.03134593740105629,-0.010212689638137817
1782984785974621700,9.00862158203125,-0.028931250795722008,-0.024172447621822357,-0.009696036577224731
1782984785984696800,9.01869677734375,-0.035242676734924316,-0.020802216604351997,-0.005483714863657951
1782984785994770700,9.028770751953125,-0.02701936662197113,-0.010459830984473228,-0.00307541829533875
1782984786004845800,9.038845703125,-0.03699503466486931,-0.025947710499167442,-0.005224322900176048
1782984786014919700,9.048919677734375,-0.0362916961312294,-0.030915038660168648,0.003367567202076316
1782984786024994800,9.058994873046874,-0.028619393706321716,-0.041729602962732315,-0.0002511360798962414
1782984786035068700,9.069068603515625,-0.02641296572983265,-0.06127401068806648,0.003537743119522929
1782984786045142800,9.079142822265625,-0.03587118163704872,-0.05955493822693825,0.006483998149633408
1782984786055217700,9.0892177734375,-0.04609532281756401,-0.05282033607363701,0.0006295712664723396
1782984786065291800,9.099291748046875,-0.0509052574634552,-0.05008101090788841,-0.0016586167039349675
1782984786075366700,9.10936669921875,-0.05541958287358284,-0.047628771513700485,-0.003875698195770383
1782984786085440800,9.119440673828125,-0.05774558708071709,-0.048349689692258835,-0.007888282649219036
1782984786095515000,9.129514892578126,-0.05504860356450081,-0.0493377223610878,-0.012753878720104694
1782984786105589800,9.13958984375,-0.05365870147943497,-0.04986582696437836,-0.013939251191914082
1782984786115664000,9.149663818359375,-0.053888533264398575,-0.05114467814564705,-0.01907196082174778
1782984786125738800,9.15973876953125,-0.053999319672584534,-0.051106326282024384,-0.022050706669688225
1782984786135812900,9.169812744140625,-0.05997784808278084,-0.0456194169819355,-0.027104854583740234
1782984786145887000,9.179886962890626,-0.060632456094026566,-0.042215097695589066,-0.03278937190771103
1782984786155961900,9.1899619140625,-0.06169851869344711,-0.040415067225694656,-0.0306314118206501
1782984786166036000,9.200035888671875,-0.0633464828133583,-0.03803206980228424,-0.023371635004878044
1782984786176110800,9.21011083984375,-0.0551585927605629,-0.03939907252788544,-0.02058410458266735
1782984786186185000,9.22018505859375,-0.046487871557474136,-0.04396878927946091,-0.013129384256899357
1782984786196259800,9.230259765625,-0.037642981857061386,-0.0531255342066288,-0.008049404248595238
1782984786206334000,9.240333984375,-0.036069586873054504,-0.05321395397186279,-0.003985154442489147
1782984786216407800,9.25040771484375,-0.034508176147937775,-0.054435811936855316,-0.005796902813017368
1782984786226483000,9.26048291015625,-0.03533908352255821,-0.049249038100242615,-0.010904046706855297
1782984786236556800,9.270556884765625,-0.03369644284248352,-0.04291950538754463,-0.021384384483098984
1782984786246632000,9.2806318359375,-0.03273264691233635,-0.03940226882696152,-0.028848160058259964
1782984786256705800,9.290705810546875,-0.03149108216166496,-0.04686204716563225,-0.037521541118621826
1782984786266780000,9.30077978515625,-0.032212529331445694,-0.050223223865032196,-0.04384575039148331
1782984786276854800,9.310854736328125,-0.029895314946770668,-0.05157477781176567,-0.04468997195363045
1782984786286929000,9.320928955078125,-0.031087080016732216,-0.049253564327955246,-0.03755536302924156
1782984786297003800,9.331003662109374,-0.034688737243413925,-0.03297978639602661,-0.023069633170962334
1782984786307078000,9.341077880859375,-0.045761097222566605,-0.008988169021904469,-0.008673116564750671
1782984786317151700,9.35115185546875,-0.04246463626623154,0.012943495064973831,0.010977815836668015
1782984786327227000,9.361226806640625,-0.034701522439718246,0.017851967364549637,0.020204870030283928
1782984786337300700,9.37130078125,-0.018610702827572823,0.012500079348683357,0.016200007870793343
1782984786347375900,9.3813759765625,-0.008923454210162163,-0.0057769292034208775,0.00595536082983017
1782984786357449700,9.39144970703125,0.001329982653260231,-0.031631696969270706,-0.004606469534337521
1782984786367524900,9.40152490234375,0.012772520072758198,-0.049904707819223404,-0.019150525331497192
1782984786377598700,9.4115986328125,0.004541488364338875,-0.04916941002011299,-0.028747225180268288
1782984786387672800,9.4216728515625,-0.0027893949300050735,-0.038172684609889984,-0.03713005781173706
1782984786397747700,9.431747802734375,-0.005592371802777052,-0.018184063956141472,-0.03659689426422119
1782984786407821800,9.44182177734375,-0.005825132131576538,-0.010746654123067856,-0.012071310542523861
1782984786417896700,9.451896728515624,-0.007123423274606466,-0.004923918284475803,0.003281546989455819
1782984786427970800,9.461970703125,-0.0033132387325167656,0.003483414649963379,0.017433851957321167
1782984786438044700,9.472044677734376,0.00857298169285059,0.002302302746102214,0.02593625895678997
1782984786448119800,9.482119873046875,0.012443087063729763,0.0004487426485866308,0.020909808576107025
1782984786458193700,9.492193603515625,0.011383947916328907,0.0030415961518883705,0.01727326214313507
1782984786468268800,9.502268798828124,0.009708819910883904,0.012970926240086555,0.016019446775317192
1782984786478342700,9.5123427734375,0.009343167766928673,0.015307850204408169,0.0123030049726367
1782984786488417000,9.5224169921875,0.013370933011174202,0.01932016760110855,0.011407650075852871
1782984786498491600,9.53249169921875,0.020308466628193855,0.01315308641642332,0.013546435162425041
1782984786508566000,9.54256591796875,0.018806178122758865,0.011865181848406792,0.016144348308444023
1782984786518640600,9.552640625,0.012389025650918484,0.00908564031124115,0.01978968270123005
1782984786528715000,9.562715087890625,0.013188772834837437,0.008312257938086987,0.019422434270381927
1782984786538789600,9.57278955078125,0.012654010206460953,0.015487879514694214,0.02473517321050167
1782984786548864000,9.582864013671875,0.013420999981462955,0.01684449426829815,0.02893737517297268
1782984786558937900,9.592937744140626,0.0196077898144722,0.008763131685554981,0.02665025368332863
1782984786569013000,9.603012939453125,0.02460840716958046,-0.0005685848882421851,0.019291672855615616
1782984786579086800,9.6130869140625,0.021734589710831642,-0.0037920749746263027,0.012383166700601578
1782984786589162000,9.623161865234374,0.021700501441955566,-0.007404386531561613,0.011726430617272854
1782984786599235800,9.63323583984375,0.018789133056998253,-0.004838431254029274,0.005918875336647034
1782984786609310000,9.64331005859375,0.017132114619016647,-0.005389705300331116,0.0049193911254405975
1782984786619384800,9.653384765625,0.01769404299557209,-0.003489007242023945,0.006305832881480455
1782984786629459000,9.663458984375,0.019704196602106094,0.0062581622041761875,0.01139992754906416
1782984786639533800,9.673533935546875,0.013366671279072762,0.013069196604192257,0.012705408968031406
1782984786649608000,9.68360791015625,0.007435279432684183,0.01918674446642399,0.010905911214649677
1782984786659681800,9.693681884765626,0.0043561323545873165,0.0264249499887228,0.013002084568142891
1782984786669757000,9.7037568359375,0.0010215885704383254,0.02786838263273239,0.007829959504306316
1782984786679830800,9.713830810546876,0.0027377295773476362,0.02263740263879299,0.002260757377371192
1782984786689906000,9.723906005859375,0.008127967827022076,0.01564367488026619,-0.006717557553201914
1782984786699979800,9.733979736328125,0.0206911638379097,0.024566063657402992,-0.015795741230249405
1782984786710054000,9.744053955078124,0.011035074479877949,0.016017315909266472,-0.02190876007080078
1782984786720128800,9.754128662109375,0.005495166406035423,0.004936701618134975,-0.014585333876311779
1782984786730203000,9.764202880859376,0.007986287586390972,0.0154340835288167,-0.007865645922720432
1782984786740277800,9.77427783203125,0.0037851508241146803,0.009165801107883453,-0.0014500912511721253
1782984786750352000,9.784351806640625,0.0016367788193747401,0.01768898218870163,-0.0036485306918621063
1782984786760426800,9.7944267578125,0.004747883416712284,0.019568640738725662,-0.0036037894897162914
1782984786770500900,9.8045009765625,0.010523747652769089,0.006558566819876432,-0.0009691243176348507
1782984786780574700,9.81457470703125,0.009269931353628635,0.006772951222956181,-0.0025981799699366093
1782984786790649900,9.82464990234375,0.009739446453750134,0.0025132251903414726,0.0020868529099971056
1782984786800723700,9.8347236328125,0.007384945638477802,0.00800572894513607,0.0034677020739763975
1782984786810798800,9.844798828125,0.008012119680643082,0.00896739587187767,0.0070800138637423515
1782984786820872700,9.854872802734375,0.010865164920687675,0.010518953204154968,0.00956793874502182
1782984786830946800,9.86494677734375,0.013009008951485157,0.014507836662232876,0.0100238723680377
1782984786841021700,9.875021728515625,0.016451677307486534,0.0238797664642334,0.009846239350736141
1782984786851095800,9.885095703125,0.021498899906873703,0.01805463433265686,0.010588462464511395
1782984786861170700,9.895170654296875,0.014666561037302017,0.009708287194371223,0.013218333944678307
1782984786871244800,9.905244873046875,0.01660534180700779,0.01204015128314495,0.007524495478719473
1782984786881319700,9.915319580078124,0.018088988959789276,0.016889501363039017,0.0032477248460054398
1782984786891394000,9.92539404296875,0.020305804908275604,0.019534818828105927,0.001321194227784872
1782984786901468200,9.93546826171875,0.01583222672343254,0.022353775799274445,-0.0019006980583071709
1782984786911543000,9.94554296875,0.030172016471624374,0.025347433984279633,-0.0060048955492675304
1782984786921617200,9.9556171875,0.037938859313726425,0.02833789773285389,-0.023571372032165527
1782984786931692000,9.965692138671875,0.03628743439912796,-0.002035187790170312,-0.028304075822234154
1782984786941766100,9.97576611328125,0.02905162423849106,-0.005882923025637865,-0.030117422342300415
1782984786951840300,9.98584033203125,0.02966042421758175,0.005164402071386576,-0.0280942190438509
1782984786961915100,9.9959150390625,0.02148558385670185,0.02166348323225975,-0.021560152992606163
1782984786971989200,10.0059892578125,0.009528790600597858,0.044488370418548584,-0.01666020229458809
1782984786982064000,10.016064208984375,0.009093097411096096,0.06582961231470108,-0.007724765222519636
1782984786992138200,10.02613818359375,0.016231434419751167,0.08084158599376678,-0.005409678909927607
1782984787002212000,10.036212158203124,0.022187327966094017,0.06842566281557083,-0.013294233940541744
1782984787012287200,10.046287353515625,0.03573775663971901,0.05307333916425705,-0.030820762738585472
1782984787022361000,10.056361083984376,0.051410458981990814,0.029258286580443382,-0.053695984184741974
1782984787032436200,10.066436279296875,0.0569240041077137,0.001344630029052496,-0.07250296324491501
1782984787042510000,10.076510009765625,0.053706638514995575,-0.005887982901185751,-0.08003757894039154
1782984787052584200,10.086584228515624,0.04144704341888428,-0.0169166661798954,-0.07933849841356277
1782984787062659000,10.0966591796875,0.028550950810313225,-0.009060340002179146,-0.07198231667280197
1782984787072733200,10.106733154296874,0.022395586594939232,0.006617422681301832,-0.04478052258491516
1782984787082808000,10.11680810546875,0.016052735969424248,0.026586337015032768,-0.025081917643547058
1782984787092882200,10.126882080078126,0.02490401826798916,0.03434732183814049,-0.012032427825033665
1782984787102957000,10.13695703125,0.02965989150106907,0.026728283613920212,-0.008864864706993103
1782984787113031200,10.14703125,0.03659209981560707,0.03175073862075806,-0.00830773077905178
1782984787123105000,10.15710498046875,0.031247401610016823,0.048831988126039505,-0.004079962614923716
1782984787133180200,10.16718017578125,0.024626782163977623,0.05528908967971802,-0.0029952572658658028
1782984787143254000,10.17725390625,0.01913747563958168,0.04712037369608879,-0.0010191916953772306
1782984787153329200,10.1873291015625,0.020439228042960167,0.03969654440879822,0.008991364389657974
1782984787163403000,10.197403076171875,0.02203419618308544,0.02280837669968605,0.02442970871925354
1782984787173477000,10.20747705078125,0.020168917253613472,0.001591771375387907,0.04697762802243233
1782984787183552000,10.217552001953125,0.013530722819268703,-0.0070368703454732895,0.06803417950868607
1782984787193626000,10.227626220703126,0.008115717209875584,-0.004929244983941317,0.07903463393449783
1782984787203701000,10.237700927734375,0.0073077138513326645,0.009561014361679554,0.07405105978250504
1782984787213775000,10.247775146484376,0.005942577496170998,0.016649017110466957,0.06107347458600998
1782984787223850000,10.25785009765625,0.0009142631897702813,0.016644757241010666,0.03401362523436546
1782984787233924000,10.267924072265625,0.003337739733979106,0.017075389623641968,0.013995710760354996
1782984787243998000,10.277998046875,0.00806192122399807,0.01617896929383278,0.013741112314164639
1782984787254073000,10.288072998046875,0.008499212563037872,0.03291214257478714,0.022604644298553467
1782984787264147000,10.29814697265625,0.004334561061114073,0.02532373182475567,0.0360323041677475
1782984787274222000,10.30822216796875,0.0018365158466622233,0.013400494121015072,0.05022082477807999
1782984787284296000,10.3182958984375,0.002232261700555682,0.022542594000697136,0.05650615319609642
1782984787294370000,10.3283701171875,0.004777444526553154,0.020623253658413887,0.0569186769425869
1782984787304445000,10.33844482421875,0.00842411071062088,0.019417373463511467,0.04459676146507263
1782984787314519000,10.34851904296875,0.014611166901886463,0.02010047435760498,0.030349915847182274
1782984787324594000,10.358593994140625,0.017472732812166214,0.028859078884124756,0.013317669741809368
1782984787334668000,10.36866796875,0.02743189036846161,0.061826083809137344,-0.002216282533481717
1782984787344743000,10.378742919921875,0.03364664316177368,0.07046511024236679,-0.0112209627404809
1782984787354817300,10.3888173828125,0.03548901900649071,0.07564975321292877,-0.02660497836768627
1782984787364891100,10.39889111328125,0.03434545546770096,0.05585820600390434,-0.046294793486595154
1782984787374966300,10.40896630859375,0.0307477917522192,0.03808639943599701,-0.06866507977247238
1782984787385040100,10.4190400390625,0.033304959535598755,0.02918318472802639,-0.0927019715309143
1782984787395115300,10.429115234375,0.043653469532728195,0.034037329256534576,-0.09996041655540466
1782984787405189000,10.439189208984375,0.03265781328082085,0.05257532745599747,-0.06729248911142349
1782984787415263200,10.44926318359375,0.005830192007124424,0.025399100035429,-0.02923857979476452
1782984787425338000,10.459338134765625,-0.0029814087320119143,-0.013005014508962631,0.015127287246286869
1782984787435412200,10.469412109375,-0.004818190820515156,-0.02745053358376026,0.03490232303738594
1782984787445487000,10.479487060546875,-0.00027856664382852614,-0.04085288941860199,0.04219432547688484
1782984787455561200,10.489561279296876,0.012024970725178719,-0.04909297823905945,0.014312626793980598
1782984787465635000,10.499635009765624,0.027104588225483894,-0.05536631867289543,-0.03533162549138069
1782984787475710200,10.509710205078125,0.02069302834570408,-0.033357422798871994,-0.10062088072299957
1782984787485784000,10.5197841796875,0.0028639633674174547,-0.023982830345630646,-0.1732703149318695
1782984787495859200,10.529859130859375,-0.008202802389860153,-0.024414263665676117,-0.221350759267807
1782984787505933000,10.53993310546875,-0.004126301966607571,-0.04081081226468086,-0.22474229335784912
1782984787516008200,10.55000830078125,-0.016342753544449806,-0.06107959896326065,-0.17358537018299103
1782984787526082000,10.56008203125,-0.06558433920145035,-0.08649547398090363,-0.05900952219963074
1782984787536156200,10.57015625,-0.12238077074289322,-0.15500982105731964,0.06319068372249603
