time,seconds_elapsed,z,y,x
1782984777034847500,0.068847412109375,-0.02894578129053116,0.047392167150974274,0.11441533267498016
1782984777044922600,0.078922607421875,-0.03380787745118141,0.1020018607378006,0.003143677255138755
1782984777054996500,0.08899658203125,-0.042974211275577545,0.11233732104301453,-0.07721827179193497
1782984777065071600,0.099071533203125,-0.053532324731349945,0.07035134732723236,-0.12396971136331558
1782984777075145500,0.1091455078125,-0.057922013103961945,0.03606129065155983,-0.12939190864562988
1782984777085219600,0.119219482421875,-0.05243189260363579,0.023217832669615746,-0.09241879731416702
1782984777095294500,0.12929443359375,-0.05420289561152458,0.013772666454315186,-0.03577416017651558
1782984777105368600,0.13936865234375,-0.06252709031105042,-0.003473541233688593,0.016327569261193275
1782984777115443500,0.149443359375,-0.05878162384033203,-0.006101282313466072,0.05425817146897316
1782984777125517600,0.159517578125,-0.04370562359690666,0.0031733561772853136,0.07395052909851074
1782984777135591400,0.16959130859375,-0.03431185334920883,0.021515345200896263,0.06465823203325272
1782984777145666600,0.17966650390625,-0.02984553948044777,0.029948826879262924,0.03888208791613579
1782984777155740400,0.189740478515625,-0.020909035578370094,0.028700603172183037,0.00862005352973938
1782984777165815600,0.199815673828125,-0.01628897339105606,0.005833541974425316,-0.022859398275613785
1782984777175889400,0.209889404296875,-0.006720235105603933,-0.00840265117585659,-0.04165252670645714
1782984777185963500,0.219963623046875,0.00314981397241354,-0.007798449136316776,-0.04831341654062271
1782984777196038400,0.230038330078125,0.012245574966073036,-0.014321861788630486,-0.027452342212200165
1782984777206112500,0.240112548828125,0.010015354491770267,-0.03121468611061573,-0.0077627114951610565
1782984777216186600,0.2501865234375,0.009016402997076511,-0.037788163870573044,0.014372151345014572
1782984777226261500,0.260261474609375,0.012230649590492249,-0.02675366960465908,0.03188670426607132
1782984777236335600,0.270335693359375,0.00651896744966507,-0.022876106202602386,0.029062420129776
1782984777246410500,0.280410400390625,0.003930253442376852,-0.04013802111148834,0.01353101059794426
1782984777256484600,0.290484619140625,0.013488339260220528,-0.04775466024875641,-0.009620646946132183
1782984777266558700,0.300558837890625,0.020486364141106606,-0.049701984971761703,-0.028726428747177124
1782984777276633600,0.310633544921875,0.020884506404399872,-0.05570181831717491,-0.054319676011800766
1782984777286707700,0.320707763671875,0.02147899754345417,-0.0375276617705822,-0.07726925611495972
1782984777296782600,0.330782470703125,0.029429331421852112,-0.03626079484820366,-0.10888338088989258
1782984777306856700,0.340856689453125,0.034838899970054626,-0.06113411486148834,-0.1399749368429184
1782984777316930600,0.3509306640625,0.03960729017853737,-0.0758904218673706,-0.1555592119693756
1782984777327005700,0.361005615234375,0.037441834807395935,-0.055848781019449234,-0.14730767905712128
1782984777337079600,0.37107958984375,0.014229722321033478,-0.021916912868618965,-0.12059377133846283
1782984777347154700,0.38115478515625,-0.008015936240553856,0.012504014186561108,-0.0949670821428299
1782984777357228500,0.391228515625,-0.013547321781516075,0.05906166136264801,-0.06841243803501129
1782984777367302700,0.401302734375,-0.020750144496560097,0.11103086918592453,-0.05355839803814888
1782984777377377500,0.41137744140625,-0.03257191553711891,0.14424236118793488,-0.06311860680580139
1782984777387451600,0.42145166015625,-0.029563233256340027,0.1397511214017868,-0.06780476868152618
1782984777397526500,0.431526611328125,-0.018496999517083168,0.12293247133493423,-0.06709450483322144
1782984777407600600,0.4416005859375,-0.019750334322452545,0.09842166304588318,-0.06847280263900757
1782984777417674500,0.451674560546875,-0.019522633403539658,0.06632763892412186,-0.06606557220220566
1782984777427749600,0.46174951171875,-0.007399607449769974,0.02841341868042946,-0.05671430006623268
1782984777437823500,0.471823486328125,0.004243999253958464,0.0049786679446697235,-0.054153669625520706
1782984777447898600,0.481898681640625,0.010924792848527431,0.004855724982917309,-0.045929208397865295
1782984777457972500,0.491972412109375,0.018921200186014175,0.027614032849669456,-0.03204135596752167
1782984777468046600,0.502046630859375,0.014338841661810875,0.043486643582582474,-0.015703249722719193
1782984777478121500,0.51212158203125,0.008210375905036926,0.050841495394706726,-0.002891847165301442
1782984777488195600,0.522195556640625,0.0071153100579977036,0.04538022354245186,0.00749403890222311
1782984777498270500,0.5322705078125,0.013478401117026806,0.0346309058368206,0.01348002627491951
1782984777508344600,0.542344482421875,0.020184142515063286,0.013006811961531639,0.00677149323746562
1782984777518418400,0.55241845703125,0.02863275445997715,-0.006825482472777367,-0.00231467979028821
1782984777528493600,0.56249365234375,0.04054191708564758,-0.018367109820246696,-0.014751373790204525
1782984777538567400,0.5725673828125,0.045908983796834946,-0.029612572863698006,-0.025963015854358673
1782984777548642600,0.582642578125,0.04242826625704765,-0.01502086129039526,-0.03426701948046684
1782984777558716400,0.59271630859375,0.028780363500118256,0.010074637830257416,-0.02402183786034584
1782984777568790800,0.602790771484375,0.012237198650836945,0.034229591488838196,-0.013066067360341549
1782984777578865400,0.612865478515625,0.00419045751914382,0.04551739990711212,-0.0022810637019574642
1782984777588939800,0.622939697265625,-0.0020573062356561422,0.051503825932741165,0.006979724392294884
1782984777599014400,0.633014404296875,-0.007462990470230579,0.0615956075489521,0.018370863050222397
1782984777609088800,0.6430888671875,-0.010259140282869339,0.07223917543888092,0.027834642678499222
1782984777619162600,0.65316259765625,-0.01276171300560236,0.07841397821903229,0.04363837465643883
1782984777629237800,0.66323779296875,-0.013018514961004257,0.07754743099212646,0.055026642978191376
1782984777639311600,0.6733115234375,-0.010707156732678413,0.07090790569782257,0.062117841094732285
1782984777649386800,0.68338671875,-0.009946740232408047,0.06740330904722214,0.06567567586898804
1782984777659460600,0.693460693359375,-0.009593871422111988,0.06597372144460678,0.0639299750328064
1782984777669534700,0.70353466796875,-0.011577892117202282,0.08153988420963287,0.06399761885404587
1782984777679609600,0.713609619140625,-0.01977510191500187,0.0889221653342247,0.0787973403930664
1782984777689683700,0.72368359375,-0.02447541244328022,0.10025788098573685,0.09669209271669388
1782984777699757600,0.733757568359375,-0.02333930879831314,0.10517381131649017,0.12180037796497345
1782984777709832700,0.743832763671875,-0.016826525330543518,0.10366468131542206,0.1240793913602829
1782984777719906600,0.753906494140625,-0.0021679538767784834,0.08791474997997284,0.11630109697580338
1782984777729981700,0.763981689453125,0.007111436687409878,0.06670798361301422,0.0939856469631195
1782984777740055600,0.7740556640625,0.016253536567091942,0.03672691434621811,0.05771498382091522
1782984777750129400,0.78412939453125,0.023380493745207787,0.010808980092406273,0.015584515407681465
1782984777760204500,0.79420458984375,0.027396008372306824,-0.006911694072186947,-0.021721309050917625
1782984777770278700,0.804278564453125,0.0340195894241333,-0.008358072489500046,-0.047769155353307724
1782984777780353500,0.814353515625,0.03576023131608963,-0.01079140231013298,-0.0658877044916153
1782984777790427600,0.824427734375,0.030341731384396553,-0.015195989049971104,-0.07026781141757965
1782984777800501500,0.83450146484375,0.025794649496674538,-0.022926079109311104,-0.06427809596061707
1782984777810576600,0.84457666015625,0.021668529137969017,-0.025825317949056625,-0.056794729083776474
1782984777820650500,0.854650390625,0.015701716765761375,-0.024010639637708664,-0.05248440057039261
1782984777830725600,0.8647255859375,0.013727442361414433,-0.02409793995320797,-0.04266073927283287
1782984777840799500,0.874799560546875,0.014154081232845783,0.00030833366326987743,-0.03242567926645279
1782984777850873300,0.884873291015625,0.010689743794500828,0.023416023701429367,-0.009833847172558308
1782984777860948500,0.894948486328125,0.0001974224578589201,0.028413711115717888,0.007340346463024616
1782984777871022300,0.905022216796875,-0.0014149401104077697,0.023361042141914368,0.022775378078222275
1782984777881101000,0.91510107421875,0.006732468493282795,0.005251546856015921,0.027167463675141335
1782984777891175000,0.9251748046875,0.009103916585445404,-0.016508635133504868,0.02730165608227253
1782984777901249300,0.935249267578125,0.013594538904726505,-0.017446069046854973,0.02928011864423752
1782984777911324000,0.945323974609375,0.01841725781559944,-0.014960539527237415,0.02380465902388096
1782984777921398300,0.955398193359375,0.018061459064483643,-0.019991518929600716,0.019023487344384193
1782984777931473000,0.965472900390625,0.015269279479980469,-0.030999794602394104,0.01190313883125782
1782984777941547300,0.97554736328125,0.007088048849254847,-0.04178772494196892,0.0055946423672139645
1782984777951621000,0.98562109375,0.006137784570455551,-0.06052213907241821,-0.010243559256196022
1782984777961696300,0.9956962890625,0.012612728402018547,-0.07322568446397781,-0.01858378015458584
1782984777971770000,1.00577001953125,0.016232097521424294,-0.05451032519340515,-0.014199449680745602
1782984777981845200,1.01584521484375,0.009757419116795063,-0.017811432480812073,-0.006013425998389721
1782984777991919000,1.025919189453125,0.004390012472867966,0.0007897308096289635,-0.006885817274451256
1782984778001993200,1.0359931640625,0.0048057325184345245,0.01980416849255562,-0.00874257367104292
1782984778012068000,1.046068115234375,0.00441427156329155,0.022602161392569542,-0.0039077806286513805
1782984778022142200,1.05614208984375,0.004983388818800449,-0.017766833305358887,-0.004713120404630899
1782984778032217000,1.066217041015625,0.00835037138313055,-0.05711490288376808,-0.0005792141892015934
1782984778042291200,1.076291259765625,0.0028421557508409023,-0.06572810560464859,0.001338261878117919
1782984778052365000,1.086364990234375,-0.014371995814144611,-0.05869193747639656,0.008173619396984577
1782984778062440200,1.096440185546875,-0.032479360699653625,-0.048303477466106415,0.009066577069461346
1782984778072514000,1.10651416015625,-0.053392764180898666,-0.03036603331565857,-0.006096959114074707
1782984778082589200,1.116589111328125,-0.06821511685848236,-0.0030949972569942474,-0.023651983588933945
1782984778092663000,1.1266630859375,-0.07724717259407043,0.02906964160501957,-0.03456825390458107
1782984778102737200,1.136737060546875,-0.08145230263471603,0.0549454502761364,-0.04414711147546768
1782984778112812000,1.14681201171875,-0.0867094025015831,0.06799328327178955,-0.0516684390604496
1782984778122886100,1.15688623046875,-0.07575928419828415,0.06952832639217377,-0.04888410493731499
1782984778132961000,1.1669609375,-0.06942182779312134,0.0651918575167656,-0.04031967371702194
1782984778143035100,1.17703515625,-0.0648350641131401,0.04230918362736702,-0.029190590605139732
1782984778153109000,1.18710888671875,-0.05331240966916084,0.02475506067276001,-0.015254179015755653
1782984778163184000,1.19718408203125,-0.04715784266591072,0.008078080601990223,-0.0012038734275847673
1782984778173258000,1.207258056640625,-0.03972192108631134,-0.0005823207320645452,0.00832858681678772
1782984778183333000,1.2173330078125,-0.036087773740291595,0.004922966007143259,0.008728593587875366
1782984778193407000,1.227406982421875,-0.03575613722205162,0.00959090143442154,0.002361980965360999
1782984778203481000,1.237481201171875,-0.025369007140398026,0.014402966946363449,-0.006417396012693644
1782984778213556000,1.247555908203125,-0.015994681045413017,0.0179580207914114,-0.014964012429118156
1782984778223630000,1.257630126953125,-0.006967098452150822,0.009859081357717514,-0.02413274347782135
1782984778233705000,1.267705078125,-0.0018491203663870692,-0.0005966083845123649,-0.02124865911900997
1782984778243779000,1.277779052734375,0.003982936032116413,-0.0032941242679953575,-0.014910601079463959
1782984778253853200,1.287853271484375,0.0031858282163739204,-0.00014634523540735245,-0.011556971818208694
1782984778263928000,1.297927978515625,-0.0032715382985770702,-0.002537064952775836,-0.011845392175018787
1782984778274002200,1.308002197265625,-0.004151667468249798,-0.003994455561041832,-0.017741717398166656
1782984778284077000,1.3180771484375,-0.004467518534511328,-0.008722632192075253,-0.02227228693664074
1782984778294151200,1.328151123046875,-0.008928867988288403,-0.009701156988739967,-0.028739331290125847
1782984778304225000,1.33822509765625,-0.012226127088069916,0.00029421900399029255,-0.03424781560897827
1782984778314300200,1.348300048828125,-0.01237400621175766,0.015371759422123432,-0.03581608831882477
1782984778324374000,1.3583740234375,-0.015209207311272621,0.034244779497385025,-0.03418596833944321
1782984778334449200,1.36844921875,-0.01595589518547058,0.04720749333500862,-0.032062601298093796
1782984778344523300,1.378523193359375,-0.015188906341791153,0.06216620281338692,-0.022077344357967377
1782984778354597000,1.38859716796875,-0.010151270776987076,0.058904096484184265,-0.015019702725112438
1782984778364672300,1.39867236328125,-0.004617221653461456,0.048551324754953384,-0.018022682517766953
1782984778374746000,1.40874609375,0.008073963224887848,0.04244822636246681,-0.02527068369090557
1782984778384821200,1.4188212890625,0.0174778513610363,0.0414828322827816,-0.032645776867866516
1782984778394895000,1.42889501953125,0.025261593982577324,0.019146736711263657,-0.04609435424208641
1782984778404969000,1.438968994140625,0.03305426612496376,0.009733526967465878,-0.04523921385407448
1782984778415044000,1.449044189453125,0.0385422445833683,0.01369204930961132,-0.04049186035990715
1782984778425118000,1.459117919921875,0.03817019984126091,0.017746180295944214,-0.032518621534109116
1782984778435193000,1.469193115234375,0.04269447550177574,0.01441672258079052,-0.017805427312850952
1782984778445267000,1.479266845703125,0.04383004829287529,0.009413175284862518,0.0037432739045470953
1782984778455341000,1.489341064453125,0.042349040508270264,0.009791266173124313,0.028270632028579712
1782984778465416200,1.499416259765625,0.0366903580725193,0.019083566963672638,0.046094637364149094
1782984778475490000,1.509489990234375,0.03135296702384949,0.023538075387477875,0.058547165244817734
1782984778485565200,1.519565185546875,0.03824442997574806,0.024493882432579994,0.06459707021713257
1782984778495639000,1.52963916015625,0.044105637818574905,0.018287207931280136,0.07511527836322784
1782984778505713000,1.539712890625,0.049445539712905884,0.018833689391613007,0.09122394025325775
1782984778515788000,1.5497880859375,0.039914570748806,0.03934068605303764,0.11448653787374496
1782984778525862000,1.55986181640625,0.02589915320277214,0.06186889857053757,0.14811614155769348
1782984778535937000,1.56993701171875,0.014926664531230927,0.09084222465753555,0.179402694106102
1782984778546011000,1.580010986328125,0.01446886733174324,0.09204704314470291,0.23276737332344055
1782984778556085000,1.5900849609375,0.016854938119649887,0.06794852763414383,0.28841614723205566
1782984778566160000,1.600159912109375,0.025200752541422844,0.020392194390296936,0.3267267942428589
1782984778576234000,1.61023388671875,0.040148068219423294,-0.021404458209872246,0.35260772705078125
1782984778586309000,1.62030908203125,0.05507269129157066,-0.03249146416783333,0.36456745862960815
1782984778596383000,1.630383056640625,0.05329462140798569,-0.032876208424568176,0.36710259318351746
1782984778606457000,1.64045703125,0.04366835951805115,0.0007469998672604561,0.3914702534675598
1782984778616532000,1.650531982421875,0.04476916417479515,0.03763587772846222,0.4431641697883606
1782984778626606000,1.660606201171875,0.05456933006644249,0.045188337564468384,0.5115509629249573
1782984778636681000,1.670680908203125,0.07022073864936829,0.033456750214099884,0.584743320941925
1782984778646755000,1.680755126953125,0.08108856528997421,0.0038213625084608793,0.6615734100341797
1782984778656829200,1.6908291015625,0.08150747418403625,-0.03879258409142494,0.7242666482925415
1782984778666904000,1.700904052734375,0.0786629468202591,-0.08196162432432175,0.7604883313179016
1782984778676978200,1.710978271484375,0.08564046770334244,-0.11963827162981033,0.7643160223960876
1782984778687052000,1.721052001953125,0.1069774478673935,-0.1555967926979065,0.7378631234169006
1782984778697127200,1.731127197265625,0.1314367800951004,-0.18120811879634857,0.6937681436538696
1782984778707201000,1.741200927734375,0.15539111196994781,-0.19044528901576996,0.6520127058029175
1782984778717276200,1.751276123046875,0.16980266571044922,-0.16697846353054047,0.6130637526512146
1782984778727350000,1.76135009765625,0.16645559668540955,-0.1321730762720108,0.5699809789657593
1782984778737424100,1.771424072265625,0.15789760649204254,-0.11014685034751892,0.5017247796058655
1782984778747499000,1.7814990234375,0.15241283178329468,-0.091237872838974,0.4130431115627289
1782984778757573000,1.791572998046875,0.15086093544960022,-0.07259873300790787,0.3186582028865814
1782984778767648000,1.80164794921875,0.1411217600107193,-0.0803581178188324,0.2410225123167038
1782984778777722000,1.81172216796875,0.13098591566085815,-0.09188134223222733,0.17709816992282867
1782984778787796000,1.8217958984375,0.11832603067159653,-0.08666341006755829,0.14366111159324646
1782984778797871000,1.83187109375,0.10266062617301941,-0.05907605588436127,0.13301345705986023
1782984778807945000,1.841945068359375,0.08511465787887573,-0.03274644911289215,0.12253765761852264
1782984778818020000,1.85202001953125,0.06776617467403412,-0.012467648833990097,0.10663314163684845
1782984778828094000,1.862093994140625,0.053847163915634155,0.0071832844987511635,0.09011142700910568
1782984778838169000,1.872169189453125,0.035429541021585464,0.03308065980672836,0.06548810750246048
1782984778848243000,1.882242919921875,0.025220580399036407,0.0474417582154274,0.03492087125778198
1782984778858317000,1.892317138671875,0.019614068791270256,0.04107459634542465,-0.00007688339974265546
1782984778868392000,1.902391845703125,0.019868668168783188,0.025858623906970024,-0.030474737286567688
1782984778878466000,1.912466064453125,0.02203730307519436,0.020459940657019615,-0.047560956329107285
1782984778888537600,1.92253759765625,0.026179319247603416,0.009299698285758495,-0.046529512852430344
1782984778898612700,1.93261279296875,0.026571005582809448,0.0007399923633784056,-0.040708404034376144
1782984778908686600,1.9426865234375,0.017175108194351196,-0.005347727797925472,-0.027838414534926414
1782984778918761700,1.95276171875,0.009298372082412243,-0.012819997034966946,-0.014176367782056332
1782984778928835600,1.962835693359375,0.0039265090599656105,-0.016740970313549042,-0.004294708836823702
1782984778938909700,1.97290966796875,0.0034664752893149853,-0.01506204716861248,-0.0039047624450176954
1782984778948984800,1.98298486328125,0.0026997511740773916,-0.0070861466228961945,-0.0074654086492955685
1782984778959058700,1.99305859375,0.00446677953004837,0.008105138316750526,-0.007403268478810787
1782984778969133800,2.0031337890625,0.0010392910335212946,0.022583680227398872,0.0008290948462672532
1782984778979207700,2.013207763671875,-0.003042579162865877,0.02175181545317173,0.0023573054932057858
1782984778989281500,2.023281494140625,-0.0039802780374884605,0.008749463595449924,-0.0030366608407348394
1782984778999356700,2.033356689453125,0.00888991728425026,-0.0027980441227555275,-0.00839124247431755
1782984779009430500,2.043430419921875,0.01570308208465576,-0.013996103778481483,-0.020893186330795288
1782984779019505700,2.053505615234375,0.023668533191084862,-0.025404058396816254,-0.03867274150252342
1782984779029579500,2.06357958984375,0.028019338846206665,-0.019272929057478905,-0.04774826392531395
1782984779039654000,2.07365380859375,0.026943305507302284,-0.0016117524355649948,-0.053674183785915375
1782984779049728500,2.083728515625,0.019862225279211998,0.008062712848186493,-0.05285046622157097
1782984779059803000,2.093802978515625,0.015979167073965073,0.012320335954427719,-0.0468900166451931
1782984779069877800,2.103877685546875,0.009664546698331833,0.007668592035770416,-0.03661820665001869
1782984779079952000,2.113951904296875,0.0050606937147676945,0.005553884897381067,-0.017088091000914574
1782984779090025700,2.124025634765625,-0.004061432089656591,0.013408876955509186,0.01777721382677555
1782984779100100900,2.134100830078125,-0.013472028076648712,0.016217578202486038,0.0505685992538929
1782984779110174700,2.1441748046875,-0.012946320697665215,0.010884598828852177,0.06558829545974731
1782984779120249900,2.154249755859375,-0.009052353911101818,0.015632813796401024,0.07395894080400467
1782984779130323700,2.16432373046875,-0.010462497361004353,0.020758334547281265,0.07092399895191193
1782984779140397800,2.174397705078125,-0.013527602888643742,0.028696738183498383,0.0614653080701828
1782984779150472700,2.18447265625,-0.014835215173661709,0.034718941897153854,0.049277082085609436
1782984779160546800,2.194546875,-0.017215164378285408,0.028720282018184662,0.03625541180372238
1782984779170621700,2.20462158203125,-0.015150417573750019,0.028439318761229515,0.03805357590317726
1782984779180695800,2.21469580078125,-0.0143671166151762,0.025290967896580696,0.044884614646434784
1782984779190769700,2.224769775390625,-0.01893923245370388,0.010766088031232357,0.05694633722305298
1782984779200844800,2.2348447265625,-0.012503351084887981,-0.0015644945669919252,0.0711890384554863
1782984779210918700,2.244918701171875,-0.002559107728302479,-0.010094333440065384,0.07984484732151031
1782984779220993800,2.254993896484375,0.00010032474528998137,-0.002352257492020726,0.08194927871227264
1782984779231067600,2.265067626953125,-0.0025143667589873075,0.011688726022839546,0.07953245937824249
1782984779241141800,2.275141845703125,-0.006351726595312357,0.02988486737012863,0.07362113147974014
1782984779251216600,2.285216552734375,-0.006795409135520458,0.04419562965631485,0.06259538233280182
1782984779261290800,2.295290771484375,0.002367218490689993,0.049366239458322525,0.0431772917509079
1782984779271365600,2.30536572265625,0.016658538952469826,0.03129163011908531,0.02754267305135727
1782984779281439700,2.315439697265625,0.03007945604622364,0.0062234411016106606,0.01114893238991499
1782984779291513600,2.325513671875,0.035033468157052994,-0.011012537404894829,-0.0006949433591216803
1782984779301588700,2.335588623046875,0.03600417822599411,-0.02469470165669918,-0.0020565285813063383
1782984779311662600,2.34566259765625,0.028939876705408096,-0.03634842857718468,0.008767623454332352
1782984779321737700,2.35573779296875,0.01906861551105976,-0.030126310884952545,0.02604212798178196
1782984779331811600,2.3658115234375,0.009231963194906712,-0.023969881236553192,0.037268418818712234
1782984779341885700,2.3758857421875,-0.000915161392185837,-0.003715608501806855,0.037634722888469696
1782984779351960600,2.385960693359375,-0.004775413312017918,0.008869425393640995,0.029558684676885605
1782984779362034700,2.39603466796875,-0.008166780695319176,0.020883917808532715,0.015293671749532223
1782984779372109600,2.406109619140625,-0.004296674858778715,0.025229664519429207,0.008125241845846176
1782984779382183700,2.41618359375,-0.0002353187301196158,0.019009901210665703,0.006365984678268433
1782984779392257800,2.4262578125,0.00290827639400959,0.02024667337536812,0.01345185749232769
1782984779402332700,2.436332763671875,0.009832387790083885,0.014791788533329964,0.020898381248116493
1782984779412406800,2.44640673828125,0.006587326060980558,0.00217879144474864,0.018398473039269447
1782984779422481700,2.456481689453125,0.007352570071816444,-0.000686662970110774,0.016429182142019272
1782984779432555800,2.4665556640625,0.006548562087118626,0.01058170385658741,0.010808846913278103
1782984779442630000,2.4766298828125,0.0014781043864786625,0.018459295853972435,0.00111011799890548
1782984779452704800,2.486704833984375,-0.000281179731246084,0.019707785919308662,-0.010515912435948849
1782984779462779000,2.49677880859375,-0.0004341505700722337,0.03316933289170265,-0.02395443059504032
1782984779472853800,2.506853759765625,0.0019152902532368898,0.020854076370596886,-0.030129767954349518
1782984779482927900,2.516927978515625,0.005602607503533363,0.008861567825078964,-0.022789593786001205
1782984779493001700,2.527001708984375,0.005428969394415617,0.007232245989143848,-0.015241928398609161
1782984779503076900,2.537076904296875,0.007276709657162428,0.006786062382161617,-0.0020114306826144457
1782984779513150700,2.547150634765625,0.009888204745948315,0.005526653490960598,0.006347965449094772
1782984779523225900,2.557225830078125,0.005584487225860357,0.005969468504190445,0.008686130866408348
1782984779533299700,2.5672998046875,0.0052398741245269775,0.007732214406132698,0.0061454749666154385
1782984779543373800,2.577373779296875,0.009204148314893246,0.017193160951137543,-0.008679218590259552
1782984779553448700,2.58744873046875,0.010420946404337883,0.02241029404103756,-0.022184640169143677
1782984779563522800,2.597522705078125,0.006948909722268581,0.021791961044073105,-0.02831331454217434
1782984779573597700,2.60759765625,0.008776105009019375,0.017780175432562828,-0.027077341452240944
1782984779583671800,2.617671875,0.00908040814101696,0.019082698971033096,-0.012962883338332176
1782984779593745700,2.62774560546875,0.0034885681234300137,0.013769161887466908,0.0024949023500084877
1782984779603820800,2.63782080078125,0.01181802898645401,0.005083329975605011,0.006154943723231554
1782984779613894700,2.647894775390625,0.017875654622912407,0.010835224762558937,0.0037389236968010664
1782984779623969800,2.6579697265625,0.01427067443728447,0.003510919166728854,-0.005923083983361721
1782984779634043600,2.668043701171875,0.015310372225940228,0.0008991572540253401,-0.017942462116479874
1782984779644117800,2.67811767578125,0.02095281332731247,0.006616964004933834,-0.03300876542925835
1782984779654192600,2.688192626953125,0.02262714132666588,0.013511888682842255,-0.04138946533203125
1782984779664266800,2.698266845703125,0.026421165093779564,0.013641969300806522,-0.04603416845202446
1782984779674341600,2.708341552734375,0.02874131128191948,0.017312338575720787,-0.03960662707686424
1782984779684415700,2.718415771484375,0.025342052802443504,0.016106991097331047,-0.025899868458509445
1782984779694489600,2.728489501953125,0.022624829784035683,0.013922668062150478,-0.007986648939549923
1782984779704564700,2.738564697265625,0.018548138439655304,0.018057968467473984,0.007462556008249521
1782984779714638600,2.748638671875,0.016190972179174423,0.02027132175862789,0.011526538990437984
1782984779724713700,2.758713623046875,0.01248100958764553,0.027100052684545517,0.004333193879574537
1782984779734787600,2.76878759765625,0.011169135570526123,0.023584680631756783,-0.014701750129461288
1782984779744862000,2.778862060546875,0.016134493052959442,0.01988348551094532,-0.036854397505521774
1782984779754936600,2.7889365234375,0.01918967068195343,0.007382075767964125,-0.053884781897068024
1782984779765011000,2.799010986328125,0.025366639718413353,-0.004925735294818878,-0.05690693482756615
1782984779775085600,2.80908544921875,0.03082185797393322,-0.008338309824466705,-0.06076106056571007
1782984779785160000,2.819159912109375,0.030043862760066986,-0.001216338248923421,-0.0468142069876194
1782984779795233800,2.82923388671875,0.03036530502140522,0.007516167126595974,-0.03654532507061958
1782984779805309000,2.839308837890625,0.0316353477537632,0.01206955872476101,-0.029078174382448196
1782984779815382800,2.8493828125,0.028374040499329567,0.02187345363199711,-0.03221378102898598
1782984779825458000,2.8594580078125,0.026271753013134003,0.030186951160430908,-0.03949069231748581
1782984779835531800,2.86953173828125,0.03696354478597641,0.03030439466238022,-0.05447150394320488
1782984779845607000,2.87960693359375,0.048571113497018814,0.03280551731586456,-0.058413367718458176
1782984779855680800,2.8896806640625,0.04814793914556503,0.039426401257514954,-0.04507971927523613
1782984779865755000,2.8997548828125,0.03794224560260773,0.05273948982357979,-0.026728468015789986
1782984779875829800,2.909829833984375,0.026964962482452393,0.0664244145154953,-0.00686554703861475
1782984779885903400,2.9199033203125,0.025932783260941505,0.07628720253705978,0.004569564014673233
1782984779895978200,2.929978271484375,0.03558114916086197,0.07048524171113968,0.0015032000374048948
1782984779906052400,2.94005224609375,0.04248620197176933,0.05261160433292389,-0.013101664371788502
1782984779916126200,2.950126220703125,0.05415724217891693,0.025928596034646034,-0.03549565374851227
1782984779926201300,2.960201416015625,0.07019791007041931,0.0007658647373318672,-0.05339354649186134
1782984779936275200,2.970275146484375,0.08265377581119537,-0.017009137198328972,-0.06892722845077515
1782984779946349300,2.980349365234375,0.08942507952451706,-0.021800030022859573,-0.07067571580410004
1782984779956424200,2.990424072265625,0.09182698279619217,-0.0071190884336829185,-0.062412459403276443
1782984779966498300,3.000498291015625,0.08952615410089493,0.013191495090723038,-0.04153197631239891
1782984779976573200,3.0105732421875,0.08857167512178421,0.028805607929825783,-0.03165697306394577
1782984779986647300,3.020647216796875,0.08594205975532532,0.05079702287912369,-0.02607303485274315
1782984779996722200,3.03072216796875,0.08402964472770691,0.07200963795185089,-0.021345390006899834
1782984780006796300,3.04079638671875,0.08849260956048965,0.07465537637472153,-0.01943119987845421
1782984780016870100,3.0508701171875,0.09070197492837906,0.061404284089803696,-0.01672596111893654
1782984780026945300,3.0609453125,0.09161636978387833,0.05347171425819397,-0.01915641687810421
1782984780037019100,3.07101904296875,0.10079628229141235,0.04884420335292816,-0.024165822193026543
1782984780047094300,3.08109423828125,0.10875258594751358,0.04888441786170006,-0.03143788129091263
1782984780057168100,3.091168212890625,0.1057775691151619,0.054338570684194565,-0.039599671959877014
1782984780067242500,3.101242431640625,0.10202360898256302,0.06526178121566772,-0.045504167675971985
1782984780077317000,3.111317138671875,0.0946597009897232,0.07764600962400436,-0.0459156259894371
1782984780087391500,3.1213916015625,0.09098941832780838,0.08988282084465027,-0.052783798426389694
1782984780097466000,3.131466064453125,0.0870617926120758,0.09822384268045425,-0.05341523513197899
1782984780107540500,3.14154052734375,0.08393637090921402,0.10221037268638611,-0.04596128314733505
1782984780117614300,3.1516142578125,0.07878315448760986,0.09721987694501877,-0.043036602437496185
1782984780127689500,3.161689453125,0.07616566121578217,0.09341289848089218,-0.03451205790042877
1782984780137763300,3.171763427734375,0.07512542605400085,0.0854945257306099,-0.03244730830192566
1782984780147838500,3.18183837890625,0.0818004384636879,0.07403737306594849,-0.027402987703680992
1782984780157912300,3.191912353515625,0.08564896881580353,0.08050326257944107,-0.01950085535645485
1782984780167986400,3.201986328125,0.08488446474075317,0.08565313369035721,-0.010854518041014671
1782984780178061300,3.212061279296875,0.0813821405172348,0.08248210698366165,-0.012208735570311546
1782984780188135400,3.222135498046875,0.08657032996416092,0.07958924770355225,-0.012646974064409733
1782984780198210300,3.232210205078125,0.08746808022260666,0.08452487736940384,-0.01958610676229
1782984780208284400,3.242284423828125,0.08260724693536758,0.08218663930892944,-0.03041398711502552
1782984780218358300,3.252358154296875,0.07864046841859818,0.08191926032304764,-0.044646985828876495
1782984780228433400,3.262433349609375,0.0812910869717598,0.08709716796875,-0.057268861681222916
1782984780238507300,3.27250732421875,0.08286421746015549,0.08873474597930908,-0.053587839007377625
1782984780248582400,3.28258251953125,0.07901107519865036,0.0914994478225708,-0.033610813319683075
1782984780258656300,3.29265625,0.07262135297060013,0.0900711938738823,-0.01408904418349266
1782984780268730400,3.30273046875,0.06849300861358643,0.09116267412900925,0.004491148982197046
1782984780278805200,3.31280517578125,0.07270985841751099,0.08553194999694824,0.014588257297873497
1782984780288879400,3.32287939453125,0.07178723812103271,0.08048869669437408,0.010153265669941902
1782984780298954200,3.332954345703125,0.07573243975639343,0.07978242635726929,0.0017637757118791342
1782984780309028400,3.3430283203125,0.07636984437704086,0.07623902708292007,-0.011444762349128723
1782984780319102200,3.353102294921875,0.07503613829612732,0.07085571438074112,-0.024398643523454666
1782984780329177300,3.36317724609375,0.07521480321884155,0.07918742299079895,-0.03139876574277878
1782984780339251200,3.373251220703125,0.07222194224596024,0.08574812114238739,-0.02870764024555683
1782984780349326300,3.383326416015625,0.06713583320379257,0.09096285700798035,-0.022652409970760345
1782984780359400200,3.393400146484375,0.061640139669179916,0.09512031823396683,-0.004052361007779837
1782984780369474300,3.403474365234375,0.061635080724954605,0.08972474932670593,0.010280239395797253
1782984780379549200,3.413549072265625,0.059656884521245956,0.07921139150857925,0.020238064229488373
1782984780389623300,3.423623291015625,0.06623059511184692,0.06741546839475632,0.02172703854739666
1782984780399698200,3.4336982421875,0.06463935971260071,0.06663409620523453,0.018087295815348625
1782984780409772300,3.443772216796875,0.060125932097435,0.07267896831035614,0.006356633733958006
1782984780419846400,3.453846435546875,0.05826624482870102,0.0748118907213211,-0.00541027681902051
1782984780429921300,3.46392138671875,0.06243608519434929,0.07340682297945023,-0.012478543445467949
1782984780439995400,3.473995361328125,0.07000957429409027,0.07617118209600449,-0.015825603157281876
1782984780450070300,3.4840703125,0.07191389054059982,0.07413642108440399,-0.016258221119642258
1782984780460144400,3.494144287109375,0.07404521852731705,0.07198724895715714,-0.01567765139043331
1782984780470218500,3.504218505859375,0.07364985346794128,0.06536807119846344,-0.01706716977059841
1782984780480293400,3.51429345703125,0.07537691295146942,0.060880109667778015,-0.020021680742502213
1782984780490367500,3.524367431640625,0.0778011903166771,0.05331460013985634,-0.020350847393274307
1782984780500442400,3.5344423828125,0.07558463513851166,0.05836661905050278,-0.015348631888628006
1782984780510516500,3.5445166015625,0.06763056665658951,0.07962672412395477,-0.02220245450735092
1782984780520590300,3.55459033203125,0.06404169648885727,0.07543756812810898,-0.02941908873617649
1782984780530665500,3.56466552734375,0.07132250815629959,0.08536716550588608,-0.037454910576343536
1782984780540739300,3.5747392578125,0.07082023471593857,0.10292591899633408,-0.044130124151706696
1782984780550814500,3.584814453125,0.07662338018417358,0.09093621373176575,-0.049779634922742844
1782984780560888300,3.594888427734375,0.09228036552667618,0.08180263638496399,-0.05174238607287407
1782984780570962400,3.60496240234375,0.10769817233085632,0.07675231993198395,-0.04300073906779289
1782984780581037300,3.615037353515625,0.11311743408441544,0.07101187109947205,-0.03918389603495598
1782984780591111400,3.625111328125,0.11651350557804108,0.06518904864788055,-0.04012168198823929
1782984780601186300,3.635186279296875,0.10683158040046692,0.04957547038793564,-0.03526194766163826
1782984780611260400,3.645260498046875,0.08597718179225922,0.042576853185892105,-0.021919863298535347
1782984780621334300,3.655334228515625,0.06462528556585312,0.05555763468146324,-0.002446030732244253
1782984780631409400,3.665409423828125,0.06780242174863815,0.05831196904182434,0.009014971554279327
1782984780641483300,3.675483154296875,0.058622244745492935,0.046300847083330154,0.014333570376038551
1782984780651558400,3.685558349609375,0.06592857092618942,0.05973130092024803,0.01511482521891594
1782984780661632300,3.69563232421875,0.06922317296266556,0.051931966096162796,0.007847857661545277
1782984780671706400,3.705706298828125,0.07411135733127594,0.0493147186934948,-0.011430145241320133
1782984780681781200,3.71578125,0.08555816113948822,0.044248055666685104,-0.024307595565915108
1782984780691855400,3.72585546875,0.0869329571723938,0.0382646769285202,-0.03831934556365013
1782984780701930200,3.73593017578125,0.08933193236589432,0.026435183361172676,-0.04437750205397606
1782984780712004400,3.74600439453125,0.07568030059337616,0.020276090130209923,-0.03591717407107353
1782984780722078200,3.756078125,0.06035487726330757,0.019882474094629288,-0.02175128646194935
1782984780732153300,3.7661533203125,0.049212124198675156,0.013632713817059994,-0.015492974780499935
1782984780742227200,3.776227294921875,0.04093368723988533,-0.0008697956800460815,-0.012540061958134174
1782984780752302300,3.78630224609375,0.03869713842868805,-0.0195821113884449,-0.02108173258602619
1782984780762376200,3.796376220703125,0.0347394160926342,-0.030124234035611153,-0.027608076110482216
1782984780772450600,3.806450439453125,0.033244986087083817,-0.03385843709111214,-0.02912282571196556
1782984780782525200,3.816525146484375,0.03325297310948372,-0.0388108491897583,-0.026918528601527214
1782984780792599600,3.826599609375,0.025431694462895393,-0.05139768496155739,-0.019376130774617195
1782984780802674200,3.836674072265625,0.017022497951984406,-0.07588838040828705,-0.005255783908069134
1782984780812748500,3.84674853515625,0.004665089305490255,-0.0938074067234993,0.007335434202104807
1782984780822822400,3.856822509765625,-0.004106031730771065,-0.10062909126281738,0.011565865948796272
1782984780832897500,3.8668974609375,-0.007982584647834301,-0.10266733914613724,0.002820460358634591
1782984780842971400,3.876971435546875,-0.009310970082879066,-0.09932081401348114,-0.012420011684298515
1782984780853046500,3.887046630859375,-0.00623750127851963,-0.09781277924776077,-0.0371723473072052
1782984780863120400,3.897120361328125,-0.00515279546380043,-0.09844262152910233,-0.061628956347703934
1782984780873195500,3.907195556640625,-0.00555101502686739,-0.09647475928068161,-0.07606322318315506
1782984780883269400,3.917269287109375,-0.009946562349796295,-0.08647991716861725,-0.0800531730055809
1782984780893343200,3.92734326171875,-0.011339549906551838,-0.06316260993480682,-0.061327990144491196
1782984780903418400,3.93741845703125,-0.013923881575465202,-0.050295814871788025,-0.0445769727230072
1782984780913492200,3.9474921875,-0.022178957238793373,-0.05030188709497452,-0.025542503222823143
1782984780923567400,3.9575673828125,-0.028165210038423538,-0.05859896540641785,-0.015787875279784203
1782984780933641200,3.96764111328125,-0.03646819293498993,-0.056196484714746475,-0.0038595160003751516
1782984780943715300,3.97771533203125,-0.043419577181339264,-0.048918597400188446,-0.003529283916577697
1782984780953790200,3.987790283203125,-0.04771945998072624,-0.04233832657337189,-0.006891408935189247
1782984780963864300,3.9978642578125,-0.05606181174516678,-0.025727393105626106,-0.013322143815457821
1782984780973938200,4.007938232421875,-0.0574173703789711,-0.02347133681178093,-0.015128211118280888
1782984780984012000,4.018011962890625,-0.055762212723493576,-0.02022707462310791,-0.012312185019254684
1782984780994087200,4.028087158203125,-0.05424775183200836,-0.012581084854900837,-0.007743739057332277
1782984781004161300,4.038161376953125,-0.04790010675787926,-0.008469163440167904,0.00230330228805542
1782984781014236200,4.048236083984375,-0.04574726149439812,-0.006587174721062183,0.0070963711477816105
1782984781024310300,4.058310302734375,-0.03922198340296745,0.0009149501565843821,0.019264087080955505
1782984781034384100,4.068384033203125,-0.03549155592918396,0.005604696460068226,0.03675913065671921
1782984781044459300,4.078459228515625,-0.03110000491142273,0.0014736009761691093,0.05032314360141754
1782984781054533000,4.088533203125,-0.024470368400216103,0.0022224264685064554,0.061895888298749924
1782984781064608300,4.098608154296875,-0.017138419672846794,0.001074870117008686,0.06193822994828224
1782984781074682000,4.10868212890625,-0.009629246778786182,0.003022881457582116,0.05572308599948883
1782984781084756200,4.118756103515625,-0.00618364941328764,0.00034667085856199265,0.04110259935259819
1782984781094831000,4.1288310546875,-0.008234349079430103,0.0017381340730935335,0.02748982235789299
1782984781104905200,4.1389052734375,-0.008839951828122139,0.0024811557959765196,0.012926327995955944
1782984781114980000,4.14897998046875,-0.006431865971535444,-0.004339867737144232,-0.005072528962045908
1782984781125054500,4.159054443359375,0.0029134326614439487,-0.024660851806402206,-0.015260452404618263
1782984781135128300,4.16912841796875,0.0006724883569404483,-0.03343523293733597,-0.017329253256320953
1782984781145203500,4.179203369140625,-0.010508793406188488,-0.026022324338555336,-0.013167000375688076
1782984781155277300,4.18927734375,-0.024758026003837585,-0.0053541576489806175,-0.014047530479729176
1782984781165352400,4.1993525390625,-0.029151443392038345,0.014659231528639793,-0.00391872925683856
1782984781175426300,4.20942626953125,-0.028014423325657845,0.029949674382805824,0.002271137433126569
1782984781185500200,4.219500244140625,-0.02081962674856186,0.02384171634912491,0.01298316940665245
1782984781195575300,4.2295751953125,-0.007161361165344715,-0.00321747618727386,0.019293146207928658
1782984781205649200,4.239649169921875,0.007319044321775436,-0.028221094980835915,0.01785184256732464
1782984781215724300,4.249724365234375,0.015389392152428627,-0.04932348057627678,0.014130045659840107
1782984781225798100,4.259798095703125,0.015311095863580704,-0.06382092833518982,0.008573359809815884
1782984781235872300,4.269872314453125,0.0048698303289711475,-0.0638943761587143,0.0009072455577552319
1782984781245947400,4.279947509765625,-0.0021156410221010447,-0.04871968924999237,-0.003513069124892354
1782984781256021200,4.290021240234375,-0.015367495827376842,-0.02691953256726265,-0.011073222383856773
1782984781266096400,4.300096435546875,-0.029353618621826172,-0.015782460570335388,-0.014703110791742802
1782984781276170200,4.310170166015625,-0.025945359840989113,-0.015715744346380234,-0.010762550868093967
1782984781286244000,4.320244140625,-0.022704558447003365,-0.010229632258415222,0.0003540166362654418
1782984781296319200,4.3303193359375,-0.020621445029973984,-0.001740448409691453,0.010813404805958271
1782984781306394400,4.340394287109375,-0.021844102069735527,-0.00691736675798893,0.019899044185876846
1782984781316469200,4.35046923828125,-0.025860436260700226,-0.015582840889692307,0.02109551429748535
1782984781326543400,4.36054345703125,-0.026525959372520447,-0.02698543108999729,0.020135443657636642
1782984781336617200,4.3706171875,-0.02235063537955284,-0.03207092359662056,0.023445310071110725
1782984781346692400,4.3806923828125,-0.022009484469890594,-0.04012645035982132,0.021047400310635567
1782984781356766200,4.39076611328125,-0.0259399376809597,-0.0523911751806736,0.022448696196079254
1782984781366841300,4.40084130859375,-0.03340264782309532,-0.05998650938272476,0.02476324886083603
1782984781376915200,4.410915283203125,-0.039999820291996,-0.06737927347421646,0.03322482109069824
1782984781386989300,4.4209892578125,-0.054520707577466965,-0.07384596019983292,0.04095997288823128
1782984781397064200,4.431064208984375,-0.06712113320827484,-0.08251362293958664,0.047493092715740204
1782984781407138300,4.44113818359375,-0.06643670052289963,-0.08781970292329788,0.050680894404649734
1782984781417213200,4.451213134765625,-0.06241743639111519,-0.10334664583206177,0.04947590455412865
1782984781427287300,4.461287353515625,-0.06200437992811203,-0.1019386351108551,0.04791582375764847
1782984781437361200,4.471361083984375,-0.06317314505577087,-0.08925929665565491,0.05329490825533867
1782984781447436300,4.481436279296875,-0.07319249212741852,-0.07225660979747772,0.06921608000993729
1782984781457510100,4.49151025390625,-0.08644553273916245,-0.06672108173370361,0.08235493302345276
1782984781467585300,4.501585205078125,-0.08258102089166641,-0.0715443342924118,0.08689509332180023
1782984781477659100,4.5116591796875,-0.07319517433643341,-0.06578254699707031,0.07154679298400879
1782984781487733200,4.521733154296875,-0.06353988498449326,-0.06123386695981026,0.04557244852185249
1782984781497808100,4.53180810546875,-0.05105184391140938,-0.0520748570561409,0.020007317885756493
1782984781507882200,4.54188232421875,-0.03607103228569031,-0.0460025854408741,0.00491997878998518
1782984781517957000,4.55195703125,-0.023934170603752136,-0.037066828459501266,-0.002385843312367797
1782984781528031200,4.56203125,-0.02192108705639839,-0.0402117557823658,-0.005197342485189438
1782984781538105300,4.572105224609375,-0.014928660355508327,-0.05078984424471855,-0.007577675860375166
1782984781548180200,4.58218017578125,-0.01575317606329918,-0.051826346665620804,-0.016204720363020897
1782984781558254300,4.59225439453125,-0.013904248364269733,-0.04267965257167816,-0.023071089759469032
1782984781568329200,4.6023291015625,-0.012274127453565598,-0.03094363398849964,-0.027466636151075363
1782984781578403300,4.6124033203125,-0.010475751012563705,-0.023160412907600403,-0.022404350340366364
1782984781588477200,4.622477294921875,-0.012378579936921597,-0.023824604228138924,-0.013616984710097313
1782984781598552300,4.63255224609375,-0.009274646639823914,-0.022143272683024406,-0.00666231382638216
1782984781608626200,4.642626220703125,-0.011923160403966904,-0.027981188148260117,-0.009613895788788795
1782984781618701300,4.652701416015625,-0.007245250977575779,-0.029173443093895912,-0.024763794615864754
1782984781628775400,4.662775390625,-0.010008013807237148,-0.02392035722732544,-0.039199989289045334
1782984781638850300,4.672850341796875,-0.01293802447617054,-0.019443849101662636,-0.057208817452192307
1782984781648924400,4.68292431640625,-0.013769196346402168,-0.02266201376914978,-0.06929930299520493
1782984781658998300,4.692998291015625,-0.011693739332258701,-0.02908196486532688,-0.07697201520204544
1782984781669073400,4.703073486328125,-0.01225460134446621,-0.02925267443060875,-0.05759379640221596
1782984781679147300,4.713147216796875,-0.020494211465120316,-0.024018894881010056,-0.03639940917491913
1782984781689222400,4.723222412109375,-0.03027653507888317,-0.026716675609350204,-0.003055568551644683
1782984781699296300,4.733296142578125,-0.04035613313317299,-0.029717568308115005,0.020733091980218887
1782984781709370000,4.7433701171875,-0.041661616414785385,-0.03757708892226219,0.025840768590569496
1782984781719445200,4.7534453125,-0.03961504250764847,-0.03785223886370659,0.01677134819328785
1782984781729519000,4.76351904296875,-0.03954793140292168,-0.037281520664691925,-0.0022329676430672407
1782984781739594200,4.77359423828125,-0.03658744692802429,-0.034970689564943314,-0.021337194368243217
1782984781749668400,4.78366845703125,-0.03538769111037254,-0.031911786645650864,-0.03189582750201225
1782984781759742200,4.7937421875,-0.0368034765124321,-0.04137422516942024,-0.031090158969163895
1782984781769817300,4.8038173828125,-0.04356604069471359,-0.05863896384835243,-0.014047792181372643
1782984781779891200,4.81389111328125,-0.05225437507033348,-0.07520958036184311,0.006673816125839949
1782984781789966300,4.82396630859375,-0.05422298237681389,-0.06742968410253525,0.015832427889108658
1782984781800040200,4.834040283203125,-0.06045476347208023,-0.04750622808933258,0.02136949449777603
1782984781810114000,4.844114013671875,-0.06856940686702728,-0.026591362431645393,0.014120903797447681
1782984781820189200,4.854189208984375,-0.07302461564540863,-0.008970823138952255,-0.0012588518438860774
1782984781830263000,4.864262939453125,-0.0649230107665062,-0.02488214522600174,-0.02045944333076477
1782984781840338200,4.874338134765625,-0.04986754432320595,-0.04885260388255119,-0.03368538245558739
1782984781850412000,4.884412109375,-0.039207179099321365,-0.0715978667140007,-0.03871636092662811
1782984781860486100,4.894486083984375,-0.03853021189570427,-0.11276677995920181,-0.037741292268037796
1782984781870561300,4.904561279296875,-0.04065807908773422,-0.13911555707454681,-0.02687079831957817
1782984781880635100,4.91463525390625,-0.04576001316308975,-0.13374939560890198,-0.008377660065889359
1782984781890710000,4.9247099609375,-0.059428952634334564,-0.11948204785585403,0.004260370973497629
1782984781900784000,4.9347841796875,-0.07168092578649521,-0.10175880789756775,0.009063330478966236
1782984781910858200,4.944858154296875,-0.07691989839076996,-0.07938479632139206,0.010479600168764591
1782984781920933000,4.95493310546875,-0.0893583819270134,-0.05322540923953056,-0.000028230766474734992
1782984781931007200,4.96500732421875,-0.09433982521295547,-0.0464271605014801,-0.012349612079560757
1782984781941082000,4.97508203125,-0.08418802917003632,-0.04453282803297043,-0.01948605291545391
1782984781951156200,4.98515625,-0.07876449823379517,-0.05070630460977554,-0.018807480111718178
1782984781961231000,4.995231201171875,-0.07309450954198837,-0.05726335942745209,-0.0059900772757828236
1782984781971305200,5.00530517578125,-0.06998074054718018,-0.06618442386388779,0.007244501728564501
1782984781981379300,5.01537939453125,-0.06339875608682632,-0.07368811964988708,0.01859043724834919
1782984781991454200,5.0254541015625,-0.057205572724342346,-0.0787649005651474,0.029889164492487907
1782984782001528300,5.0355283203125,-0.06060018762946129,-0.07293657213449478,0.02776365540921688
1782984782011603200,5.045603271484375,-0.059744514524936676,-0.06728507578372955,0.012874719686806202
1782984782021677300,5.05567724609375,-0.0611857995390892,-0.059156227856874466,-0.0032857838086783886
1782984782031751200,5.065751220703125,-0.06172109395265579,-0.048306241631507874,-0.015369078144431114
1782984782041826300,5.075826416015625,-0.06190415844321251,-0.03772091493010521,-0.017707275226712227
1782984782051900200,5.085900146484375,-0.06034860759973526,-0.03291337564587593,-0.007714828476309776
1782984782061975300,5.095975341796875,-0.05754515528678894,-0.02818559855222702,0.0018103847978636622
1782984782072049200,5.106049072265625,-0.05294907093048096,-0.02300255373120308,0.007116200402379036
1782984782082123300,5.116123291015625,-0.05206255242228508,-0.021385015919804573,0.010327347554266453
1782984782092198100,5.1261982421875,-0.049976229667663574,-0.019397232681512833,0.008056470192968845
1782984782102272300,5.136272216796875,-0.04071010276675224,-0.011144842021167278,0.0034082478377968073
1782984782112347100,5.14634716796875,-0.033687613904476166,-0.004860314074903727,0.00019833986880257726
1782984782122421200,5.156421142578125,-0.03301214426755905,-0.009154634550213814,-0.0013859448954463005
1782984782132495000,5.1664951171875,-0.029980400577187538,-0.004498896189033985,0.0012601719936355948
1782984782142570200,5.1765703125,-0.025866948068141937,0.001992784673348069,0.0048048123717308044
1782984782152644000,5.18664404296875,-0.020568322390317917,-0.010202362202107906,0.012511467561125755
1782984782162719200,5.19671923828125,-0.013923881575465202,-0.012212079018354416,0.020749835297465324
1782984782172793000,5.20679296875,-0.01319204457104206,-0.009242121130228043,0.02751666121184826
1782984782182867200,5.2168671875,-0.008700563572347164,-0.00832575373351574,0.031664006412029266
1782984782192942000,5.226942138671875,-0.006819306872785091,-0.00797128677368164,0.029021883383393288
1782984782203016200,5.23701611328125,-0.005950602702796459,-0.006731930188834667,0.027470767498016357
1782984782213091000,5.247091064453125,-0.0047971876338124275,-0.008054722100496292,0.024396946653723717
1782984782223165200,5.257165283203125,0.004335437901318073,-0.012499699369072914,0.017657140269875526
1782984782233239300,5.2672392578125,0.007682498544454575,-0.0187301654368639,0.023531807586550713
1782984782243314200,5.277314208984375,0.001976477215066552,-0.02933722734451294,0.022393597289919853
1782984782253388300,5.28738818359375,-0.0021887067705392838,-0.04269510880112648,0.02832978405058384
1782984782263463200,5.297463134765625,-0.006729672197252512,-0.035999298095703125,0.03252701461315155
1782984782273537300,5.307537353515625,-0.012079962529242039,-0.033413901925086975,0.034956347197294235
1782984782283612200,5.317612060546875,-0.015528233721852303,-0.0366428904235363,0.03564246743917465
1782984782293686300,5.327686279296875,-0.01984282210469246,-0.03388572111725807,0.04509882256388664
1782984782303760400,5.337760498046875,-0.022792337462306023,-0.03157972916960716,0.046898555010557175
1782984782313835300,5.347835205078125,-0.03083615005016327,-0.03582241013646126,0.04270567372441292
1782984782323909400,5.357909423828125,-0.03585079684853554,-0.03788890317082405,0.032820675522089005
1782984782333984300,5.367984375,-0.03575705364346504,-0.025696419179439545,0.022454850375652313
1782984782344058400,5.378058349609375,-0.04020329564809799,-0.01809392124414444,0.017835302278399467
1782984782354132200,5.38813232421875,-0.037146251648664474,-0.018533609807491302,0.004286470357328653
1782984782364207400,5.398207275390625,-0.02924736589193344,-0.023980002850294113,-0.0014230147935450077
1782984782374281200,5.40828125,-0.030035927891731262,-0.016603313386440277,-0.007515262346714735
1782984782384356400,5.4183564453125,-0.037027508020401,-0.016910932958126068,-0.010777167975902557
1782984782394430200,5.42843017578125,-0.03739715367555618,-0.026940397918224335,-0.013534339144825935
1782984782404504300,5.43850439453125,-0.038713738322257996,-0.04169675335288048,-0.02021033875644207
1782984782414579200,5.4485791015625,-0.03958113119006157,-0.05458059161901474,-0.02918199636042118
1782984782424653300,5.4586533203125,-0.038409601897001266,-0.03953490033745766,-0.0314897857606411
1782984782434728200,5.468728271484375,-0.04403100162744522,-0.015866322442889214,-0.024861708283424377
1782984782444802300,5.47880224609375,-0.05075031518936157,0.0041366154327988625,-0.019640374928712845
1782984782454876200,5.488876220703125,-0.05394184961915016,0.020586693659424782,-0.01367862243205309
1782984782464951300,5.498951416015625,-0.04214179143309593,0.019997617229819298,-0.00917758233845234
1782984782475025200,5.509025146484375,-0.02389248088002205,0.007244272157549858,-0.02001984417438507
1782984782485100300,5.519100341796875,-0.010907820425927639,-0.02104419656097889,-0.0369853638112545
1782984782495174100,5.529174072265625,-0.0015998061280697584,-0.06399459391832352,-0.05028092861175537
1782984782505248300,5.539248291015625,0.006406853441148996,-0.07719889283180237,-0.06204310059547424
1782984782515323100,5.5493232421875,0.008815150707960129,-0.07278870046138763,-0.06851218640804291
1782984782525397200,5.559397216796875,0.00227013835683465,-0.06750950217247009,-0.06366337835788727
1782984782535472000,5.56947216796875,-0.007829367183148861,-0.05149324983358383,-0.054797444492578506
1782984782545546200,5.579546142578125,-0.014139778912067413,-0.03268810361623764,-0.04136892035603523
1782984782555620000,5.5896201171875,-0.016389083117246628,-0.02071399986743927,-0.024838678538799286
1782984782565695200,5.5996953125,-0.014231468550860882,-0.02003750577569008,-0.015934867784380913
1782984782575769000,5.60976904296875,-0.014935075305402279,-0.03220335766673088,-0.023711031302809715
1782984782585844200,5.61984423828125,-0.008664079010486603,-0.02378487028181553,-0.021374978125095367
1782984782595918000,5.62991796875,-0.008459813892841339,-0.012282678857445717,-0.03372884914278984
1782984782605993200,5.6399931640625,-0.008473731577396393,-0.020251166075468063,-0.039904214441776276
1782984782616067000,5.650067138671875,-0.008049223572015762,-0.016932601109147072,-0.03410757705569267
1782984782626141200,5.66014111328125,-0.010584845207631588,-0.012725587002933025,-0.03026011399924755
1782984782636216000,5.670216064453125,-0.01681477762758732,-0.009923143312335014,-0.026840081438422203
1782984782646290200,5.680290283203125,-0.018576424568891525,-0.0053246114403009415,-0.02296222560107708
1782984782656365000,5.690364990234375,-0.024820737540721893,-0.010424299165606499,-0.023956915363669395
1782984782666439200,5.700439208984375,-0.030958028510212898,-0.01712299883365631,-0.03448814898729324
1782984782676513300,5.71051318359375,-0.034724537283182144,-0.0121524753049016,-0.03597072884440422
1782984782686588200,5.720588134765625,-0.03453119099140167,-0.0011405706172809005,-0.04331625998020172
1782984782696662300,5.730662353515625,-0.028585150837898254,-0.007293804548680782,-0.053454380482435226
1782984782706737200,5.740737060546875,-0.019548598676919937,-0.017209138721227646,-0.06280592083930969
1782984782716811300,5.750811279296875,-0.012925850227475166,-0.012080423533916473,-0.06976422667503357
1782984782726885400,5.760885498046875,-0.008871452882885933,-0.018600907176733017,-0.06535296887159348
1782984782736960300,5.770960205078125,-0.0011277797166258097,-0.02005579136312008,-0.0526994913816452
1782984782747034400,5.781034423828125,-0.0004635207005776465,-0.012244167737662792,-0.030284704640507698
1782984782757109200,5.791109130859375,-0.010657302103936672,-0.013668159954249859,-0.01474223006516695
1782984782767183400,5.801183349609375,-0.012363913469016552,-0.009725751355290413,-0.009932143613696098
1782984782777257200,5.81125732421875,-0.007891134358942509,-0.012750037014484406,-0.018741080537438393
1782984782787332400,5.821332275390625,0.0002666325308382511,-0.0080711143091321,-0.04558335244655609
1782984782797406200,5.83140625,0.010784520767629147,-0.005885458085685968,-0.06572829931974411
1782984782807481300,5.8414814453125,0.014731058850884438,-0.004838036838918924,-0.0740959495306015
1782984782817555200,5.85155517578125,0.016963321715593338,-0.006675884127616882,-0.07073903828859329
1782984782827629000,5.861629150390625,0.015680627897381783,-0.014991446398198605,-0.052090372890233994
1782984782837704200,5.8717041015625,0.010137789882719517,-0.01406360138207674,-0.02908358909189701
1782984782847778300,5.8817783203125,0.004962603561580181,-0.008353596553206444,-0.008946153335273266
1782984782857853200,5.891853271484375,0.003943677991628647,-0.003309835446998477,0.004656207747757435
1782984782867927300,5.90192724609375,0.0007860535988584161,-0.005932129919528961,0.003982013091444969
1782984782878002200,5.912002197265625,0.0031972797587513924,-0.009760158136487007,-0.0007104765390977263
1782984782888076500,5.92207666015625,0.005860449746251106,-0.009335477836430073,-0.012018611654639244
1782984782898150700,5.932150634765625,0.0014987245667725801,-0.00682305172085762,-0.0142213124781847
1782984782908225500,5.9422255859375,-0.0063419160433113575,-0.0062643056735396385,-0.015306554734706879
1782984782918299600,5.952299560546875,-0.010819754563272,-0.009304570034146309,-0.013032747432589531
1782984782928374500,5.96237451171875,-0.010076714679598808,-0.009528462775051594,-0.008233107626438141
1782984782938448600,5.97244873046875,-0.005997816566377878,-0.007466376759111881,0.001265855273231864
1782984782948522500,5.9825224609375,-0.01072996947914362,-0.010164881125092506,0.011787830851972103
1782984782958597600,5.99259765625,-0.011146487668156624,-0.012907670810818672,0.015747418627142906
1782984782968671500,6.00267138671875,-0.005697763990610838,-0.017510609701275826,0.017447104677557945
1782984782978746600,6.01274658203125,0.0048289126716554165,-0.02398395538330078,0.014412698335945606
1782984782988820500,6.022820556640625,0.005555079784244299,-0.02335513010621071,0.007545799016952515
1782984782998894600,6.03289453125,0.0023499655071645975,-0.018160369247198105,0.0006468805368058383
1782984783008969500,6.042969482421875,-0.0004919310449622571,-0.009607784450054169,0.0017348655965179205
1782984783019043600,6.053043701171875,-0.00115825398825109,-0.0067882961593568325,0.003524243598803878
1782984783029118500,6.063118408203125,0.0010046224342659116,-0.012008080258965492,0.0043930006213486195
1782984783039192600,6.073192626953125,0.0017606938490644097,-0.019235366955399513,0.0032587600871920586
1782984783049266700,6.0832666015625,0.003638059366494417,-0.03327562287449837,0.00388135202229023
1782984783059341600,6.093341552734375,-0.0007518954807892442,-0.02142402157187462,0.007450520526617765
1782984783069415700,6.103415771484375,-0.009345952421426773,-0.008783749304711819,0.014934617094695568
1782984783079490600,6.113490478515625,-0.015396920964121819,0.021851658821105957,0.020191695541143417
1782984783089564700,6.123564697265625,-0.008566778153181076,0.046285852789878845,0.03283848986029625
1782984783099638500,6.133638427734375,-0.0032620280981063843,0.04223385080695152,0.03331359848380089
1782984783109713700,6.143713623046875,0.010837793350219727,0.02504946105182171,0.035648830235004425
1782984783119787800,6.153787841796875,0.023117896169424057,-0.0008178219432011247,0.032161422073841095
1782984783129862700,6.163862548828125,0.036619655787944794,-0.027063768357038498,0.02322734333574772
1782984783139936800,6.173936767578125,0.033621471375226974,-0.04534690082073212,0.01950637623667717
1782984783150011600,6.18401171875,0.02696271985769272,-0.042061321437358856,0.015566824935376644
1782984783160085800,6.194085693359375,0.019402537494897842,-0.01698179915547371,0.019435333088040352
1782984783170159600,6.20415966796875,0.00949752889573574,0.000017810380086302757,0.021329756826162338
1782984783180234800,6.21423486328125,0.009507115930318832,0.021249596029520035,0.02802254632115364
1782984783190308600,6.22430859375,0.011091326363384724,0.03209512308239937,0.034379567950963974
1782984783200383700,6.2343837890625,0.015838144347071648,0.03383949398994446,0.03319792449474335
1782984783210457600,6.24445751953125,0.017553530633449554,0.03053739294409752,0.022454673424363136
1782984783220531500,6.254531494140625,0.026358207687735558,0.03458726406097412,0.015485979616641998
1782984783230606600,6.264606689453125,0.02647693082690239,0.035360779613256454,0.011369412764906883
1782984783240680700,6.2746806640625,0.027040988206863403,0.03389178216457367,0.013814461417496204
1782984783250755600,6.284755615234375,0.03158680722117424,0.03958113119006157,0.0288858525454998
1782984783260829700,6.29482958984375,0.031603049486875534,0.038477253168821335,0.04019097238779068
1782984783270903600,6.304903564453125,0.025656895712018013,0.020657505840063095,0.04448268935084343
1782984783280978700,6.314978759765625,0.025802835822105408,0.011427255347371101,0.034768544137477875
1782984783291052500,6.325052490234375,0.02137322537600994,0.02129158191382885,0.01045682467520237
1782984783301127700,6.335127685546875,0.02052740566432476,0.027599545195698738,-0.013963563367724419
1782984783311201500,6.345201416015625,0.018144717440009117,0.03107690066099167,-0.035998810082674026
1782984783321275400,6.355275390625,0.01714496687054634,0.0306025929749012,-0.05945060774683952
1782984783331350500,6.3653505859375,0.019179878756403923,0.024658774957060814,-0.08023382723331451
1782984783341424400,6.37542431640625,0.017691971734166145,0.025987425819039345,-0.10060062259435654
1782984783351499500,6.38549951171875,0.01912025921046734,0.025940442457795143,-0.1131332665681839
1782984783361573600,6.39557373046875,0.020409496501088142,0.020489484071731567,-0.10761865973472595
1782984783371648500,6.4056484375,0.023773765191435814,0.017105210572481155,-0.10568248480558395
1782984783381722600,6.41572265625,0.02453862503170967,0.015780553221702576,-0.09762722253799438
1782984783391796500,6.42579638671875,0.02525448240339756,0.018524672836065292,-0.08785981684923172
1782984783401871600,6.43587158203125,0.03524879366159439,0.03349856659770012,-0.07400738447904587
1782984783411945500,6.445945556640625,0.037766363471746445,0.03542681410908699,-0.0634869784116745
1782984783422020600,6.4560205078125,0.042398400604724884,0.04041597992181778,-0.04989020898938179
1782984783432094500,6.466094482421875,0.04734566807746887,0.042368754744529724,-0.03706001490354538
1782984783442168600,6.47616845703125,0.043453726917505264,0.031847406178712845,-0.02105894684791565
1782984783452243500,6.486243408203125,0.03771130368113518,0.024670081213116646,-0.0061594825237989426
1782984783462317600,6.496317626953125,0.03450006619095802,0.03962026908993721,0.000752485531847924
1782984783472392400,6.506392333984375,0.02614806778728962,0.03976820409297943,0.0064371563494205475
1782984783482466800,6.516466796875,0.011460201814770699,0.031427182257175446,-0.0035257290583103895
1782984783492540700,6.526540771484375,0.004931415896862745,0.034286823123693466,0.0006364298751577735
1782984783502615800,6.53661572265625,0.01255045272409916,0.03532039746642113,0.003021024167537689
1782984783512689700,6.546689697265625,0.016121987253427505,0.05876058712601662,-0.004362431354820728
1782984783522764800,6.556764892578125,0.013907302170991898,0.03619642183184624,-0.0174726415425539
1782984783532838700,6.566838623046875,0.00779335293918848,0.0314510241150856,-0.023391999304294586
1782984783542912500,6.57691259765625,-0.0010840275790542364,0.027541501447558403,-0.029473062604665756
1782984783552987600,6.586987548828125,-0.010423620231449604,0.02187759429216385,-0.02839489094913006
1782984783563061500,6.5970615234375,-0.020465601235628128,0.013263599947094917,-0.025504829362034798
1782984783573136600,6.60713671875,-0.024719564244151115,0.0209776870906353,-0.016046909615397453
1782984783583210500,6.61721044921875,-0.02980194054543972,0.01960429549217224,-0.00689548859372735
1782984783593285600,6.62728564453125,-0.03265820071101189,0.016666749492287636,0.0003290429594926536
1782984783603359500,6.637359375,-0.03456289321184158,0.012599569745361805,0.004060398321598768
1782984783613433600,6.64743359375,-0.03252511844038963,0.016723528504371643,0.0052855126559734344
1782984783623508700,6.6575087890625,-0.03387187793850899,0.02272682450711727,0.003710785647854209
1782984783633582600,6.66758251953125,-0.035198844969272614,0.019849931821227074,-0.010733816772699356
1782984783643657700,6.67765771484375,-0.035209763795137405,0.014245043508708477,-0.028600165620446205
1782984783653731600,6.687731689453125,-0.030126940459012985,0.0036716412287205458,-0.04428230598568916
1782984783663805400,6.697805419921875,-0.025180652737617493,-0.0029239433351904154,-0.056261736899614334
1782984783673880600,6.707880615234375,-0.017215127125382423,-0.020156022161245346,-0.06047867238521576
1782984783683954400,6.717954345703125,-0.017704084515571594,-0.02632363699376583,-0.0500878170132637
1782984783694029600,6.728029541015625,-0.017562387511134148,-0.011181092821061611,-0.033872269093990326
1782984783704103400,6.738103515625,-0.02010544016957283,0.007858111523091793,-0.015536405146121979
1782984783714177500,6.748177490234375,-0.02058997191488743,0.01767299696803093,-0.0009259823709726334
1782984783724252400,6.75825244140625,-0.012650555931031704,0.01882508024573326,-0.003924435470253229
1782984783734326500,6.768326416015625,-0.0025175027549266815,0.002017697785049677,-0.01885376311838627
1782984783744401700,6.778401611328125,0.01153892744332552,-0.028526363894343376,-0.05045696347951889
1782984783754475500,6.7884755859375,0.022641094401478767,-0.05234096199274063,-0.07518637180328369
1782984783764549400,6.79854931640625,0.02741214819252491,-0.06213127449154854,-0.10241959244012833
1782984783774624500,6.80862451171875,0.0256645604968071,-0.06668030470609665,-0.11254901438951492
1782984783784698400,6.818698486328125,0.013871552422642708,-0.06366320699453354,-0.10541706532239914
1782984783794773500,6.8287734375,0.0035276063717901707,-0.04930194839835167,-0.08675211668014526
1782984783804847400,6.838847412109375,-0.005118079483509064,-0.03286944702267647,-0.05937588959932327
1782984783814922500,6.848922607421875,-0.01659422181546688,-0.03149186074733734,-0.038137007504701614
1782984783824996400,6.858996337890625,-0.021968480199575424,-0.029690232127904892,-0.017606163397431374
1782984783835070700,6.86907080078125,-0.02000577747821808,-0.03070805035531521,-0.008216862566769123
1782984783845145300,6.879145263671875,-0.02014159969985485,-0.03331927955150604,-0.009037915617227554
1782984783855219700,6.8892197265625,-0.024961406365036964,-0.027806881815195084,-0.010594090446829796
1782984783865294600,6.899294677734375,-0.029279455542564392,-0.023609738796949387,-0.014129970222711563
1782984783875368700,6.90936865234375,-0.03949922323226929,-0.02572312019765377,-0.02175314538180828
1782984783885442600,6.919442626953125,-0.03618491813540459,-0.03550916910171509,-0.033332835882902145
1782984783895517400,6.929517333984375,-0.03396763652563095,-0.02937409095466137,-0.041008360683918
1782984783905591600,6.939591552734375,-0.04089558497071266,-0.028977811336517334,-0.040985189378261566
1782984783915666400,6.94966650390625,-0.043404996395111084,-0.029885828495025635,-0.03633173182606697
1782984783925740500,6.959740478515625,-0.048941973596811295,-0.02515925094485283,-0.024320606142282486
1782984783935814400,6.969814453125,-0.04995577409863472,-0.02715338207781315,-0.01312758307904005
1782984783945889500,6.9798896484375,-0.048966940492391586,-0.03202963247895241,-0.004664589650928974
1782984783955963400,6.98996337890625,-0.04630732908844948,-0.035913437604904175,0.004185509402304888
1782984783966038500,7.00003857421875,-0.04232563450932503,-0.042717546224594116,0.008016732521355152
1782984783976112400,7.0101123046875,-0.0436771884560585,-0.048602599650621414,0.000059740254073403776
1782984783986186500,7.0201865234375,-0.046294279396533966,-0.051200248301029205,-0.018709152936935425
1782984783996261400,7.030261474609375,-0.04572578892111778,-0.045553840696811676,-0.029450511559844017
1782984784006335500,7.04033544921875,-0.051689404994249344,-0.026582015678286552,-0.040936991572380066
1782984784016410400,7.050410400390625,-0.060186583548784256,-0.013343467377126217,-0.039515428245067596
1782984784026484500,7.060484375,-0.057169221341609955,-0.013461978174746037,-0.04054393991827965
1782984784036559400,7.070559326171875,-0.05097175016999245,-0.016826899722218513,-0.029457461088895798
1782984784046633500,7.080633544921875,-0.051732614636421204,-0.020382752642035484,-0.01701384037733078
1782984784056707300,7.090707275390625,-0.053504787385463715,-0.024483151733875275,-0.011123938485980034
1782984784066782500,7.100782470703125,-0.054961804300546646,-0.024063970893621445,-0.004925164394080639
1782984784076856300,7.110856201171875,-0.0522446446120739,-0.0294388048350811,-0.012494691647589207
1782984784086931500,7.120931396484375,-0.04948774352669716,-0.03371185064315796,-0.025316746905446053
1782984784097005300,7.13100537109375,-0.04865474998950958,-0.04056209325790405,-0.03951122611761093
1782984784107079400,7.141079345703125,-0.047774311155080795,-0.04415789246559143,-0.050127651542425156
1782984784117154300,7.151154296875,-0.051674481481313705,-0.036769766360521317,-0.0587962344288826
1782984784127228400,7.161228515625,-0.05044197291135788,-0.03057977929711342,-0.050410740077495575
1782984784137303300,7.17130322265625,-0.05203324928879738,-0.02925848588347435,-0.03800104185938835
1782984784147377400,7.18137744140625,-0.059171583503484726,-0.032772790640592575,-0.029911955818533897
1782984784157451300,7.191451171875,-0.05980087071657181,-0.0336262471973896,-0.024830106645822525
1782984784167526400,7.2015263671875,-0.06051646173000336,-0.030673867091536522,-0.02553051896393299
1782984784177600300,7.211600341796875,-0.06243452802300453,-0.022298097610473633,-0.033710263669490814
1782984784187675400,7.22167529296875,-0.06135008856654167,-0.016173891723155975,-0.03796759247779846
1782984784197749500,7.23174951171875,-0.058373939245939255,-0.010534605011343956,-0.04144538938999176
1782984784207823600,7.24182373046875,-0.058005090802907944,-0.011026756837964058,-0.04070263355970383
1782984784217898500,7.2518984375,-0.05637097731232643,-0.005523068364709616,-0.04198574647307396
1782984784227972600,7.26197265625,-0.054832469671964645,-0.004978451877832413,-0.0425170473754406
1782984784238047500,7.272047607421875,-0.04729907959699631,-0.010362899862229824,-0.03984328731894493
1782984784248121600,7.28212158203125,-0.04015035554766655,-0.011583693325519562,-0.03238110989332199
1782984784258196500,7.292196533203125,-0.02708401344716549,-0.012379762716591358,-0.01904379576444626
1782984784268270600,7.3022705078125,-0.014257696457207203,-0.007327746599912643,-0.009683582931756973
1782984784278344400,7.312344482421875,-0.0033831344917416573,-0.017145808786153793,0.000907215173356235
1782984784288419600,7.322419677734375,-0.007761637680232525,-0.027137989178299904,-0.0017426300328224897
1782984784298493400,7.332493408203125,-0.008176255971193314,-0.01430059876292944,0.0006906188791617751
1782984784308568600,7.342568603515625,-0.014388611540198326,-0.012934396974742413,-0.00401332275941968
1782984784318642400,7.352642333984375,-0.004899804480373859,-0.016562042757868767,-0.003907247446477413
1782984784328716500,7.362716552734375,0.010909518226981163,-0.022753892466425896,0.014849929139018059
1782984784338791400,7.37279150390625,0.008239536546170712,0.0036837714724242687,0.03518017753958702
1782984784348865500,7.382865478515625,-0.0019220199901610613,0.024061214178800583,0.050074703991413116
1782984784358940400,7.3929404296875,-0.002148302970454097,0.029785268008708954,0.05404958873987198
1782984784369014500,7.4030146484375,0.007910721935331821,0.028647031635046005,0.04905642941594124
1782984784379088400,7.41308837890625,0.013458559289574623,0.012818129733204842,0.03198092803359032
1782984784389163500,7.42316357421875,0.019681300967931747,-0.01523134857416153,0.023070789873600006
1782984784399237400,7.4332373046875,0.020999284461140633,-0.018158238381147385,0.011199123226106167
1782984784409312500,7.4433125,0.022157225757837296,-0.021329529583454132,0.010855309665203094
1782984784419386400,7.453386474609375,0.01328835729509592,-0.020163504406809807,0.010444470681250095
1782984784429460500,7.46346044921875,0.00011077080853283405,-0.013423310592770576,0.018956201151013374
1782984784439535400,7.473535400390625,-0.00991934072226286,-0.0003425006289035082,0.024620356038212776
1782984784449609500,7.483609375,-0.009433313272893429,0.01063451636582613,0.03407963737845421
1782984784459684400,7.493684326171875,-0.009709559381008148,0.024787139147520065,0.03825579956173897
1782984784469758500,7.503758544921875,-0.0053185392171144485,0.020741797983646393,0.043653491884469986
1782984784479832300,7.513832275390625,-0.000040402053855359554,0.010939313098788261,0.046772152185440063
1782984784489907500,7.523907470703125,0.00339720631018281,0.00954568199813366,0.04385891929268837
1782984784499981300,7.533981201171875,0.01015482284128666,-0.0026666754856705666,0.031492386013269424
1782984784510056400,7.544056396484375,0.014837192371487617,-0.0021399022080004215,0.018441298976540565
1782984784520130300,7.55413037109375,0.01602071523666382,0.0009121536277234554,0.008169584907591343
1782984784530205400,7.564205322265625,0.01398499682545662,-0.006678122095763683,-0.001944835064932704
1782984784540279300,7.574279296875,0.01614932343363762,-0.011700022034347057,-0.013919482938945293
1782984784550353400,7.584353515625,0.0119172940030694,-0.0025800270959734917,-0.02035527676343918
1782984784560428300,7.59442822265625,0.001835414906963706,0.01247958093881607,-0.02342623472213745
1782984784570502400,7.60450244140625,-0.007009209133684635,0.028085438534617424,-0.024373255670070648
1782984784580577300,7.614577392578125,-0.007138533983379602,0.037859972566366196,-0.01898174360394478
1782984784590651400,7.6246513671875,-0.000756801397074014,0.03539654612541199,-0.012259658426046371
1782984784600725500,7.6347255859375,0.0054532615467906,0.037202101200819016,-0.0007727020420134068
1782984784610800400,7.64480029296875,0.013373502530157566,0.032633181661367416,0.008916676975786686
1782984784620874500,7.65487451171875,0.01631833054125309,0.028881028294563293,0.015724483877420425
1782984784630949400,7.664949462890625,0.021333329379558563,0.02417495660483837,0.015944194048643112
1782984784641023500,7.6750234375,0.02464436925947666,0.026202376931905746,0.014388618990778923
1782984784651097600,7.68509765625,0.031208528205752373,0.03129274398088455,0.005527483765035868
1782984784661172500,7.69517236328125,0.03167431801557541,0.033246707171201706,-0.001633490202948451
1782984784671246600,7.70524658203125,0.03264131024479866,0.04002818092703819,-0.0019141873344779015
1782984784681321500,7.715321533203125,0.03130359575152397,0.0393315926194191,0.0054439459927380085
1782984784691395600,7.7253955078125,0.03148788586258888,0.040869034826755524,0.011386523954570293
1782984784701469400,7.735469482421875,0.034871190786361694,0.038350459188222885,0.023490333929657936
1782984784711544600,7.745544677734375,0.03051106259226799,0.030660584568977356,0.024035483598709106
1782984784721618400,7.755618408203125,0.029027141630649567,0.023311687633395195,0.01735343039035797
1782984784731693600,7.765693603515625,0.030562184751033783,0.023192377761006355,0.007169769611209631
1782984784741767400,7.775767333984375,0.029040902853012085,0.02623438462615013,-0.007587988395243883
1782984784751842600,7.785842529296875,0.0327426977455616,0.02290996164083481,-0.011657831259071827
1782984784761916400,7.79591650390625,0.03215993568301201,0.024715183302760124,-0.009442273527383804
1782984784771990500,7.805990478515625,0.02663281187415123,0.025621989741921425,0.0004998395452275872
1782984784782065400,7.8160654296875,0.02249148115515709,0.015770047903060913,0.009306262247264385
1782984784792139500,7.826139404296875,0.0231572687625885,0.008828784339129925,0.0052918135188519955
1782984784802214400,7.83621435546875,0.026708310469985008,0.010522313416004181,0.0022297771647572517
1782984784812288500,7.84628857421875,0.03316487744450569,0.014236624352633953,-0.010078288614749908
1782984784822362400,7.8563623046875,0.02871420420706272,0.019619937986135483,-0.014345205388963223
1782984784832437500,7.8664375,0.020604878664016724,0.028040321543812752,-0.012007482349872589
1782984784842511400,7.876511474609375,0.00570828840136528,0.0399971567094326,-0.01026947796344757
1782984784852586500,7.88658642578125,-0.0003168471739627421,0.044121064245700836,-0.006752774119377136
1782984784862660400,7.896660400390625,-0.009530671872198582,0.04286633059382439,-0.012760717421770096
1782984784872734500,7.906734375,-0.017838135361671448,0.04581977427005768,-0.015170611441135406
1782984784882809300,7.916809326171875,-0.022171135991811752,0.04488271102309227,-0.021436328068375587
1782984784892882700,7.926882568359375,-0.029526252299547195,0.04162300005555153,-0.021063486114144325
1782984784902957600,7.93695751953125,-0.024509992450475693,0.031591903418302536,-0.0233475249260664
1782984784913031700,7.94703173828125,-0.01823265478014946,0.02975432202219963,-0.026577141135931015
1782984784923105500,7.95710546875,-0.004985007457435131,0.02338465303182602,-0.02848120965063572
1782984784933180700,7.9671806640625,0.007709216326475143,0.00209108111448586,-0.0230675358325243
1782984784943254500,7.977254638671875,0.015173564665019512,-0.012174619361758232,-0.016383960843086243
1782984784953329700,7.98732958984375,0.010581210255622864,-0.002245556563138962,-0.006735329050570726
1782984784963402500,7.997402587890625,0.001391028636135161,-0.0005371248116716743,-0.001019433606415987
1782984784973477600,8.0074775390625,-0.0006151304696686566,0.0050123706459999084,0.0034091367851942778
1782984784983551500,8.017551513671876,-0.004811473190784454,0.017701266333460808,0.0013885966036468744
1782984784993625600,8.02762548828125,-0.010516497306525707,0.03140296787023544,0.001771292882040143
1782984785003700500,8.037700439453126,-0.010379962623119354,0.04143310710787773,-0.0034880354069173336
1782984785013774600,8.047774658203124,-0.005674955900758505,0.03695579990744591,-0.006415648385882378
1782984785023849500,8.057849365234375,0.002918464597314596,0.02550283633172512,-0.007724351715296507
1782984785033923600,8.067923583984374,0.012073347344994545,0.004608738236129284,-0.01289860624819994
1782984785043998500,8.07799853515625,0.022772150114178658,-0.011279293335974216,-0.019606992602348328
1782984785054072600,8.088072509765626,0.02759353630244732,-0.02510695904493332,-0.019634954631328583
1782984785064146400,8.098146484375,0.022523554041981697,-0.021605711430311203,-0.01112911943346262
1782984785074221600,8.1082216796875,0.018410302698612213,-0.01869620755314827,-0.0019382844911888242
1782984785084295400,8.11829541015625,0.016152139753103256,-0.01711592823266983,0.006203237920999527
1782984785094370600,8.12837060546875,0.012304672040045261,-0.013004540465772152,0.019744347780942917
1782984785104444400,8.1384443359375,0.00836306344717741,-0.007495712488889694,0.017944984138011932
1782984785114518500,8.1485185546875,0.011051790788769722,-0.009367382153868675,0.0074316225945949554
1782984785124593400,8.158593505859375,0.016536548733711243,-0.005175810307264328,-0.0069643715396523476
1782984785134667500,8.16866748046875,0.018891580402851105,0.0012461363803595304,-0.019992554560303688
1782984785144742400,8.178742431640625,0.01644199714064598,0.0017879183869808912,-0.01942201890051365
1782984785154816500,8.18881640625,0.015797246247529984,-0.0003785630688071251,-0.012924705632030964
1782984785164890600,8.198890625,0.012262551113963127,-0.005778385326266289,-0.004649690818041563
1782984785174965500,8.208965576171876,0.013685477897524834,-0.014095436781644821,-0.0009122103801928461
1782984785185039600,8.21903955078125,0.01149231381714344,-0.00923113338649273,0.005758992396295071
1782984785195114500,8.229114501953125,0.008651252835988998,0.004921702668070793,0.007204290013760328
1782984785205188600,8.239188720703124,0.005707394797354937,0.016363974660634995,0.005445538554340601
1782984785215262700,8.2492626953125,0.0013147767167538404,0.028942883014678955,0.008445056155323982
1782984785225337600,8.259337646484376,-0.0017702799523249269,0.038838423788547516,0.014170123264193535
1782984785235411700,8.26941162109375,0.0003541236510500312,0.03988184779882431,0.015247371979057789
1782984785245486600,8.279486572265625,0.005393786821514368,0.03501259535551071,0.013053780421614647
1782984785255560700,8.289560791015624,0.013565430417656898,0.02255033329129219,0.00388105446472764
1782984785265635600,8.299635498046875,0.025992538779973984,0.0037249817978590727,-0.004942264407873154
1782984785275709700,8.309709716796876,0.03071751818060875,0.0007808571681380272,-0.016566695645451546
1782984785285783600,8.319783447265625,0.03947858884930611,0.00271648564375937,-0.019083358347415924
1782984785295858700,8.329858642578126,0.040752112865448,0.011371226981282234,-0.022280484437942505
1782984785305932500,8.3399326171875,0.04044618085026741,0.017491210252046585,-0.01886841468513012
1782984785316007700,8.350007568359375,0.04074578732252121,0.025729699060320854,-0.006785918027162552
1782984785326081500,8.36008154296875,0.04051165655255318,0.03007352538406849,0.0050560724921524525
1782984785336155600,8.37015576171875,0.042119137942790985,0.03765580803155899,0.025097958743572235
1782984785346230500,8.38023046875,0.04292258620262146,0.04250597581267357,0.04118956997990608
1782984785356304600,8.3903046875,0.043925266712903976,0.03161471337080002,0.041385043412446976
1782984785366379500,8.400379638671875,0.04232136905193329,0.030601119622588158,0.030775846913456917
1782984785376453600,8.41045361328125,0.046813856810331345,0.032456278800964355,0.011556081473827362
1782984785386527500,8.420527587890625,0.045918576419353485,0.03037789836525917,-0.005584619008004665
1782984785396602600,8.4306025390625,0.04412467032670975,0.027873460203409195,-0.015209282748401165
1782984785406676500,8.440676513671875,0.03891558572649956,0.028993722051382065,-0.007648988626897335
1782984785416751600,8.450751708984376,0.03229683265089989,0.03691769391298294,0.0023945907596498728
1782984785426825500,8.460825439453124,0.027857456356287003,0.04621276259422302,0.011712847277522087
1782984785436900600,8.470900634765625,0.028099803254008293,0.04861866310238838,0.025229455903172493
1782984785446974500,8.480974365234376,0.02469797618687153,0.04560212418437004,0.02744710072875023
1782984785457048600,8.491048583984375,0.03182725980877876,0.04283509775996208,0.030187759548425674
1782984785467123500,8.50112353515625,0.027399001643061638,0.05084796994924545,0.03840283304452896
1782984785477197600,8.511197509765625,0.027444008737802505,0.05583607032895088,0.04365592077374458
1782984785487272400,8.5212724609375,0.030505718663334846,0.05027975142002106,0.04048386961221695
1782984785497346600,8.5313466796875,0.034897539764642715,0.04929331690073013,0.035286176949739456
1782984785507420400,8.54142041015625,0.036550089716911316,0.04635731875896454,0.0231260284781456
1782984785517495600,8.55149560546875,0.03472236171364784,0.04143127053976059,0.008682907558977604
1782984785527569400,8.5615693359375,0.03500193729996681,0.045505501329898834,0.0021428721956908703
1782984785537644500,8.57164453125,0.03903289884328842,0.054960522800683975,-0.004517959896475077
1782984785547718400,8.581718505859374,0.036127395927906036,0.0481448620557785,0.0008897692896425724
1782984785557792800,8.591792724609375,0.03929335996508598,0.04221533611416817,0.015311585739254951
1782984785567867400,8.601867431640626,0.03589107096195221,0.048334818333387375,0.02483457140624523
1782984785577941800,8.611941650390625,0.03456827998161316,0.06322215497493744,0.02988951839506626
1782984785588016400,8.622016357421876,0.03350018709897995,0.06512677669525146,0.029479866847395897
1782984785598090800,8.6320908203125,0.042118705809116364,0.05685286596417427,0.02384914644062519
1782984785608164600,8.64216455078125,0.0513392835855484,0.04458862543106079,0.02235260047018528
1782984785618239700,8.65223974609375,0.05423041060566902,0.02984056994318962,0.02439258247613907
1782984785628313600,8.662313720703125,0.043826110661029816,0.027387889102101326,0.025646977126598358
1782984785638388700,8.672388671875,0.0398247130215168,0.03427242860198021,0.028506413102149963
1782984785648462600,8.682462646484375,0.02815067023038864,0.05426616221666336,0.027929900214076042
1782984785658536700,8.69253662109375,0.023459510877728462,0.07727187871932983,0.0291280560195446
1782984785668611600,8.702611572265624,0.024731703102588654,0.0898667648434639,0.02766731195151806
1782984785678685700,8.712685791015625,0.039132215082645416,0.085273876786232,0.026810307055711746
1782984785688760600,8.722760498046876,0.0525142177939415,0.0658382922410965,0.023858070373535156
1782984785698834700,8.732834716796875,0.06484465301036835,0.03828256204724312,0.01906704343855381
1782984785708909600,8.74290966796875,0.07347895205020905,0.013131801970303059,0.015837091952562332
1782984785718983700,8.752983642578124,0.07282141596078873,0.008558088913559914,0.012306272983551025
1782984785729057500,8.7630576171875,0.06471874564886093,0.004135207738727331,0.016479797661304474
1782984785739132700,8.773132568359374,0.05802834779024124,0.008027683943510056,0.017392197623848915
1782984785749206500,8.78320654296875,0.046391382813453674,0.02273944392800331,0.019663246348500252
1782984785759281700,8.79328173828125,0.038926009088754654,0.03137580677866936,0.022749582305550575
1782984785769355500,8.80335546875,0.040811795741319656,0.033409129828214645,0.022193782031536102
1782984785779429600,8.8134296875,0.036887627094984055,0.029942495748400688,0.02447184920310974
1782984785789504500,8.82350439453125,0.039875589311122894,0.01610318198800087,0.019504575058817863
1782984785799578600,8.83357861328125,0.046380091458559036,0.013440286740660667,0.0174880288541317
1782984785809653500,8.843653564453126,0.04317018389701843,0.025275642052292824,0.022774936631321907
1782984785819727600,8.8537275390625,0.03315616771578789,0.024965915828943253,0.03556157276034355
1782984785829801500,8.863801513671875,0.025792792439460754,0.021664395928382874,0.04663606360554695
1782984785839876600,8.873876708984374,0.020078981295228004,0.012999800965189934,0.04520381614565849
1782984785849950500,8.883950439453125,0.016628537327051163,0.007062844466418028,0.03831987828016281
1782984785860025600,8.894025634765624,0.00659108255058527,0.01779644936323166,0.026318078860640526
1782984785870099500,8.904099365234375,-0.006135398056358099,0.025665409862995148,0.017757955938577652
1782984785880174600,8.914174560546876,-0.010259569622576237,0.029578126966953278,0.016979249194264412
1782984785890248700,8.924248779296875,-0.013269199058413506,0.030287496745586395,0.02372761256992817
1782984785900322800,8.93432275390625,-0.016025038436055183,0.020171744748950005,0.03473152592778206
1782984785910397700,8.944397705078124,-0.014381601475179195,0.010308194905519485,0.03887753561139107
1782984785920471800,8.954471923828125,-0.018208829686045647,-0.003266469342634082,0.04082776978611946
1782984785930546700,8.964546630859376,-0.014847380109131336,-0.01632111519575119,0.030890364199876785
1782984785940620800,8.974620849609375,-0.012508059851825237,-0.024174243211746216,0.016914360225200653
1782984785950695000,8.98469482421875,-0.012374232523143291,-0.03236018121242523,-0.000990819651633501
1782984785960769800,8.994769775390624,-0.020709393545985222,-0.034905362874269485,-0.010787789709866047
1782984785970844000,9.004843994140625,-0.02549857646226883,-0.027528489008545876,-0.011310392059385777
1782984785980918800,9.014918701171876,-0.03261613845825195,-0.02803528867661953,-0.006659181322902441
1782984785990993000,9.024992919921875,-0.03038938343524933,-0.014233872294425964,-0.00254359794780612
1782984786001067800,9.03506787109375,-0.03382832556962967,-0.019899748265743256,-0.005631532985717058
1782984786011142000,9.045141845703125,-0.03988448902964592,-0.03353787213563919,0.0019436912843957543
1782984786021216000,9.055216064453125,-0.03236585110425949,-0.03690490871667862,0.0016307698097079992
1782984786031291000,9.065290771484374,-0.028462760150432587,-0.05777999386191368,0.005379339214414358
1782984786041365000,9.075364990234375,-0.03381970897316933,-0.05985752493143082,0.0057721552439033985
1782984786051439900,9.08543994140625,-0.044790733605623245,-0.05851856619119644,0.0009122799383476377
1782984786061514000,9.095513916015625,-0.05156581476330757,-0.05244709178805351,0.000026512596377870068
1782984786071587800,9.105587890625,-0.05699677765369415,-0.047811347991228104,-0.0018182499334216118
1782984786081663000,9.1156630859375,-0.05842715874314308,-0.04886462539434433,-0.0064894347451627254
1782984786091736800,9.12573681640625,-0.05838483199477196,-0.053009647876024246,-0.008267988450825214
1782984786101812000,9.13581201171875,-0.054868925362825394,-0.0518767386674881,-0.013930668123066425
1782984786111885800,9.1458857421875,-0.05287705361843109,-0.054626159369945526,-0.018817804753780365
1782984786121960000,9.1559599609375,-0.0562206506729126,-0.0553598590195179,-0.021719584241509438
1782984786132034800,9.166034912109374,-0.06063332408666611,-0.04945771396160126,-0.023474808782339096
1782984786142109000,9.17610888671875,-0.06393883377313614,-0.046064577996730804,-0.029262922704219818
1782984786152183800,9.186183837890624,-0.06384208798408508,-0.04182780534029007,-0.03064250573515892
1782984786162258000,9.1962578125,-0.0651390478014946,-0.03996119648218155,-0.02914607524871826
1782984786172331800,9.206331787109375,-0.05773361027240753,-0.03830505162477493,-0.02034255675971508
1782984786182407000,9.216406982421875,-0.04727298021316528,-0.045597318559885025,-0.01161378063261509
1782984786192480800,9.226480712890625,-0.03944506496191025,-0.05409720912575722,-0.009436262771487236
1782984786202556000,9.236555908203124,-0.03832573816180229,-0.056076206266880035,-0.006297993008047342
1782984786212629800,9.246629638671875,-0.03538156673312187,-0.054679423570632935,-0.00488117104396224
1782984786222705000,9.256704833984376,-0.03451923653483391,-0.05550606921315193,-0.008872450329363346
1782984786232778800,9.26677880859375,-0.036107584834098816,-0.0473904013633728,-0.017629563808441162
1782984786242852900,9.276852783203125,-0.03415308892726898,-0.046077463775873184,-0.025712523609399796
1782984786252927700,9.286927734375,-0.031844284385442734,-0.04279954358935356,-0.03233647719025612
1782984786263001900,9.297001953125,-0.03241793066263199,-0.05121060460805893,-0.044653333723545074
1782984786273076700,9.30707666015625,-0.029660414904356003,-0.05304211005568504,-0.046311747282743454
1782984786283150800,9.31715087890625,-0.032914262264966965,-0.05602218583226204,-0.04232552647590637
1782984786293224700,9.327224609375,-0.035027243196964264,-0.04439027979969978,-0.028877900913357735
1782984786303299800,9.3372998046875,-0.044837795197963715,-0.02240189164876938,-0.015322945080697536
1782984786313373700,9.347373779296875,-0.04468999803066254,0.004456714726984501,0.005180021282285452
1782984786323448800,9.35744873046875,-0.040530409663915634,0.014684053137898445,0.019589854404330254
1782984786333522700,9.367522705078125,-0.026211338117718697,0.016382576897740364,0.015101643279194832
1782984786343597000,9.37759716796875,-0.012843068689107895,-0.0022065534722059965,0.012172965332865715
1782984786353671700,9.387671630859375,-0.0031872461549937725,-0.023802924901247025,0.0010998077923431993
1782984786363746000,9.39774609375,0.009471025317907333,-0.04316410422325134,-0.01486930437386036
1782984786373820700,9.407820556640624,0.007054456975311041,-0.054244525730609894,-0.026407547295093536
1782984786383895000,9.41789501953125,-0.0020642068702727556,-0.04658421128988266,-0.03655685484409332
1782984786393969700,9.4279697265625,-0.006497425492852926,-0.026820635423064232,-0.03511904925107956
1782984786404044000,9.4380439453125,-0.004653719253838062,-0.01598156802356243,-0.02007538639008999
1782984786414118000,9.448117919921875,-0.006270420737564564,-0.006634474266320467,-0.00406425166875124
1782984786424193000,9.458193115234375,-0.006047780159860849,-0.0013188048033043742,0.008467786014080048
1782984786434267000,9.468266845703125,0.000782609567977488,0.0003652579616755247,0.01920979470014572
1782984786444342000,9.478342041015624,0.01077878475189209,-0.00028029247187078,0.023131033405661583
1782984786454416000,9.488415771484375,0.010201497003436089,-0.0037854246329516172,0.02117772214114666
1782984786464490000,9.498489990234376,0.01075223833322525,0.006587853655219078,0.017467405647039413
1782984786474564900,9.50856494140625,0.005963170435279608,0.014610919170081615,0.0153883071616292
1782984786484639000,9.518638916015625,0.008364276960492134,0.01672014221549034,0.013230348005890846
1782984786494713900,9.5287138671875,0.016182757914066315,0.011995445005595684,0.013399985618889332
1782984786504788000,9.5387880859375,0.01645386777818203,0.00784251093864441,0.015418928116559982
1782984786514861800,9.54886181640625,0.014554020017385483,0.009155145846307278,0.013972845859825611
1782984786524937000,9.55893701171875,0.010377118363976479,0.004132423549890518,0.0186323132365942
1782984786535010800,9.5690107421875,0.010306880809366703,0.01124604046344757,0.023397795855998993
1782984786545086000,9.5790859375,0.014671801589429379,0.014713475480675697,0.02940269187092781
1782984786555159800,9.589159912109375,0.014988536946475506,0.009382479824125767,0.02818707562983036
1782984786565235000,9.59923486328125,0.020424582064151764,-0.0012904037721455097,0.024022158235311508
1782984786575308800,9.609308837890625,0.019660262390971184,-0.0064948489889502525,0.0163473729044199
1782984786585383000,9.6193828125,0.02131781354546547,-0.008534030988812447,0.01470473688095808
1782984786595457800,9.629457763671875,0.022193046286702156,-0.006614957004785538,0.010072744451463223
1782984786605532000,9.639531982421875,0.017725860700011253,-0.008389420807361603,0.0037594549357891083
1782984786615606800,9.649606689453124,0.017046652734279633,-0.008123830892145634,0.0063923075795173645
1782984786625681000,9.659680908203125,0.016507895663380623,0.0016712751239538193,0.009028571657836437
1782984786635754800,9.669754638671876,0.0162033848464489,0.007710161618888378,0.012556066736578941
1782984786645830000,9.679829833984375,0.008673564530909061,0.013218111358582973,0.013739309273660183
1782984786655903700,9.68990380859375,0.0037304707802832127,0.023004695773124695,0.013171256519854069
1782984786665979000,9.699978759765624,0.000980490818619728,0.027356566861271858,0.0071557085029780865
1782984786676052700,9.710052734375,0.0005549340276047587,0.02399839460849762,0.004694510251283646
1782984786686126800,9.720126953125,0.001917673391290009,0.017884843051433563,-0.003316278103739023
1782984786696201700,9.73020166015625,0.014453713782131672,0.01485087163746357,-0.010520479641854763
1782984786706275800,9.74027587890625,0.016724858433008194,0.02068372815847397,-0.01884498819708824
1782984786716350700,9.750350830078125,0.005294433329254389,0.004311865195631981,-0.017462676391005516
1782984786726424800,9.7604248046875,0.006629475858062506,0.01234342623502016,-0.014336924068629742
1782984786736499700,9.770499755859374,0.004297567997127771,0.01064266636967659,-0.007452401332557201
1782984786746573800,9.78057373046875,0.0021305540576577187,0.009461021050810814,0.002164006931707263
1782984786756648000,9.79064794921875,0.002184796379879117,0.01839846931397915,-0.001709944219328463
1782984786766722800,9.800722900390625,0.005031981971114874,0.008672338910400867,0.0023556374944746494
1782984786776797000,9.810796875,0.006898016668856144,0.0006231467705219984,-0.00147489074151963
1782984786786871800,9.820871826171874,0.0095521230250597,0.0012394024524837732,-0.0017438699724152684
1782984786796946000,9.83094580078125,0.007148474454879761,-0.0005433125188574195,0.0017885861452668905
1782984786807019800,9.841019775390626,0.0071825627237558365,0.006176108960062265,0.0033334859181195498
1782984786817095000,9.851094970703125,0.010707248002290726,0.007281949277967215,0.008311818353831768
1782984786827169000,9.8611689453125,0.009222269058227539,0.01346900500357151,0.009107837453484535
1782984786837244000,9.871243896484375,0.010169478133320808,0.016737552359700203,0.012304759584367275
1782984786847318000,9.881318115234375,0.01908094622194767,0.020016171038150787,0.00824477057904005
1782984786857391900,9.891391845703126,0.017080912366509438,0.008693207055330276,0.012981468811631203
1782984786867467000,9.901467041015625,0.016092613339424133,0.00539408391341567,0.010953204706311226
1782984786877540900,9.911540771484376,0.017086833715438843,0.013902225531637669,0.004874648526310921
1782984786887616000,9.921615966796875,0.0186956487596035,0.01695394143462181,0.0020359852351248264
1782984786897690000,9.931690185546875,0.015162982046604156,0.018922094255685806,-0.0002640928141772747
1782984786907765200,9.94176513671875,0.021486924961209297,0.020835574716329575,-0.0032825195230543613
1782984786917839000,9.951839111328125,0.03825605288147926,0.0314117893576622,-0.014655016362667084
1782984786927913200,9.961913330078126,0.03534761443734169,0.00871606171131134,-0.02770290896296501
1782984786937988000,9.971988037109375,0.030735217034816742,-0.010927727445960045,-0.034036461263895035
1782984786948062200,9.982062255859375,0.03173043951392174,-0.004658913239836693,-0.03197357431054115
1782984786958137000,9.99213720703125,0.024250460788607597,0.012466344982385635,-0.02686774730682373
1782984786968211200,10.002211181640625,0.010312541387975216,0.0325993113219738,-0.019206631928682327
1782984786978285000,10.01228515625,0.004935481585562229,0.053703438490629196,-0.011778590269386768
1782984786988360200,10.022360107421875,0.011635994538664818,0.07383986562490463,-0.006472241133451462
1782984786998434000,10.03243408203125,0.019097544252872467,0.07493919134140015,-0.010285919532179832
1782984787008509200,10.04250927734375,0.027285434305667877,0.05463552102446556,-0.022931674495339394
1782984787018583000,10.0525830078125,0.043455272912979126,0.041471030563116074,-0.04556821286678314
1782984787028657200,10.0626572265625,0.05489674583077431,0.004395036026835442,-0.06752597540616989
1782984787038732000,10.07273193359375,0.05621729791164398,-0.0043950919061899185,-0.07866770029067993
1782984787048806100,10.08280615234375,0.04579981043934822,-0.015187818557024002,-0.08190371096134186
1782984787058881000,10.092881103515625,0.032472457736730576,-0.018107200041413307,-0.07319653779268265
1782984787068955100,10.102955078125,0.02402278035879135,-0.0015125114005059004,-0.05341164767742157
1782984787079030000,10.113030029296874,0.016695130616426468,0.019888965412974358,-0.0330980122089386
1782984787089104100,10.123104248046875,0.02014152705669403,0.029736535623669624,-0.01366865448653698
1782984787099178000,10.133177978515626,0.026666918769478798,0.028096409514546394,-0.00889330543577671
1782984787109253000,10.143253173828125,0.033378083258867264,0.0249384343624115,-0.009060552343726158
1782984787119327000,10.153326904296875,0.03406281769275665,0.03930127993226051,-0.00660626171156764
1782984787129402000,10.163402099609375,0.025545230135321617,0.04922368377447128,-0.0014655622653663158
1782984787139476000,10.17347607421875,0.01796461082994938,0.049046099185943604,-0.0016769937938079238
1782984787149550000,10.183550048828126,0.018055159598588943,0.04156980663537979,0.004987034015357494
1782984787159625000,10.193625,0.020070122554898262,0.0285014845430851,0.017004109919071198
1782984787169699000,10.203698974609376,0.019385159015655518,0.0067879329435527325,0.03670430928468704
1782984787179774000,10.21377392578125,0.014844209887087345,-0.004003557842224836,0.060221269726753235
1782984787189848000,10.22384814453125,0.007685101591050625,-0.007380978669971228,0.07843729108572006
1782984787199923000,10.2339228515625,0.003910791128873825,-0.00019305828027427197,0.07802243530750275
1782984787209997000,10.2439970703125,0.0051318504847586155,0.011821260675787926,0.06604354083538055
1782984787220071200,10.2540712890625,0.0016301301075145602,0.015081549063324928,0.043102286756038666
1782984787230146000,10.26414599609375,-0.0009209118434228003,0.0153270922601223,0.021797532215714455
1782984787240220200,10.27422021484375,0.005539195612072945,0.010218034498393536,0.01141513790935278
1782984787250295000,10.284294921875,0.00800688099116087,0.026496605947613716,0.02023978903889656
1782984787260369200,10.294369140625,0.00464110029861331,0.027030354365706444,0.028981942683458328
1782984787270443300,10.304443359375,0.0010868451790884137,0.014025872573256493,0.044669557362794876
1782984787280518100,10.31451806640625,0.0022774888202548027,0.015164131298661232,0.05831940099596977
1782984787290592300,10.32459228515625,0.004000021144747734,0.020917624235153198,0.05945950001478195
1782984787300667100,10.334667236328125,0.00728518795222044,0.016527308151125908,0.048984624445438385
1782984787310741200,10.3447412109375,0.011874879710376263,0.016385095193982124,0.03626270592212677
1782984787320815000,10.354815185546874,0.015588805079460144,0.024101335555315018,0.02130049280822277
1782984787330890200,10.36489013671875,0.02189277485013008,0.04360978677868843,0.005868274252861738
1782984787340964000,10.374964111328126,0.030465833842754364,0.06419143825769424,-0.008967192843556404
1782984787351039200,10.385039306640625,0.03491277992725372,0.07366563379764557,-0.021474728360772133
1782984787361113000,10.395113037109375,0.035459551960229874,0.06080068647861481,-0.03617990016937256
1782984787371188200,10.405188232421875,0.03195616602897644,0.04347602650523186,-0.06283121556043625
1782984787381262000,10.415261962890625,0.029173817485570908,0.02808046154677868,-0.0839189663529396
1782984787391336200,10.425336181640626,0.036081526428461075,0.023189034312963486,-0.10307934135198593
1782984787401411000,10.4354111328125,0.03767567127943039,0.04758680984377861,-0.08113863319158554
1782984787411485200,10.445485107421876,0.014093645848333836,0.03764256834983826,-0.04473003000020981
1782984787421560000,10.45556005859375,-0.0042436434887349606,-0.0028050143737345934,0.002502697054296732
1782984787431634200,10.46563427734375,-0.005383742973208427,-0.025896217674016953,0.030305564403533936
1782984787441708000,10.4757080078125,-0.0067109763622283936,-0.03701026737689972,0.045220185071229935
1782984787451783200,10.485783203125,0.006456224713474512,-0.048778776079416275,0.03230971097946167
1782984787461857000,10.49585693359375,0.02073928341269493,-0.059685125946998596,-0.013963690958917141
1782984787471932200,10.50593212890625,0.025578778237104416,-0.046558406203985214,-0.07398255169391632
1782984787482006000,10.516006103515625,0.00915747694671154,-0.02642669528722763,-0.14808225631713867
1782984787492081200,10.5260810546875,-0.003822769969701767,-0.026026155799627304,-0.20617325603961945
1782984787502155000,10.536155029296875,-0.005364842712879181,-0.03154708445072174,-0.23029212653636932
1782984787512229000,10.54622900390625,-0.006768861319869757,-0.059666335582733154,-0.1992577761411667
1782984787522304000,10.556303955078125,-0.04359262436628342,-0.0747159793972969,-0.10707997530698776
1782984787532378000,10.566378173828125,-0.10562004148960114,-0.12426569312810898,0.02470947802066803
1782984787542453000,10.576452880859375,-0.14037024974822998,-0.23042747378349304,0.11492966115474701
