time,seconds_elapsed,z,y,x
1782986190249010200,0.06101025390625,0.5341349337518215,-0.03007920418232679,-0.23190599099323153
1782986190259085000,0.0710849609375,0.6730909844994545,-0.106577629712224,-0.14983604894131422
1782986190269159200,0.0811591796875,0.7016466323763132,-0.14038754485547542,-0.10791662323102354
1782986190279233000,0.09123291015625,0.6188678114026784,-0.13876461982876062,-0.12224880770519375
1782986190289308200,0.10130810546875,0.49598611262142656,-0.08245762619525193,-0.1545075478836894
1782986190299382000,0.111382080078125,0.263318343475461,-0.034844811148941515,-0.1868679948709905
1782986190309456100,0.1214560546875,0.05617839881777763,0.02535451374799013,-0.22518764252364634
1782986190319531000,0.131531005859375,-0.002899228572845459,0.03554126898050308,-0.19536986575648188
1782986190329605000,0.141605224609375,0.003921557357907295,0.03825812672376633,-0.13551687007918953
1782986190339679000,0.151678955078125,0.01225333237349987,0.06460778898894787,-0.08762626100480556
1782986190349754000,0.161754150390625,0.11390811873078345,0.08567191206663846,-0.06996595502123236
1782986190359828000,0.171827880859375,0.17233049708306789,0.02009381674081087,-0.0345111952804029
1782986190369902000,0.181902099609375,0.21453063943088052,-0.0027519290566444393,-0.0006194470725953579
1782986190379977000,0.19197705078125,0.23305472263693808,0.027851298999786375,-0.01756546730697155
1782986190390051000,0.202051025390625,0.28951427648365496,0.060387248684465884,-0.03328822935670614
1782986190400125000,0.212125,0.3048293345153332,-0.021901450684666632,-0.029284254412353036
1782986190410200000,0.222199951171875,0.20354279694855212,-0.09521773904711008,-0.06431187478229403
1782986190420274000,0.23227392578125,0.10652443822026252,-0.060877370288968086,-0.10609276880472898
1782986190430348000,0.24234814453125,0.05744798036217689,-0.06298924787640571,-0.16353402716517448
1782986190440423000,0.2524228515625,0.057497664722800254,-0.12662556148469448,-0.20064897520318625
1782986190450497000,0.2624970703125,0.03267302006781101,-0.19609335772544145,-0.21184724556580184
1782986190460571100,0.272571044921875,-0.07250935589373111,-0.19672464136630297,-0.20683409357890487
1782986190470646000,0.28264599609375,-0.17740122447609902,-0.0943146527275443,-0.16183803690224885
1782986190480720100,0.29272021484375,-0.16760522212684154,-0.04247194502651691,-0.11323650307953358
1782986190490794000,0.3027939453125,-0.12906067967712878,-0.030396599568426608,-0.03171674225628376
1782986190500868000,0.3128681640625,-0.12574702508449553,0.011835106961429118,0.01341799223870039
1782986190510943000,0.32294287109375,-0.07188567103743553,0.03393091117441654,-0.019392682734131812
1782986190521017000,0.33301708984375,0.04287701869606971,0.01834580402970314,-0.013412147019803523
1782986190531092000,0.343092041015625,0.1446095464646816,-0.055991351813077926,-0.038491643218696116
1782986190541166000,0.353166015625,0.11675298676788806,-0.10036562332957982,-0.09495470419675112
1782986190551240000,0.363239990234375,0.0734989514529705,-0.06786094556599855,-0.14128683178275822
1782986190561314000,0.37331396484375,0.1172434006333351,-0.0784250096783042,-0.11328078061267732
1782986190571389000,0.383388916015625,0.13989479290246962,-0.08268938912451267,-0.018281506621837616
1782986190581463000,0.393463134765625,0.14973288082778452,-0.03475596382170915,0.042723581700026984
1782986190591538200,0.4035380859375,0.19948036981523035,-0.017114800930023193,0.07586758028045296
1782986190601612000,0.413612060546875,0.18923896178603172,-0.07717851674854755,0.06557692628204823
1782986190611686100,0.42368603515625,0.02890285387933254,-0.10005787255465984,0.006494476585835218
1782986190621761000,0.433760986328125,-0.14749708459973335,-0.038161680611968035,-0.07877572281211614
1782986190631835100,0.443835205078125,-0.2107160495787859,-0.018067571610212326,-0.088201722805202
1782986190641909200,0.4539091796875,-0.17900281445384025,-0.029618893194198605,-0.01037482515051961
1782986190651983400,0.4639833984375,-0.03946399538218975,0.01968260559141636,0.03438055463805795
1782986190662058200,0.474058349609375,0.12078794137239456,0.014745733711123466,0.0667041767463088
1782986190672132400,0.48413232421875,0.24471067363917826,-0.03776566703170538,0.07203735446780919
1782986190682206200,0.494206298828125,0.1905991442233324,-0.0339893633633852,0.009293898046016692
1782986190692281300,0.50428125,0.0799561647683382,0.007462883226573467,-0.09032806730940937
1782986190702355200,0.514355224609375,0.027148119166493415,0.015721885266900062,-0.09296031550914048
1782986190712429300,0.52442919921875,-0.0003004442512989044,0.02079085909426212,-0.04981733935326337
1782986190722504200,0.534504150390625,0.05264847112596035,0.06434124700725079,-0.025004385136067866
1782986190732578300,0.544578369140625,0.10919044255912304,0.04484978007376194,0.004255903878808021
1782986190742652200,0.554652099609375,0.07453998493850231,0.07320347563773393,-0.01658098631426692
1782986190752727300,0.564727294921875,-0.008804068702459335,0.10360007520616053,-0.05389379501193761
1782986190762801200,0.57480126953125,0.010324994659423827,0.09134148213565349,-0.0689056323133409
1782986190772875000,0.584875,0.06276946764588355,0.05609568897038698,-0.046847529762238264
1782986190782950100,0.5949501953125,0.09073825554549693,0.03629851708859205,-0.0034603695869445798
1782986190793024000,0.60502392578125,0.16391688900291917,0.02602846748679876,0.006598229221254586
1782986190803098000,0.61509814453125,0.22322540253996848,0.016976853764057158,0.016274258452653883
1782986190813173000,0.625173095703125,0.20084289034008979,-0.0066661798909306525,0.017487579765170812
1782986190823247000,0.6352470703125,0.11713818669319152,-0.022497370751202107,-0.046341772197186944
1782986190833321200,0.6453212890625,0.012411153283715247,-0.008066986599564552,-0.09319996948391199
1782986190843396000,0.65539599609375,-0.012397709280252456,-0.02801584191173315,-0.10638809848949313
1782986190853470200,0.66547021484375,-0.0015834697991609571,-0.010268296036124228,-0.0719651660144329
1782986190863544300,0.67554443359375,0.05814823758602142,0.002474281159043312,-0.020032880333811044
1782986190873619200,0.685619140625,0.11505962685346603,0.0033747371301054954,0.02466463178768754
1782986190883693300,0.695693359375,0.15437573819756506,-0.04963672208935022,-0.03955781114548444
1782986190893767200,0.70576708984375,0.1594727690756321,-0.10015607223212718,-0.056602177187800404
1782986190903842300,0.71584228515625,0.19970482622087002,-0.13626725005507467,-0.04884118779748678
1782986190913916200,0.725916259765625,0.27859540758430956,-0.18016952014565465,-0.06435527553260326
1782986190923990300,0.735990234375,0.2797492537945509,-0.1995300541758537,-0.02756868266612291
1782986190934065200,0.746065185546875,0.12662731505036354,-0.14706775327175856,-0.007555676076561212
1782986190944139300,0.75613916015625,-0.07134732637703418,-0.06058949325829744,-0.03511705221906304
1782986190954213000,0.766213134765625,-0.1635328581213951,-0.019685820461809635,-0.029747634140402077
1782986190964288300,0.776288330078125,-0.2330798570781946,-0.04750526301860809,-0.056699353951960796
1782986190974362000,0.786362060546875,-0.30185879427194595,-0.04191957184076309,-0.06330547421872615
1782986190984436200,0.796436279296875,-0.3191916218668222,0.005561433519423007,-0.07010857836231589
1782986190994511000,0.806510986328125,-0.23531156165301798,-0.009307342049479484,-0.08563640236184
1782986191004585200,0.816585205078125,-0.10278992786705493,-0.025116905599832533,-0.04748436636105179
1782986191014659000,0.8266591796875,0.037276129949092865,-0.0490060229703784,-0.0026537293791770934
1782986191024734200,0.836734130859375,0.13719137916266919,-0.038837680177390574,0.02828516037240624
1782986191034808000,0.84680810546875,0.15038111560344694,-0.04722147764116525,0.00009834580793976783
1782986191044882200,0.856882080078125,0.10108896916806698,-0.05568155521154403,-0.07357508542910218
1782986191054957000,0.86695703125,0.0039782559812068935,-0.020486030928790568,-0.09569266308248042
1782986191065031200,0.87703125,-0.04647416640520095,0.026455168466269968,-0.08957914863824844
1782986191075105300,0.887105224609375,-0.03789630767405033,0.013901391841471194,-0.08925634642466902
1782986191085180200,0.89718017578125,-0.04909457803666591,0.021403730295598507,-0.1094480705820024
1782986191095254300,0.907254150390625,-0.012600538375973701,0.029454642543196675,-0.10748276185840368
1782986191105328000,0.917328125,0.0852589473515749,0.03647825756967067,-0.07138970421403647
1782986191115403300,0.9274033203125,0.13314590316414832,0.04741816925704479,-0.011079466288536786
1782986191125477000,0.93747705078125,0.15728431912064553,0.05848667576014995,0.017597469880431888
1782986191135551200,0.94755126953125,0.2380032849550247,0.04227759149819612,-0.009441343692690134
1782986191145626000,0.957626220703125,0.25631752480268477,-0.008045943811535835,-0.03206950121670961
1782986191155700200,0.9677001953125,0.22336218066215513,0.016101239973306654,-0.038603286899626256
1782986191165774000,0.977774169921875,0.17482874363958834,0.029307050766050814,-0.04812324878647923
1782986191175849200,0.98784912109375,0.14558803610801696,0.04335924925506115,-0.020149200189858673
1782986191185923000,0.997923095703125,0.12643442282676695,0.06048135670870542,-0.006805296100676059
1782986191195997200,1.0079970703125,0.07425473825633526,0.05364128155559301,0.007860358111560344
1782986191206072000,1.018072021484375,-0.00993628760278225,0.05637392138987779,-0.005055237562954426
1782986191216146200,1.028146240234375,-0.012592939591407774,0.06777882024049758,-0.04625146356523037
1782986191226220000,1.038219970703125,0.013256956458091735,0.05001490775197744,-0.031178251465409992
1782986191236295200,1.048295166015625,0.058116088882088655,0.017466390846669674,-0.008212532550096512
1782986191246369000,1.058369140625,0.0560708467900753,0.03596066343635321,-0.014746025972068309
1782986191256443100,1.068443115234375,0.06882160729169845,0.04546060544848442,0.004988455937057734
1782986191266518000,1.07851806640625,0.09099018447995186,0.025310674606263635,0.030704642604291437
1782986191276592000,1.088592041015625,0.058901101779937744,-0.012217384277284145,0.00836509276330471
1782986191286666200,1.098666259765625,-0.0244996504843235,-0.02111760683059692,-0.028417554580420255
1782986191296741000,1.1087412109375,-0.07802665801048278,0.04088642940074205,-0.030030542735010383
1782986191306815200,1.118815185546875,-0.08313128767311573,0.0858247645407915,-0.033591157826036215
1782986191316889300,1.128889404296875,-0.08607201730012894,0.08400836276859044,0.024420155507326124
1782986191326964200,1.138964111328125,-0.0682400080114603,0.08234569025337696,0.0051468613691627975
1782986191337038300,1.149038330078125,-0.01397474933862686,0.07057955687493085,-0.00048062312379479403
1782986191347112200,1.1591123046875,-0.04350421068370342,0.052610184942185875,-0.004892594347149133
1782986191357187300,1.169187255859375,-0.058361588075757025,0.05027531225383281,-0.04061053506880998
1782986191367261200,1.17926123046875,-0.024124387431144714,0.05400397738814353,-0.04743862752318382
1782986191377335000,1.1893349609375,0.03650923722982406,0.037408524157106875,-0.01965893245488405
1782986191387410200,1.19941015625,0.1048345854371786,0.021144787098467347,-0.006474895102530718
1782986191397484000,1.209484130859375,0.12430910123586654,0.040841421215236186,0.009870821151137351
1782986191407558100,1.21955810546875,0.1263315469741821,0.051374213406443596,0.005833090067654848
1782986191417633000,1.229633056640625,0.05751403133571147,0.10043225882500409,-0.02040098299384117
1782986191427707100,1.23970703125,-0.04273497987687588,0.09630348845720291,-0.05266805260926485
1782986191437781000,1.249781005859375,-0.06696165863871574,0.07042202822566032,-0.03087809947505593
1782986191447856000,1.259856201171875,-0.008246434819698334,0.05172843367159366,-0.03617518296986818
1782986191457930000,1.269929931640625,0.059123220098018646,0.06267915901392698,-0.05841375665441155
1782986191468004400,1.28000439453125,0.11745382851362228,0.04854162032902241,-0.0685721625752747
1782986191478078200,1.290078125,0.20154665469527244,0.011171966877579688,-0.08034823282584548
1782986191488153300,1.3001533203125,0.24133505972623823,-0.01158405480980873,-0.07624211268126964
1782986191498227200,1.310227294921875,0.20744155795276165,-0.0232905669555068,-0.08755538772568106
1782986191508302300,1.32030224609375,0.2029167740046978,0.018498364242911337,-0.06549041704237461
1782986191518376200,1.330376220703125,0.28095336888730527,0.06383125165849923,-0.0024146599262952805
1782986191528450300,1.3404501953125,0.4413958597779274,0.03645107730180025,0.05201324196234345
1782986191538525200,1.350525146484375,0.5246446363508701,-0.01018763201534748,0.11779416638389228
1782986191548599300,1.360599365234375,0.4835603462904691,-0.03628156595379114,0.09063903295472264
1782986191558673200,1.370673095703125,0.3646405368775129,-0.05958645369559526,0.017289280714094638
1782986191568748300,1.380748291015625,0.20065584333539008,-0.1009589130476117,-0.04678878531232476
1782986191578822100,1.390822265625,0.053424131673574446,-0.16248802524358033,-0.06660539254695176
1782986191588895700,1.400895751953125,-0.08753098393678664,-0.16186609395295382,-0.14101415232121944
1782986191598970600,1.410970703125,-0.1027045876711607,-0.07702800236195326,-0.30071517719477414
1782986191609044700,1.421044677734375,-0.11586159088611601,-0.033143560189008714,-0.3742584061808884
1782986191619118600,1.43111865234375,-0.15623393328487872,-0.05477846889197826,-0.3204690944567323
1782986191629192700,1.441192626953125,-0.12971008349657057,-0.07387479902803898,-0.2131330475926399
1782986191639267600,1.451267578125,-0.13018296170532703,-0.09543576571196317,-0.13658026152700184
1782986191649341700,1.461341796875,-0.17370412352383136,-0.044237201133370395,-0.1031980702765286
1782986191659415800,1.471415771484375,-0.31959201936125753,-0.029987141984701156,-0.09466419681757687
1782986191669490700,1.48149072265625,-0.34264731625616546,0.02432458617836237,-0.0761101568646729
1782986191679564800,1.491564697265625,-0.2817570864856243,0.05104541984349489,-0.06337269423604011
1782986191689638700,1.501638671875,-0.2621995685786009,0.004304711456596851,-0.034373540375381706
1782986191699713800,1.5117138671875,-0.20058745427429675,-0.003003273469209671,-0.021268559608608482
1782986191709787600,1.52178759765625,-0.06237433084845542,0.02743716524094343,-0.04894757078140974
1782986191719861800,1.53186181640625,0.010626607954502106,0.006368073727190495,0.0025187048226594923
1782986191729936600,1.5419365234375,0.02728723537623882,-0.031164953592419622,0.0674460811547935
1782986191740010800,1.5520107421875,-0.010869184538722038,-0.02057575503885746,0.03296250453367829
1782986191750084600,1.562084716796875,-0.04584229824244976,0.016373627173900604,0.047522360283881425
1782986191760159700,1.57215966796875,0.03545651330649852,0.05755524012893438,0.10328954795226454
1782986191770233600,1.582233642578125,0.13875614426136015,0.08268442068845033,0.21251681539043782
1782986191780307700,1.5923076171875,0.22050211505591868,0.07960252902507782,0.25307971192523837
1782986191790382600,1.602382568359375,0.2832546315670013,0.0940405119612813,0.27214345496594905
1782986191800456700,1.612456787109375,0.2687035436451435,0.09769698864221572,0.2053850638143718
1782986191810530600,1.622530517578125,0.19024784656763075,0.09326806628406047,0.12879457608684897
1782986191820605700,1.632605712890625,0.13464403276741505,0.08608809165209531,0.0791521549090743
1782986191830679600,1.642679443359375,0.14597265151143074,0.11050941620320082,0.035305706658959386
1782986191840754000,1.65275390625,0.18106208507120608,0.09302812004834413,0.03070931877940893
1782986191850828500,1.66282861328125,0.1594727690756321,0.07764905686974526,0.05446706485524773
1782986191860903000,1.67290283203125,0.13405834183394907,0.1096229887574911,0.06380567882582545
1782986191870976800,1.682976806640625,0.03167173407077789,0.07700432922542094,0.030317250721901653
1782986191881052000,1.693052001953125,-0.0952139396548271,0.04918868606090546,-0.022134090396761893
1782986191891125800,1.703125732421875,-0.15534429096877575,0.05169862305521965,-0.08651903041526675
1782986191901200000,1.713199951171875,-0.12432254523932933,0.03557780159860849,-0.18292188759371636
1782986191911274800,1.723274658203125,-0.024846856486797332,-0.011234802980720996,-0.21321575744003057
1782986191921348900,1.733348876953125,0.040483986079692835,-0.04614624962508678,-0.17015709856674074
1782986191931422700,1.743422607421875,0.0715688601732254,-0.07262187635749578,-0.11851648930907249
1782986191941497900,1.753497802734375,0.08443594053089618,-0.04207242431491613,-0.04878565821796656
1782986191951571700,1.76357177734375,0.024447628036141394,-0.014803601378202438,0.0015923837579786776
1782986191961645600,1.7736455078125,-0.11873919214904308,-0.03442980060726404,-0.024943740990012883
1782986191971720700,1.783720703125,-0.23764380399286747,-0.017522504948079585,-0.06442600268125534
1782986191981794600,1.793794677734375,-0.2500456049263477,-0.03476794652044773,-0.08580752114504575
1782986191991868700,1.80386865234375,-0.17229367220401762,-0.048694180542230604,-0.05495397158935666
1782986192001943800,1.81394384765625,-0.06634732613265514,-0.07482464709877967,-0.02459185881242156
1782986192012017700,1.824017578125,0.03665010700523853,-0.04536649742424488,0.025834990741312503
1782986192022091500,1.834091552734375,0.10389116710722446,-0.039682898829877376,0.05295768320560455
1782986192032166700,1.844166748046875,0.10794073475897312,-0.04351853147000074,0.057141398631036275
1782986192042240500,1.854240478515625,0.08894786499738692,-0.02868424269258976,0.0077903616152703754
1782986192052315000,1.86431494140625,0.05980009644627571,0.0008922726646065711,-0.03677811729907989
1782986192062389500,1.874389404296875,0.04047872538268566,-0.03618628888577222,-0.006581570347398519
1782986192072464000,1.8844638671875,0.04152794217467308,-0.059818216624855994,0.0067230246447026725
1782986192082537700,1.894537841796875,0.07428045721948147,-0.03106441582739353,0.008280629350244999
1782986192092611800,1.90461181640625,0.1174964986115694,-0.02100479410588741,0.020686521936953067
1782986192102686700,1.914686767578125,0.14950199468135833,-0.06382803678810596,-0.010580138464272021
1782986192112760800,1.9247607421875,0.07342179456353187,-0.06807926449179649,-0.054445583675801754
1782986192122834700,1.934834716796875,-0.01601122360229492,-0.048426761777698994,-0.0938873672261834
1782986192132909800,1.944909912109375,0.020314473754167554,0.0018310148194432257,-0.08304302486777305
1782986192142983700,1.954983642578125,0.03320259689986706,0.00454611899703741,-0.08694149361103773
1782986192153057800,1.965057861328125,0.017011340555548666,-0.0029623569369316097,-0.03895531520769
1782986192163132700,1.975132568359375,-0.02638940975368023,0.006802958013117313,-0.03379486370459199
1782986192173206800,1.985206787109375,-0.026309330254793165,0.037924072463810445,-0.03618278175443411
1782986192183280600,1.99528076171875,0.03988368209898471,0.06478548364341259,-0.010839812313765287
1782986192193355800,2.005355712890625,0.12900865722894667,0.05953706159591674,0.039085517458617686
1782986192203429600,2.0154296875,0.22521862218379973,0.03433627710491419,0.08685586115419865
1782986192213503500,2.02550341796875,0.29625615195930005,0.00814677383750677,0.08979600625932216
1782986192223578600,2.03557861328125,0.3451747889071703,-0.014652502469718455,0.0449339512258768
1782986192233652500,2.045652587890625,0.3133230220943689,-0.011789514254033564,0.007679156325757503
1782986192243726800,2.055726806640625,0.22232173169851302,-0.03777852651327848,-0.04713248418346047
1782986192253801700,2.0658017578125,0.08575462191402912,0.01759206305295229,-0.08469488372802735
1782986192263875800,2.075875732421875,0.001975099465250969,0.04428425514549017,-0.09929580214098095
1782986192273949700,2.08594970703125,-0.029843349599838254,0.07314619249254464,-0.10422595201954245
1782986192284024800,2.09602490234375,-0.06659107176065444,0.06785568486899136,-0.08586261233314871
1782986192294098700,2.1060986328125,-0.0311702142894268,0.049666240444779394,-0.04896189156770706
1782986192304172800,2.1161728515625,0.013157587736845016,0.04940379011631012,-0.049712563804537056
1782986192314247700,2.12624755859375,0.03995674733519554,0.042752515533566474,-0.02679623698890209
1782986192324321800,2.13632177734375,0.07418985632658004,0.04000701621770859,-0.017867372862994668
1782986192334395600,2.146395751953125,0.09655541739165782,0.02931991024762392,-0.016193886692821978
1782986192344470800,2.156470703125,0.0656868163973093,0.010299567957222462,-0.02391016015857458
1782986192354544600,2.166544677734375,0.08133797451555728,0.04513678032159805,-0.0025178280398249625
1782986192364618800,2.17661865234375,0.14917466242313385,0.052450902727246285,0.025953940945863722
1782986192374693600,2.186693603515625,0.21791502117216585,0.052721828623116015,0.06646802990287543
1782986192384767700,2.196767822265625,0.29229893876612184,0.03057984718084335,0.09069266283810139
1782986192394841600,2.206841552734375,0.31431904739439487,0.009729366853833198,0.10221797319799661
1782986192404916700,2.216916748046875,0.2452361588180065,0.005243453611433506,0.05578779206499457
1782986192414990600,2.226990478515625,0.09424830949306487,-0.013961889857053756,-0.0017950667232275008
1782986192425064700,2.237064697265625,-0.0062456163913011545,0.008448971654474734,-0.009833704011142252
1782986192435139600,2.2471396484375,-0.015295184287428855,-0.0010986088916659354,0.049504035620391365
1782986192445213700,2.257213623046875,-0.0786187786847353,-0.010071019898355007,0.0685701167486608
1782986192455287800,2.267287841796875,-0.039333062478899956,-0.004436228881776333,0.0585727466084063
1782986192465362700,2.27736279296875,0.013846739044785498,0.02771598218232393,0.038699440750479694
1782986192475436800,2.287436767578125,0.060707858940958974,-0.004362579123675823,0.06720306617915629
1782986192485511000,2.297510986328125,0.04349427381157875,-0.025170973874628542,0.047928895258158445
1782986192495584800,2.307584716796875,-0.010798457390069962,-0.007414660170674324,-0.04621244672909379
1782986192505660000,2.317659912109375,-0.045320320194959636,-0.016543723043799398,-0.11281067888289689
1782986192515733800,2.327733642578125,-0.09988836120665073,-0.05452098699957132,-0.11980316811874508
1782986192525807600,2.3378076171875,-0.10604513027071952,-0.05343786793798208,-0.06860971810668706
1782986192535882800,2.3478828125,-0.022638532787561415,-0.015009353083372114,-0.04604132794588804
1782986192545956600,2.35795654296875,0.07525543973147869,-0.039627953772246836,-0.030969138759374615
1782986192556030700,2.36803076171875,0.11047639071643352,-0.03779401634335518,-0.015806494810432194
1782986192566105600,2.378105712890625,0.08272212235033512,-0.058636021102964876,-0.06841565683931111
1782986192576179700,2.3881796875,0.03722878367602825,-0.04928337860703468,-0.1555316302344203
1782986192586253800,2.39825390625,0.07912555916309356,-0.0460363595098257,-0.19213278353139757
1782986192596329000,2.408328857421875,0.12043489015102386,-0.07568447879850863,-0.16631459779441354
1782986192606402800,2.41840283203125,0.13781506401896476,-0.07255494860112667,-0.14605901462063192
1782986192616477000,2.428476806640625,0.16748247253000736,-0.07907529028058051,-0.14086772958785296
1782986192626551800,2.4385517578125,0.17533318603038786,-0.07913374246954917,-0.14302344631701708
1782986192636626000,2.4486259765625,0.1227507658779621,-0.07057721878737211,-0.1529886677533388
1782986192646700000,2.458699951171875,-0.009575637596845626,-0.056796530716121195,-0.199135063508898
1782986192656775000,2.46877490234375,-0.10452303526997565,-0.009442658866941928,-0.2290415414728224
1782986192666849000,2.47884912109375,-0.08846388087272644,0.018379706299304962,-0.22582579429671168
1782986192676923100,2.488923095703125,-0.00208615862429142,0.03529343169927597,-0.15802929226905107
1782986192686998000,2.498998046875,0.05327274050414562,0.03693360012173653,-0.0918606837041676
1782986192697072000,2.509072021484375,0.09346563468277454,0.020465280401706695,-0.0926221695959568
1782986192707146000,2.51914599609375,0.09737257899343967,0.034094577303528786,-0.11455474607124924
1782986192717221000,2.52922119140625,0.08783668888509273,0.04158230271041393,-0.10754486730918288
1782986192727295000,2.539294921875,0.06830898159444332,0.0726125240072608,-0.0780484314508736
1782986192737369000,2.549369140625,0.02358721181452274,0.06758680479973554,-0.0888416281439364
1782986192747444000,2.55944384765625,0.05999181962609291,0.0937260391846299,-0.07342340199872852
1782986192757518000,2.56951806640625,0.11464578535556792,0.06562924099117518,0.004305003717541694
1782986192767592000,2.579592041015625,0.14438742814660072,0.0511211154282093,0.07144348022788763
1782986192777667000,2.5896669921875,0.16344810244739055,0.033305472752451895,0.06786094556599855
1782986192787741000,2.599740966796875,0.1917623427838087,0.026985914342105385,0.040446430548280475
1782986192797814800,2.609814697265625,0.13586743708252905,0.04679594570547342,0.03332724619284272
1782986192807890000,2.619889892578125,0.04558510861098766,0.03450549619197845,0.023144728744029997
1782986192817964000,2.629964111328125,-0.07011456971168517,0.041374797439575194,-0.05530073920041322
1782986192828038000,2.640037841796875,-0.10933072781264781,0.02404518471509218,-0.09047434391230344
1782986192838112000,2.650112060546875,-0.0682926149815321,0.023512977534532544,-0.043056174655258656
1782986192848187000,2.660186767578125,0.01753799477815628,0.0001432078629732132,0.03527370408549905
1782986192858261000,2.670260986328125,0.13692191457152367,-0.057851008205115795,0.09118205379024147
1782986192868335000,2.680335205078125,0.2346574816584587,-0.11253858394324778,0.08961348929926753
1782986192878410000,2.690409912109375,0.24471651885807513,-0.11488543933033943,0.062451926129311316
1782986192888484000,2.700484130859375,0.23822248066365717,-0.10288754302263259,0.011403729806840419
1782986192898558000,2.710557861328125,0.18478373594284056,-0.08114683585762977,-0.0035277357347309585
1782986192908633000,2.720633056640625,0.11305004059672355,-0.06493892063945532,-0.04263604954704642
1782986192918707000,2.73070703125,0.0029290391892194748,-0.00005962123274803161,-0.04818418519347906
1782986192928781000,2.740781005859375,-0.10453297214210033,0.03742226042151451,-0.051289749993383885
1782986192938856000,2.75085595703125,-0.12377426370680332,0.04266279142349958,-0.02023658621236682
1782986192948930000,2.760929931640625,-0.11189034916758536,0.05329202972650528,0.03144303988143801
1782986192959004000,2.77100390625,-0.1300876846373081,0.05596855545938015,0.012718904058635233
1782986192969079000,2.7810791015625,-0.14278116199374197,0.07781096943318844,-0.03137830408215522
1782986192979153000,2.79115283203125,-0.05756020856499672,0.11105740547478199,0.014751286669075488
1782986192989227000,2.80122705078125,0.09101824153065681,0.09751549459546804,0.06411839803680777
1782986192999302000,2.811302001953125,0.21935352954268456,0.06979512849897146,0.09152692170515656
1782986193009376000,2.8213759765625,0.35917993338406085,0.08896656969785689,0.07892930593863129
1782986193019449900,2.831449951171875,0.4033604358941316,0.09133768274337052,0.07680851439237595
1782986193029525000,2.84152490234375,0.39828035615086554,0.1046516300857067,0.08023863497152924
1782986193039598800,2.851598876953125,0.32735447005629537,0.13149872047901154,0.09321984322816133
1782986193049673000,2.8616728515625,0.20728490608632563,0.10419804109930991,0.046126083619892594
1782986193059747800,2.871747802734375,0.05151742126941681,0.11482640261948109,-0.05645034762695431
1782986193069822000,2.881822021484375,-0.059870823594927784,0.11196896736174822,-0.12518223080858587
1782986193079896000,2.89189599609375,-0.09371697909533977,0.11002367851287126,-0.09778013688102365
1782986193089971000,2.901970947265625,-0.05550502960085869,0.10579846203327178,-0.04199950520917773
1782986193100045000,2.912045166015625,-0.007997428494691849,0.04946516491472721,-0.017055764219164847
1782986193110119000,2.922118896484375,0.007750175735354423,0.03250876941680908,-0.02513809451833367
1782986193120194000,2.932194091796875,0.023011457753181457,0.0514390953361988,-0.0427763348005712
1782986193130268000,2.942267822265625,-0.010502104791998862,0.010978490132093429,-0.05615180307179689
1782986193140342000,2.952342041015625,-0.07375964821577072,-0.04419482329636812,-0.07968333917632699
1782986193150416000,2.962415771484375,-0.09240648101866245,-0.045697629074752326,-0.1208173135973513
1782986193160491000,2.972490966796875,-0.08600947345793247,-0.06838789204955101,-0.11490253659561275
1782986193170564900,2.98256494140625,-0.05610825619101524,-0.10187924276292323,-0.059614364615827795
1782986193180639000,2.992638916015625,-0.032065117302536965,-0.10002747741639613,-0.03642155894637108
1782986193190713900,3.0027138671875,-0.04187748626470566,-0.09814619371443986,-0.007474573664367198
1782986193200788000,3.0127880859375,-0.03619710254073143,-0.09611293432116508,-0.008821019837260245
1782986193210861800,3.02286181640625,-0.08719137671887874,-0.11591185976862907,-0.02479790277853608
1782986193220937000,3.03293701171875,-0.08474982878565787,-0.11112754810154438,-0.0019514263287186621
1782986193231010800,3.0430107421875,-0.06391688411533832,-0.1006955859363079,0.0023696517407894133
1782986193241085000,3.0530849609375,0.02151157458424568,-0.09617664720714092,-0.0015861001476645468
1782986193251159800,3.063159912109375,0.11930208672881126,-0.060135612010955804,0.032709552685916424
1782986193261234000,3.07323388671875,0.1803472148001194,-0.05002367558032274,0.06066504271253943
1782986193271308000,3.08330810546875,0.19579145216941832,-0.0532955368578434,0.0783528212249279
1782986193281383000,3.0933828125,0.17203122187554834,-0.004750701658427715,0.06751943865194916
1782986193291457000,3.10345703125,0.15677753864228725,0.040241994017362594,0.06321458106487989
1782986193301531100,3.11353125,0.13687339925467967,0.064797758603096,0.06268208162337541
1782986193311606000,3.12360595703125,0.08481237262785435,0.0746276632219553,0.05906783664897084
1782986193321680100,3.13368017578125,-0.0009521861582994461,0.09490034366101026,0.05956161151528358
1782986193331754000,3.14375390625,-0.03550678218901157,0.1513859087318182,0.015665625035017727
1782986193341829000,3.1538291015625,-0.06708908441066741,0.14463818803727627,0.03429959835633635
1782986193351903000,3.163903076171875,-0.10501578722298145,0.146992349947989,0.06869147810600698
1782986193361976800,3.173976806640625,-0.07683131074607372,0.15727555129230023,0.012070230891555548
1782986193372052000,3.184052001953125,-0.0054822308033704754,0.15687047762274742,-0.010051511480286717
1782986193382125800,3.194125732421875,0.09125263480842113,0.15916414151787758,-0.0014061404708772896
1782986193392200000,3.204199951171875,0.1411374864399433,0.13548194489628076,0.038636093190684916
1782986193402274800,3.21427490234375,0.12812193752229212,0.10868541564643383,0.09336056687310337
1782986193412349000,3.224348876953125,0.1075578729212284,0.08108312297165393,0.08805340037569404
1782986193422422800,3.2344228515625,0.06296119082570076,0.0731073217868805,0.0740835464078933
1782986193432497200,3.2444970703125,-0.006062661039829254,0.07522679815888404,0.043546369324997065
1782986193442571800,3.25457177734375,-0.07166530628502368,0.07122516130208968,0.027785613352432844
1782986193452646100,3.264646240234375,-0.07993161484897136,0.09733575411438941,-0.00772328772842884
1782986193462720000,3.274719970703125,-0.02335281853675842,0.07840192106366158,-0.02667889421954751
1782986193472795100,3.284795166015625,0.04031915090680122,0.05832739354521036,-0.03136201053448021
1782986193482869000,3.294868896484375,0.09944763170182705,0.027933132064342496,-0.014177286173403263
1782986193492943000,3.304943115234375,0.08629939631521702,0.0016495207726955413,-0.036682547970116136
1782986193503018000,3.31501806640625,0.08585223706960678,-0.0499774983510375,-0.04634937098175287
1782986193513092000,3.325092041015625,0.11229834544658661,-0.06989917339533568,-0.026286899227276443
1782986193523166000,3.335166015625,0.08054477831125259,-0.10559855554699897,-0.0833930804144591
1782986193533241000,3.345240966796875,0.0717477238714695,-0.11330226179212331,-0.1140326949585229
1782986193543315000,3.35531494140625,0.05756839187145233,-0.08043459593504666,-0.1373151516728103
1782986193553389000,3.36538916015625,-0.009468670091032982,-0.07204203064292669,-0.13645787725634873
1782986193563464000,3.3754638671875,-0.020083003085851668,-0.04749298805892467,-0.12615370618924499
1782986193573538000,3.3855380859375,0.010554711762070654,-0.028247020319104192,-0.12464235177822411
1782986193583612000,3.39561181640625,0.02705985636115074,-0.01910334439873695,-0.09102562111951411
1782986193593686500,3.4056865234375,0.03065700407028198,0.022581834164261818,-0.010361161951348185
1782986193603760400,3.415760498046875,0.047968204355239866,0.0336254984870553,-0.013004004610329866
1782986193613834500,3.42583447265625,0.05721066447496414,0.030865386123955247,-0.038865737228095526
1782986193623909400,3.435909423828125,0.055035658523440355,-0.0051315176695585244,-0.04920673317424953
1782986193633983500,3.4459833984375,0.07315174545049667,-0.02899579285979271,-0.06658091569282114
1782986193644057600,3.4560576171875,0.07464110722541809,-0.04078501485288143,-0.08917137155495583
1782986193654132500,3.466132568359375,0.08758183734118938,-0.020453882224857806,-0.1089829372882843
1782986193664206600,3.47620654296875,0.09770984812378883,-0.018698855251073836,-0.060477338120713826
1782986193674280700,3.48628076171875,0.10240472794175147,0.02092208425849676,0.011009250596538185
1782986193684355600,3.49635546875,0.08314765428602695,0.03518821775913238,0.008219327617064117
1782986193694429700,3.5064296875,0.0661702160000801,0.03116203098297119,-0.01927453624717891
1782986193704503600,3.516503662109375,0.033492519757151604,0.019102467615902424,-0.02824322092682123
1782986193714577400,3.526577392578125,0.010196399843692779,-0.00009673837274312972,-0.029390564331039783
1782986193724652500,3.536652587890625,-0.009306757527589797,-0.0014466916769742964,-0.02735745106823742
1782986193734726400,3.546726318359375,-0.011075520765781402,-0.00033230069428682324,-0.036789880802109834
1782986193744800500,3.556800537109375,-0.006741875475645065,0.030785014364123342,0.023039953195303678
1782986193754875600,3.566875732421875,0.014624153158068656,0.05434066199660301,0.08872253180891275
1782986193764949500,3.576949462890625,0.06372223832607268,0.06765256351232528,0.10571034535840153
1782986193775023400,3.5870234375,0.05972293955683708,0.055937283538281916,0.08685900295935571
1782986193785098500,3.597098388671875,0.07016483859419823,0.0509489737316966,0.0699418434932828
1782986193795172400,3.60717236328125,0.08845569756627082,0.060954819439351555,0.06259747207984327
1782986193805246500,3.61724658203125,0.13617957177162168,0.035002047537267204,0.03889459799639881
1782986193815321300,3.6273212890625,0.1943289784014225,0.013037760749459266,-0.010714432368427514
1782986193825395700,3.637395751953125,0.2058621798068285,-0.009030278673768042,-0.04102905274182558
1782986193835469600,3.647469482421875,0.17350304799377916,-0.0445160180747509,-0.11914623857997357
1782986193845544700,3.657544677734375,0.10277706838548183,-0.06634381900131701,-0.20951193448603153
1782986193855618600,3.66761865234375,0.05905249294936656,-0.07521013928502798,-0.20886815668977796
1782986193865692700,3.677692626953125,0.012396540236473083,-0.0806029382392764,-0.22343108117990196
1782986193875767600,3.687767578125,-0.05062777895331382,-0.0830973854035139,-0.12099047820717096
1782986193885841700,3.697841552734375,-0.12081775198876857,-0.042537703739106654,-0.04215849516317248
1782986193895915500,3.70791552734375,-0.1651712729781866,-0.0005570493608713149,-0.03728950088731944
1782986193905990700,3.71799072265625,-0.17257248914539813,0.02424392215758562,-0.020767989675328134
1782986193916064500,3.728064453125,-0.18458675206601619,0.021597791562974453,-0.003200184280797839
1782986193926138600,3.738138671875,-0.14949673398435115,0.04098199872970581,0.016854250297695397
1782986193936212500,3.74821240234375,-0.06626783115565776,0.03287935629487038,0.0008478490009903907
1782986193946287600,3.75828759765625,-0.020686229676008222,0.02120966902822256,-0.020559753752127288
1782986193956361500,3.768361572265625,-0.04106967701315879,-0.00936374841183424,-0.041404900316894054
1782986193966435300,3.778435302734375,-0.03568739945292473,0.0027747254103422164,-0.08718392406478524
1782986193976510500,3.788510498046875,-0.06812076554596423,0.010709317801892757,-0.0964681774996221
1782986193986584300,3.798584228515625,-0.10916472359597683,-0.0033089784175157544,-0.06629201574884355
1782986193996658700,3.80865869140625,-0.05915010810494423,0.0332137028157711,-0.028261925627291202
1782986194006733600,3.818733642578125,0.040891982358694075,0.056439680102467533,0.02828742539472878
1782986194016807700,3.8288076171875,0.09681728319823742,0.07480097396224737,0.09311645591892302
1782986194026881500,3.838881591796875,0.11417992140948771,0.045187925986945626,0.04728241404816508
1782986194036956700,3.848956787109375,0.14286533314585684,0.04557780208736658,0.019137831190228462
1782986194047030500,3.859030517578125,0.1664776794016361,0.02785100673884153,0.031225816934183238
1782986194057104600,3.869104736328125,0.17334288899600506,0.012057809801399708,0.030174408185109493
1782986194067179500,3.879179443359375,0.20767069053351878,0.03253858003318309,-0.015930851842463015
1782986194077253600,3.889253662109375,0.25735037498176094,0.01610416258275509,-0.028018837586417794
1782986194087327500,3.899327392578125,0.3100380090743303,0.010368541540205478,-0.03960932213701308
1782986194097402600,3.909402587890625,0.3327034298688173,0.011074059461057186,-0.03032850276827812
1782986194107476500,3.9194765625,0.3052402534037828,0.03126169196516275,-0.030851795990020036
1782986194117550600,3.929550537109375,0.18107260646522044,0.045048225255310534,-0.015589271863177418
1782986194127625500,3.93962548828125,0.08223813822567462,0.050232934416830535,-0.039861104940995574
1782986194137699600,3.949699462890625,0.020807225707173346,0.03914806130081415,-0.01090045645982027
1782986194147773400,3.9597734375,0.04375029439926147,0.008776596173644065,0.013589257152378558
1782986194157848600,3.9698486328125,0.08946925852298736,0.0026242110237479207,0.03902385039925575
1782986194167922400,3.97992236328125,0.12051438512802123,-0.007511690804362297,0.027553119770810007
1782986194177996500,3.98999658203125,0.09736498020887374,0.020119827964901922,0.0289275499291718
1782986194188070700,4.000070556640625,-0.0023638065218925474,0.059819385668635365,0.045532501640915865
1782986194198145500,4.0101455078125,-0.0777951873421669,0.08141513140499591,0.004797463409602642
1782986194208219600,4.0202197265625,-0.14591069219112396,0.07791355302482843,0.0020880583204329014
1782986194218293500,4.03029345703125,-0.1762204902589321,0.08215221350789069,-0.0060321928363293404
1782986194228368600,4.04036865234375,-0.18117255970835686,0.06212620130628347,0.012560863952711224
1782986194238442800,4.05044287109375,-0.19576105703115462,0.05785451533645391,0.03862739842757582
1782986194248516600,4.0605166015625,-0.17249065608084202,0.05864420440942049,0.05574577955417335
1782986194258591700,4.070591796875,-0.07435059984624386,0.04951251118779182,0.06003353987596929
1782986194268665600,4.08066552734375,0.002307107898592949,0.028157296209037303,0.0077798402212560175
1782986194278739500,4.090739501953125,0.025589199286699293,0.007559329338371753,-0.04000380134731531
1782986194288814600,4.100814697265625,0.11053659647107124,-0.025454466991126537,-0.08852832441106438
1782986194298888400,4.110888427734375,0.19954232913553713,-0.019974574275314808,-0.060384326075017446
1782986194308962600,4.120962646484375,0.21866963893175123,-0.025289924079179762,0.010256459467858076
1782986194319037400,4.131037353515625,0.11531214030981063,-0.027602000413835048,-0.006095248135179281
1782986194329111600,4.141111572265625,-0.014506664258241653,0.011352291880548,-0.08663783448934555
1782986194339185400,4.151185302734375,-0.06546703616678715,0.054468087768554684,-0.10057670879699289
1782986194349260500,4.161260498046875,-0.021676409757137298,0.026294717207551,-0.023548779500275847
1782986194359334400,4.17133447265625,0.032635026144981386,0.029584406402707097,0.05815715154483914
1782986194369408500,4.181408447265625,0.04033551751971245,0.0427162751764059,0.041547888984158635
1782986194379483400,4.1914833984375,0.04996083947718143,0.049421618033945555,0.01903393242433667
1782986194389557500,4.2015576171875,0.11654138984382152,0.060412967647612094,0.034232013012841345
1782986194399631600,4.211631591796875,0.13588146560788153,0.0672509969741106,0.08401113924756645
1782986194409705700,4.221705810546875,0.1032400097221136,0.09818331085443496,0.07928023826815188
1782986194419780600,4.231780517578125,0.08810147730112075,0.12879150734692812,0.1022672191672027
1782986194429854700,4.241854736328125,0.03863865047395229,0.12802169201821087,0.07516798064373433
1782986194439928600,4.251928466796875,0.011508066964149475,0.10784925708323717,0.011728504781797527
1782986194450003700,4.262003662109375,-0.027301848423480986,0.08368044598847627,-0.030070290223509072
1782986194460077600,4.27207763671875,-0.08295008588731288,0.08149374959915875,-0.06635930883139371
1782986194470151700,4.282151611328125,-0.11590543002784251,0.08667845876067877,-0.08500219611153007
1782986194480226600,4.2922265625,-0.08917232140302657,0.0771829006627202,-0.033050840404257174
1782986194490300700,4.30230078125,-0.023210195195674896,0.05926262856870889,0.02707118147276342
1782986194500374500,4.31237451171875,0.09260755654871464,0.057196051427721974,0.0604785071644932
1782986194510449700,4.32244970703125,0.17033552387356757,0.04745879352837801,0.030887232629582283
1782986194520524500,4.332524658203125,0.12277765388488769,-0.0247568401157856,-0.06127535663060844
1782986194530598700,4.3425986328125,0.06782675103545188,-0.021192133371531963,-0.11004881295412779
1782986194540672500,4.352672607421875,0.10462708016633987,-0.016309037505090235,-0.0888086757224053
1782986194550747600,4.36274755859375,0.15638181732296944,-0.032677111721038814,-0.03585815290994942
1782986194560821500,4.372821533203125,0.18345044151246548,-0.01653641652017832,0.01640774863921106
1782986194570895400,4.382895263671875,0.14197978248298168,-0.018989947152137754,0.015617255848646164
1782986194580970500,4.392970458984375,0.04874444942474365,-0.0011550152540206909,0.016100363190472124
1782986194591044900,4.403044921875,-0.045105800661444664,0.041759997364878655,-0.006332125630974769
1782986194601118700,4.41311865234375,-0.08198153311610222,0.04141162231862545,-0.01742445140108466
1782986194611192800,4.42319287109375,-0.06889233444035053,0.019608663572371003,-0.030021774906665084
1782986194621268000,4.43326806640625,-0.027371991050243377,0.01601005455851555,-0.0393070512548089
1782986194631341800,4.443341796875,0.050772740381956095,0.010061959809064864,-0.03420965505056083
1782986194641416000,4.453416015625,0.08116612507998942,0.006487023931741714,-0.028381095027551054
1782986194651490800,4.46349072265625,0.07431435948908328,0.0205456521615386,-0.01495747676566243
1782986194661565000,4.47356494140625,0.05873159043192863,0.014881635050475597,0.0042453824847936625
1782986194671639000,4.48363916015625,0.0196808520257473,0.0293643339112401,0.034300036747753615
1782986194681714000,4.4937138671875,0.032927287089824675,0.042726212048530575,0.05873517062850296
1782986194691788000,4.5037880859375,0.025393968975543975,0.05588000039309263,0.08408559272326528
1782986194701862000,4.51386181640625,-0.059300914752483364,0.038843233135342596,0.12244433027729391
1782986194711937000,4.52393701171875,-0.1710398727506399,0.021612404610216615,0.08648315538428723
1782986194722011000,4.534010986328125,-0.2626560801744461,0.051371583057940005,0.052101723963394755
1782986194732085000,4.5440849609375,-0.3103548199385404,0.031473288889229296,0.060516939478740095
1782986194742160000,4.554159912109375,-0.2740484118044376,0.04725508764982223,0.08683759484514593
1782986194752234000,4.56423388671875,-0.1802431699037552,0.03501987545490265,0.09437960772253573
1782986194762307800,4.574307861328125,-0.050095279511809344,0.038623745165765284,0.07897679834216832
1782986194772383000,4.584383056640625,0.05925006134808063,-0.002784370021522045,0.05987718027047813
1782986194782456800,4.594456787109375,0.16704115850329398,-0.027376374964416025,0.018509543224051593
1782986194792531000,4.604531005859375,0.2432277416050434,-0.03582622340172529,0.030934505837410687
1782986194802604800,4.614604736328125,0.2748988911539316,0.0017976970717310905,0.03413205976970494
1782986194812680000,4.624679931640625,0.21763561970889567,0.026257600067555904,-0.022561375898122786
1782986194822753800,4.63475390625,0.15427987660765646,0.021521803717315196,-0.04975713359862566
1782986194832828000,4.644827880859375,0.08044950124323368,0.054798050375282764,-0.11838183007873594
1782986194842902800,4.65490283203125,-0.0031546646386384964,0.09508972875326871,-0.1345012632958591
1782986194852977200,4.66497705078125,-0.03118424281477928,0.11677227599024773,-0.15531711070090531
1782986194863051000,4.675051025390625,-0.03829319803714752,0.1191430967748165,-0.14318930440321564
1782986194873126100,4.685126220703125,0.05157353537082672,0.1135986143901944,-0.10652392676360904
1782986194883200000,4.695199951171875,0.12355389895439148,0.10554770214259623,-0.09143076785430311
1782986194893273900,4.70527392578125,0.14772387909293175,0.10359335320442914,-0.09054930884465574
1782986194903349000,4.715348876953125,0.17197452325224877,0.0758171652674675,-0.0845609551500529
1782986194913422800,4.7254228515625,0.18402911818325518,0.055581894229352474,-0.09599413024708628
1782986194923497000,4.7354970703125,0.18456629379987716,0.04722293894588947,-0.0794816060591489
1782986194933571800,4.74557177734375,0.2045329770296812,0.05559212336242199,-0.04562207962051034
1782986194943646000,4.75564599609375,0.20686989554464816,0.00924567499011755,-0.04648951010480523
1782986194953719800,4.7657197265625,0.17197569229602813,0.014821137034893034,-0.047275984307378525
1782986194963795000,4.775794921875,0.12178221310675144,0.024511633183062074,-0.07229417877309025
1782986194973868800,4.785868896484375,0.11237900946736334,0.014172902259230612,-0.032765666787326335
1782986194983943000,4.79594287109375,0.11180267088413239,0.020898703382909296,0.01905256405957043
1782986194994017800,4.806017822265625,0.08616320271492003,0.019688450810313222,0.04632153312675655
1782986195004092000,4.816091796875,-0.0018196166425943374,0.02407002689540386,0.03777085466347634
1782986195014165800,4.826165771484375,-0.05081774856746196,0.016395839005708693,0.0029031010303646326
1782986195024240000,4.836240234375,-0.06031622927486896,0.018542787906527518,-0.0007896160077303648
1782986195034314800,4.846314697265625,-0.04934826053678989,-0.004226677784323692,0.001985182467848062
1782986195044389000,4.85638916015625,-0.02182312475144863,0.0076852938055992125,0.008226853336393832
1782986195054463000,4.866462890625,-0.008528758892416954,-0.0055956280499696726,0.0009399842638522386
1782986195064538000,4.8765380859375,-0.038781858336925504,-0.00027151041775941846,-0.0009826543617993593
1782986195074612000,4.886612060546875,-0.051503977265954015,-0.019232815997302533,-0.013434358851611613
1782986195084685800,4.896685791015625,-0.06764087307453155,0.00045358898639678955,-0.0006871785465627908
1782986195094761000,4.906760986328125,-0.0852583628296852,0.00002864157259464264,0.03095781364776194
1782986195104835000,4.9168349609375,-0.07413140413761138,-0.018446341794729232,0.055342313319817184
1782986195114909000,4.926908935546875,-0.10667056869268417,0.003990238679945469,0.07005772495791315
1782986195124984000,4.936984130859375,-0.11098550928235053,0.02518324883431196,0.057527256143465634
1782986195135058000,4.947057861328125,-0.06818740104138851,0.0010983166307210921,0.06248875100836158
1782986195145131800,4.9571318359375,0.006931260567903518,-0.006968962229788303,0.07387304546236992
1782986195155207000,4.96720703125,0.04203472265303135,0.011738368588685988,0.0861433289706707
1782986195165280800,4.97728076171875,0.08120411900281906,-0.010359481450915337,0.0947999520264566
1782986195175355000,4.98735498046875,0.05551555099487304,-0.03433306223452091,0.06535144696310162
1782986195185429800,4.9974296875,0.004968436062335968,-0.023526421537995338,0.033501652911677955
1782986195195503900,5.00750390625,-0.022670681491494177,-0.028155834904313087,-0.0017278467059135437
1782986195205577700,5.01757763671875,-0.03253215029239654,-0.010798165129125117,0.017947890753298997
1782986195215652900,5.02765283203125,-0.059654550495743745,0.014089900150895118,0.02859649134390056
1782986195225726700,5.037726806640625,-0.07103110003471375,-0.03362403718233108,-0.016032704781740903
1782986195235801000,5.047801025390625,-0.06474748972058296,-0.004490589417517185,-0.022897841310873628
1782986195245875000,5.057875,-0.010811901393532752,-0.004960545016825199,-0.011239333025366068
1782986195255950000,5.0679501953125,0.05071370367109775,-0.006289747793972492,-0.01861314972899854
1782986195266024000,5.07802392578125,0.08309270922839641,0.02116261501610279,-0.018542349515110253
1782986195276098000,5.08809814453125,0.19232582188546657,0.05148936421871185,-0.03530760635510087
1782986195286173000,5.0981728515625,0.25760873365700243,0.020348083762824536,-0.08819397789016366
1782986195296247000,5.1082470703125,0.279047827526927,0.028440789325535294,-0.053167672694474456
1782986195306321000,5.11832080078125,0.21816285845339298,0.05693915405720472,-0.08434804305173456
1782986195316396000,5.12839599609375,0.1310807873278856,0.08568740189671516,-0.1471356308761984
1782986195326470000,5.138469970703125,0.10123802224993705,0.07948211751580238,-0.16768281740769744
1782986195336544000,5.1485439453125,0.11441665277481078,0.10460253024697304,-0.15005166445337234
1782986195346619000,5.158618896484375,0.14755086061358452,0.08963701630532742,-0.1247503421973437
1782986195356693000,5.16869287109375,0.1535989086061716,0.0875724849909544,-0.10867825525328516
1782986195366766800,5.178766845703125,0.1775835953056812,0.10719809969812631,-0.1276052201718092
1782986195376842000,5.188842041015625,0.15479425587058065,0.14284019870460032,-0.11481712333448231
1782986195386915800,5.198915771484375,0.08138181365728378,0.12694880208969114,-0.09186835555396973
1782986195396989700,5.20898974609375,0.018719898039102553,0.13089286354035137,-0.0873828076377511
1782986195407064800,5.21906494140625,0.05304828409850597,0.11822919680029154,-0.06411481784023344
1782986195417138700,5.229138671875,0.1712619910687208,0.09587181904166936,-0.01781929593756795
1782986195427213000,5.239213134765625,0.28729250878095625,0.05110708690285683,0.08654482244364917
1782986195437287700,5.24928759765625,0.33968554384112354,0.02312836213111877,0.1408789085689932
1782986195447362000,5.259362060546875,0.26982524115145207,0.02101794584840536,0.11042838685624301
1782986195457436000,5.269435791015625,0.17719897990226743,-0.01255786827802658,0.04251753773391247
1782986195467510000,5.279510009765625,0.09712532623410225,-0.03401712815314531,-0.004644172544032335
1782986195477585000,5.2895849609375,0.04072130196690559,-0.03377484382987022,-0.0597541384126991
1782986195487659000,5.299658935546875,-0.006440262180566788,-0.0401543157339096,-0.07357713125571608
1782986195497732900,5.30973291015625,-0.017743746483325957,-0.0413572617828846,-0.12210391934178769
1782986195507808000,5.31980810546875,0.023099136036634445,-0.05370499444156885,-0.12054667996242642
1782986195517881900,5.3298818359375,0.08759060516953468,-0.0719064215645194,-0.08931531007029116
1782986195527956000,5.3399560546875,0.06892857479751109,-0.08585720550566911,-0.07089169156402349
1782986195538030800,5.35003076171875,-0.04201251082122326,-0.07660247042626142,-0.1032568877916783
1782986195548105000,5.36010498046875,-0.11143909826874732,-0.04266454498916864,-0.09082768739461898
1782986195558178800,5.3701787109375,-0.1538911695510149,-0.01887508860081434,-0.04696180379167199
1782986195568254000,5.38025390625,-0.0972229413896799,-0.01614537137597799,0.006176131351664662
1782986195578327800,5.390327880859375,-0.030604981622099875,-0.00234539408236742,0.02231215037740767
1782986195588402200,5.400402099609375,0.002382511222362518,-0.035383155809342856,0.00798610338307917
1782986195598477300,5.410477294921875,0.023514731100201604,-0.03339344329684973,-0.029655718073248863
1782986195608551200,5.42055126953125,0.03620645489096641,-0.009792202956974506,-0.07596526850126684
1782986195618625300,5.430625244140625,-0.05870762503445148,-0.00632686493396759,-0.08831753120459615
1782986195628700200,5.4407001953125,-0.13709902470409868,0.04703764550685882,-0.0974733359541744
1782986195638774300,5.450774169921875,-0.08808861781954765,0.05935235267877578,-0.051194326794892546
1782986195648848400,5.460848388671875,0.02107669029831886,0.07412468213587999,0.023536650671064852
1782986195658922200,5.470922119140625,0.12562486000955103,0.06273848798573017,0.06693827776312827
1782986195668997400,5.480997314453125,0.15604805532395838,0.07655658545792102,0.06286620601862669
1782986195679071200,5.4910712890625,0.1782026039868593,0.08032558260262013,0.02686637961566448
1782986195689145300,5.501145263671875,0.15821078631579874,0.06311988851875067,-0.044684141183272
1782986195699220200,5.51122021484375,0.12930033365190027,0.06811258223950863,-0.052875850141048425
1782986195709294300,5.52129443359375,0.08553191907405852,0.10335516053438186,-0.0419979708392173
1782986195719368200,5.5313681640625,0.042611645758152,0.13034049035459755,0.010432765882834791
1782986195729443300,5.541443359375,0.029954408758878705,0.11258914508670567,0.05523812229298055
1782986195739517200,5.55151708984375,0.04284194738268852,0.1342103175252676,0.10149806142561137
1782986195749591300,5.56159130859375,-0.008162848189473151,0.11276099452227353,0.06315152576602995
1782986195759666200,5.571666259765625,-0.008659691795706748,0.0995277112007141,-0.012688801181316375
1782986195769740300,5.581740234375,0.024077625679969787,0.0329328400477767,-0.08865772294439375
1782986195779814100,5.591814208984375,0.0476268435716629,-0.005029518599808215,-0.1159512419309467
1782986195789889300,5.60188916015625,0.04311608814895153,-0.017657529504597185,-0.09509813125543295
1782986195799963100,5.611963134765625,0.06911737536787986,0.015075404056906699,-0.044602600379660726
1782986195810037200,5.622037353515625,0.11058043561279773,0.04044511537402868,0.04599595443420112
1782986195820112100,5.632112060546875,0.07179507014453411,-0.003435819667577743,0.09782193019613623
1782986195830186200,5.642186279296875,-0.041215807485580444,-0.02441898646354675,0.04885054014772176
1782986195840260400,5.65226025390625,-0.13082768934965133,-0.022793138827383517,-0.008745251187309622
1782986195850334500,5.66233447265625,-0.13385726630389688,-0.023929157119989393,0.012029241294041275
1782986195860409300,5.672409423828125,-0.10315642309188842,-0.044055122564733026,0.035615941651910545
1782986195870483500,5.6824833984375,-0.038514731833338735,-0.05288461796939373,0.03677577921152115
1782986195880557300,5.692557373046875,0.006976268753409385,-0.07679828525930643,-0.006589680588617921
1782986195890632400,5.702632568359375,-0.017311200284957886,-0.10106120437830686,-0.05183627796024084
1782986195900706300,5.712706298828125,-0.06105272685587406,-0.10591098249703645,-0.1137402878832072
1782986195910780200,5.7227802734375,-0.047426937085390086,-0.10086129789203405,-0.15527370995059608
1782986195920855300,5.732855224609375,0.012118307816982268,-0.11155717169046402,-0.16759433540664612
1782986195930929200,5.74292919921875,0.10567688148021698,-0.12048895842581987,-0.1098612544927746
1782986195941003300,5.753003173828125,0.17535072168707846,-0.10368453861922025,-0.09551927927695214
1782986195951078100,5.763078125,0.17092472193837166,-0.08612024035602807,-0.08476758363805711
1782986195961152300,5.77315234375,0.132754858019948,-0.06775982327908277,-0.08508052204474806
1782986195971226000,5.78322607421875,0.09844459213912486,-0.04374766405075788,-0.10304770202040672
1782986195981301200,5.79330126953125,0.07110182718336581,-0.03305179025232792,-0.1141379088986665
1782986195991375000,5.803375,0.08996084143221378,-0.0034770284608006477,-0.10707096618711948
1782986196001449500,5.813449462890625,0.1057715740263462,0.04354337365031242,-0.10238887278549373
1782986196011524000,5.823524169921875,0.1048047748208046,0.08755874872654676,-0.1049796929962933
1782986196021598500,5.833598388671875,0.08072831818461418,0.11434504884332418,-0.10226597705818712
1782986196031672300,5.84367236328125,0.08466331954598426,0.1569225000709295,-0.06162365861162543
1782986196041746400,5.853746337890625,0.15327742156684399,0.14829232663065195,-0.0013232844930142163
1782986196051821300,5.8638212890625,0.2798036143302917,0.15470716210901736,0.088462346502766
1782986196061895400,5.8738955078125,0.3907657427370548,0.13898644588589668,0.1635166376389563
1782986196071969300,5.88396923828125,0.48033203189373014,0.10180500848293304,0.16746026069819928
1782986196082044400,5.89404443359375,0.4972159466773271,0.09004968875944613,0.16869301736354828
1782986196092118300,5.9041181640625,0.4282154756873846,0.08822627272456884,0.12948833050467073
1782986196102192400,5.9141923828125,0.28212591979801654,0.097778529445827,0.07733582620210945
1782986196112267300,5.924267333984375,0.1043032550394535,0.11248656149506568,0.04652114735208451
1782986196122341400,5.93434130859375,-0.007221183425188064,0.12772241681069135,0.03808846924528479
1782986196132415200,5.944415283203125,-0.11854805349111557,0.1336804484322667,-0.014843494997173547
1782986196142490400,5.954490478515625,-0.22338614605963228,0.10544745663851499,-0.011448664927110075
1782986196152564200,5.964564208984375,-0.2747761415570974,0.10103227054476738,0.03728226742893457
1782986196162638000,5.97463818359375,-0.2867208463728428,0.12157295427024364,0.049001785186678165
1782986196172713200,5.984713134765625,-0.25650574085116384,0.0839972568526864,0.08268558973222971
1782986196182787000,5.994787109375,-0.20297581071555612,0.054468087768554684,0.07021773782521486
1782986196192861400,6.004861328125,-0.13819909490048884,0.02970072625875473,0.04509316037558019
1782986196202936300,6.014936279296875,-0.07212064883708953,0.00889788446575403,-0.01772087706439197
1782986196213010400,6.025010498046875,-0.031193595165014264,-0.008674597103893756,-0.011909925763309001
1782986196223084300,6.035084228515625,0.012140519648790359,-0.026262568503618237,-0.05443944619596004
1782986196233158400,6.045158447265625,0.05462123250365257,-0.04322276339381933,-0.043353184840455646
1782986196243233300,6.0552333984375,0.05175882880985737,-0.04474047448039055,-0.049039559913799165
1782986196253307400,6.065307373046875,-0.018868951120972633,-0.04282032007277012,-0.08235029336325823
1782986196263381200,6.07538134765625,-0.024363456884026528,-0.037190205231308934,-0.0765382460836321
1782986196273456400,6.085456298828125,-0.009095160603523254,-0.04006283805817366,-0.07771466945186258
1782986196283530200,6.0955302734375,0.024750994896888732,-0.04162847993969917,-0.028924773450195788
1782986196293604400,6.105604248046875,0.10388123023509979,-0.041345863606035704,-0.027237697146087883
1782986196303679200,6.11567919921875,0.19975041892826556,-0.05530044693946838,-0.020642901990935204
1782986196313753300,6.12575341796875,0.23174422456026075,-0.07517565249353647,-0.02889657026901841
1782986196323827200,6.1358271484375,0.23270927020013332,-0.06712941642105578,-0.057760626507923005
1782986196333902300,6.14590234375,0.20883213552832602,-0.05584229873120784,-0.08694960385225713
1782986196343976200,6.15597607421875,0.22201193509697914,-0.059411681650578974,-0.08260682540759444
1782986196354050300,6.16605029296875,0.2307230648189783,-0.081344111995399,-0.07703107110187411
1782986196364125200,6.176125244140625,0.2071861218869686,-0.08248013028800487,-0.02803359676413238
1782986196374199300,6.18619921875,0.13927929135262965,-0.02569002931267023,-0.00789024179317057
1782986196384273400,6.1962734375,0.10072773464024067,-0.012191665314137935,-0.005615063402801752
1782986196394348300,6.206348388671875,0.078727499756217,-0.019313187757134437,0.017471870739385484
1782986196404422400,6.21642236328125,0.0860778625190258,-0.0027495909690856933,0.037659649373963475
1782986196414496300,6.226496337890625,0.0050134442478418344,0.006318973888456821,0.02807823962345719
1782986196424570400,6.2365703125,-0.04379647162854671,0.04895195469558239,0.030865824515372512
1782986196434645200,6.246645263671875,-0.08282382915914058,0.06606441753804683,0.04230257980898022
1782986196444719400,6.25671923828125,-0.07222352468967437,0.051591655549407,0.07124065113216638
1782986196454793200,6.266793212890625,-0.0811672941237688,0.06192804838567972,0.12613865475058555
1782986196464868400,6.276868408203125,-0.11127426309585571,0.09242606250196694,0.15166604084745047
1782986196474942200,6.286942138671875,-0.1145119298428297,0.09768296011686324,0.13333872232250868
1782986196485016300,6.297016357421875,-0.08743804495632648,0.08468231650739907,0.10207878392301499
1782986196495091200,6.30709130859375,-0.08302315112352371,0.05986790098547935,0.06655088588073849
1782986196505165300,6.317165283203125,-0.07686930466890335,0.05119798005670309,0.033580563366785644
1782986196515239200,6.3272392578125,-0.05410217706561088,0.06727788498103618,0.020864070460945367
1782986196525314300,6.337314208984375,-0.035350130322575564,0.07156243043243884,0.04482267287112772
1782986196535388200,6.34738818359375,-0.013497779476642607,0.07437018132954835,0.031169483637064694
1782986196545462300,6.357462158203125,0.00990530794262886,0.0830453629553318,-0.0032272184181958434
1782986196555537200,6.367537109375,0.012443301987648009,0.05096563260555267,-0.04125109799467027
1782986196565611300,6.377611328125,0.03169102329313755,0.03934504517763853,-0.08424896659143269
1782986196575685400,6.387685302734375,0.11788637471199034,0.03855360253900289,-0.08099873262383044
1782986196585759700,6.397759765625,0.21275369288623333,0.038433191029727455,-0.06807108118534087
1782986196595833900,6.407833740234375,0.2511468441665172,0.03243336609303951,-0.06286554843150079
1782986196605907700,6.41790771484375,0.21151918265521524,0.034305881966650485,-0.09476261569075285
1782986196615981600,6.427981689453125,0.21281740577220915,-0.003713759826123714,-0.14101210649460552
1782986196626056700,6.438056640625,0.23565701408982276,-0.028438451237976548,-0.1665329897854477
1782986196636130600,6.448130615234375,0.29043840559124945,-0.02705634922981262,-0.13160568798482417
1782986196646204700,6.45820458984375,0.31300328862071036,-0.012116261990368365,-0.12237433378100394
1782986196656279600,6.468279541015625,0.27374679850935935,-0.013698270484805106,-0.12325476987734436
1782986196666353700,6.478353759765625,0.1550941155999899,-0.013899638275802135,-0.1455870862599462
1782986196676427500,6.488427490234375,0.024310265392065048,-0.0021489947274327278,-0.12396890949606895
1782986196686502700,6.498502685546875,-0.04841068742573261,0.014098375718295574,-0.0836948398400098
1782986196696576500,6.508576416015625,-0.055064300096035,0.021760580909252165,0.012740604433789849
1782986196706650600,6.518650634765625,-0.028519407519698142,0.02331745496243238,0.06089556353278458
1782986196716725500,6.5287255859375,0.027467852640151978,-0.02089636529535055,0.08229410619661212
1782986196726799600,6.538799560546875,0.0717693511813879,-0.0551844193443656,0.06430478745438158
1782986196736873700,6.548873779296875,0.09872983882129192,-0.040301615250110626,0.04725121519230306
1782986196746948600,6.558948486328125,0.07131459315121173,-0.01974953334778547,0.025855522072687744
1782986196757022700,6.569022705078125,0.01871171473264694,-0.01865910776257515,0.007868979809433222
1782986196767096800,6.579096923828125,-0.030984920850396155,0.0009784896433353424,0.01412818633466959
1782986196777170700,6.589170654296875,-0.04959902042746544,0.016892098090052602,0.021936375867575405
1782986196787245800,6.599245849609375,-0.0740828888207674,0.002237549793720245,0.025314400933310388
1782986196797319700,6.609319580078125,-0.1521475407540798,0.0042144028246402735,0.08142221873290836
1782986196807393500,6.6193935546875,-0.24812369695305822,0.0027338088780641556,0.0669418579597026
1782986196817468700,6.62946875,-0.28553309789299963,0.00703793581277132,0.01982647104151547
1782986196827542800,6.639542724609375,-0.24805296980440616,0.010704349365830422,-0.016244447836279867
1782986196837616600,6.64961669921875,-0.1582172160565853,-0.03880991538763046,-0.05955035946890711
1782986196847691800,6.65969189453125,-0.08133505190610885,-0.05676204392462968,-0.06942965618744493
1782986196857765600,6.669765625,0.03977145389616489,-0.05242810637354851,-0.024055194652453062
1782986196867839500,6.679839599609375,0.08932838874757289,-0.05911854392290115,0.0014184884957969188
1782986196877914600,6.68991455078125,0.05669570069015026,-0.04168956247717142,-0.015961246980726717
1782986196887988500,6.699988525390625,0.07162789688408375,-0.0008916881427168846,-0.05376593084856868
1782986196898062600,6.7100625,0.0908352861791849,-0.0013254033848643302,-0.11636077257990836
1782986196908137500,6.720137451171875,0.10625672719478607,-0.02764467051178217,-0.1282878686737269
1782986196918211600,6.730211669921875,0.09836977333724498,-0.012451485294103622,-0.14597060568481682
1782986196928285700,6.74028564453125,0.10935352416634558,0.016905542093515396,-0.12092165075466037
1782986196938359800,6.75035986328125,0.08807225120663642,0.023546879804134366,-0.07227715457305312
1782986196948434700,6.7604345703125,0.045779169878363606,0.028802316114306448,-0.04568769220262765
1782986196958508800,6.7705087890625,0.012977554994821547,0.060386664162576195,-0.06136866093724966
1782986196968582700,6.780582763671875,0.028869536131620407,0.04657733451873064,-0.0640274318177253
1782986196978657800,6.79065771484375,0.053311903470754624,0.035460312698781485,-0.03434095328003168
1782986196988731600,6.800731689453125,0.05181318934559822,0.039537645140290255,-0.05307371080070734
1782986196998805800,6.8108056640625,0.11683248174488543,0.0475026326701045,-0.03468070662841201
1782986197008880600,6.820880615234375,0.1973702457934618,0.04854863459169864,0.0587354628894478
1782986197018954800,6.830954833984375,0.18473229801654814,0.05188976171314716,0.10807736675068735
1782986197029028600,6.841028564453125,0.09730302088856696,0.07420739198327064,0.123980015411973
1782986197039103700,6.851103759765625,0.07753507510125636,0.07171440612375736,0.11525763364359735
1782986197049177600,6.861177490234375,0.02317863101363182,0.049808279263973236,0.10534845324344932
1782986197059251700,6.871251708984375,0.008716390419006348,0.06217413210123777,0.11868410096094012
1782986197069326600,6.88132666015625,0.07640168715715408,0.06997340767532587,0.10627265541628003
1782986197079400700,6.891400634765625,0.13839841686487198,0.034550796638429165,0.10405066851787269
1782986197089474600,6.901474609375,0.13719547081589697,0.016749474748969078,0.1210886778846383
1782986197099548700,6.911548583984375,0.07875438776314259,0.030832945159077644,0.091897216322273
1782986197109623600,6.92162353515625,0.04409223970472812,0.038187984097003934,0.03807582895942032
1782986197119697700,6.93169775390625,0.02835515686869621,0.0195870362624526,0.052050870558992025
1782986197129771800,6.941771728515625,-0.00158814597427845,0.006310790582001209,0.08947912232987582
1782986197139846700,6.9518466796875,-0.037765374770760536,0.03075169661641121,0.06197809807248413
1782986197149920800,6.961920654296875,-0.05831716441214084,0.04367109168320894,0.041477015705034134
1782986197159994600,6.97199462890625,-0.03482464514374733,0.02289806050658226,0.012343129548802971
1782986197170069800,6.98206982421875,-0.0072726213514804836,-0.004504910203814506,0.004298500911518931
1782986197180143600,6.9921435546875,-0.019386837515234946,-0.0008569090902805328,-0.027611937285959717
1782986197190217700,7.0022177734375,0.00395838223695755,0.0234539408236742,-0.04255991557091474
1782986197200292600,7.012292724609375,0.06517535974383354,0.007930208477377892,-0.07755918662920594
1782986197210366700,7.02236669921875,0.144875503924489,-0.06541705954521894,-0.11132920815348625
1782986197220440600,7.032440673828125,0.16169336773455142,-0.06968933003693818,-0.10402757990323007
1782986197230515700,7.042515625,0.16796645665466783,-0.005865092641115188,-0.0778268976546824
1782986197240589600,7.052589599609375,0.1793272241026163,0.017260346880555152,-0.04136318006701767
1782986197250663700,7.06266357421875,0.1454559341609478,0.02017185041308403,-0.004631678388640284
1782986197260737500,7.072737548828125,0.09538929622173309,0.03159662300795316,-0.015121362090483308
1782986197270812700,7.082812744140625,0.045594460961222646,0.04104863422513008,-0.03761193777471781
1782986197280886500,7.092886474609375,0.024686112967133522,0.032196050205826755,-0.052443303942680354
1782986197290960600,7.102960693359375,0.015423779103159903,0.026046295404434202,-0.06621434740275144
1782986197301035500,7.113035400390625,-0.01892448070049286,0.04242342970967292,-0.06213160813376307
1782986197311110000,7.12310986328125,-0.06256371594071387,0.06166618257910013,-0.09823993641249835
1782986197321183700,7.133183837890625,-0.0703746819525957,0.10615618942975998,-0.060595265411958095
1782986197331259000,7.1432587890625,-0.04085808008909225,0.1298763799741864,-0.02536342770680785
1782986197341332700,7.153332763671875,0.02539104636609554,0.12613251727074384,0.028693448912352322
1782986197351406600,7.163406494140625,0.10545008698701858,0.11032704537361859,0.060580798495188354
1782986197361481700,7.173481689453125,0.17115151643157003,0.0903761442348361,0.05436353141553699
1782986197371555600,7.1835556640625,0.2791127094566822,0.03863748143017292,0.026583690216764808
1782986197381629700,7.193629638671875,0.3140250328838825,-0.0032069793477654453,0.004169248508661985
1782986197391704600,7.20370458984375,0.3257107945024967,-0.014626491245627402,0.013417042390629649
1782986197401778700,7.21377880859375,0.2741547947883606,0.026205577619373796,0.006782499746978282
1782986197411852500,7.2238525390625,0.1691717407912016,0.05596154119670391,0.0067830842688679695
1782986197421926700,7.2339267578125,0.06444353833794593,0.08898644344210624,-0.00021006255410611628
1782986197432001500,7.24400146484375,-0.030316227808594703,0.08086772665530442,-0.02070486131124198
1782986197442075600,7.25407568359375,-0.07414251005351542,0.09116963270008563,-0.02917604479752481
1782986197452149500,7.2641494140625,-0.09327332698106765,0.10589198553562164,-0.005605857183039188
1782986197462224600,7.274224609375,-0.04575812709033489,0.08635434137284755,-0.005299640778079629
1782986197472298500,7.284298583984375,0.02666588860750198,0.04817395606040954,0.01586640830412507
1782986197482372900,7.294372802734375,0.10573007297217846,0.04052431809008121,0.06620850218385457
1782986197492447500,7.304447509765625,0.15986322969794273,0.04819587563127279,0.10294051531888544
1782986197502521900,7.31452197265625,0.17717501450479028,0.04344751206040382,0.1037618416391313
1782986197512595700,7.324595703125,0.16199147389829158,0.02485825466364622,0.061104895434528586
1782986197522670800,7.3346708984375,0.13543605992794036,-0.012569850976765155,0.06055084174834192
1782986197532744700,7.34474462890625,0.04644377126693725,-0.027548808921873568,0.05762837843038141
1782986197542818800,7.35481884765625,-0.07751052518188953,-0.02495850016772747,0.03654028995521366
1782986197552893700,7.364893798828125,-0.17913783901035785,-0.015357435868680476,0.009216083569452166
1782986197562967800,7.3749677734375,-0.23514672648012636,0.007049041728675365,0.024194091666489836
1782986197573041700,7.385041748046875,-0.2476630937039852,0.015398352400958538,0.038854485181719065
1782986197583115500,7.395115478515625,-0.17686930955648422,0.03791676594018936,0.073414561105147
1782986197593190700,7.405190673828125,-0.10121113424301147,0.009774667300283908,0.16646262796297667
1782986197603264500,7.415264404296875,-0.033387305817008016,-0.022548808677494526,0.018457374645397064
1782986197613338600,7.425338623046875,-0.04735094923973083,-0.05901683711409569,-0.0796422765135765
1782986197623413500,7.43541357421875,-0.08845394400060176,-0.0971203577980399,-0.05377433335073292
1782986197633487600,7.445487548828125,-0.043752632486820216,-0.06411445251405239,-0.04445172066688537
1782986197643561700,7.455561767578125,0.026733693146705626,-0.025014029747247694,-0.06928893254250287
1782986197653636600,7.46563671875,0.08446458210349082,-0.001675239735841751,-0.03414206970706582
1782986197663710700,7.475710693359375,0.13294950380921364,-0.008167816625535488,-0.02664345757998526
1782986197673784800,7.485784912109375,0.15522972467839716,-0.019514847809076308,-0.06266827229373156
1782986197683859700,7.495859619140625,0.12570844663977623,-0.012975509168207645,-0.058653849020600314
1782986197693933800,7.505933837890625,0.09750877259373664,-0.01202069266140461,-0.11728037164285779
1782986197704007700,7.516007568359375,0.03475041086375713,-0.026134265948832034,-0.16833251348808406
1782986197714082800,7.526082763671875,0.004156535157561302,-0.03848316765129566,-0.146545629093796
1782986197724156700,7.53615673828125,0.08664075709879397,-0.016974515676498412,-0.19648776387050745
1782986197734230800,7.546230712890625,0.13419628899991512,0.011555997759103775,-0.16388137929812072
1782986197744304600,7.5563046875,0.1125946980446577,-0.027250410497188567,-0.10388415284454822
1782986197754379800,7.5663798828125,0.004741057047247886,-0.04077712380737066,-0.058758989895507686
1782986197764453600,7.57645361328125,-0.09256254836320876,-0.02539338445365429,-0.07633417487889528
1782986197774527500,7.586527587890625,-0.06452829401195048,0.020924130085110664,-0.10713438681215047
1782986197784602600,7.5966025390625,-0.06545709929466247,0.03946808703541756,-0.05222535034306347
1782986197794676700,7.6066767578125,-0.06327917073369026,0.04960048173218965,-0.006149462540447711
1782986197804750600,7.61675048828125,-0.03825871124565601,0.05923544830083847,0.01923625006340444
1782986197814825700,7.62682568359375,-0.02852291465103626,0.09038461980223655,0.015247911079600452
1782986197824899600,7.636899658203125,-0.028776012629270552,0.08577566470205783,0.005931216679885983
1782986197834973700,7.6469736328125,-0.05996376257538795,0.08465046006441115,-0.0018544687602669
1782986197845048600,7.657048583984375,-0.06177811852097511,0.10301847592592239,-0.0029966975979506968
1782986197855122700,7.667122802734375,0.006367196944355964,0.1198275719076395,0.03742043379060924
1782986197865196800,7.67719677734375,0.08832768727242946,0.1174567511230707,0.07981346836201846
1782986197875270700,7.687270751953125,0.1638338868945837,0.11524082863926886,0.09433737601600586
1782986197885345800,7.697345703125,0.1971995654016733,0.10832242755293846,0.08581511992961167
1782986197895419600,7.707419677734375,0.18596037850677966,0.0953758522182703,0.08100253201611339
1782986197905493800,7.71749365234375,0.14736206004321575,0.12986907345056534,0.10552563644126058
1782986197915568600,7.727568603515625,0.1370247904241085,0.11468933223634957,0.06526354948394
1782986197925642800,7.737642822265625,0.16623744090497491,0.09150748635232447,0.04507708602361381
1782986197935716600,7.747716552734375,0.21729718153476713,0.06385755514353514,0.028443346608802676
1782986197945791700,7.757791748046875,0.24296470675468443,0.06750321816951035,0.020192820135876536
1782986197955865600,7.767865478515625,0.25803835724592206,0.0680313336968422,0.009009235885739326
1782986197965939700,7.777939697265625,0.2228273431330919,0.04922229606956243,-0.01187258942760527
1782986197976014600,7.7880146484375,0.22034195605814455,0.03876753755062818,-0.01683861433714628
1782986197986088700,7.798088623046875,0.18131050687432287,0.036496670009195806,0.021042057376354933
1782986197996162600,7.80816259765625,0.11241875695586204,0.045615503749251364,0.05622801011316478
1782986198006237700,7.81823779296875,0.039407881280779836,0.0405444840952754,0.07630757913291454
1782986198016311600,7.8283115234375,-0.012964110991358756,0.02852203786820173,0.008454013155773281
1782986198026385700,7.8383857421875,-0.05865034188926219,0.024400574024021623,-0.012435045615956186
1782986198036459800,7.848459716796875,-0.03278174113929271,-0.011315759262442588,-0.02894632769487798
1782986198046534700,7.85853466796875,-0.026751228803396223,-0.015281740283966063,-0.024001272508129477
1782986198056608800,7.86860888671875,-0.06517126809060574,-0.011474164694547652,0.003799757609143853
1782986198066682600,7.8786826171875,-0.10417290665805339,-0.0318979440420866,0.015603081192821264
1782986198076757800,7.8887578125,-0.12990297572016715,-0.025714579232037064,-0.003785729083791375
1782986198086831600,7.89883154296875,-0.20901099922657013,-0.009071487466990947,0.0003416530445218086
1782986198096905700,7.90890576171875,-0.21457389405071733,-0.009532967498898506,0.009585209142789245
1782986198106980600,7.918980712890625,-0.19574410589635372,-0.012828501912951469,-0.005173237919434905
1782986198117054700,7.9290546875,-0.1894575729727745,0.0029281624063849446,-0.027499782148376107
1782986198127128600,7.939128662109375,-0.134916419968009,-0.00044803602844476696,-0.06133022862300276
1782986198137203700,7.94920361328125,-0.013137129470705985,-0.01722849043756723,-0.06381130484901368
1782986198147277600,7.959277587890625,0.13905015877187252,-0.0320262465968728,0.0077609893903136246
1782986198157351700,7.9693515625,0.23884733456373214,-0.05791267526447773,0.028713103460893032
1782986198167426600,7.979426513671875,0.2610129891425371,-0.057575406134128565,0.022348902191221712
1782986198177499600,7.989499755859375,0.26213819378018377,-0.05956599542945623,0.023275734712556003
1782986198187574500,7.999574462890625,0.2204226200789213,-0.013279168289899826,-0.029311800006404518
1782986198197648600,8.009648681640625,0.15710311733484267,0.014687866044044495,-0.06467091735303401
1782986198207722800,8.01972265625,0.04003448874652386,0.027389526706933974,-0.09487688972018658
1782986198217796600,8.029796630859375,-0.04282499624788761,0.05019727858155965,-0.09292758228331803
1782986198227871700,8.039871826171876,-0.04191606470942497,0.08959697655588388,-0.03221490103676915
1782986198237945600,8.049945556640624,-0.05302139609158039,0.1506324600160122,0.07573540526814758
1782986198248019700,8.060019775390625,-0.07015022554695606,0.17991846799403427,0.16299246763437986
1782986198258094800,8.0700947265625,-0.14749182390272617,0.21130846251398325,0.22703611993454395
1782986198268168700,8.080168701171875,-0.17837445342242716,0.2520139823898673,0.2619595492776483
1782986198278242600,8.09024267578125,-0.1658200922757387,0.25467677185833454,0.27348215622380373
1782986198288317700,8.100317626953125,-0.14670096578598021,0.24771803876161574,0.2597664962127805
1782986198298391600,8.1103916015625,-0.027474866902828216,0.2264902495548129,0.15764029295146464
1782986198308465700,8.120465576171876,0.12812076847851275,0.1926467244029045,0.10401654705256223
1782986198318540500,8.13054052734375,0.23764321947097777,0.12290887904912233,0.09255882203616202
1782986198328614700,8.14061474609375,0.2339946338355541,0.024232816241681575,0.09064794691354036
1782986198338688500,8.1506884765625,0.23895839372277258,0.008489011403918266,0.014547799986228346
1782986198348763600,8.160763671875,0.2169979063272476,0.055882046219706535,0.009163768860325217
1782986198358837500,8.17083740234375,0.25488836878240106,0.07481354118287563,0.031617227404564616
1782986198368911600,8.18091162109375,0.34624446396529673,0.06869739639014005,0.015141601160913705
1782986198378985700,8.19098583984375,0.36264731723368165,0.008511223235726355,0.0662066024877131
1782986198389060600,8.201060546875,0.29363749389350413,-0.07312310387790202,0.04560556687712669
1782986198399134700,8.211134765625,0.06595511194467545,-0.11722411141097545,0.01681355296112597
1782986198409208800,8.221208740234376,-0.30003391693234444,-0.10973287887275218,-0.09339980290494859
1782986198419283700,8.23128369140625,-0.6292927593052386,-0.10539835679978132,-0.11338124531246721
1782986198429357800,8.24135791015625,-0.7963999687820672,-0.048455695611238477,-0.1833966654986143
1782986198439431700,8.251431640625,-0.7831780836373567,0.0032695231899619102,-0.2862109240893274
1782986198449506800,8.2615068359375,-0.7053647761166095,-0.04090776444971561,-0.27085560711249707
1782986198459580700,8.27158056640625,-0.49793373955786224,-0.054609834326803684,-0.1746084519524127
1782986198469654500,8.281654541015625,-0.26656360900700093,-0.08806845181435347,-0.10596724272891879
1782986198479729700,8.291729736328126,0.007800444617867469,-0.12842355081737042,-0.0860569658614695
1782986198489803500,8.301803466796875,0.21556348960995672,-0.19357582194656134,-0.0744082483176142
1782986198499877600,8.311877685546875,0.2991255699157715,-0.1896440354555845,-0.09336210124306381
1782986198509952800,8.321952880859374,0.3339361865341663,-0.1636643755465746,-0.08432751172035932
1782986198520026600,8.332026611328125,0.40650574818253515,-0.10816431438177823,-0.059196212268993256
1782986198530100500,8.3421005859375,0.4840519291996956,-0.12855273015499113,-0.0037568683154880996
1782986198540175600,8.352175537109375,0.48276598104238505,-0.16787877837121484,0.040782969026267525
1782986198550249500,8.36224951171875,0.35139936251044274,-0.1350745331391692,0.02880421581044793
1782986198560323800,8.37232373046875,0.27668460552692414,-0.06820873609036207,-0.014265987370163201
1782986198570398500,8.3823984375,0.1636544386744499,-0.04225801001489162,-0.014844956301897763
1782986198580472800,8.392472900390626,0.09403554352521896,-0.03527852639108896,-0.030463819585740563
1782986198590546400,8.40254638671875,0.03948445364832878,0.06070347502678632,-0.023145167135447262
1782986198600621300,8.412621337890625,0.06532850447893142,0.09210515998452902,-0.018235329392552374
1782986198610695400,8.4226953125,0.1300093587040901,0.08533025902211666,0.02026259743645787
1782986198620769300,8.432769287109375,0.14632979438602922,0.08125672597289085,0.03577675823681056
1782986198630844400,8.442844482421876,0.15903262409269808,0.09192863437384366,-0.03535232227966189
1782986198640918300,8.452918212890625,0.2227455100685358,0.09201309778690338,-0.05867912959232926
1782986198650992400,8.462992431640625,0.2780354356139898,0.07197919453978538,-0.03524199377298355
1782986198661066200,8.473066162109374,0.23205051403045654,0.09057517393827438,0.0512176346052438
1782986198671141400,8.483141357421875,0.21119126587510106,0.13326309980303047,0.0972229413896799
1782986198681215200,8.49321533203125,0.1706084955960512,0.1574900708258152,0.11946319557465612
1782986198691289300,8.503289306640625,0.13921791655421256,0.1439969675242901,0.10740056346766651
1782986198701364200,8.5133642578125,0.10316635996401309,0.1406844819754362,0.06761917269937694
1782986198711438300,8.523438232421874,0.08399404198229313,0.11188742655813694,0.020573416951298714
1782986198721512200,8.53351220703125,0.07762684503793715,0.08043518045693636,0.04107018846981227
1782986198731587300,8.54358740234375,0.05769464859962463,0.10460457607358693,0.09732954356931149
1782986198741661200,8.5536611328125,0.029259412232041357,0.11978402502685785,0.16525040262900292
1782986198751735600,8.563735595703125,0.013239420801401138,0.16233371146470307,0.16918145846761762
1782986198761810200,8.57381005859375,0.031140988194942473,0.1428115571320057,0.12205752291679381
1782986198771884500,8.583884521484375,0.05486790074110031,0.11207593486756086,0.11191869847923516
1782986198781958400,8.59395849609375,0.07827624885737895,0.09573620996326207,0.055081397361308335
1782986198792032300,8.6040322265625,0.09232464795410633,0.1066033486753702,0.026035700945183635
1782986198802107400,8.614107421875,0.11677402955591679,0.0974631798863411,0.02157645651400089
1782986198812181200,8.62418115234375,0.07377952196002006,0.05596241797953844,0.027596666651591658
1782986198822255400,8.63425537109375,-0.020020459243655205,0.045724224820733066,-0.02122640096731484
1782986198832330200,8.644330322265626,-0.11720832931995391,0.07114595858603716,-0.028266455671936273
1782986198842404400,8.654404296875,-0.13857026630043984,0.039085517458617686,-0.05424764995090663
1782986198852478200,8.664478271484375,-0.10105915855169295,-0.006355506506562233,-0.06566869621872902
1782986198862553300,8.67455322265625,-0.06335223596990108,-0.03128507284075022,-0.061579161882773036
1782986198872627200,8.684627197265625,-0.05384264934659004,-0.061763505473732945,-0.0421653632953763
1782986198882701300,8.694701416015626,-0.03439677512049675,-0.08283055116087197,-0.048678471516445276
1782986198892776200,8.704776123046875,-0.010142039307951926,-0.0768818718895316,-0.08561199857294559
1782986198902850300,8.714850341796875,-0.0012947159856557845,-0.06644990972429514,-0.10409436152912675
1782986198912924400,8.72492431640625,-0.0018926818788051604,-0.08581775027811527,-0.11500760440528392
1782986198922998500,8.73499853515625,0.029088731840252874,-0.12674217360168694,-0.14026282249726355
1782986198933073400,8.745073486328126,0.0387210680603981,-0.11083499489575624,-0.15634199676923452
1782986198943147500,8.7551474609375,0.027208324921131132,-0.06701806500107049,-0.12442001426443457
1782986198953221400,8.765221435546875,0.052954760596156114,-0.06836684926152228,-0.08320303773507476
1782986198963296500,8.775296630859375,0.06355974124073982,-0.054310266858339305,-0.03166888452656567
1782986198973370400,8.785370361328125,0.09852993233501911,-0.037951837253570556,-0.007003960477933288
1782986198983444500,8.795444580078126,0.1419482183009386,-0.03724018185287714,0.035932971711829305
1782986198993519400,8.805519287109375,0.17892331947684287,-0.03503974919915199,0.047736003034561866
1782986199003593500,8.815593505859376,0.20256489182710646,-0.0378562679246068,0.03086838179863989
1782986199013667300,8.825667236328124,0.20022037452757357,-0.015252806450426577,0.022277444390207526
1782986199023742500,8.835742431640625,0.16415303584635257,0.010315057787299155,-0.007601268783956765
1782986199033816300,8.84581640625,0.09627426236271858,0.011453706428408622,-0.0340089448466897
1782986199043890200,8.85589013671875,0.01568622943162918,0.060950435525178905,-0.03276091754697263
1782986199053965300,8.86596533203125,-0.07099135254621505,0.11165624815076589,-0.0434567913454026
1782986199064039200,8.8760390625,-0.12212182032465935,0.13659808944463728,0.01701002538129687
1782986199074113300,8.88611328125,-0.16245149262547492,0.128401923507452,0.034436230348050594
1782986199084187400,8.8961875,-0.15027239453196525,0.15036036507636308,0.019560805842652917
1782986199094262300,8.90626220703125,-0.11295184091925621,0.15444909569472073,-0.016923296945914625
1782986199104336400,8.91633642578125,-0.043486675027012825,0.14491203654259444,-0.022527327498048543
1782986199114410500,8.926410400390624,0.06802490395605564,0.1283338267073035,-0.03087166973426938
1782986199124485400,8.9364853515625,0.18415595943331717,0.09750321963578462,0.020553762402758
1782986199134559500,8.9465595703125,0.2461380760937929,0.08747311626970768,0.05885843168199062
1782986199144633300,8.95663330078125,0.27043548200428486,0.09482727842479943,0.05183591263405978
1782986199154708500,8.96670849609375,0.2814782695442438,0.09426526062786579,0.03266680952273309
1782986199164782300,8.9767822265625,0.236348503485322,0.07191402034908533,0.006356748615577817
1782986199174856400,8.9868564453125,0.18581074090301988,0.04010083198100328,-0.03815890413299203
1782986199184931300,8.996931396484374,0.13296060972511767,0.04185644347667694,-0.0707519908323884
1782986199195005400,9.00700537109375,0.04715981058180332,0.04531067558377981,-0.12445077472887933
1782986199205079300,9.017079345703126,-0.040457098072767254,0.037034722408652306,-0.12386946770958601
1782986199215153200,9.027153076171874,-0.19469255101680755,0.026594284676015375,-0.13005604739002882
1782986199225228300,9.037228271484375,-0.2602396666824818,0.08056932823061942,-0.10226517334058881
1782986199235302400,9.047302490234374,-0.2707341726899147,0.12138941439688206,-0.055176601364091034
1782986199245376300,9.057376220703125,-0.18079495856761932,0.08978519260436296,0.02277121925652027
1782986199255451400,9.067451416015626,-0.10179448708891868,0.016635785241425036,0.06279262932576239
1782986199265525200,9.077525146484374,-0.041507483908534044,-0.0015317396119236945,0.03558247777372599
1782986199275599400,9.087599365234375,0.07114449728131293,0.0012304185777902603,-0.00527932864241302
1782986199285674200,9.09767431640625,0.18134733175337314,-0.01796674158424139,-0.03805924315080046
1782986199295748400,9.107748291015625,0.25666063915193077,-0.05856091004014015,-0.04046995755434036
1782986199305822500,9.117822509765626,0.2518225514709949,-0.08907470624744891,-0.0617807488694787
1782986199315897300,9.1278974609375,0.14859423218667506,-0.06155073950588703,-0.09377667339332402
1782986199325971500,9.137971435546875,-0.005289923101663589,-0.04659779278486967,-0.10403890501484274
1782986199336045300,9.14804541015625,-0.11651567088067531,0.0038660277783870694,-0.08321633560806513
1782986199346120400,9.158120361328125,-0.15708675072193146,0.015410627360641955,-0.06427132357619703
1782986199356194300,9.1681943359375,-0.12164251237511634,-0.01069996545165777,-0.05750840531252324
1782986199366268400,9.178268310546875,0.003067570877075195,-0.03431552657783031,-0.025493629957735537
1782986199376342300,9.18834228515625,0.05989069733917713,-0.03405249172747135,-0.01654905680604279
1782986199386417400,9.19841748046875,0.09577683423459529,-0.038198505491018296,-0.01787957475744188
1782986199396491300,9.2084912109375,0.1349415544092655,-0.060135612010955804,-0.03283011032566428
1782986199406565400,9.2185654296875,0.11104863764643669,-0.032090251743793485,-0.031640242953971026
1782986199416640300,9.22864013671875,0.10435293940007687,-0.022241934685409068,-0.0430295058440417
1782986199426714400,9.23871435546875,0.10972060391306876,-0.017246318355202673,-0.061742535750940436
1782986199436788200,9.248788330078124,0.13761574205458163,-0.00625496874153614,-0.07722440171688795
1782986199446863400,9.25886328125,0.12841829012036324,0.0020937574088573455,-0.07470408945903181
1782986199456937200,9.268937255859376,0.09425766184329987,0.00029138416200876236,-0.054377048484235996
1782986199467011300,9.27901123046875,0.046587563651800154,0.017778233274817465,-0.08247771913520992
1782986199477086200,9.289086181640625,-0.01950958711206913,0.034009529368579386,-0.07535963075831532
1782986199487160300,9.299160400390624,-0.10700082356035709,0.0497115408912301,-0.04416040957011282
1782986199497234400,9.309234375,-0.13073650393486022,0.09291326149702071,-0.026483152451738715
1782986199507308300,9.319308349609376,-0.08314882332980632,0.12647066318392752,-0.007544350964948534
1782986199517383400,9.329383544921875,0.03064005293548107,0.13177256898432968,0.021755320212244987
1782986199527457300,9.339457275390625,0.07852408613860606,0.1006780502796173,0.014802432334423065
1782986199537531400,9.349531494140624,0.11854980705678463,0.11249971323758363,-0.00037307109609246254
1782986199547606300,9.359606201171875,0.11001228033602237,0.08280512445867061,0.0020445845048874616
1782986199557680400,9.369680419921876,0.08371054886579513,0.06987082408368588,-0.0166227065641433
1782986199567754200,9.379754150390625,0.07343582308888436,0.07619330510348081,-0.030702742908149956
1782986199577829400,9.389829345703125,0.0874935745358467,0.0747714556068182,-0.008252499234303831
1782986199587903200,9.3999033203125,0.1481044028431177,0.07244272039830685,0.026317513561248777
1782986199597977300,9.409977294921875,0.1966109518587589,0.09725947400778531,0.07491451733931899
1782986199608052500,9.420052490234376,0.25486206529736516,0.07640782463699579,0.0908042334537953
1782986199618126300,9.430126220703125,0.24128654440939426,0.0592079757720232,0.08855258206948638
1782986199628200400,9.440200439453125,0.19735972439944743,0.07354805129170418,0.06705094435736536
1782986199638274300,9.4502744140625,0.1685655915915966,0.046586102347075935,-0.004038753996789455
1782986199648349400,9.460349365234375,0.15069968003332615,0.01784808364063501,-0.06934731166623533
1782986199658423300,9.47042333984375,0.1514250716984272,0.018649755412340163,-0.061704980219528076
1782986199668497700,9.48049755859375,0.18743103558123111,0.017448562929034232,-0.017296294976770876
1782986199678572500,9.490572509765625,0.25456980435252186,-0.001380348442494869,-0.02983414338007569
1782986199688646700,9.500646728515624,0.22319208479225633,-0.020306290447711945,-0.025344138484448192
1782986199698720500,9.510720458984375,0.1575683967590332,-0.02346650804430246,-0.03469130108766257
1782986199708795600,9.520795654296874,0.10083411762416362,-0.0365837637707591,-0.08905702446028589
1782986199718869500,9.530869384765625,0.008418284255266188,-0.055036535306274885,-0.07832900195792317
1782986199728943400,9.540943359375,-0.04341010265946388,-0.05505202513635158,0.019659005520120263
1782986199739018500,9.5510185546875,-0.08165303181409836,-0.024440613773465156,0.0843165519349277
1782986199749092600,9.561092529296875,-0.12149755094647406,-0.015204875655472279,0.07384761876016854
1782986199759166500,9.57116650390625,-0.15725275493860244,-0.02562076346874237,0.02728964652903378
1782986199769240300,9.581240234375,-0.17923954581916332,-0.01475771640986204,-0.018079335113242268
1782986199779315500,9.5913154296875,-0.182703422537446,0.0210445415943861,-0.04582658921666443
1782986199789389300,9.601389404296874,-0.21256606135964393,0.021896189987659454,-0.040728535425290466
1782986199799463400,9.61146337890625,-0.1870002429485321,0.031144787587225435,-0.0021609043609350917
1782986199809538300,9.621538330078126,-0.06120937872231006,0.023330022183060645,0.047733957207947965
1782986199819612400,9.6316123046875,0.0491430933535099,-0.017936930967867373,0.08639744986221194
1782986199829686500,9.6416865234375,0.19337094702422616,-0.0519184032857418,0.1591258553341031
1782986199839761400,9.651761474609375,0.29447920541465283,-0.008998422230780125,0.12906309082992373
1782986199849835500,9.66183544921875,0.2896031238108873,0.010555004023015499,0.13527473188638686
1782986199859909600,9.67190966796875,0.1697843197315931,0.005287000492215156,0.12495309822782874
1782986199869984500,9.681984619140625,0.04960661921203136,0.047260932868719095,0.04318528092764318
1782986199880058600,9.69205859375,-0.07443827812969685,0.07172288169115781,0.00551554855108261
1782986199890132500,9.702132568359374,-0.17793430843949318,0.05500497112423181,-0.014919409777596593
1782986199900206600,9.71220654296875,-0.19741174684762955,0.05508212801367044,0.02349047344177961
1782986199910281500,9.722281494140624,-0.14852935025691985,0.07159019522219896,0.04615545584484935
1782986199920355600,9.73235546875,-0.08346914132535457,0.10988397778123617,0.05062931332327425
1782986199930429400,9.742429443359375,0.062488897138833994,0.07973959940820932,0.07608480322770773
1782986199940504600,9.752504638671875,0.15694471190273762,0.03433627710491419,0.01866268795914948
1782986199950578400,9.762578369140625,0.17738602690696714,-0.01130523786842823,-0.02236826447881758
1782986199960652300,9.77265234375,0.1885381200402975,-0.01725041000843048,-0.00781834560073912
1782986199970727400,9.7827275390625,0.14856032991707324,0.0075707275152206415,-0.05118175957426428
1782986199980801300,9.79280126953125,0.07211071196496487,-0.03180266697406769,-0.076575290158391
1782986199990875400,9.80287548828125,-0.0057733227044343945,-0.04341682466119528,-0.08729052624441683
1782986200000950500,9.812950439453125,-0.03726268594563007,0.004769990880787373,-0.0439766505010426
1782986200011024400,9.8230244140625,-0.05362579172551631,0.020459142921864987,0.006250219501182436
1782986200021098500,9.833098388671875,-0.023010873231291768,0.05584492907971143,0.05184745694138109
1782986200031172600,9.843172607421875,0.012351532050967215,0.08670534676760434,0.029336276860535145
1782986200041247500,9.85324755859375,0.017015432208776472,0.061227206639945506,-0.009809957809373736
1782986200051321600,9.863321533203125,0.04210778788924217,0.023030162453651425,-0.02903407904356718
1782986200061395500,9.8733955078125,0.04047346468567848,0.032554362124204636,-0.03706241413317621
1782986200071470600,9.883470703125,0.09538929622173309,0.04579641327410936,-0.007987418557330966
1782986200081544400,9.89354443359375,0.1489969677686691,0.01339753397256136,0.007632906031236052
1782986200091618600,9.90361865234375,0.1598199750781059,-0.02307575516104698,-0.0023838994618505236
1782986200101693400,9.913693359375,0.13338029644191265,-0.005536883600056171,-0.042574309422448275
1782986200111767600,9.923767578125,0.07281389179825783,0.030076866094768045,-0.060572249862551684
1782986200121841400,9.93384130859375,-0.025793781948089598,0.02912906385064125,-0.054813394074887035
1782986200131916500,9.94391650390625,-0.1287415307253599,0.04678630109429359,-0.02219429615139961
1782986200141990400,9.953990478515625,-0.1500742416113615,0.07470277428478002,-0.024278993470966813
1782986200152064500,9.964064453125,-0.08855915794074534,0.06664280194789171,0.007775310176610946
1782986200162138400,9.974138427734376,-0.002619242587685585,0.01109480998814106,0.02019333159253001
1782986200172213500,9.984213623046875,0.10301087714135647,0.017993045069277284,0.03320303529128432
1782986200182287400,9.994287353515626,0.13764204553961754,0.0000903086319565773,0.03305127879567444
1782986200192361500,10.004361572265625,0.15334756419360637,-0.020457973878085612,-0.0189956462405622
1782986200202436400,10.014436279296875,0.15989713196754454,-0.04392711227089166,-0.01609912108145654
1782986200212510500,10.024510498046874,0.1861240446358919,-0.001792436374723911,0.06572020721025765
1782986200222584600,10.03458447265625,0.14363164134323597,0.013693009787797927,0.10051767208613455
1782986200232659500,10.044659423828126,0.0521972202271223,0.05346592498868703,0.048287645567953584
1782986200242733600,10.054733642578125,0.03370119407176971,0.015351006127893923,-0.004476122500747442
1782986200252807400,10.064807373046875,-0.021281272959709167,-0.010267711514234543,-0.0375065777041018
1782986200262882600,10.074882568359374,-0.09051379913985728,0.004184884469211101,0.004070756570249795
1782986200272956400,10.084956298828125,-0.13408639888465404,0.033443712179362775,-0.016564985027536748
1782986200283030500,10.095030517578126,-0.13905249685943125,0.05634674112200737,-0.05117226109355688
1782986200293104400,10.1051044921875,-0.13904022189974785,0.056631403282284734,-0.04522628523595631
1782986200303179500,10.115179443359375,-0.12031681672930716,0.03678337799608707,-0.03406790849231183
1782986200313253400,10.12525341796875,-0.08537059103250504,0.06054185472428798,-0.034830709558352824
1782986200323327500,10.135327392578125,-0.007784078004956245,0.05292056606560945,0.010979220784455537
1782986200333402400,10.14540234375,0.012234043151140211,0.07425181564688682,0.007355258133634924
1782986200343476500,10.1554765625,-0.009358779975771904,0.05972118599116802,0.01332666069343686
1782986200353550300,10.16555029296875,-0.0071627312362194055,0.0640720746770501,0.0012685586310923098
1782986200363625500,10.17562548828125,0.04938742350339889,0.07295271574705839,-0.010236074266955256
1782986200373699300,10.18569921875,0.09582944120466709,0.0695645346134901,0.004629267235845327
1782986200383773400,10.1957734375,0.1543260538369417,0.0637654929459095,0.01748662991710007
1782986200393848300,10.205848388671875,0.21311726550161839,0.056036652259528634,0.02179989000633359
1782986200403922400,10.21592236328125,0.14820318704247473,0.11324790125638245,0.038184330835193396
1782986200413996500,10.22599658203125,0.08005436444580555,0.13174275836795568,0.06260090614594518
1782986200424070400,10.2360703125,0.04707213229835033,0.05770224738419055,0.05332030597291886
1782986200434145500,10.2461455078125,0.00431084893643856,0.0743921009004116,-0.011233633936941623
1782986200444219400,10.256219482421875,0.015068974316120146,0.062164779751002784,-0.04730265311859548
1782986200454293500,10.26629345703125,0.06482932278513907,0.007358253808319568,-0.03828333423025906
1782986200464368400,10.276368408203124,0.11188684203624724,0.03180149793028831,-0.007087912434339523
1782986200474442500,10.2864423828125,0.18149813840091228,0.06538900249451399,0.030976299152523278
1782986200484516400,10.296516357421876,0.19304244572222232,0.059013037721812725,0.11385047025941311
1782986200494591500,10.306591552734375,0.09061492142677306,0.05257394458502531,0.11679543767012655
1782986200504665300,10.316665283203125,-0.06764087307453155,0.06606266397237777,0.04602963750809431
1782986200514739500,10.326739501953124,-0.16568740580677985,0.0710720165669918,-0.03083184918053448
1782986200524814300,10.336814453125,-0.11723638637065886,0.056630526499450204,-0.050755862312391396
1782986200534888400,10.346888427734376,-0.03860299463868141,0.04095715654939413,0.013094313242286442
1782986200544962300,10.35696240234375,0.03947217868864536,0.02257423537969589,0.09200089589245616
1782986200555036700,10.36703662109375,0.06895370923876762,0.03803951553702354,0.08603431563824415
1782986200565111300,10.377111328125,0.011292962908744812,0.034438860696554184,0.011819032609462737
1782986200575185700,10.387185546875,0.013356909701228142,0.018247896613180638,-0.04954312552176415
1782986200585259500,10.397259521484376,0.021299977660179138,0.022767712125182152,-0.05043737094774842
1782986200595334700,10.407334716796875,0.036873978888988496,0.04831920974999666,-0.041326866644620895
1782986200605408500,10.417408447265625,0.039538229662179944,0.09355272844433785,0.001672755517810583
1782986200615482600,10.427482666015624,0.042860067561268804,0.05734481224864721,0.10350918205231427
1782986200625557800,10.437557861328125,0.13694295735955236,-0.031553952910006046,0.11680880860835313
1782986200635631600,10.447631591796876,0.13976327547729014,-0.009353811539709567,0.020830971908941863
1782986200645705500,10.45770556640625,0.2065156752794981,-0.020826807190477848,-0.2058879718352109
1782986200655780600,10.467780517578126,0.29471710582375527,-0.007776186959445476,-0.2840677015155554
1782986200665854500,10.4778544921875,0.2461643795788288,-0.0439624758452177,-0.18726232795082032
1782986200675928600,10.487928466796875,0.09260404941737652,-0.05246493125259876,-0.18350429059155285
1782986200686002400,10.49800244140625,-0.1112836154460907,0.01956307086497545,-0.2804291258174926
