time,seconds_elapsed,z,y,x
1782986190249010200,0.06101025390625,0.10972411185503006,0.13590289652347565,0.09331068396568298
1782986190259085000,0.0710849609375,0.09199225157499313,0.09530940651893616,0.041942037642002106
1782986190269159200,0.0811591796875,0.06723102182149887,0.0638274997472763,0.016347788274288177
1782986190279233000,0.09123291015625,0.04974896460771561,0.03491276130080223,0.005441877990961075
1782986190289308200,0.10130810546875,0.035842571407556534,0.018155543133616447,0.025432508438825607
1782986190299382000,0.111382080078125,0.01752295345067978,0.02058754302561283,0.06346458196640015
1782986190309456100,0.1214560546875,0.0061393072828650475,0.01050720363855362,0.08330865204334259
1782986190319531000,0.131531005859375,0.008041869848966599,0.009382550604641438,0.09430377930402756
1782986190329605000,0.141605224609375,0.021398205310106277,0.021333446726202965,0.11052796244621277
1782986190339679000,0.151678955078125,0.03305140137672424,0.018513958901166916,0.11461538821458817
1782986190349754000,0.161754150390625,0.035518184304237366,-0.025647297501564026,0.10695865005254745
1782986190359828000,0.171827880859375,0.037679072469472885,-0.04962826520204544,0.08159710466861725
1782986190369902000,0.181902099609375,0.05838261544704437,-0.025007257238030434,0.05528166517615318
1782986190379977000,0.19197705078125,0.0779067799448967,0.0029322318732738495,0.02408646233379841
1782986190390051000,0.202051025390625,0.08555805683135986,-0.0061359950341284275,-0.016046427190303802
1782986190400125000,0.212125,0.0843481793999672,-0.00024215318262577057,-0.051803894340991974
1782986190410200000,0.222199951171875,0.08784256130456924,0.027582144364714622,-0.06582564115524292
1782986190420274000,0.23227392578125,0.08046773076057434,0.038191646337509155,-0.0645609050989151
1782986190430348000,0.24234814453125,0.06120212748646736,0.022625839337706566,-0.07258892059326172
1782986190440423000,0.2524228515625,0.036614760756492615,0.0030047346372157335,-0.07654957473278046
1782986190450497000,0.2624970703125,0.018230028450489044,-0.0072349379770457745,-0.06270891427993774
1782986190460571100,0.272571044921875,0.009740404784679413,-0.0018090137746185064,-0.03572976216673851
1782986190470646000,0.28264599609375,0.006350524257868528,-0.00038789049722254276,-0.016478747129440308
1782986190480720100,0.29272021484375,0.014512846246361732,-0.000046473462134599686,-0.008806446567177773
1782986190490794000,0.3027939453125,0.0326634906232357,0.012026462703943253,0.0028729327023029327
1782986190500868000,0.3128681640625,0.04817773401737213,0.02500937320291996,0.012279218062758446
1782986190510943000,0.32294287109375,0.051001615822315216,0.026010693982243538,0.008221272379159927
1782986190521017000,0.33301708984375,0.049543801695108414,0.0065824007615447044,-0.005764051340520382
1782986190531092000,0.343092041015625,0.0378616563975811,0.004101522732526064,-0.008209514431655407
1782986190541166000,0.353166015625,0.02342040091753006,0.01405375637114048,-0.0012448151828721166
1782986190551240000,0.363239990234375,0.014020189642906189,0.012614358216524124,-0.011500323191285133
1782986190561314000,0.37331396484375,0.015740858390927315,0.02360868640244007,-0.024268846958875656
1782986190571389000,0.383388916015625,0.0250412430614233,0.03267816826701164,-0.03670341894030571
1782986190581463000,0.393463134765625,0.03513755276799202,0.016745541244745255,-0.051967062056064606
1782986190591538200,0.4035380859375,0.03591221570968628,-0.006105407141149044,-0.06651531904935837
1782986190601612000,0.413612060546875,0.029744869098067284,-0.005214845761656761,-0.06038444861769676
1782986190611686100,0.42368603515625,0.021122511476278305,0.011308451183140278,-0.02722999081015587
1782986190621761000,0.433760986328125,0.01296791061758995,0.025089778006076813,0.007032908033579588
1782986190631835100,0.443835205078125,0.010849365964531898,0.0275939479470253,0.03323228657245636
1782986190641909200,0.4539091796875,0.016607385128736496,0.02381332591176033,0.045426901429891586
1782986190651983400,0.4639833984375,0.027492107823491096,0.00012169498950242996,0.029487797990441322
1782986190662058200,0.474058349609375,0.03423576429486275,-0.015390685759484768,-0.008452661335468292
1782986190672132400,0.48413232421875,0.03230736777186394,-0.006457644514739513,-0.02907964214682579
1782986190682206200,0.494206298828125,0.019785236567258835,0.014130947180092335,-0.03140384331345558
1782986190692281300,0.50428125,0.009859793819487095,0.011462174355983734,-0.029801979660987854
1782986190702355200,0.514355224609375,0.011752769351005554,0.0075555830262601376,-0.01853015087544918
1782986190712429300,0.52442919921875,0.0149496765807271,0.0012124271597713232,-0.002786402590572834
1782986190722504200,0.534504150390625,0.016320141032338142,-0.011755302548408508,-0.007056515198200941
1782986190732578300,0.544578369140625,0.020993750542402267,-0.0016111605800688267,-0.007053141016513109
1782986190742652200,0.554652099609375,0.026118203997612,0.01643708162009716,0.00343465362675488
1782986190752727300,0.564727294921875,0.027446884661912918,0.017876682803034782,0.006860189605504274
1782986190762801200,0.57480126953125,0.026122495532035828,0.011431301012635231,0.0012286691926419735
1782986190772875000,0.584875,0.02510170452296734,0.013596984557807446,-0.0014970761258155107
1782986190782950100,0.5949501953125,0.029761971905827522,0.007683434523642063,-0.013315385207533836
1782986190793024000,0.60502392578125,0.03561871498823166,0.0017804144881665707,-0.03166947886347771
1782986190803098000,0.61509814453125,0.039198268204927444,-0.0056428806856274605,-0.039891455322504044
1782986190813173000,0.625173095703125,0.036522116512060165,-0.01042079646140337,-0.035405002534389496
1782986190823247000,0.6352470703125,0.028455933555960655,-0.009713194333016872,-0.018733084201812744
1782986190833321200,0.6453212890625,0.020975006744265556,-0.012237093411386013,-0.002663865452632308
1782986190843396000,0.65539599609375,0.02111002989113331,-0.016689099371433258,0.010598676279187202
1782986190853470200,0.66547021484375,0.029209822416305542,-0.00875734444707632,0.009589692577719688
1782986190863544300,0.67554443359375,0.04085742309689522,-0.011688153259456158,0.008454120717942715
1782986190873619200,0.685619140625,0.03266718238592148,-0.010531684383749962,-0.005905052646994591
1782986190883693300,0.695693359375,0.020184680819511414,-0.004244760610163212,-0.01351237203925848
1782986190893767200,0.70576708984375,0.014089022763073444,-0.007295183837413788,-0.02794410102069378
1782986190903842300,0.71584228515625,0.0025647254660725594,-0.022848844528198242,-0.0502917505800724
1782986190913916200,0.725916259765625,-0.008964789099991322,-0.044712044298648834,-0.08185817301273346
1782986190923990300,0.735990234375,-0.0052552721463143826,-0.042737044394016266,-0.09578117728233337
1782986190934065200,0.746065185546875,0.0049826884642243385,-0.028986774384975433,-0.08392788469791412
1782986190944139300,0.75613916015625,0.009762530215084553,-0.017667807638645172,-0.05642276257276535
1782986190954213000,0.766213134765625,0.005272606387734413,-0.01594999060034752,-0.03450482711195946
1782986190964288300,0.776288330078125,0.0006853118538856506,-0.011556039564311504,-0.00685535604134202
1782986190974362000,0.786362060546875,0.008972514420747757,0.004930995404720306,0.030911168083548546
1782986190984436200,0.796436279296875,0.008454795926809311,0.014660587534308434,0.0570405088365078
1782986190994511000,0.806510986328125,0.005793657619506121,0.00047538429498672485,0.06354310363531113
1782986191004585200,0.816585205078125,0.011014518328011036,-0.016504131257534027,0.05490514263510704
1782986191014659000,0.8266591796875,0.020100468769669533,-0.029056956991553307,0.04085197672247887
1782986191024734200,0.836734130859375,0.021274123340845108,-0.03255555033683777,0.01955866999924183
1782986191034808000,0.84680810546875,0.015344416722655296,-0.03176623582839966,0.0021016534883528948
1782986191044882200,0.856882080078125,0.010880691930651665,-0.014116136357188225,0.003304336918517947
1782986191054957000,0.86695703125,0.013739162124693394,-0.007000514771789312,0.007736781612038612
1782986191065031200,0.87703125,0.010847235098481178,-0.00474242027848959,0.008729341439902782
1782986191075105300,0.887105224609375,0.006010144017636776,0.006721786223351955,0.018964286893606186
1782986191085180200,0.89718017578125,0.004588282201439142,0.020996063947677612,0.028509588912129402
1782986191095254300,0.907254150390625,0.00199896190315485,0.012020171619951725,0.03161293640732765
1782986191105328000,0.917328125,0.004142274148762226,0.0015733898617327213,0.0392380990087986
1782986191115403300,0.9274033203125,0.008358944207429886,-0.0070928484201431274,0.03798481822013855
1782986191125477000,0.93747705078125,0.006946669891476631,-0.019842466339468956,0.02270573191344738
1782986191135551200,0.94755126953125,0.001489003305323422,-0.025921091437339783,0.000445226818555966
1782986191145626000,0.957626220703125,-0.002997624222189188,-0.012584513053297997,-0.015382738783955574
1782986191155700200,0.9677001953125,-0.005281558260321617,-0.0010190355824306607,-0.02800520695745945
1782986191165774000,0.977774169921875,-0.002068720990791917,-0.003789788344874978,-0.029119472950696945
1782986191175849200,0.98784912109375,-0.0019869832322001457,-0.024766508489847183,-0.02301979809999466
1782986191185923000,0.997923095703125,-0.004748681094497442,-0.04416497051715851,-0.005896736402064562
1782986191195997200,1.0079970703125,-0.00495108962059021,-0.0447259321808815,0.016345033422112465
1782986191206072000,1.018072021484375,-0.008589500561356544,-0.03123435750603676,0.025192055851221085
1782986191216146200,1.028146240234375,-0.010385018773376942,-0.026114394888281822,0.025018541142344475
1782986191226220000,1.038219970703125,-0.009717896580696106,-0.013365043327212334,0.00729546882212162
1782986191236295200,1.048295166015625,-0.003779782447963953,0.008745511993765831,-0.0011895446805283427
1782986191246369000,1.058369140625,-0.00007266213651746511,0.015699824318289757,-0.005761659704148769
1782986191256443100,1.068443115234375,0.004504680633544922,-0.009432617574930191,-0.011312630958855152
1782986191266518000,1.07851806640625,-0.0006916793063282967,-0.03517580032348633,-0.007844928652048111
1782986191276592000,1.088592041015625,-0.007459720596671104,-0.04005151987075806,-0.0005615456611849368
1782986191286666200,1.098666259765625,-0.00875215232372284,-0.03133179619908333,0.004999400582164526
1782986191296741000,1.1087412109375,0.0012072875397279859,-0.014677378349006176,0.007516378536820412
1782986191306815200,1.118815185546875,0.009836727753281593,0.002903212793171406,0.012931117787957191
1782986191316889300,1.128889404296875,0.014452710747718811,0.008751505985856056,0.009828430600464344
1782986191326964200,1.138964111328125,0.01721201092004776,-0.0024396302178502083,0.012248444370925426
1782986191337038300,1.149038330078125,0.017640288919210434,-0.011146171018481255,0.01905474066734314
1782986191347112200,1.1591123046875,0.017566785216331482,-0.008670762181282043,0.02808791771531105
1782986191357187300,1.169187255859375,0.012829801067709923,-0.001570309977978468,0.03000323474407196
1782986191367261200,1.17926123046875,0.012782663106918335,0.0006417117547243834,0.030205635353922844
1782986191377335000,1.1893349609375,0.014943207614123821,-0.0038202721625566483,0.014906722120940685
1782986191387410200,1.19941015625,0.01970760151743889,-0.011303754523396492,0.004073249641805887
1782986191397484000,1.209484130859375,0.02515285834670067,-0.01314108818769455,-0.004640643484890461
1782986191407558100,1.21955810546875,0.028257571160793304,-0.013197546824812889,0.0012145820073783398
1782986191417633000,1.229633056640625,0.029097454622387886,-0.007130191661417484,0.01970186084508896
1782986191427707100,1.23970703125,0.02532774955034256,-0.007304362021386623,0.03511890396475792
1782986191437781000,1.249781005859375,0.02404329739511013,-0.005897240713238716,0.04677779972553253
1782986191447856000,1.259856201171875,0.020877065137028694,-0.0007213868666440248,0.04744625464081764
1782986191457930000,1.269929931640625,0.015104386024177074,0.000016336794942617416,0.03715832158923149
1782986191468004400,1.28000439453125,0.0068733543157577515,-0.002885443391278386,0.014547285623848438
1782986191478078200,1.290078125,-0.005516232922673225,-0.008527779951691628,-0.016554618254303932
1782986191488153300,1.3001533203125,-0.010838293470442295,-0.0014557552058249712,-0.04747018963098526
1782986191498227200,1.310227294921875,-0.01462952047586441,0.029249919578433037,-0.07411757856607437
1782986191508302300,1.32030224609375,-0.00924274418503046,0.08359039574861526,-0.11320719122886658
1782986191518376200,1.330376220703125,0.007794382516294718,0.12009216845035553,-0.16427436470985413
1782986191528450300,1.3404501953125,0.023090247064828873,0.11743912845849991,-0.21381688117980957
1782986191538525200,1.350525146484375,0.037849925458431244,0.1006489098072052,-0.2346741110086441
1782986191548599300,1.360599365234375,0.03365623950958252,0.07045318931341171,-0.22531762719154358
1782986191558673200,1.370673095703125,0.024424541741609573,0.010475882329046726,-0.19917967915534973
1782986191568748300,1.380748291015625,0.020235657691955566,-0.03668896481394768,-0.16538922488689423
1782986191578822100,1.390822265625,0.007994693703949451,-0.03760572522878647,-0.12857037782669067
1782986191588895700,1.400895751953125,-0.012592339888215065,-0.016108952462673187,-0.10978469997644424
1782986191598970600,1.410970703125,-0.030936293303966522,0.002848835429176688,-0.09210838377475739
1782986191609044700,1.421044677734375,-0.04350561276078224,0.02449713833630085,-0.07012531906366348
1782986191619118600,1.43111865234375,-0.04870689660310745,0.029895814135670662,-0.06481955945491791
1782986191629192700,1.441192626953125,-0.049678150564432144,0.025585755705833435,-0.06129273399710655
1782986191639267600,1.451267578125,-0.04777051880955696,0.023458126932382584,-0.04419829696416855
1782986191649341700,1.461341796875,-0.03973842412233353,0.044298164546489716,-0.012346088886260986
1782986191659415800,1.471415771484375,-0.03497768193483353,0.05923143029212952,0.02235075645148754
1782986191669490700,1.48149072265625,-0.028271306306123734,0.04627275466918945,0.04886465519666672
1782986191679564800,1.491564697265625,-0.02531321533024311,0.04369359463453293,0.05635444447398186
1782986191689638700,1.501638671875,-0.02332410030066967,0.0631415992975235,0.05975876376032829
1782986191699713800,1.5117138671875,-0.026017414405941963,0.06997361034154892,0.04543938860297203
1782986191709787600,1.52178759765625,-0.024899685755372047,0.05898008123040199,0.025593247264623642
1782986191719861800,1.53186181640625,-0.021887432783842087,0.0362606905400753,0.010785332880914211
1782986191729936600,1.5419365234375,-0.017594151198863983,0.028821153566241264,0.00956933293491602
1782986191740010800,1.5520107421875,-0.01351700909435749,0.03258528187870979,0.018554868176579475
1782986191750084600,1.562084716796875,-0.003408182645216584,0.029295746237039566,0.026056991890072823
1782986191760159700,1.57215966796875,0.01746963895857334,0.015511861070990562,0.023945461958646774
1782986191770233600,1.582233642578125,0.03967560827732086,-0.011745858937501907,0.016018828377127647
1782986191780307700,1.5923076171875,0.06038996949791908,-0.04271053522825241,0.010118506848812103
1782986191790382600,1.602382568359375,0.07910879701375961,-0.07246949523687363,0.005989808589220047
1782986191800456700,1.612456787109375,0.08296304941177368,-0.08152656257152557,0.007329169660806656
1782986191810530600,1.622530517578125,0.0799262523651123,-0.07418102025985718,0.012929530814290047
1782986191820605700,1.632605712890625,0.08045607805252075,-0.07129939645528793,0.015601537190377712
1782986191830679600,1.642679443359375,0.07943635433912277,-0.08587993681430817,0.010899193584918976
1782986191840754000,1.65275390625,0.08477733284235,-0.09692396968603134,0.012255161069333553
1782986191850828500,1.66282861328125,0.0838385671377182,-0.11220412701368332,0.021121090278029442
1782986191860903000,1.67290283203125,0.07842420786619186,-0.12692153453826904,0.03666652366518974
1782986191870976800,1.682976806640625,0.0705990418791771,-0.11405234783887863,0.06064562872052193
1782986191881052000,1.693052001953125,0.059743911027908325,-0.08979089558124542,0.07694070786237717
1782986191891125800,1.703125732421875,0.04158701002597809,-0.057664915919303894,0.07036110013723373
1782986191901200000,1.713199951171875,0.027974890545010567,-0.016221411526203156,0.045031122863292694
1782986191911274800,1.723274658203125,0.015138986520469189,0.025351865217089653,0.009518401697278023
1782986191921348900,1.733348876953125,0.011597072705626488,0.046894922852516174,-0.031858064234256744
1782986191931422700,1.743422607421875,0.016155339777469635,0.06440920382738113,-0.06003590673208237
1782986191941497900,1.753497802734375,0.022599874064326286,0.06743885576725006,-0.0713215246796608
1782986191951571700,1.76357177734375,0.029511842876672745,0.0671970397233963,-0.05446930229663849
1782986191961645600,1.7736455078125,0.02530229091644287,0.06813715398311615,-0.018464403226971626
1782986191971720700,1.783720703125,0.01341607142239809,0.06480953842401505,0.02207530103623867
1782986191981794600,1.793794677734375,0.00451356777921319,0.061182089149951935,0.0509498231112957
1782986191991868700,1.80386865234375,0.0016743714222684503,0.0494665764272213,0.06902549415826797
1782986192001943800,1.81394384765625,0.003012835280969739,0.02978541888296604,0.06990987807512283
1782986192012017700,1.824017578125,0.004529772326350212,0.02596990577876568,0.05989639088511467
1782986192022091500,1.834091552734375,0.009797278791666031,0.04448220506310463,0.04729010909795761
1782986192032166700,1.844166748046875,0.02242625504732132,0.059070199728012085,0.0380830280482769
1782986192042240500,1.854240478515625,0.028873726725578308,0.061940692365169525,0.03611462935805321
1782986192052315000,1.86431494140625,0.02720685489475727,0.057370442897081375,0.04369531571865082
1782986192062389500,1.874389404296875,0.02883194573223591,0.0398869514465332,0.042689885944128036
1782986192072464000,1.8844638671875,0.03221655264496803,0.023288799449801445,0.04728037491440773
1782986192082537700,1.894537841796875,0.03277233988046646,0.03164267912507057,0.04653385654091835
1782986192092611800,1.90461181640625,0.026998072862625122,0.014847718179225922,0.042105551809072495
1782986192102686700,1.914686767578125,0.022823233157396317,0.0085335997864604,0.03717447444796562
1782986192112760800,1.9247607421875,0.018134739249944687,0.04026249796152115,0.040257085114717484
1782986192122834700,1.934834716796875,0.016573484987020493,0.06607623398303986,0.04480387270450592
1782986192132909800,1.944909912109375,0.019049692898988724,0.0552012175321579,0.03862134367227554
1782986192142983700,1.954983642578125,0.022229889407753944,0.030793074518442154,0.044533997774124146
1782986192153057800,1.965057861328125,0.02400834858417511,0.019354799762368202,0.06564513593912125
1782986192163132700,1.975132568359375,0.022371375933289528,0.020534193143248558,0.08416233956813812
1782986192173206800,1.985206787109375,0.023392964154481888,0.018178360536694527,0.09418914467096329
1782986192183280600,1.99528076171875,0.03227856755256653,0.012432162649929523,0.09576209634542465
1782986192193355800,2.005355712890625,0.03824564814567566,0.0025712763890624046,0.08419892191886902
1782986192203429600,2.0154296875,0.04145510867238045,-0.0031542996875941753,0.07042798399925232
1782986192213503500,2.02550341796875,0.038608722388744354,-0.011484933085739613,0.04805103316903114
1782986192223578600,2.03557861328125,0.030600858852267265,-0.040361419320106506,0.021566813811659813
1782986192233652500,2.045652587890625,0.023628702387213707,-0.04981217905879021,0.005450959783047438
1782986192243726800,2.055726806640625,0.018414795398712158,-0.02360358275473118,0.0015192476566880941
1782986192253801700,2.0658017578125,0.018408669158816338,-0.002636249642819166,-0.00328908977098763
1782986192263875800,2.075875732421875,0.018976110965013504,0.0037581429351121187,-0.002087322762235999
1782986192273949700,2.08594970703125,0.022345542907714844,0.023294560611248016,0.007813511416316032
1782986192284024800,2.09602490234375,0.01706145703792572,0.040339305996894836,0.013392803259193897
1782986192294098700,2.1060986328125,0.023585133254528046,0.04397531971335411,0.015649033710360527
1782986192304172800,2.1161728515625,0.030623091384768486,0.047962673008441925,0.019198786467313766
1782986192314247700,2.12624755859375,0.025514349341392517,0.04767611622810364,0.029366202652454376
1782986192324321800,2.13632177734375,0.02169628255069256,0.029231611639261246,0.041231948882341385
1782986192334395600,2.146395751953125,0.017119906842708588,0.019726524129509926,0.047191835939884186
1782986192344470800,2.156470703125,0.016253579407930374,0.0171565730124712,0.05177726596593857
1782986192354544600,2.166544677734375,0.019887464120984077,0.023973733186721802,0.039775997400283813
1782986192364618800,2.17661865234375,0.027068883180618286,0.029025960713624954,0.020495418459177017
1782986192374693600,2.186693603515625,0.03196750208735466,0.03147260844707489,-0.005651763174682856
1782986192384767700,2.196767822265625,0.039782024919986725,0.018657302483916283,-0.029639501124620438
1782986192394841600,2.206841552734375,0.03674042969942093,0.027503257617354393,-0.0510806106030941
1782986192404916700,2.216916748046875,0.0333513580262661,0.04531877115368843,-0.05297015607357025
1782986192414990600,2.226990478515625,0.02896380051970482,0.05205124244093895,-0.03663912042975426
1782986192425064700,2.237064697265625,0.026038438081741333,0.03861916810274124,-0.018604544922709465
1782986192435139600,2.2471396484375,0.032316308468580246,0.02013123780488968,0.004017677158117294
1782986192445213700,2.257213623046875,0.030533311888575554,0.02219456247985363,0.022307049483060837
1782986192455287800,2.267287841796875,0.03443297743797302,0.014066595584154129,0.030790282413363457
1782986192465362700,2.27736279296875,0.03606898710131645,-0.01028918381780386,0.013731850311160088
1782986192475436800,2.287436767578125,0.03937210515141487,-0.0019614791963249445,0.0016717250691726804
1782986192485511000,2.297510986328125,0.04096158966422081,0.04629501700401306,-0.004573623649775982
1782986192495584800,2.307584716796875,0.034065332263708115,0.06891510635614395,-0.01349414698779583
1782986192505660000,2.317659912109375,0.026758279651403427,0.06816525012254715,0.001945585012435913
1782986192515733800,2.327733642578125,0.026516996324062347,0.05967110022902489,0.019484365358948708
1782986192525807600,2.3378076171875,0.025395207107067108,0.03970934450626373,0.033994898200035095
1782986192535882800,2.3478828125,0.025333687663078308,0.014638343825936317,0.03653422370553017
1782986192545956600,2.35795654296875,0.0274167712777853,-0.01286969892680645,0.032629165798425674
1782986192556030700,2.36803076171875,0.02830653265118599,-0.008241390809416771,0.025968333706259727
1782986192566105600,2.378105712890625,0.021058298647403717,0.03055948205292225,0.01889791153371334
1782986192576179700,2.3881796875,0.012990251183509827,0.047938473522663116,0.007537131663411856
1782986192586253800,2.39825390625,0.0031703775748610497,0.045986905694007874,-0.0035496074706315994
1782986192596329000,2.408328857421875,-0.0039117662236094475,0.03616117686033249,-0.009433595463633537
1782986192606402800,2.41840283203125,-0.01195921003818512,0.025196069851517677,-0.018136663362383842
1782986192616477000,2.428476806640625,-0.01641654223203659,0.007278854958713055,-0.025059551000595093
1782986192626551800,2.4385517578125,-0.02348148450255394,-0.00738346204161644,-0.025043068453669548
1782986192636626000,2.4486259765625,-0.03093780390918255,-0.005471578799188137,-0.011272662319242954
1782986192646700000,2.458699951171875,-0.04051732271909714,0.028936639428138733,0.0040396591648459435
1782986192656775000,2.46877490234375,-0.04670970141887665,0.044833846390247345,0.02053474634885788
1782986192666849000,2.47884912109375,-0.04818747937679291,0.02998734824359417,0.027373628690838814
1782986192676923100,2.488923095703125,-0.04572591930627823,0.008670875802636147,0.03360942378640175
1782986192686998000,2.498998046875,-0.04834004119038582,-0.002620789222419262,0.035693131387233734
1782986192697072000,2.509072021484375,-0.06139751896262169,-0.002395752351731062,0.039243392646312714
1782986192707146000,2.51914599609375,-0.06949695944786072,0.003871092339977622,0.03513271361589432
1782986192717221000,2.52922119140625,-0.06565561890602112,0.001773320371285081,0.03334546461701393
1782986192727295000,2.539294921875,-0.06382040679454803,0.018595870584249496,0.03541865199804306
1782986192737369000,2.549369140625,-0.06726786494255066,0.04255020245909691,0.03204256296157837
1782986192747444000,2.55944384765625,-0.06058020517230034,0.03087647631764412,0.029761333018541336
1782986192757518000,2.56951806640625,-0.05149829387664795,0.01324368640780449,0.02032814919948578
1782986192767592000,2.579592041015625,-0.040015000849962234,0.003122051013633609,0.014080779626965523
1782986192777667000,2.5896669921875,-0.036351289600133896,-0.006327110342681408,-0.001966096693649888
1782986192787741000,2.599740966796875,-0.033293455839157104,-0.021488461643457413,-0.009937610477209091
1782986192797814800,2.609814697265625,-0.02208021655678749,-0.027400147169828415,-0.012867088429629803
1782986192807890000,2.619889892578125,-0.020707307383418083,-0.0030724755488336086,-0.006887020077556372
1782986192817964000,2.629964111328125,-0.019383184611797333,0.0274761114269495,0.005402935668826103
1782986192828038000,2.640037841796875,-0.016179461032152176,0.035855427384376526,0.02483007125556469
1782986192838112000,2.650112060546875,-0.00542827881872654,0.0228717178106308,0.03699219599366188
1782986192848187000,2.660186767578125,-0.0057041822001338005,-0.005544478073716164,0.035391636192798615
1782986192858261000,2.670260986328125,-0.011772993952035904,-0.031854644417762756,0.022051863372325897
1782986192868335000,2.680335205078125,-0.01065786276012659,-0.04317224398255348,0.0031186144333332777
1782986192878410000,2.690409912109375,-0.01146053895354271,-0.04972095787525177,-0.021758239716291428
1782986192888484000,2.700484130859375,-0.014449688605964184,-0.046856533735990524,-0.045569323003292084
1782986192898558000,2.710557861328125,-0.02210121788084507,-0.03167864680290222,-0.06190675124526024
1782986192908633000,2.720633056640625,-0.019742049276828766,-0.01515222154557705,-0.06689650565385818
1782986192918707000,2.73070703125,-0.01585170440375805,-0.0024899558629840612,-0.05234818533062935
1782986192928781000,2.740781005859375,-0.013174852356314659,-0.00364867877215147,-0.030612502247095108
1782986192938856000,2.75085595703125,-0.011540470644831657,-0.018732823431491852,-0.007472295314073563
1782986192948930000,2.760929931640625,-0.010639425367116928,-0.024003824219107628,0.014673897065222263
1782986192959004000,2.77100390625,-0.01483417022973299,-0.009440327994525433,0.04187489300966263
1782986192969079000,2.7810791015625,-0.01057756133377552,-0.007355215027928352,0.06066680699586868
1782986192979153000,2.79115283203125,-0.002509248908609152,-0.022050004452466965,0.0575714148581028
1782986192989227000,2.80122705078125,0.007722755894064903,-0.045858487486839294,0.047722455114126205
1782986192999302000,2.811302001953125,0.015321020968258381,-0.06806285679340363,0.021420544013381004
1782986193009376000,2.8213759765625,0.020608320832252502,-0.08862050622701645,0.004771849140524864
1782986193019449900,2.831449951171875,0.030799705535173416,-0.10894868522882462,-0.00857617985457182
1782986193029525000,2.84152490234375,0.0384393110871315,-0.13763514161109924,-0.013390550389885902
1782986193039598800,2.851598876953125,0.04444979876279831,-0.1554681956768036,-0.013709597289562225
1782986193049673000,2.8616728515625,0.03908519074320793,-0.1426575481891632,0.00037289533065631986
1782986193059747800,2.871747802734375,0.02757873758673668,-0.11304426938295364,0.016182484105229378
1782986193069822000,2.881822021484375,0.018344003707170486,-0.09171875566244125,0.030841389670968056
1782986193079896000,2.89189599609375,0.0182499960064888,-0.0961420014500618,0.03291759267449379
1782986193089971000,2.901970947265625,0.01531154103577137,-0.09244009107351303,0.024685876443982124
1782986193100045000,2.912045166015625,0.014306731522083282,-0.08349266648292542,0.012852652929723263
1782986193110119000,2.922118896484375,0.01740846410393715,-0.0715068057179451,-0.007001684512943029
1782986193120194000,2.932194091796875,0.020374692976474762,-0.05452462285757065,-0.02278464287519455
1782986193130268000,2.942267822265625,0.013886909931898117,-0.03664768859744072,-0.029987916350364685
1782986193140342000,2.952342041015625,0.009357139468193054,-0.017201555892825127,-0.018575206398963928
1782986193150416000,2.962415771484375,0.00499795563519001,-0.016655318439006805,-0.016005031764507294
1782986193160491000,2.972490966796875,0.0009749846067279577,-0.02932264469563961,-0.009583617560565472
1782986193170564900,2.98256494140625,-0.0036268990952521563,-0.0390632189810276,-0.004866545554250479
1782986193180639000,2.992638916015625,-0.003303591161966324,-0.04223664477467537,0.00334717589430511
1782986193190713900,3.0027138671875,0.003050632541999221,-0.03790140524506569,0.010606302879750729
1782986193200788000,3.0127880859375,0.0033899194095283747,-0.029387280344963074,0.012855076231062412
1782986193210861800,3.02286181640625,0.0017387213883921504,-0.009660851210355759,0.02200324833393097
1782986193220937000,3.03293701171875,-0.000057580647990107536,0.0021071257069706917,0.0304915402084589
1782986193231010800,3.0430107421875,-0.0011464457493275404,0.0049542211927473545,0.034290287643671036
1782986193241085000,3.0530849609375,-0.003167518647387624,-0.0101296566426754,0.03496060520410538
1782986193251159800,3.063159912109375,-0.0004808762460015714,-0.03509521484375,0.034642159938812256
1782986193261234000,3.07323388671875,-0.0004893983714282513,-0.05170055851340294,0.02860291115939617
1782986193271308000,3.08330810546875,0.0029816976748406887,-0.05791294574737549,0.029236776754260063
1782986193281383000,3.0933828125,0.009169818833470345,-0.06432690471410751,0.03236386179924011
1782986193291457000,3.10345703125,0.014604568481445312,-0.07717464864253998,0.03601936995983124
1782986193301531100,3.11353125,0.018192913383245468,-0.08085647225379944,0.0520516000688076
1782986193311606000,3.12360595703125,0.024263635277748108,-0.08379290252923965,0.07265188544988632
1782986193321680100,3.13368017578125,0.022909417748451233,-0.09432943165302277,0.0980651006102562
1782986193331754000,3.14375390625,0.01736520230770111,-0.10043629258871078,0.11443028599023819
1782986193341829000,3.1538291015625,0.01802992820739746,-0.10743322223424911,0.12520837783813477
1782986193351903000,3.163903076171875,0.009013637900352478,-0.08464586734771729,0.11481674015522003
1782986193361976800,3.173976806640625,0.005631689913570881,-0.035173919051885605,0.0806015133857727
1782986193372052000,3.184052001953125,0.009923749603331089,0.005643568001687527,0.03396453335881233
1782986193382125800,3.194125732421875,0.023666726425290108,0.029848504811525345,-0.01065912563353777
1782986193392200000,3.204199951171875,0.03460576757788658,0.03642599657177925,-0.034060824662446976
1782986193402274800,3.21427490234375,0.033597759902477264,0.02378823608160019,-0.04872312396764755
1782986193412349000,3.224348876953125,0.035580113530159,-0.008105799555778503,-0.03986414894461632
1782986193422422800,3.2344228515625,0.03856098651885986,-0.029176197946071625,-0.019505346193909645
1782986193432497200,3.2444970703125,0.0399056151509285,-0.03891324624419212,0.0016992732416838408
1782986193442571800,3.25457177734375,0.042603135108947754,-0.03601998835802078,0.015742655843496323
1782986193452646100,3.264646240234375,0.04825038090348244,-0.01676126755774021,0.019843680784106255
1782986193462720000,3.274719970703125,0.05409016087651253,-0.0008789746789261699,0.008897023275494576
1782986193472795100,3.284795166015625,0.05585102736949921,0.00876692309975624,-0.005131468642503023
1782986193482869000,3.294868896484375,0.059335775673389435,0.01880704052746296,-0.0010831974213942885
1782986193492943000,3.304943115234375,0.05442420020699501,0.0123812947422266,-0.002819435903802514
1782986193503018000,3.31501806640625,0.04423414543271065,-0.01325589045882225,0.0013300353894010186
1782986193513092000,3.325092041015625,0.03224692866206169,-0.027821553871035576,0.006298198830336332
1782986193523166000,3.335166015625,0.01929198019206524,-0.03283202648162842,0.010743015445768833
1782986193533241000,3.345240966796875,0.009149312041699886,-0.037867333739995956,0.007982355542480946
1782986193543315000,3.35531494140625,0.0025127148255705833,-0.033698953688144684,0.010731270536780357
1782986193553389000,3.36538916015625,0.0012064720503985882,-0.012964773923158646,0.008790410123765469
1782986193563464000,3.3754638671875,-0.003265507984906435,-0.0028961601201444864,0.005272108595818281
1782986193573538000,3.3855380859375,-0.0012375894002616405,-0.0005636215209960938,0.0021483690943568945
1782986193583612000,3.39561181640625,0.011967694386839867,-0.0020347516983747482,-0.0038370853289961815
1782986193593686500,3.4056865234375,0.02632766216993332,0.0005151729565113783,0.00034398434218019247
1782986193603760400,3.415760498046875,0.029808415099978447,-0.007511327974498272,0.005276424810290337
1782986193613834500,3.42583447265625,0.02443183958530426,-0.02275140956044197,0.013693196699023247
1782986193623909400,3.435909423828125,0.015201854519546032,-0.030786965042352676,0.016632262617349625
1782986193633983500,3.4459833984375,0.00801614485681057,-0.03267525136470795,0.02161335200071335
1782986193644057600,3.4560576171875,-0.0022069322876632214,-0.03428273648023605,0.015229221433401108
1782986193654132500,3.466132568359375,-0.0040242732502520084,-0.03775523230433464,0.01037268154323101
1782986193664206600,3.47620654296875,0.0042767999693751335,-0.03847375139594078,-0.0018906428012996912
1782986193674280700,3.48628076171875,0.012393485754728317,-0.04053816571831703,-0.014822563156485558
1782986193684355600,3.49635546875,0.010636065155267715,-0.027335012331604958,-0.02139364741742611
1782986193694429700,3.5064296875,0.0054384395480155945,-0.013430611230432987,-0.033314794301986694
1782986193704503600,3.516503662109375,0.0012221229262650013,0.000007166760042309761,-0.037415795028209686
1782986193714577400,3.526577392578125,-0.004533299244940281,0.02824835479259491,-0.038642942905426025
1782986193724652500,3.536652587890625,-0.003245661035180092,0.03470093011856079,-0.03510413318872452
1782986193734726400,3.546726318359375,-0.0009059780277311802,0.01779005117714405,-0.02512459270656109
1782986193744800500,3.556800537109375,0.009656917303800583,-0.002069940324872732,-0.010689993388950825
1782986193754875600,3.566875732421875,0.01862441562116146,-0.026742756366729736,0.0004578901862259954
1782986193764949500,3.576949462890625,0.0253523588180542,-0.047971609979867935,0.005141058936715126
1782986193775023400,3.5870234375,0.033285561949014664,-0.05130106210708618,0.011476052924990654
1782986193785098500,3.597098388671875,0.03639480471611023,-0.045554228127002716,0.009893869049847126
1782986193795172400,3.60717236328125,0.038093097507953644,-0.0383884459733963,0.0018616389716044068
1782986193805246500,3.61724658203125,0.0364704355597496,-0.038342107087373734,-0.019319545477628708
1782986193815321300,3.6273212890625,0.02967650443315506,-0.03192835673689842,-0.03759646415710449
1782986193825395700,3.637395751953125,0.014717262238264084,-0.012071829289197922,-0.05364254117012024
1782986193835469600,3.647469482421875,-0.0008774515008553863,0.020139651373028755,-0.06709743291139603
1782986193845544700,3.657544677734375,-0.005855698604136705,0.040707509964704514,-0.07794981449842453
1782986193855618600,3.66761865234375,-0.027219468727707863,0.032391007989645004,-0.0797591358423233
1782986193865692700,3.677692626953125,-0.033190540969371796,0.02406836301088333,-0.06635171175003052
1782986193875767600,3.687767578125,-0.032214175909757614,0.015329698100686073,-0.046222805976867676
1782986193885841700,3.697841552734375,-0.029813338071107864,-0.001404541078954935,-0.02307620644569397
1782986193895915500,3.70791552734375,-0.025985831394791603,-0.01067677978426218,0.000947524094954133
1782986193905990700,3.71799072265625,-0.02072049491107464,-0.006221843417733908,0.023956170305609703
1782986193916064500,3.728064453125,-0.015489181503653526,-0.00006298208609223366,0.030546925961971283
1782986193926138600,3.738138671875,-0.010806012898683548,-0.008205064572393894,0.032539237290620804
1782986193936212500,3.74821240234375,-0.00991048850119114,-0.005580448545515537,0.028588293120265007
1782986193946287600,3.75828759765625,-0.014028001576662064,0.012617196887731552,0.017069322988390923
1782986193956361500,3.768361572265625,-0.017153330147266388,0.025214720517396927,0.016421746462583542
1782986193966435300,3.778435302734375,-0.017555467784404755,0.029403073713183403,0.02127722091972828
1782986193976510500,3.788510498046875,-0.02124922350049019,0.03503457084298134,0.03847146034240723
1782986193986584300,3.798584228515625,-0.019542936235666275,0.0371541790664196,0.04955234006047249
1782986193996658700,3.80865869140625,-0.014940399676561356,0.01999814808368683,0.0538606271147728
1782986194006733600,3.818733642578125,0.0013858424499630928,-0.0006445461185649037,0.050666965544223785
1782986194016807700,3.8288076171875,0.008932017721235752,-0.0035785322543233633,0.04735029488801956
1782986194026881500,3.838881591796875,0.007268608082085848,-0.003586788196116686,0.03838023543357849
1782986194036956700,3.848956787109375,0.009246070869266987,-0.006685339845716953,0.030058618634939194
1782986194047030500,3.859030517578125,0.012250915169715881,-0.010686740279197693,0.02479834295809269
1782986194057104600,3.869104736328125,0.0059502990916371346,-0.004071997012943029,0.01883070170879364
1782986194067179500,3.879179443359375,-0.00039601384196430445,-0.01113070547580719,-0.0002151617663912475
1782986194077253600,3.889253662109375,-0.003265569917857647,-0.01954682730138302,-0.018887648358941078
1782986194087327500,3.899327392578125,-0.0027710208669304848,-0.02852247841656208,-0.039387866854667664
1782986194097402600,3.909402587890625,-0.00471088383346796,-0.037884894758462906,-0.04693102464079857
1782986194107476500,3.9194765625,-0.004825133830308914,-0.020599648356437683,-0.04989192634820938
1782986194117550600,3.929550537109375,-0.0007003394421190023,-0.0034015376586467028,-0.03690235689282417
1782986194127625500,3.93962548828125,0.0021156868897378445,-0.013793458230793476,-0.013947504572570324
1782986194137699600,3.949699462890625,-0.00621074577793479,-0.0315602570772171,0.007526536006480455
1782986194147773400,3.9597734375,-0.01964719220995903,-0.05512044578790665,0.011712226085364819
1782986194157848600,3.9698486328125,-0.026079023256897926,-0.06974136084318161,0.001796299358829856
1782986194167922400,3.97992236328125,-0.023306937888264656,-0.06472955644130707,-0.01680454984307289
1782986194177996500,3.98999658203125,-0.01715250127017498,-0.04758528247475624,-0.030912434682250023
1782986194188070700,4.000070556640625,-0.013843788765370846,-0.02494601346552372,-0.041818346828222275
1782986194198145500,4.0101455078125,-0.007212766446173191,-0.0016707151662558317,-0.04315362870693207
1782986194208219600,4.0202197265625,-0.006288650445640087,0.018950406461954117,-0.037547141313552856
1782986194218293500,4.03029345703125,0.0005416686180979013,0.01642707921564579,-0.018170751631259918
1782986194228368600,4.04036865234375,0.006604887545108795,0.011066669598221779,0.010276070795953274
1782986194238442800,4.05044287109375,0.016623275354504585,-0.0003124675713479519,0.03707921877503395
1782986194248516600,4.0605166015625,0.020321074873209,-0.012636511586606503,0.04867222532629967
1782986194258591700,4.070591796875,0.020392198115587234,-0.013687590137124062,0.04809354618191719
1782986194268665600,4.08066552734375,0.015650972723960876,-0.005012075882405043,0.045702025294303894
1782986194278739500,4.090739501953125,0.008929325267672539,0.004857935477048159,0.030602294951677322
1782986194288814600,4.100814697265625,0.008192961104214191,0.007145857438445091,0.0013940749922767282
1782986194298888400,4.110888427734375,0.009824303910136223,-0.007988905534148216,-0.021511005237698555
1782986194308962600,4.120962646484375,0.010106333531439304,-0.0060400040820240974,-0.02906799130141735
1782986194319037400,4.131037353515625,0.006328670773655176,0.0072165606543421745,-0.01914127729833126
1782986194329111600,4.141111572265625,-0.0014019530499354005,0.025674397125840187,0.0024369859602302313
1782986194339185400,4.151185302734375,-0.0032799674663692713,0.026075977832078934,0.02034148760139942
1782986194349260500,4.161260498046875,0.0020921609830111265,0.006174442358314991,0.030647387728095055
1782986194359334400,4.17133447265625,0.002895055804401636,-0.004040342755615711,0.04510761424899101
1782986194369408500,4.181408447265625,-0.0002751711872406304,-0.010264149866998196,0.05759384483098984
1782986194379483400,4.1914833984375,-0.006759593263268471,-0.023000966757535934,0.0606519840657711
1782986194389557500,4.2015576171875,-0.003484970424324274,-0.037930913269519806,0.058614932000637054
1782986194399631600,4.211631591796875,0.0031512996647506952,-0.03219452500343323,0.04906727746129036
1782986194409705700,4.221705810546875,0.01626177504658699,-0.021424436941742897,0.042730819433927536
1782986194419780600,4.231780517578125,0.021294554695487022,-0.01830299012362957,0.04647206515073776
1782986194429854700,4.241854736328125,0.012804664671421051,-0.020877201110124588,0.0484212301671505
1782986194439928600,4.251928466796875,0.002507704310119152,-0.010271161794662476,0.05210501328110695
1782986194450003700,4.262003662109375,-0.00019593670731410384,0.01229806337505579,0.05934694781899452
1782986194460077600,4.27207763671875,-0.0022572046145796776,0.029032906517386436,0.06973916292190552
1782986194470151700,4.282151611328125,-0.0063001494854688644,0.020697476342320442,0.07852546125650406
1782986194480226600,4.2922265625,-0.0020977903623133898,0.009906596504151821,0.08265173435211182
1782986194490300700,4.30230078125,0.0053840940818190575,0.003495302051305771,0.06992581486701965
1782986194500374500,4.31237451171875,0.012641050852835178,-0.0013263329165056348,0.03893304616212845
1782986194510449700,4.32244970703125,0.015231773257255554,-0.00215138029307127,0.00910244695842266
1782986194520524500,4.332524658203125,0.004722408019006252,0.016006585210561752,-0.012065689079463482
1782986194530598700,4.3425986328125,-0.006321720778942108,0.04415300115942955,-0.020899927243590355
1782986194540672500,4.352672607421875,-0.014768892899155617,0.05384186655282974,-0.027462458238005638
1782986194550747600,4.36274755859375,-0.009835653007030487,0.030333077535033226,-0.0339355394244194
1782986194560821500,4.372821533203125,-0.00972555298358202,-0.0017119372496381402,-0.0318107046186924
1782986194570895400,4.382895263671875,-0.008396635763347149,-0.027866575866937637,-0.028823433443903923
1782986194580970500,4.392970458984375,-0.0017406126717105508,-0.033030252903699875,-0.016504207625985146
1782986194591044900,4.403044921875,0.005362038034945726,-0.025383252650499344,-0.0016325825126841664
1782986194601118700,4.41311865234375,0.00723480386659503,-0.01846286840736866,0.012421630322933197
1782986194611192800,4.42319287109375,0.003308771178126335,-0.013872644864022732,0.030886393040418625
1782986194621268000,4.43326806640625,-0.005303376819938421,-0.007287516724318266,0.03739752992987633
1782986194631341800,4.443341796875,-0.005848259199410677,-0.01569937728345394,0.037260908633470535
1782986194641416000,4.453416015625,-0.0119090024381876,-0.024259185418486595,0.02754155360162258
1782986194651490800,4.46349072265625,-0.014025949873030186,-0.020350730046629906,0.014789539389312267
1782986194661565000,4.47356494140625,-0.01348433829843998,-0.004707194399088621,0.00042606465285643935
1782986194671639000,4.48363916015625,-0.011331439018249512,0.007214445620775223,-0.017128961160779
1782986194681714000,4.4937138671875,-0.00738736055791378,0.029930371791124344,-0.03032808192074299
1782986194691788000,4.5037880859375,-0.0009068247163668275,0.023315345868468285,-0.039806801825761795
1782986194701862000,4.51386181640625,0.003712004516273737,0.0141588831320405,-0.034264735877513885
1782986194711937000,4.52393701171875,0.01020905189216137,0.013572721742093563,-0.012917634099721909
1782986194722011000,4.534010986328125,0.009478390216827393,0.019093472510576248,0.018452567979693413
1782986194732085000,4.5440849609375,0.012036355212330818,0.019614651799201965,0.05248403921723366
1782986194742160000,4.554159912109375,0.0202985480427742,0.021643169224262238,0.08366340398788452
1782986194752234000,4.56423388671875,0.027591615915298462,0.026742324233055115,0.09817762672901154
1782986194762307800,4.574307861328125,0.03194671496748924,0.030631763860583305,0.10149583965539932
1782986194772383000,4.584383056640625,0.03320052847266197,0.025386400520801544,0.09405816346406937
1782986194782456800,4.594456787109375,0.03432656079530716,0.021444901823997498,0.0831720307469368
1782986194792531000,4.604531005859375,0.028290772810578346,0.0027718814089894295,0.057570528239011765
1782986194802604800,4.614604736328125,0.038385141640901566,0.0059041548520326614,0.02461765520274639
1782986194812680000,4.624679931640625,0.03768845647573471,0.005643697455525398,0.002442578785121441
1782986194822753800,4.63475390625,0.02553068846464157,0.003687014803290367,-0.010326738469302654
1782986194832828000,4.644827880859375,0.021413175389170647,-0.0005569984205067158,-0.006506699603050947
1782986194842902800,4.65490283203125,0.01955629326403141,-0.0013882704079151154,0.005022202152758837
1782986194852977200,4.66497705078125,0.01762949675321579,0.003299692180007696,0.022152720019221306
1782986194863051000,4.675051025390625,0.01812971569597721,0.004542182199656963,0.03662099316716194
1782986194873126100,4.685126220703125,0.020927365869283676,0.0026745074428617954,0.04185543581843376
1782986194883200000,4.695199951171875,0.029106514528393745,0.0041469428688287735,0.035842619836330414
1782986194893273900,4.70527392578125,0.035782527178525925,0.0025309366174042225,0.028202811256051064
1782986194903349000,4.715348876953125,0.03787458315491676,-0.0009645515820011497,0.021225007250905037
1782986194913422800,4.7254228515625,0.031923748552799225,-0.003759805578738451,0.016655288636684418
1782986194923497000,4.7354970703125,0.030446479097008705,-0.005542611703276634,0.011295522563159466
1782986194933571800,4.74557177734375,0.02860783226788044,-0.01598779670894146,0.005814469885081053
1782986194943646000,4.75564599609375,0.029592761769890785,-0.025652462616562843,-0.0064698862843215466
1782986194953719800,4.7657197265625,0.02944974973797798,-0.023907558992505074,-0.0052008903585374355
1782986194963795000,4.775794921875,0.023844139650464058,-0.018846364691853523,-0.005879079457372427
1782986194973868800,4.785868896484375,0.01881156489253044,-0.018144087865948677,-0.0033567994832992554
1782986194983943000,4.79594287109375,0.02333267219364643,-0.01843268610537052,-0.007810614537447691
1782986194994017800,4.806017822265625,0.030454497784376144,-0.01291701290756464,-0.0038065521512180567
1782986195004092000,4.816091796875,0.037440091371536255,-0.021810799837112427,0.004079253412783146
1782986195014165800,4.826165771484375,0.032506320625543594,-0.023171141743659973,0.01569170132279396
1782986195024240000,4.836240234375,0.0317545123398304,-0.021656084805727005,0.02896716259419918
1782986195034314800,4.846314697265625,0.0330117903649807,-0.012752603739500046,0.029190868139266968
1782986195044389000,4.85638916015625,0.036259058862924576,-0.003937149420380592,0.01613270677626133
1782986195054463000,4.866462890625,0.038849782198667526,0.0032635056413710117,0.00269386381842196
1782986195064538000,4.8765380859375,0.03995389863848686,0.018491581082344055,-0.007684257347136736
1782986195074612000,4.886612060546875,0.03466646000742912,0.028113048523664474,-0.01271470170468092
1782986195084685800,4.896685791015625,0.03586278110742569,0.0356036052107811,-0.003205304266884923
1782986195094761000,4.906760986328125,0.03485956788063049,0.03135319799184799,0.007552268449217081
1782986195104835000,4.9168349609375,0.04197337478399277,0.03266465663909912,0.024126136675477028
1782986195114909000,4.926908935546875,0.04582536965608597,0.03883440047502518,0.041675303131341934
1782986195124984000,4.936984130859375,0.05126551538705826,0.05027775838971138,0.058315031230449677
1782986195135058000,4.947057861328125,0.05090119689702988,0.04997815191745758,0.07443541288375854
1782986195145131800,4.9571318359375,0.05929499864578247,0.03903358802199364,0.0791344940662384
1782986195155207000,4.96720703125,0.061484381556510925,0.04062216356396675,0.07348699867725372
1782986195165280800,4.97728076171875,0.06527914106845856,0.04704338312149048,0.06522776186466217
1782986195175355000,4.98735498046875,0.07282759994268417,0.06368787586688995,0.06174993887543678
1782986195185429800,4.9974296875,0.0734601616859436,0.09008171409368515,0.06414034962654114
1782986195195503900,5.00750390625,0.0785776898264885,0.1034553050994873,0.06920408457517624
1782986195205577700,5.01757763671875,0.09580234438180923,0.12239207327365875,0.07270047813653946
1782986195215652900,5.02765283203125,0.09386809170246124,0.12596364319324493,0.082615427672863
1782986195225726700,5.037726806640625,0.08457747846841812,0.11981087177991867,0.09787414222955704
1782986195235801000,5.047801025390625,0.0833020955324173,0.10891774296760559,0.11168237030506134
1782986195245875000,5.057875,0.08297456800937653,0.09644187986850739,0.11509527266025543
1782986195255950000,5.0679501953125,0.07870978116989136,0.08408108353614807,0.11098787933588028
1782986195266024000,5.07802392578125,0.08887635171413422,0.08220651745796204,0.10611942410469055
1782986195276098000,5.08809814453125,0.07871372997760773,0.0750519335269928,0.07638335973024368
1782986195286173000,5.0981728515625,0.0702061727643013,0.06695997714996338,0.04565101116895676
1782986195296247000,5.1082470703125,0.06638240814208984,0.07719743251800537,0.013063774444162846
1782986195306321000,5.11832080078125,0.06294841319322586,0.08819815516471863,-0.01022307388484478
1782986195316396000,5.12839599609375,0.05967645347118378,0.11312028020620346,-0.024149009957909584
1782986195326470000,5.138469970703125,0.0569772943854332,0.1367097795009613,-0.023537348955869675
1782986195336544000,5.1485439453125,0.052808649837970734,0.1340215802192688,-0.025645507499575615
1782986195346619000,5.158618896484375,0.04379541426897049,0.11718066036701202,-0.02822761982679367
1782986195356693000,5.16869287109375,0.0323219858109951,0.09626445919275284,-0.027971424162387848
1782986195366766800,5.178766845703125,0.023670827969908714,0.07225457578897476,-0.030134791508316994
1782986195376842000,5.188842041015625,0.010491377674043179,0.05873023718595505,-0.02651022933423519
1782986195386915800,5.198915771484375,0.0005052437772974372,0.0615280345082283,-0.014839842915534973
1782986195396989700,5.20898974609375,-0.00215152557939291,0.07975337654352188,0.009837008081376553
1782986195407064800,5.21906494140625,-0.006237613502889872,0.09138979017734528,0.03398042544722557
1782986195417138700,5.229138671875,-0.008671476505696774,0.07956189662218094,0.05042091757059097
1782986195427213000,5.239213134765625,-0.0029088943265378475,0.0636507198214531,0.040755290538072586
1782986195437287700,5.24928759765625,0.009209020994603634,0.03363156318664551,0.02478697896003723
1782986195447362000,5.259362060546875,0.021560871973633766,-0.002015096368268132,0.014688835479319096
1782986195457436000,5.269435791015625,0.022626668214797974,-0.022427160292863846,0.010208332911133766
1782986195467510000,5.279510009765625,0.02214089035987854,-0.03551160916686058,0.007330229971557856
1782986195477585000,5.2895849609375,0.021549668163061142,-0.042523711919784546,0.008465535938739777
1782986195487659000,5.299658935546875,0.02145732194185257,-0.03397492319345474,0.005363447591662407
1782986195497732900,5.30973291015625,0.01820799894630909,-0.01784762181341648,-0.0011098976247012615
1782986195507808000,5.31980810546875,0.011447965167462826,-0.005519654136151075,-0.018175093457102776
1782986195517881900,5.3298818359375,0.009468171745538712,-0.0025837854482233524,-0.04215899109840393
1782986195527956000,5.3399560546875,0.01187956053763628,-0.009373019449412823,-0.06019967049360275
1782986195538030800,5.35003076171875,0.006700245197862387,0.001108383759856224,-0.05222110450267792
1782986195548105000,5.36010498046875,0.004170398693531752,0.007536971941590309,-0.03716229274868965
1782986195558178800,5.3701787109375,0.006801069248467684,0.010660593397915363,-0.014634878374636173
1782986195568254000,5.38025390625,0.011192793026566505,0.0031103258952498436,-0.0009758006199263036
1782986195578327800,5.390327880859375,0.01971117965877056,-0.01595630869269371,0.003170208539813757
1782986195588402200,5.400402099609375,0.01771828904747963,-0.02454444020986557,0.004028609022498131
1782986195598477300,5.410477294921875,0.015015448443591595,-0.028023328632116318,-0.001871091895736754
1782986195608551200,5.42055126953125,0.006764113437384367,-0.026248903945088387,-0.008912716992199421
1782986195618625300,5.430625244140625,0.00045987870544195175,-0.00999376829713583,-0.0036178205627948046
1782986195628700200,5.4407001953125,-0.0023781429044902325,0.011326184496283531,0.013609932735562325
1782986195638774300,5.450774169921875,-0.0034716366790235043,0.009100315161049366,0.02826664038002491
1782986195648848400,5.460848388671875,-0.0012498546857386827,-0.008273025043308735,0.031277600675821304
1782986195658922200,5.470922119140625,0.010602010414004326,-0.026310348883271217,0.02685382589697838
1782986195668997400,5.480997314453125,0.020542792975902557,-0.03600558638572693,0.007931800559163094
1782986195679071200,5.4910712890625,0.021614449098706245,-0.03529159352183342,-0.006435154937207699
1782986195689145300,5.501145263671875,0.012199625372886658,-0.026427868753671646,-0.025888770818710327
1782986195699220200,5.51122021484375,0.003802145831286907,-0.014189045876264572,-0.03542155772447586
1782986195709294300,5.52129443359375,0.0005435805069282651,-0.0013615393545478582,-0.038345590233802795
1782986195719368200,5.5313681640625,0.005421692505478859,0.005047890357673168,-0.030826954171061516
1782986195729443300,5.541443359375,0.012089024297893047,0.005166145041584969,-0.021509720012545586
1782986195739517200,5.55151708984375,0.024323053658008575,-0.006479325704276562,-0.014362062327563763
1782986195749591300,5.56159130859375,0.02902838960289955,-0.004189758561551571,0.002263880567625165
1782986195759666200,5.571666259765625,0.01884792372584343,-0.0009071460226550698,0.013308808207511902
1782986195769740300,5.581740234375,-0.0008297496824525297,-0.00015242211520671844,0.011713276617228985
1782986195779814100,5.591814208984375,-0.02287646383047104,0.011115945875644684,0.007314534392207861
1782986195789889300,5.60188916015625,-0.03295784443616867,0.032327305525541306,-0.009784934110939503
1782986195799963100,5.611963134765625,-0.03762583062052727,0.04306410625576973,-0.027814002707600594
1782986195810037200,5.622037353515625,-0.02646198496222496,0.03603114187717438,-0.052081845700740814
1782986195820112100,5.632112060546875,-0.014917715452611446,0.01829954795539379,-0.07076419144868851
1782986195830186200,5.642186279296875,-0.008031328208744526,0.012500962242484093,-0.06919334083795547
1782986195840260400,5.65226025390625,-0.005393200553953648,0.021431073546409607,-0.056151047348976135
1782986195850334500,5.66233447265625,0.002470189705491066,0.01778831146657467,-0.03920567408204079
1782986195860409300,5.672409423828125,0.015067740343511105,0.0008261059410870075,-0.016201021149754524
1782986195870483500,5.6824833984375,0.022754138335585594,-0.014024551026523113,0.0056797512806952
1782986195880557300,5.692557373046875,0.019871532917022705,-0.03174282982945442,0.016835467889904976
1782986195890632400,5.702632568359375,0.02153162471950054,-0.0466073639690876,0.02963176928460598
1782986195900706300,5.712706298828125,0.016876686364412308,-0.044757530093193054,0.04243757948279381
1782986195910780200,5.7227802734375,0.0055475980043411255,-0.034897975623607635,0.05004436522722244
1782986195920855300,5.732855224609375,-0.0051950616762042046,-0.02729065902531147,0.05075729265809059
1782986195930929200,5.74292919921875,-0.010111430659890175,-0.03360241651535034,0.034961163997650146
1782986195941003300,5.753003173828125,-0.010113827884197235,-0.042764224112033844,0.016006112098693848
1782986195951078100,5.763078125,-0.010496335104107857,-0.03568698838353157,-0.00441765459254384
1782986195961152300,5.77315234375,-0.00849923025816679,-0.028626415878534317,-0.017354492098093033
1782986195971226000,5.78322607421875,-0.013695767149329185,-0.02919664978981018,-0.017574729397892952
1782986195981301200,5.79330126953125,-0.015625759959220886,-0.03390325605869293,-0.00820279959589243
1782986195991375000,5.803375,-0.028510568663477898,-0.04752540588378906,0.002299120184034109
1782986196001449500,5.813449462890625,-0.035763952881097794,-0.053014446049928665,0.011002862825989723
1782986196011524000,5.823524169921875,-0.04124433174729347,-0.05785137414932251,0.01551766600459814
1782986196021598500,5.833598388671875,-0.044871557503938675,-0.044043947011232376,0.02005808986723423
1782986196031672300,5.84367236328125,-0.047599323093891144,-0.02356155961751938,0.021016592159867287
1782986196041746400,5.853746337890625,-0.043756648898124695,-0.010355209931731224,0.01796887069940567
1782986196051821300,5.8638212890625,-0.038952335715293884,-0.012598814442753792,0.01038720365613699
1782986196061895400,5.8738955078125,-0.026315102353692055,-0.036205340176820755,-0.007942268624901772
1782986196071969300,5.88396923828125,-0.02111710049211979,-0.06855318695306778,-0.03177402541041374
1782986196082044400,5.89404443359375,-0.015527390874922276,-0.09897340834140778,-0.055982958525419235
1782986196092118300,5.9041181640625,-0.020370757207274437,-0.11466120183467865,-0.08177641779184341
1782986196102192400,5.9141923828125,-0.01973079890012741,-0.10942382365465164,-0.10468226671218872
1782986196112267300,5.924267333984375,-0.016781896352767944,-0.08275128901004791,-0.11102021485567093
1782986196122341400,5.93434130859375,-0.012090471573174,-0.05487970635294914,-0.11476408690214157
1782986196132415200,5.944415283203125,-0.014396158047020435,-0.05249791964888573,-0.10946827381849289
1782986196142490400,5.954490478515625,-0.013224633410573006,-0.027434110641479492,-0.09269515424966812
1782986196152564200,5.964564208984375,-0.012528091669082642,-0.010840918868780136,-0.06244252249598503
1782986196162638000,5.97463818359375,-0.006168995518237352,-0.01357731781899929,-0.033276114612817764
1782986196172713200,5.984713134765625,0.003971961326897144,-0.02064928412437439,-0.006341442931443453
1782986196182787000,5.994787109375,0.011130272410809994,-0.02678627334535122,0.012956887483596802
1782986196192861400,6.004861328125,0.017471054568886757,-0.035900093615055084,0.02930719219148159
1782986196202936300,6.014936279296875,0.012860325165092945,-0.038797877728939056,0.02954474650323391
1782986196213010400,6.025010498046875,0.010907616466283798,-0.030124086886644363,0.02619250863790512
1782986196223084300,6.035084228515625,0.00814725086092949,-0.01650468073785305,0.011423415504395962
1782986196233158400,6.045158447265625,0.006465620826929808,-0.012739787809550762,-0.00484852958470583
1782986196243233300,6.0552333984375,0.005525524728000164,-0.002982231555506587,-0.01787058636546135
1782986196253307400,6.065307373046875,0.002478476148098707,0.013033928349614143,-0.022570589557290077
1782986196263381200,6.07538134765625,0.0015753982588648796,0.02999214082956314,-0.011030048131942749
1782986196273456400,6.085456298828125,0.002560908906161785,0.03188261762261391,0.0036126228515058756
1782986196283530200,6.0955302734375,0.0038568032905459404,0.025731246918439865,0.019141249358654022
1782986196293604400,6.105604248046875,0.003101465990766883,0.004494888242334127,0.03346896171569824
1782986196303679200,6.11567919921875,0.003959003835916519,-0.021980928257107735,0.03074135072529316
1782986196313753300,6.12575341796875,0.001968685071915388,-0.040932685136795044,0.024878857657313347
1782986196323827200,6.1358271484375,0.0016001038020476699,-0.0340108647942543,0.01743132807314396
1782986196333902300,6.14590234375,-0.0008703396888449788,-0.02282712422311306,0.00016684453294146806
1782986196343976200,6.15597607421875,-0.005877614952623844,-0.021938694640994072,-0.01839485578238964
1782986196354050300,6.16605029296875,-0.009262774139642715,-0.01995578035712242,-0.034416455775499344
1782986196364125200,6.176125244140625,-0.013709720224142075,-0.021957412362098694,-0.048561569303274155
1782986196374199300,6.18619921875,-0.008697165176272392,-0.021098509430885315,-0.04614735022187233
1782986196384273400,6.1962734375,-0.008712878450751305,-0.02413398027420044,-0.03868544101715088
1782986196394348300,6.206348388671875,-0.014100264757871628,-0.028706753626465797,-0.03240475803613663
1782986196404422400,6.21642236328125,-0.018467050045728683,-0.03797109052538872,-0.029630010947585106
1782986196414496300,6.226496337890625,-0.022127049043774605,-0.03344326838850975,-0.02498588152229786
1782986196424570400,6.2365703125,-0.021539023146033287,-0.020640652626752853,-0.01710026152431965
1782986196434645200,6.246645263671875,-0.023248707875609398,-0.013265245594084263,-0.012657481245696545
1782986196444719400,6.25671923828125,-0.01808430626988411,-0.00933841522783041,-0.012970935553312302
1782986196454793200,6.266793212890625,-0.007209601812064648,-0.010869964957237244,-0.006689008790999651
1782986196464868400,6.276868408203125,0.0013644451973959804,-0.013020467013120651,-0.010088534094393253
1782986196474942200,6.286942138671875,0.009509770199656487,-0.011339514516294003,-0.006617432460188866
1782986196485016300,6.297016357421875,0.014165774919092655,-0.005920248106122017,-0.010148783214390278
1782986196495091200,6.30709130859375,0.016684703528881073,0.0053121838718652725,-0.013622313737869263
1782986196505165300,6.317165283203125,0.018127869814634323,0.026092829182744026,-0.01835634745657444
1782986196515239200,6.3272392578125,0.021156635135412216,0.037485599517822266,-0.015069945715367794
1782986196525314300,6.337314208984375,0.025548987090587616,0.039516791701316833,-0.013258996419608593
1782986196535388200,6.34738818359375,0.03507121279835701,0.03134428337216377,-0.001660788431763649
1782986196545462300,6.357462158203125,0.033908743411302567,0.017632998526096344,0.011263798922300339
1782986196555537200,6.367537109375,0.03193220868706703,0.004746012855321169,0.02655469812452793
1782986196565611300,6.377611328125,0.02674250490963459,0.0059542884118855,0.04067957028746605
1782986196575685400,6.387685302734375,0.02256309613585472,0.002953954506665468,0.0436263270676136
1782986196585759700,6.397759765625,0.02443050593137741,-0.00004503130912780762,0.03493403643369675
1782986196595833900,6.407833740234375,0.026255900040268898,-0.004858910106122494,0.02820778451859951
1782986196605907700,6.41790771484375,0.024718988686800003,0.002845881273970008,0.021240955218672752
1782986196615981600,6.427981689453125,0.017030006274580956,0.008673341944813728,0.014854837208986282
1782986196626056700,6.438056640625,0.0015250808792188764,0.008129258640110493,0.002982997102662921
1782986196636130600,6.448130615234375,-0.011604100465774536,-0.0011186170158907771,-0.011699104681611061
1782986196646204700,6.45820458984375,-0.015286186710000038,-0.012720411643385887,-0.0358065702021122
1782986196656279600,6.468279541015625,-0.01733296923339367,-0.018005361780524254,-0.06016245484352112
1782986196666353700,6.478353759765625,-0.02791636995971203,-0.002998448209837079,-0.06895142048597336
1782986196676427500,6.488427490234375,-0.035198312252759933,0.013908050954341888,-0.061369627714157104
1782986196686502700,6.498502685546875,-0.039128873497247696,0.016593849286437035,-0.04721572622656822
1782986196696576500,6.508576416015625,-0.03378530219197273,0.016282478347420692,-0.026156608015298843
1782986196706650600,6.518650634765625,-0.031040383502840996,0.00831882655620575,-0.012154505588114262
1782986196716725500,6.5287255859375,-0.027952980250120163,-0.014236805029213428,-0.004444788210093975
1782986196726799600,6.538799560546875,-0.034451890736818314,-0.025796521455049515,-0.01046006940305233
1782986196736873700,6.548873779296875,-0.033810555934906006,-0.025282036513090134,-0.02534906566143036
1782986196746948600,6.558948486328125,-0.033437713980674744,-0.013712463900446892,-0.04490891844034195
1782986196757022700,6.569022705078125,-0.0328996442258358,0.000044635962694883347,-0.056212540715932846
1782986196767096800,6.579096923828125,-0.029984284192323685,0.016538390889763832,-0.05998171120882034
1782986196777170700,6.589170654296875,-0.0281133484095335,0.01623057760298252,-0.0557839460670948
1782986196787245800,6.599245849609375,-0.025907984003424644,0.01168509479612112,-0.03264853358268738
1782986196797319700,6.609319580078125,-0.01844877004623413,-0.0019110327120870352,-0.01595335453748703
1782986196807393500,6.6193935546875,-0.010560751892626286,-0.0010393800912424922,0.010593567043542862
1782986196817468700,6.62946875,-0.0052640060894191265,0.0018367581069469452,0.03590023145079613
1782986196827542800,6.639542724609375,-0.004507401958107948,0.013680368661880493,0.05391891300678253
1782986196837616600,6.64961669921875,-0.009847916662693024,0.02040259540081024,0.061649683862924576
1782986196847691800,6.65969189453125,-0.011456466279923916,0.02369586005806923,0.06363826990127563
1782986196857765600,6.669765625,-0.01277466956526041,0.01971394382417202,0.05321541801095009
1782986196867839500,6.679839599609375,-0.006813449785113335,0.01232234202325344,0.036635108292102814
1782986196877914600,6.68991455078125,-0.007528476882725954,0.01655133068561554,0.029645821079611778
1782986196887988500,6.699988525390625,-0.010206018574535847,0.023344524204730988,0.023859838023781776
1782986196898062600,6.7100625,-0.015304893255233765,0.021756291389465332,0.019807327538728714
1782986196908137500,6.720137451171875,-0.026663541793823242,0.021008741110563278,0.019946077838540077
1782986196918211600,6.730211669921875,-0.034759845584630966,0.02828967012465,0.017951326444745064
1782986196928285700,6.74028564453125,-0.040044356137514114,0.027630271390080452,0.00961989164352417
1782986196938359800,6.75035986328125,-0.04061230272054672,0.016796546056866646,0.007160359062254429
1782986196948434700,6.7604345703125,-0.03577839955687523,0.017022648826241493,0.009580640122294426
1782986196958508800,6.7705087890625,-0.032382428646087646,0.01756998896598816,0.017042411491274834
1782986196968582700,6.780582763671875,-0.03721766546368599,0.013689764775335789,0.02123289555311203
1782986196978657800,6.79065771484375,-0.03937302157282829,0.012876126915216446,0.01801823265850544
1782986196988731600,6.800731689453125,-0.044796817004680634,0.025150902569293976,0.017634738236665726
1782986196998805800,6.8108056640625,-0.04242633655667305,0.025856368243694305,0.00718356017023325
1782986197008880600,6.820880615234375,-0.03627470135688782,0.02234632335603237,-0.007711499463766813
1782986197018954800,6.830954833984375,-0.027117377147078514,0.011349301785230637,-0.01797831617295742
1782986197029028600,6.841028564453125,-0.01771215721964836,0.011907233856618404,-0.00954807922244072
1782986197039103700,6.851103759765625,-0.016615651547908783,0.009663114324212074,-0.0014297120505943894
1782986197049177600,6.861177490234375,-0.01502894051373005,0.005349059589207172,0.012220053002238274
1782986197059251700,6.871251708984375,-0.011293419636785984,0.006467647384852171,0.023456986993551254
1782986197069326600,6.88132666015625,-0.006177753210067749,-0.0025990840513259172,0.023516908288002014
1782986197079400700,6.891400634765625,-0.00772522110491991,-0.015896840021014214,0.018290730193257332
1782986197089474600,6.901474609375,-0.0025997012853622437,-0.017452126368880272,0.005197830498218536
1782986197099548700,6.911548583984375,-0.0001375481951981783,-0.0017839062493294477,-0.006848219782114029
1782986197109623600,6.92162353515625,-0.0008022731635719538,0.012985186651349068,-0.01314233522862196
1782986197119697700,6.93169775390625,-0.004716037306934595,0.013126680627465248,-0.012065459974110126
1782986197129771800,6.941771728515625,-0.0016557987546548247,0.007088229060173035,-0.005692782811820507
1782986197139846700,6.9518466796875,0.00705383438616991,0.00833048578351736,-0.0017777561442926526
1782986197149920800,6.961920654296875,0.016372766345739365,0.012239739298820496,0.012615297921001911
1782986197159994600,6.97199462890625,0.01151737105101347,0.007455228827893734,0.016284719109535217
1782986197170069800,6.98206982421875,0.014298509806394577,-0.0015827404567971826,0.024750376120209694
1782986197180143600,6.9921435546875,0.011752480641007423,0.0038006072863936424,0.028836525976657867
1782986197190217700,7.0022177734375,0.016813552007079124,0.01597205176949501,0.026780832558870316
1782986197200292600,7.012292724609375,0.015586743131279945,0.026290221139788628,0.015060024335980415
1782986197210366700,7.02236669921875,-0.013218540698289871,0.022478971630334854,0.003596980357542634
1782986197220440600,7.032440673828125,-0.023654604330658913,0.030940672382712364,-0.0065060262568295
1782986197230515700,7.042515625,-0.014427551999688148,0.0240489449352026,-0.013970866799354553
1782986197240589600,7.052589599609375,-0.014133837074041367,0.009639222174882889,-0.020015623420476913
1782986197250663700,7.06266357421875,-0.013351933099329472,-0.004607624374330044,-0.020369824022054672
1782986197260737500,7.072737548828125,-0.007949696853756905,-0.005252030678093433,-0.018592674285173416
1782986197270812700,7.082812744140625,-0.006051396485418081,-0.00470741419121623,-0.019121577963232994
1782986197280886500,7.092886474609375,-0.008260266855359077,-0.0033574197441339493,-0.013623552396893501
1782986197290960600,7.102960693359375,-0.01423693262040615,-0.004238925874233246,-0.011469854041934013
1782986197301035500,7.113035400390625,-0.020108938217163086,0.0008519652765244246,-0.008952767588198185
1782986197311110000,7.12310986328125,-0.025141779333353043,0.01428361888974905,-0.0006165402010083199
1782986197321183700,7.133183837890625,-0.021875081583857536,0.01954207755625248,0.005850242450833321
1782986197331259000,7.1432587890625,-0.01482329796999693,0.023375164717435837,0.010967506095767021
1782986197341332700,7.153332763671875,-0.007237330079078674,0.023618876934051514,0.01744384504854679
1782986197351406600,7.163406494140625,0.005385787226259708,0.020497653633356094,0.020398888736963272
1782986197361481700,7.173481689453125,0.010990377515554428,0.01228537131100893,0.017912114039063454
1782986197371555600,7.1835556640625,0.007100564427673817,-0.00719804922118783,0.006337749771773815
1782986197381629700,7.193629638671875,0.0006746553117409348,-0.02609541453421116,-0.003920034039765596
1782986197391704600,7.20370458984375,-0.013113594613969326,-0.037933431565761566,-0.02161833643913269
1782986197401778700,7.21377880859375,-0.011424778029322624,-0.0420868843793869,-0.04235754534602165
1782986197411852500,7.2238525390625,-0.009912368841469288,-0.038019437342882156,-0.052064765244722366
1782986197421926700,7.2339267578125,-0.008474525064229965,-0.03164729103446007,-0.05022997781634331
1782986197432001500,7.24400146484375,-0.005531465634703636,-0.016514677554368973,-0.04165273532271385
1782986197442075600,7.25407568359375,-0.0015363508136942983,-0.0013562181266024709,-0.024588633328676224
1782986197452149500,7.2641494140625,-0.00030277459882199764,0.002491517225280404,-0.008746286854147911
1782986197462224600,7.274224609375,0.001355906599201262,0.0009514580015093088,-0.0013689688639715314
1782986197472298500,7.284298583984375,0.0020278221927583218,0.002113928087055683,0.0012758163502439857
1782986197482372900,7.294372802734375,0.006730683613568544,-0.008769954554736614,-0.003323219483718276
1782986197492447500,7.304447509765625,0.015216314233839512,-0.01214178279042244,-0.015704521909356117
1782986197502521900,7.31452197265625,0.023361487314105034,-0.01236808393150568,-0.035126570612192154
1782986197512595700,7.324595703125,0.02609681896865368,-0.011955560185015202,-0.050352394580841064
1782986197522670800,7.3346708984375,0.018703892827033997,-0.014695161953568459,-0.05936438962817192
1782986197532744700,7.34474462890625,0.018989916890859604,-0.023020470514893532,-0.05414193123579025
1782986197542818800,7.35481884765625,0.011174934916198254,-0.034657370299100876,-0.03941163048148155
1782986197552893700,7.364893798828125,0.009882769547402859,-0.03047247976064682,-0.0225966963917017
1782986197562967800,7.3749677734375,0.01089430134743452,-0.00976075790822506,-0.01123848743736744
1782986197573041700,7.385041748046875,0.017745282500982285,0.013286503031849861,0.001379037625156343
1782986197583115500,7.395115478515625,0.031523145735263824,0.025445161387324333,0.008309513330459595
1782986197593190700,7.405190673828125,0.05112427473068237,0.0224807970225811,0.011617425829172134
1782986197603264500,7.415264404296875,0.03781804442405701,0.0014918134547770023,0.0065893554128706455
1782986197613338600,7.425338623046875,0.026805605739355087,-0.004325062967836857,0.008391516283154488
1782986197623413500,7.43541357421875,0.01785450242459774,-0.00023101689293980598,0.01631329208612442
1782986197633487600,7.445487548828125,0.011376095935702324,0.014364438131451607,0.015684785321354866
1782986197643561700,7.455561767578125,0.012161699123680592,0.02753627859055996,0.011517425067722797
1782986197653636600,7.46563671875,0.01650904305279255,0.03255048021674156,0.01114564761519432
1782986197663710700,7.475710693359375,0.014650470577180386,0.029700063169002533,0.0010205137077718973
1782986197673784800,7.485784912109375,0.013532208278775215,0.020548643544316292,0.0010439495090395212
1782986197683859700,7.495859619140625,0.011444649659097195,0.0170955341309309,0.003977428190410137
1782986197693933800,7.505933837890625,-0.0005472979974001646,0.0031669344753026962,0.006179862190037966
1782986197704007700,7.516007568359375,-0.022198641672730446,0.007965127006173134,0.018445685505867004
1782986197714082800,7.526082763671875,-0.03238869458436966,0.049369558691978455,0.02618429809808731
1782986197724156700,7.53615673828125,-0.03287981450557709,0.0805819183588028,0.011085059493780136
1782986197734230800,7.546230712890625,-0.0280283335596323,0.06499762833118439,-0.0006751933833584189
1782986197744304600,7.5563046875,-0.029283884912729263,0.03579377010464668,-0.005911577492952347
1782986197754379800,7.5663798828125,-0.025378093123435974,0.02025209181010723,0.00037854298716410995
1782986197764453600,7.57645361328125,-0.03879478946328163,0.026688389480113983,0.0019414894049987197
1782986197774527500,7.586527587890625,-0.04914036765694618,0.04361943528056145,0.005959666799753904
1782986197784602600,7.5966025390625,-0.03926051780581474,0.0459260456264019,-0.001191228860989213
1782986197794676700,7.6066767578125,-0.03346255049109459,0.04110865294933319,-0.005307943560183048
1782986197804750600,7.61675048828125,-0.028422825038433075,0.037648171186447144,-0.0015275223413482308
1782986197814825700,7.62682568359375,-0.022487439215183258,0.024655140936374664,0.004521049093455076
1782986197824899600,7.636899658203125,-0.022879671305418015,0.008412494324147701,0.012126309797167778
1782986197834973700,7.6469736328125,-0.02605229616165161,0.016475480049848557,0.02532866597175598
1782986197845048600,7.657048583984375,-0.02484220452606678,0.02837132103741169,0.03288890793919563
1782986197855122700,7.667122802734375,-0.0157025009393692,0.028601152822375298,0.02949497662484646
1782986197865196800,7.67719677734375,-0.009257419966161251,0.0356125608086586,0.023393891751766205
1782986197875270700,7.687270751953125,0.0013859029859304428,0.0255692508071661,0.014505592174828053
1782986197885345800,7.697345703125,0.009336726740002632,0.003674107138067484,0.0126050915569067
1782986197895419600,7.707419677734375,0.013302972540259361,-0.007165224757045507,0.011853281408548355
1782986197905493800,7.71749365234375,0.019054366275668144,-0.009112376719713211,0.02259811758995056
1782986197915568600,7.727568603515625,0.013288090005517006,-0.01928458735346794,0.025971543043851852
1782986197925642800,7.737642822265625,0.00930115021765232,-0.024468038231134415,0.027903251349925995
1782986197935716600,7.747716552734375,0.007809779141098261,-0.013868924230337143,0.011964499019086361
1782986197945791700,7.757791748046875,-0.00010655960068106651,-0.01145843230187893,-0.0033275119494646788
1782986197955865600,7.767865478515625,-0.006603873334825039,-0.004908121190965176,-0.02108520269393921
1782986197965939700,7.777939697265625,-0.010142682120203972,0.01121545396745205,-0.032504040747880936
1782986197976014600,7.7880146484375,-0.012859639711678028,0.013109494000673294,-0.04410343989729881
1782986197986088700,7.798088623046875,-0.004068342037498951,0.0003941832110285759,-0.05539719760417938
1782986197996162600,7.80816259765625,0.005820774473249912,-0.008419015444815159,-0.05140139162540436
1782986198006237700,7.81823779296875,0.015895992517471313,-0.01865856721997261,-0.04137493297457695
1782986198016311600,7.8283115234375,0.016219832003116608,-0.024168914183974266,-0.030255967751145363
1782986198026385700,7.8383857421875,0.011623489670455456,-0.02347463183104992,-0.019504383206367493
1782986198036459800,7.848459716796875,0.008636487647891045,-0.017291037365794182,-0.025346025824546814
1782986198046534700,7.85853466796875,0.0017255385173484683,-0.017407916486263275,-0.03750276193022728
1782986198056608800,7.86860888671875,0.005194572266191244,-0.002367449225857854,-0.04844782128930092
1782986198066682600,7.8786826171875,0.009675543755292892,0.016041867434978485,-0.05566800758242607
1782986198076757800,7.8887578125,0.011782903224229813,0.02395278960466385,-0.050753943622112274
1782986198086831600,7.89883154296875,0.014611758291721344,0.023567665368318558,-0.03131905570626259
1782986198096905700,7.90890576171875,0.019512508064508438,0.009637467563152313,-0.009619888849556446
1782986198106980600,7.918980712890625,0.020441275089979172,0.0032771348487585783,0.013282551430165768
1782986198117054700,7.9290546875,0.021914003416895866,0.004777293652296066,0.029834363609552383
1782986198127128600,7.939128662109375,0.01825408637523651,0.02380668930709362,0.04460009187459946
1782986198137203700,7.94920361328125,0.011650245636701584,0.031898174434900284,0.04538838565349579
1782986198147277600,7.959277587890625,0.005828075110912323,0.020137276500463486,0.034256286919116974
1782986198157351700,7.9693515625,0.0030021946877241135,-0.003029027720913291,0.009389284998178482
1782986198167426600,7.979426513671875,-0.002337943995371461,-0.014937461353838444,-0.011861227452754974
1782986198177499600,7.989499755859375,-0.00840782094746828,-0.011473221704363823,-0.030778992921113968
1782986198187574500,7.999574462890625,-0.015898447483778,-0.008794913068413734,-0.04797108843922615
1782986198197648600,8.009648681640625,-0.021299606189131737,0.0131940096616745,-0.05692117661237717
1782986198207722800,8.01972265625,-0.019301557913422585,0.05206168815493584,-0.05635983869433403
1782986198217796600,8.029796630859375,-0.009746404364705086,0.06838633120059967,-0.05989411845803261
1782986198227871700,8.039871826171876,0.011323273181915283,0.048627398908138275,-0.04070938751101494
1782986198237945600,8.049945556640624,0.027266288176178932,0.011837693862617016,-0.010708611458539963
1782986198248019700,8.060019775390625,0.0422823466360569,-0.03273676335811615,0.023097960278391838
1782986198258094800,8.0700947265625,0.05304205045104027,-0.07692074030637741,0.05180444195866585
1782986198268168700,8.080168701171875,0.050341371446847916,-0.0930342972278595,0.07244545221328735
1782986198278242600,8.09024267578125,0.051232997328042984,-0.06317546963691711,0.06599048525094986
1782986198288317700,8.100317626953125,0.0614260733127594,-0.010326696559786797,0.04145611822605133
1782986198298391600,8.1103916015625,0.07510700076818466,0.008993737399578094,-0.008729553781449795
1782986198308465700,8.120465576171876,0.07272453606128693,-0.031157677993178368,-0.04512285441160202
1782986198318540500,8.13054052734375,0.042020950466394424,-0.08692266792058945,-0.08169204741716385
1782986198328614700,8.14061474609375,0.010933855548501015,-0.11385662853717804,-0.10194806754589081
1782986198338688500,8.1506884765625,-0.006510915234684944,-0.07419177889823914,-0.13688181340694427
1782986198348763600,8.160763671875,0.004350333008915186,-0.030075591057538986,-0.1865408718585968
1782986198358837500,8.17083740234375,0.012393878772854805,0.0023310850374400616,-0.23573876917362213
1782986198368911600,8.18091162109375,0.014270656742155552,-0.0031321505084633827,-0.27931520342826843
1782986198378985700,8.19098583984375,0.0009814825607463717,-0.03227804973721504,-0.30298110842704773
1782986198389060600,8.201060546875,-0.00832491833716631,-0.032225511968135834,-0.2982656955718994
1782986198399134700,8.211134765625,-0.01040218397974968,0.0014751930721104145,-0.23569341003894806
1782986198409208800,8.221208740234376,-0.019396595656871796,0.007352245040237904,-0.13055676221847534
1782986198419283700,8.23128369140625,-0.03928721323609352,0.016234952956438065,-0.006638288963586092
1782986198429357800,8.24135791015625,-0.05735752731561661,0.04888599365949631,0.10590068995952606
1782986198439431700,8.251431640625,-0.06021243706345558,0.06762079894542694,0.19520926475524902
1782986198449506800,8.2615068359375,-0.05651964247226715,0.0675153061747551,0.25195837020874023
1782986198459580700,8.27158056640625,-0.049211662262678146,0.0692032128572464,0.27258002758026123
1782986198469654500,8.281654541015625,-0.047081805765628815,0.06744056940078735,0.24345135688781738
1782986198479729700,8.291729736328126,-0.046234387904405594,0.06785336136817932,0.19328325986862183
1782986198489803500,8.301803466796875,-0.05502401292324066,0.07390289753675461,0.13732339441776276
1782986198499877600,8.311877685546875,-0.04808008670806885,0.10663127899169922,0.08161672949790955
1782986198509952800,8.321952880859374,-0.030945904552936554,0.12925346195697784,0.025278259068727493
1782986198520026600,8.332026611328125,-0.017658594995737076,0.12012280523777008,-0.03399704769253731
1782986198530100500,8.3421005859375,-0.0016614743508398533,0.09435003995895386,-0.07278232276439667
1782986198540175600,8.352175537109375,0.01083381101489067,0.07224207371473312,-0.07528036832809448
1782986198550249500,8.36224951171875,0.013072327710688114,0.031855858862400055,-0.05674537643790245
1782986198560323800,8.37232373046875,0.009927666746079922,-0.0021846643649041653,-0.024929391220211983
1782986198570398500,8.3823984375,0.014387506060302258,-0.029461275786161423,0.011949562467634678
1782986198580472800,8.392472900390626,0.012632216326892376,-0.05057801306247711,0.04808359593153
1782986198590546400,8.40254638671875,0.01065090298652649,-0.06601463258266449,0.0768812745809555
1782986198600621300,8.412621337890625,0.013524720445275307,-0.07076144963502884,0.07997506856918335
1782986198610695400,8.4226953125,0.02147914282977581,-0.06399202346801758,0.07271822541952133
1782986198620769300,8.432769287109375,0.022464247420430183,-0.043703529983758926,0.0583382248878479
1782986198630844400,8.442844482421876,0.011066792532801628,-0.025112681090831757,0.03920792415738106
1782986198640918300,8.452918212890625,0.0069862972013652325,-0.029687725007534027,0.011212507262825966
1782986198650992400,8.462992431640625,0.011226925998926163,-0.04932281747460365,0.00038953841431066394
1782986198661066200,8.473066162109374,0.021786626428365707,-0.06601045280694962,-0.005447578150779009
1782986198671141400,8.483141357421875,0.03286764770746231,-0.07263143360614777,-0.011899139732122421
1782986198681215200,8.49321533203125,0.04031038656830788,-0.07501175999641418,-0.022940605878829956
1782986198691289300,8.503289306640625,0.04425404220819473,-0.06564599275588989,-0.027322368696331978
1782986198701364200,8.5133642578125,0.03760119900107384,-0.06207362934947014,-0.031877703964710236
1782986198711438300,8.523438232421874,0.03465069830417633,-0.07693745195865631,-0.02573896013200283
1782986198721512200,8.53351220703125,0.03139418736100197,-0.09954848885536194,-0.018795566633343697
1782986198731587300,8.54358740234375,0.040938373655080795,-0.1401028037071228,-0.005608731415122747
1782986198741661200,8.5536611328125,0.048816271126270294,-0.1547352820634842,0.015557007864117622
1782986198751735600,8.563735595703125,0.052088260650634766,-0.14324970543384552,0.023355456069111824
1782986198761810200,8.57381005859375,0.05288587883114815,-0.12760895490646362,0.010624215006828308
1782986198771884500,8.583884521484375,0.056915994733572006,-0.11115352064371109,-0.00367556419223547
1782986198781958400,8.59395849609375,0.05621132254600525,-0.08085287362337112,-0.02080474980175495
1782986198792032300,8.6040322265625,0.05757569149136543,-0.06769830733537674,-0.045889146625995636
1782986198802107400,8.614107421875,0.061801329255104065,-0.05758681148290634,-0.0681968480348587
1782986198812181200,8.62418115234375,0.07069671899080276,-0.040171537548303604,-0.07265286147594452
1782986198822255400,8.63425537109375,0.0749652311205864,-0.023628249764442444,-0.059574615210294724
1782986198832330200,8.644330322265626,0.07387694716453552,-0.007133256644010544,-0.043946169316768646
1782986198842404400,8.654404296875,0.07013893127441406,-0.0045984601601958275,-0.023741833865642548
1782986198852478200,8.664478271484375,0.06720785796642303,-0.013509930111467838,-0.010481421835720539
1782986198862553300,8.67455322265625,0.06844382733106613,-0.029756542295217514,0.004430150147527456
1782986198872627200,8.684627197265625,0.06474076956510544,-0.040114060044288635,0.012891107238829136
1782986198882701300,8.694701416015626,0.0644795149564743,-0.027718113735318184,0.015371842309832573
1782986198892776200,8.704776123046875,0.060197241604328156,-0.009321590885519981,0.015898488461971283
1782986198902850300,8.714850341796875,0.05578731372952461,0.010996995493769646,0.010246993973851204
1782986198912924400,8.72492431640625,0.04021145775914192,0.0318906232714653,-0.0004726345941890031
1782986198922998500,8.73499853515625,0.03163581341505051,0.05278632044792175,-0.011685075238347054
1782986198933073400,8.745073486328126,0.025014786049723625,0.05798676609992981,-0.018162095919251442
1782986198943147500,8.7551474609375,0.025420919060707092,0.04950486496090889,-0.012531108222901821
1782986198953221400,8.765221435546875,0.02231166511774063,0.029733745381236076,-0.006088145077228546
1782986198963296500,8.775296630859375,0.021263178437948227,0.011695888824760914,-0.0014779465273022652
1782986198973370400,8.785370361328125,0.02565881609916687,0.00074916728772223,0.006641373038291931
1782986198983444500,8.795444580078126,0.024066513404250145,-0.02101391926407814,0.00288764713332057
1782986198993519400,8.805519287109375,0.01768532581627369,-0.022638101130723953,-0.008497344329953194
1782986199003593500,8.815593505859376,0.014444791711866856,-0.011389174498617649,-0.01774703525006771
1782986199013667300,8.825667236328124,0.010669304989278316,-0.0056938789784908295,-0.03280390053987503
1782986199023742500,8.835742431640625,0.00287050474435091,-0.0013976676855236292,-0.0492132343351841
1782986199033816300,8.84581640625,0.0013280997518450022,0.007027177605777979,-0.04562993720173836
1782986199043890200,8.85589013671875,0.006642437539994717,0.009446393698453903,-0.03686574101448059
1782986199053965300,8.86596533203125,0.015121799893677235,0.00626108143478632,-0.013999787159264088
1782986199064039200,8.8760390625,0.018772995099425316,0.00577958207577467,0.01164938323199749
1782986199074113300,8.88611328125,0.020760763436555862,0.01271330937743187,0.029750866815447807
1782986199084187400,8.8961875,0.022748013958334923,0.02396862767636776,0.04782814159989357
1782986199094262300,8.90626220703125,0.025087177753448486,0.03315681219100952,0.05255155265331268
1782986199104336400,8.91633642578125,0.020383503288030624,0.027029680088162422,0.04922766238451004
1782986199114410500,8.926410400390624,0.015116271562874317,0.017282353714108467,0.032671406865119934
1782986199124485400,8.9364853515625,0.031124264001846313,0.009743209928274155,0.012650294229388237
1782986199134559500,8.9465595703125,0.039259281009435654,0.006162684410810471,-0.015889683738350868
1782986199144633300,8.95663330078125,0.041084613651037216,0.0009077352005988359,-0.03309397026896477
1782986199154708500,8.96670849609375,0.043593764305114746,-0.005621928256005049,-0.049250952899456024
1782986199164782300,8.9767822265625,0.039621658623218536,-0.00919855386018753,-0.05377725884318352
1782986199174856400,8.9868564453125,0.03348814696073532,-0.0070309266448020935,-0.06268258392810822
1782986199184931300,8.996931396484374,0.02895730920135975,-0.005226101726293564,-0.05533013120293617
1782986199195005400,9.00700537109375,0.019996151328086853,0.0034574156161397696,-0.03765682876110077
1782986199205079300,9.017079345703126,0.013109482824802399,0.01340006198734045,-0.013700895011425018
1782986199215153200,9.027153076171874,0.010462754406034946,0.04125526547431946,0.01526832114905119
1782986199225228300,9.037228271484375,0.01984400674700737,0.05539265647530556,0.04250473529100418
1782986199235302400,9.047302490234374,0.028844036161899567,0.039928920567035675,0.05799735710024834
1782986199245376300,9.057376220703125,0.037074267864227295,0.02281544730067253,0.06381290405988693
1782986199255451400,9.067451416015626,0.04271017387509346,0.0119434529915452,0.06680741161108017
1782986199265525200,9.077525146484374,0.0357835590839386,0.015629000961780548,0.05553611367940903
1782986199275599400,9.087599365234375,0.03140159323811531,0.0074080899357795715,0.04448825493454933
1782986199285674200,9.09767431640625,0.020944157615303993,-0.004233652725815773,0.019541362300515175
1782986199295748400,9.107748291015625,0.014297940768301487,-0.011111421510577202,-0.008810298517346382
1782986199305822500,9.117822509765626,0.004625605884939432,-0.004101182799786329,-0.01956281065940857
1782986199315897300,9.1278974609375,0.0021798028610646725,0.017572125419974327,-0.009294259361922741
1782986199325971500,9.137971435546875,0.0008623370667919517,0.038210559636354446,0.005810923874378204
1782986199336045300,9.14804541015625,0.0030578398145735264,0.043469421565532684,0.0321025624871254
1782986199346120400,9.158120361328125,0.002464221091940999,0.03533745929598808,0.05347709357738495
1782986199356194300,9.1681943359375,0.0006006475305184722,0.025344761088490486,0.06003635749220848
1782986199366268400,9.178268310546875,-0.0009349311585538089,0.006319138221442699,0.06435120850801468
1782986199376342300,9.18834228515625,-0.007458577863872051,-0.006305420771241188,0.06149595230817795
1782986199386417400,9.19841748046875,-0.011807786300778389,-0.01432153582572937,0.053889431059360504
1782986199396491300,9.2084912109375,-0.016230527311563492,-0.010926423594355583,0.04194164276123047
1782986199406565400,9.2185654296875,-0.022262055426836014,-0.008646225556731224,0.03709016367793083
1782986199416640300,9.22864013671875,-0.027057422325015068,-0.0036164429038763046,0.020104270428419113
1782986199426714400,9.23871435546875,-0.031208492815494537,0.003525622421875596,-0.002765359589830041
1782986199436788200,9.248788330078124,-0.026156464591622353,0.008091161027550697,-0.01975098066031933
1782986199446863400,9.25886328125,-0.025342335924506187,0.012603088282048702,-0.0254735816270113
1782986199456937200,9.268937255859376,-0.029248185455799103,0.01207040622830391,-0.017812689766287804
1782986199467011300,9.27901123046875,-0.03228658810257912,0.00402739318087697,-0.0030097737908363342
1782986199477086200,9.289086181640625,-0.02798476815223694,-0.0029958155937492847,0.026593413203954697
1782986199487160300,9.299160400390624,-0.030010901391506195,-0.0021854154765605927,0.05247161537408829
1782986199497234400,9.309234375,-0.02203783392906189,0.0014518662355840206,0.06348565965890884
1782986199507308300,9.319308349609376,-0.01716078631579876,0.0036705457605421543,0.05980197712779045
1782986199517383400,9.329383544921875,-0.011617479845881462,0.007220759056508541,0.04636330530047417
1782986199527457300,9.339457275390625,-0.008082134649157524,0.00842104572802782,0.03352287411689758
1782986199537531400,9.349531494140624,-0.012354664504528046,0.013943836092948914,0.02010650560259819
1782986199547606300,9.359606201171875,-0.017711346969008446,0.022859299555420876,0.01402810774743557
1782986199557680400,9.369680419921876,-0.023494945839047432,0.028659315779805183,0.01891818270087242
1782986199567754200,9.379754150390625,-0.027865726500749588,0.021197671070694923,0.018585288897156715
1782986199577829400,9.389829345703125,-0.024927759543061256,0.005000170320272446,0.014939771965146065
1782986199587903200,9.3999033203125,-0.022468863055109978,-0.006193095818161964,0.014121648855507374
1782986199597977300,9.409977294921875,-0.01686703972518444,-0.01713992841541767,0.0041325893253088
1782986199608052500,9.420052490234376,-0.006833579856902361,-0.02609294280409813,-0.008266556076705456
1782986199618126300,9.430126220703125,-0.0003907246282324195,-0.02740623988211155,-0.008958104066550732
1782986199628200400,9.440200439453125,-0.00839964859187603,-0.01754002645611763,-0.012273473665118217
1782986199638274300,9.4502744140625,-0.015936706215143204,-0.009479407221078873,-0.014828445389866829
1782986199648349400,9.460349365234375,-0.015659736469388008,-0.007423180155456066,-0.011566872708499432
1782986199658423300,9.47042333984375,-0.018747827038168907,-0.0073893433436751366,-0.018271349370479584
1782986199668497700,9.48049755859375,-0.022832849994301796,-0.016331173479557037,-0.03533874824643135
1782986199678572500,9.490572509765625,-0.01949145831167698,-0.02789314091205597,-0.05210093408823013
1782986199688646700,9.500646728515624,-0.021032629534602165,-0.023788144811987877,-0.059335146099328995
1782986199698720500,9.510720458984375,-0.03346240520477295,-0.0174945667386055,-0.05849345028400421
1782986199708795600,9.520795654296874,-0.037999898195266724,-0.02208132855594158,-0.05408938229084015
1782986199718869500,9.530869384765625,-0.03645120561122894,-0.029508572071790695,-0.048783205449581146
1782986199728943400,9.540943359375,-0.02813548594713211,-0.03598431497812271,-0.03766370937228203
1782986199739018500,9.5510185546875,-0.021401746198534966,-0.036603812128305435,-0.03105597011744976
1782986199749092600,9.561092529296875,-0.02534562163054943,-0.0325387641787529,-0.0254066064953804
1782986199759166500,9.57116650390625,-0.02953634038567543,-0.013429893180727959,-0.019939489662647247
1782986199769240300,9.581240234375,-0.032576337456703186,0.01599084585905075,-0.010955048725008965
1782986199779315500,9.5913154296875,-0.02721586264669895,0.03919421508908272,0.010225165635347366
1782986199789389300,9.601389404296874,-0.03208891674876213,0.05196194350719452,0.031820472329854965
1782986199799463400,9.61146337890625,-0.039692554622888565,0.0300311092287302,0.05090008303523064
1782986199809538300,9.621538330078126,-0.040905892848968506,0.006468526087701321,0.06286806613206863
1782986199819612400,9.6316123046875,-0.039386119693517685,-0.004529202356934547,0.05017849802970886
1782986199829686500,9.6416865234375,-0.04056243598461151,-0.02807820402085781,0.016325457021594048
1782986199839761400,9.651761474609375,-0.027649691328406334,-0.01916070282459259,-0.028059639036655426
1782986199849835500,9.66183544921875,-0.017730748280882835,0.0002859660889953375,-0.05649474263191223
1782986199859909600,9.67190966796875,-0.008345198817551136,0.021019181236624718,-0.06945175677537918
1782986199869984500,9.681984619140625,-0.00998863484710455,0.03236318379640579,-0.053586240857839584
1782986199880058600,9.69205859375,-0.013139610178768635,0.027931807562708855,-0.014906637370586395
1782986199890132500,9.702132568359374,-0.010427180677652359,0.015621346421539783,0.022092927247285843
1782986199900206600,9.71220654296875,-0.009724726900458336,0.004053431563079357,0.05409359559416771
1782986199910281500,9.722281494140624,0.005920545198023319,0.0032100083772093058,0.06961290538311005
1782986199920355600,9.73235546875,0.013787522912025452,0.005760517902672291,0.06405941396951675
1782986199930429400,9.742429443359375,0.015133485198020935,-0.025003520771861076,0.04710013419389725
1782986199940504600,9.752504638671875,0.008651195093989372,-0.013060825876891613,0.03071160800755024
1782986199950578400,9.762578369140625,0.007218681275844574,0.0012946776114404202,0.019731927663087845
1782986199960652300,9.77265234375,0.0014679157175123692,-0.002095746574923396,0.010755039751529694
1782986199970727400,9.7827275390625,-0.0027199049945920706,-0.0076774656772613525,0.007509712129831314
1782986199980801300,9.79280126953125,-0.011114454828202724,0.00008564861491322517,0.019542405381798744
1782986199990875400,9.80287548828125,-0.017050376161932945,0.0027426844462752342,0.03277591988444328
1782986200000950500,9.812950439453125,-0.01298501342535019,-0.007564845494925976,0.0355098582804203
1782986200011024400,9.8230244140625,-0.0025100023485720158,-0.003545602783560753,0.0399504154920578
1782986200021098500,9.833098388671875,0.007634010631591082,0.006525564007461071,0.034880734980106354
1782986200031172600,9.843172607421875,0.006443843711167574,0.0146460747346282,0.037166792899370193
1782986200041247500,9.85324755859375,0.00009212677832692862,0.017350122332572937,0.034778617322444916
1782986200051321600,9.863321533203125,-0.005331134423613548,0.020939264446496964,0.03879626467823982
1782986200061395500,9.8733955078125,-0.0068999119102954865,0.011166201904416084,0.03405410796403885
1782986200071470600,9.883470703125,-0.013879258185625076,-0.011992380023002625,0.026577020063996315
1782986200081544400,9.89354443359375,-0.012361581437289715,-0.02574499323964119,0.016522828489542007
1782986200091618600,9.90361865234375,-0.016422104090452194,-0.028293903917074203,0.0018690514843910933
1782986200101693400,9.913693359375,-0.01527627557516098,-0.013470308855175972,-0.00860854797065258
1782986200111767600,9.923767578125,-0.014696238562464714,0.0071135289035737514,-0.00824795663356781
1782986200121841400,9.93384130859375,-0.007569333538413048,0.02908734604716301,0.006692270282655954
1782986200131916500,9.94391650390625,-0.0025809663347899914,0.03293774649500847,0.029722487553954124
1782986200141990400,9.953990478515625,-0.0036000018008053303,0.02334635704755783,0.04772090166807175
1782986200152064500,9.964064453125,-0.003650335595011711,0.00724142137914896,0.05790269747376442
1782986200162138400,9.974138427734376,-0.0019787473138421774,-0.005939753260463476,0.05238024890422821
1782986200172213500,9.984213623046875,-0.0017784775700420141,-0.010538233444094658,0.040614403784275055
1782986200182287400,9.994287353515626,-0.007618445437401533,0.0005347828846424818,0.032475635409355164
1782986200192361500,10.004361572265625,-0.013196170330047607,0.00681984331458807,0.0276944600045681
1782986200202436400,10.014436279296875,-0.012789726257324219,-0.006663505919277668,0.012680825777351856
1782986200212510500,10.024510498046874,0.00732859130948782,-0.021111421287059784,0.004396263975650072
1782986200222584600,10.03458447265625,0.02123192325234413,-0.008990153670310974,0.0008192873210646212
1782986200232659500,10.044659423828126,0.0042968811467289925,-0.004320034757256508,-0.0027075367979705334
1782986200242733600,10.054733642578125,0.0020160723943263292,-0.012365835718810558,0.005579303950071335
1782986200252807400,10.064807373046875,0.00616607628762722,-0.014110472053289413,0.013502207584679127
1782986200262882600,10.074882568359374,0.008329330012202263,-0.011639747768640518,0.02633553370833397
1782986200272956400,10.084956298828125,0.004677603021264076,-0.006651647388935089,0.043826114386320114
1782986200283030500,10.095030517578126,0.00450961384922266,-0.004552757367491722,0.05401904881000519
1782986200293104400,10.1051044921875,0.007536030374467373,-0.001300505013205111,0.0590423047542572
1782986200303179500,10.115179443359375,0.007076877634972334,0.004955896642059088,0.0718424841761589
1782986200313253400,10.12525341796875,-0.0009320470271632075,0.011621789075434208,0.0748092457652092
1782986200323327500,10.135327392578125,0.006094748619943857,0.00277926423586905,0.0736408531665802
1782986200333402400,10.14540234375,0.00946311466395855,-0.006301582790911198,0.07301793992519379
1782986200343476500,10.1554765625,0.007345758378505707,0.007550147362053394,0.07665320485830307
1782986200353550300,10.16555029296875,0.009629419073462486,0.01610182225704193,0.06906665861606598
1782986200363625500,10.17562548828125,0.011170921847224236,0.018224140629172325,0.0604650117456913
1782986200373699300,10.18569921875,0.011778123676776886,0.021959755569696426,0.05245289206504822
1782986200383773400,10.1957734375,0.014234179630875587,0.03277799114584923,0.04179399088025093
1782986200393848300,10.205848388671875,0.03162062540650368,0.04357710853219032,0.04077772796154022
1782986200403922400,10.21592236328125,0.0364634171128273,0.028752023354172707,0.03971380740404129
1782986200413996500,10.22599658203125,0.029498985037207603,0.021412618458271027,0.05090494453907013
1782986200424070400,10.2360703125,0.027221307158470154,0.025116637349128723,0.06442266702651978
1782986200434145500,10.2461455078125,0.017958033829927444,0.031987328082323074,0.07008881121873856
1782986200444219400,10.256219482421875,0.005096394568681717,0.03942813724279404,0.06577636301517487
1782986200454293500,10.26629345703125,0.0009067094651982188,0.05527261272072792,0.05165495350956917
1782986200464368400,10.276368408203124,0.006640209350734949,0.06580160558223724,0.029471727088093758
1782986200474442500,10.2864423828125,0.026758793741464615,0.05429648607969284,0.0005455354112200439
1782986200484516400,10.296516357421876,0.045937974005937576,0.042798805981874466,-0.0073210708796978
1782986200494591500,10.306591552734375,0.04709485173225403,0.04593281447887421,0.009896798059344292
1782986200504665300,10.316665283203125,0.028457891196012497,0.05502885580062866,0.03827187418937683
1782986200514739500,10.326739501953124,0.019970130175352097,0.0556752048432827,0.062483202666044235
1782986200524814300,10.336814453125,0.019256090745329857,0.028818320482969284,0.07392287999391556
1782986200534888400,10.346888427734376,0.02728419005870819,0.0034165584947913885,0.06851586699485779
1782986200544962300,10.35696240234375,0.04125785827636719,-0.0009666919941082597,0.054704006761312485
1782986200555036700,10.36703662109375,0.047690194100141525,0.005410779733210802,0.04208355396986008
1782986200565111300,10.377111328125,0.04480935260653496,0.02630121260881424,0.022403579205274582
1782986200575185700,10.387185546875,0.042440205812454224,0.049017444252967834,0.0034541229251772165
1782986200585259500,10.397259521484376,0.057743340730667114,0.0742584764957428,-0.01197611540555954
1782986200595334700,10.407334716796875,0.05137785151600838,0.11504744738340378,0.038328867405653
1782986200605408500,10.417408447265625,0.022507965564727783,0.04459034278988838,0.06006375327706337
1782986200615482600,10.427482666015624,0.03073846362531185,-0.06052675470709801,0.052574943751096725
1782986200625557800,10.437557861328125,0.03530324622988701,-0.07953257113695145,0.03909594193100929
1782986200635631600,10.447631591796876,0.010781391523778439,-0.026804644614458084,0.0014694707933813334
1782986200645705500,10.45770556640625,-0.00855979509651661,0.009768886491656303,-0.04745609685778618
1782986200655780600,10.467780517578126,-0.016355399042367935,0.02293156087398529,-0.08732707798480988
1782986200665854500,10.4778544921875,-0.0596383661031723,0.01186005212366581,-0.07973285019397736
1782986200675928600,10.487928466796875,-0.11249013245105743,0.037338778376579285,-0.007653336971998215
1782986200686002400,10.49800244140625,-0.14694753289222717,0.12539918720722198,0.08430654555559158
