time,seconds_elapsed,z,y,x
1782987259241872000,0.068871826171875,0.001955646090209484,0.02624763734638691,0.012413167394697666
1782987259251946000,0.078946044921875,-0.0006658091442659497,0.018755557015538216,0.007244138512760401
1782987259262020900,0.089020751953125,-0.0015923228347674012,-0.013489997014403343,-0.0018401703564450145
1782987259272095000,0.099094970703125,-0.0006404128507710993,-0.011921891011297703,-0.008058253675699234
1782987259282169900,0.109169921875,-0.0022409725934267044,0.008284044452011585,0.0036404808051884174
1782987259292244000,0.119243896484375,0.00010414945427328348,0.009451308287680149,0.006957393605262041
1782987259302317800,0.12931787109375,0.001295381342060864,-0.005477041006088257,-0.00331575027666986
1782987259312393000,0.13939306640625,0.0017936457879841328,-0.003954702988266945,-0.0057266103103756905
1782987259322466800,0.149466796875,-0.0016492889262735844,0.0020248922519385815,0.0024932362139225006
1782987259332542000,0.1595419921875,0.00004183140117675066,0.005930609069764614,0.004774400498718023
1782987259342615800,0.16961572265625,0.0013688845792785287,-0.001798416837118566,-0.0016342304879799485
1782987259352690000,0.17968994140625,0.0001710524084046483,-0.004867976531386375,-0.0033862697891891003
1782987259362764800,0.189764892578125,-0.0016918288310989738,0.0024304164107888937,-0.00008767838153289631
1782987259372839000,0.1998388671875,0.000165596604347229,0.004934397526085377,0.0032657640986144543
1782987259382914000,0.2099140625,-0.00016490172129124403,-0.0002648914232850075,0.0029991818591952324
1782987259392988000,0.21998779296875,-0.0010556085035204887,-0.004121872596442699,-0.0017845547990873456
1782987259403063000,0.23006298828125,0.00026585208252072334,0.0013131063897162676,0.0025742410216480494
1782987259413137000,0.240136962890625,-0.000992902903817594,0.0013171767350286245,0.0016294510569423437
1782987259423211000,0.2502109375,-0.002638203790411353,0.002978722797706723,0.0006376898963935673
1782987259433286000,0.260285888671875,-0.000862861517816782,-0.0006088191876187921,-0.0011030074674636126
1782987259443360000,0.270360107421875,0.0006956203142181039,0.0019022754859179258,-0.0002912759664468467
1782987259453435000,0.280434814453125,-0.0004573920741677284,0.001605066703632474,-0.0004955403856001794
1782987259463509000,0.290509033203125,-0.002670479007065296,0.0012335556093603373,0.002180670155212283
1782987259473583000,0.3005830078125,-0.00020036997739225626,-0.0025526240933686495,-0.002472060965374112
1782987259483658000,0.310657958984375,0.0002984401071444154,0.0011363867670297623,0.001422812114469707
1782987259493732000,0.320732177734375,-0.0010550280567258596,-0.0015801145927980542,-0.00028884626226499677
1782987259503807000,0.330806884765625,0.0012834937078878284,-0.0011681235628202558,-0.003168788505718112
1782987259513881000,0.340881103515625,0.0013807094655930996,-0.0016960741486400366,-0.0032877426128834486
1782987259523955200,0.350955078125,0.0019080154597759247,0.00032846094109117985,-0.0011383052915334702
1782987259534030000,0.361030029296875,-0.000034790835343301296,-0.0004077140474691987,0.0002811149461194873
1782987259544104200,0.371104248046875,0.00023525371216237545,-0.0005920048570260406,-0.00009785289876163006
1782987259554179000,0.381178955078125,-0.0009393201326020062,0.00012027611956000328,0.0003998244064860046
1782987259564253200,0.391253173828125,0.00234835222363472,-0.0029213200323283672,0.0024797532241791487
1782987259574327000,0.4013271484375,-0.0010460428893566132,-0.0015028807101771235,-0.0020981444977223873
1782987259584402200,0.411402099609375,-0.0004351137322373688,-0.0010288379853591323,-0.004050241317600012
1782987259594476000,0.42147607421875,0.00006219127681106329,-0.001681959955021739,-0.0024756358470767736
1782987259604551200,0.43155126953125,-0.0017900371458381414,-0.004256970249116421,0.00010123867832589895
1782987259614625000,0.441625,-0.0011102734133601189,0.001053790096193552,-0.0017620845464989543
1782987259624699100,0.45169921875,-0.0010199921671301126,0.0008362098596990108,-0.003859323915094137
1782987259634774000,0.46177392578125,-0.0016229725442826748,0.0015403502620756626,-0.0021511183585971594
1782987259644848000,0.47184814453125,-0.0014445408014580607,-0.0014264112105593085,-0.0024267553817480803
1782987259654923000,0.481923095703125,-0.0011398362694308162,-0.002487561199814081,-0.0018358923261985183
1782987259664997000,0.4919970703125,0.0013606057036668062,-0.0016907432582229376,-0.005541414488106966
1782987259675071000,0.502071044921875,-0.00042945961467921734,0.0021526890341192484,-0.002704853657633066
1782987259685146000,0.51214599609375,0.000407571904361248,-0.0022934586741030216,-0.004128313157707453
1782987259695220000,0.522219970703125,-0.001076771761290729,-0.0035452223382890224,-0.003542886348441243
1782987259705295000,0.532295166015625,-0.0010719781275838614,-0.0001427675597369671,-0.002354850061237812
1782987259715369000,0.542368896484375,0.001253884518519044,0.0003190238494426012,-0.0023961830884218216
1782987259725443000,0.552443115234375,0.0009428274352103472,-0.0016961900983005762,-0.0023011083249002695
1782987259735518000,0.56251806640625,-0.0029594898223876953,-0.00166145502589643,-0.004350022412836552
1782987259745592000,0.572592041015625,-0.000049986294470727444,-0.0013655778020620346,-0.0018471837975084782
1782987259755667000,0.5826669921875,-0.0035243919119238853,-0.004754791967570782,0.005316087510436773
1782987259765741000,0.592740966796875,-0.0006822664872743189,0.00903585460036993,-0.002158606890588999
1782987259775815000,0.60281494140625,-0.0014066632138565183,0.003793995128944516,-0.0008739304030314088
1782987259785890000,0.61289013671875,0.00033131567761301994,-0.013003894127905369,0.0025674065109342337
1782987259795964000,0.6229638671875,-0.002039133571088314,-0.0009395837550982833,0.0013393776025623083
1782987259806039000,0.6330390625,-0.0006162065546959639,0.010973001830279827,-0.0044596558436751366
1782987259816113000,0.64311279296875,0.0001891283318400383,0.0012670338619500399,0.0014895354397594929
1782987259826188000,0.65318798828125,-0.0019730920903384686,-0.008922752924263477,0.002931104740127921
1782987259836262000,0.663261962890625,-0.000870365765877068,-0.0016790300142019987,-0.004681641235947609
1782987259846336000,0.6733359375,-0.001346272649243474,0.004150896333158016,-0.005542108789086342
1782987259856411000,0.683410888671875,0.000051829032599925995,-0.001540201948955655,0.0033005927689373493
1782987259866485000,0.693485107421875,-0.0016968024428933859,-0.0009764106944203377,-0.0024702108930796385
1782987259876560000,0.703559814453125,-0.00023365853121504188,0.0023105742875486612,-0.0048888796009123325
1782987259886634000,0.713634033203125,-0.0008680234896019101,-0.004607785493135452,-0.0003026499762199819
1782987259896708000,0.7237080078125,0.00047980761155486107,-0.0020027952268719673,0.000460756360553205
1782987259906783000,0.733782958984375,-0.001638737041503191,0.001086471602320671,-0.001735286321491003
1782987259916857000,0.743857177734375,0.001391116762533784,-0.0011169122299179435,0.0002125632599927485
1782987259926932200,0.75393212890625,0.00010001636110246181,-0.004017893690615892,-0.0007293968228623271
1782987259937006000,0.764006103515625,0.0006386589957401156,-0.002812015824019909,0.000544767826795578
1782987259947080200,0.774080078125,-0.0016977321356534958,0.003503937041386962,-0.001573776826262474
1782987259957155000,0.784155029296875,0.0001406921073794365,-0.00034554663579910994,-0.0016064667142927647
1782987259967229200,0.794229248046875,-0.0004926076508127153,-0.0008534113876521587,0.0023507243022322655
1782987259977304000,0.804303955078125,-0.00016986834816634655,-0.0023573371581733227,-0.0006608005496673286
1782987259987378200,0.814378173828125,0.0005587725900113583,0.0015676296316087246,-0.0013641414698213339
1782987259997452000,0.8244521484375,0.0023453827016055584,-0.001689836848527193,0.0017225535120815039
1782987260007527200,0.834527099609375,0.0014388427371159196,0.0023834682069718838,-0.0010450034169480205
1782987260017601000,0.84460107421875,0.0008797909831628203,0.0010117506608366966,0.00006508006481453776
1782987260027676200,0.85467626953125,0.00007897836621850729,0.0010122833773493767,-0.00016368547221645713
1782987260037750000,0.86475,0.0004037021426483989,-0.0047690593637526035,0.0006540269241668284
1782987260047824100,0.87482421875,0.00017280608881264925,0.00000385800376534462,-0.0002692910493351519
1782987260057899000,0.88489892578125,0.00040262367110699415,-0.00042829744052141905,-0.00026439764769747853
1782987260067973000,0.89497314453125,0.0023169037885963917,-0.002760427538305521,0.0026626826729625463
1782987260078048000,0.905048095703125,0.0014154370874166489,-0.00035540247336030006,0.0005243309424258769
1782987260088122000,0.9151220703125,-0.0017129782354459167,-0.00017377501353621483,-0.0010003288043662906
1782987260098196000,0.925196044921875,0.0007587269647046924,0.0019004109781235456,-0.0034740723203867674
1782987260108271000,0.93527099609375,-0.00022397947032004595,0.0001453880686312914,-0.0030745980329811573
1782987260118345000,0.945344970703125,0.0004244748270139098,-0.00016924762167036533,0.00034962757490575314
1782987260128420000,0.955420166015625,-0.0006306695868261158,-0.0013892416609451175,0.0011800011852756143
1782987260138494000,0.965493896484375,-0.0015711522428318858,-0.0006848330376669765,0.0011695061111822724
1782987260148569000,0.975569091796875,0.0012478037970140576,0.00200655753724277,-0.0007764656911604106
1782987260158643000,0.985642822265625,-0.0011827924754470587,-0.0008711040718480945,0.0006473956163972616
1782987260168717000,0.995717041015625,-0.0002024827990680933,0.001480467151850462,-0.0014945848379284143
1782987260178792000,1.0057919921875,0.0011257986770942807,-0.0006381545681506395,0.000462885363958776
1782987260188866000,1.015865966796875,-0.0012108588125556707,-0.0008038030937314034,-0.000557637948077172
1782987260198941000,1.02594091796875,0.00003675848711282015,0.0007414419669657946,-0.001403913600370288
1782987260209015000,1.03601513671875,-0.0014479538658633828,0.0011856572236865759,0.000934075505938381
1782987260219089200,1.046089111328125,-0.0017287428490817547,0.0009247835259884596,-0.0006276154308579862
1782987260229164000,1.0561640625,0.0028098165057599545,-0.00017563463188707829,-0.0005684932111762464
1782987260239238100,1.066238037109375,-0.0002837562351487577,-0.0022447628434747458,-0.00233486108481884
1782987260249313000,1.07631298828125,-0.0008278400637209415,0.00035874336026608944,0.0009916933486238122
1782987260259387100,1.08638720703125,-0.0017827933188527822,0.0011554467491805553,-0.0012908526696264744
1782987260269461200,1.096461181640625,-0.0004522780072875321,0.0011682298500090837,0.000481747294543311
1782987260279536000,1.1065361328125,0.000411159940995276,0.0012170053087174892,0.0007658233516849577
1782987260289610200,1.1166103515625,0.00042953575029969215,-0.0010309690842404962,-0.0006200856878422201
1782987260299685000,1.12668505859375,-0.0011739538749679923,0.00028333766385912895,0.002324033295735717
1782987260309759200,1.13675927734375,0.0003331289626657963,-0.000004550209268927574,0.0012643614318221807
1782987260319833000,1.1468330078125,0.0003992202691733837,-0.0006286812713369727,0.002321569947525859
1782987260329908200,1.156908203125,-0.0014735145960003138,0.0003553568385541439,0.001501050079241395
1782987260339982000,1.166982177734375,-0.0011301450431346893,0.0019329758360981941,-0.0006131984991952777
1782987260350057200,1.17705712890625,-0.001905657583847642,0.002502093091607094,-0.0002906896988861263
1782987260360131000,1.187131103515625,0.0003139474429190159,-0.0006271589081734419,0.0003904096956830472
1782987260370205000,1.197204833984375,-0.0016538621857762337,-0.0011699111200869083,0.0006862868904136121
1782987260380280800,1.20728076171875,0.0016912735300138593,-0.0012236647307872772,-0.0025314928498119116
1782987260390354700,1.217354736328125,-0.0021340912207961082,0.00124934664927423,-0.001181536354124546
1782987260400429800,1.227429931640625,0.00018278835341334343,-0.0015503591857850552,-0.0021982858888804913
1782987260410503700,1.237503662109375,-0.000342387065757066,0.0001990713644772768,0.0024326848797500134
1782987260420577800,1.247577880859375,-0.0003203942906111479,-0.0006536338478326797,-0.0007153612095862627
1782987260430652700,1.257652587890625,0.000006375601515173912,0.0002920546103268862,-0.0007459876360371709
1782987260440726800,1.267726806640625,-0.0022051576524972916,-0.00014158408157527447,0.003753535682335496
1782987260450801700,1.2778017578125,0.0012268582358956337,-0.0011732926359400153,-0.0007970076985657215
1782987260460875800,1.287875732421875,-0.0013198786182329059,0.00022787251509726048,0.0006465793121606112
1782987260470949600,1.29794970703125,0.001027165213599801,-0.001416363287717104,0.001508910907432437
1782987260481024800,1.308024658203125,0.000688561238348484,-0.0025495365262031555,0.0004888108232989907
1782987260491098600,1.3180986328125,0.0004467462422326207,0.0004782110918313265,-0.0005631377571262419
1782987260501173800,1.328173828125,0.0000679496442899108,0.0012420087587088346,-0.0014905550051480532
1782987260511247600,1.33824755859375,-0.0007594944909214973,-0.0025700400583446026,0.00029562710551545024
1782987260521321700,1.34832177734375,0.0014935687649995089,-0.0004340746672824025,0.002106645843014121
1782987260531396600,1.358396728515625,0.0003047336358577013,0.000023456523194909096,0.0017774790758267045
1782987260541470700,1.368470703125,-0.0007095262408256531,0.001594530651345849,-0.00041457777842879295
1782987260551545600,1.378545654296875,0.001408219337463379,-0.0002526378957554698,0.0039354292675852776
1782987260561619700,1.38861962890625,-0.0005110627971589565,0.0006198131013661623,0.004754672292619944
1782987260571693600,1.398693603515625,-0.000785900978371501,0.0006022362504154444,0.000566851522307843
1782987260581768700,1.408768798828125,0.0012420014245435596,0.00196816329844296,-0.0015433322405442595
1782987260591842600,1.418842529296875,-0.0012911974918097258,0.0006325882859528065,0.0011853425530716777
1782987260601917700,1.428917724609375,0.0036026493180543184,-0.0009163672802969813,0.0016076912870630622
1782987260611991600,1.438991455078125,-0.0007116715423762798,-0.0016287628095597029,0.0012790572363883257
1782987260622065700,1.449065673828125,0.0007404760690405965,-0.000057458411902189255,0.00046401791041716933
1782987260632140500,1.459140625,-0.0017485142452642322,0.002568418625742197,0.0013106368714943528
1782987260642214700,1.469214599609375,-0.00007248949259519577,0.0008118359837681055,0.0016443533822894096
1782987260652289500,1.47928955078125,0.00037785107269883156,-0.003210868686437607,0.0024624764919281006
1782987260662363600,1.48936376953125,0.0003649297868832946,0.0004695444367825985,-0.00027391244657337666
1782987260672437800,1.499437744140625,-0.0015187240205705166,0.00005941768176853657,0.00004859633918385953
1782987260682512600,1.5095126953125,0.0012540045427158475,0.020235752686858177,0.02112717367708683
1782987260692586800,1.519586669921875,-0.0018259411444887519,0.011431075632572174,0.027482807636260986
1782987260702661600,1.52966162109375,0.0028228305745869875,-0.03159631788730621,-0.02001304179430008
1782987260712735700,1.53973583984375,0.0023645006585866213,-0.012883619405329227,-0.0304944459348917
1782987260722810600,1.549810546875,-0.0026347204111516476,0.026737671345472336,0.00882426742464304
1782987260732884700,1.559884765625,-0.0016195233911275864,0.008581835776567459,0.006754458416253328
1782987260742958800,1.569958740234375,-0.000919860671274364,-0.016200095415115356,-0.023158898577094078
1782987260753033700,1.58003369140625,0.0006958791054785252,-0.00756799103692174,-0.007526142057031393
1782987260763107800,1.59010791015625,-0.0026403521187603474,0.0068906149826943874,0.017501257359981537
1782987260773182700,1.6001826171875,-0.0025724414736032486,0.011184163391590118,0.0023633171804249287
1782987260783256800,1.6102568359375,0.002094403374940157,-0.015298880636692047,-0.01761627197265625
1782987260793330700,1.62033056640625,0.0007425828371196985,-0.013836006633937359,-0.009358609095215797
1782987260803405800,1.63040576171875,0.0005376352928578854,0.012547435238957405,0.006873913109302521
1782987260813479700,1.640479736328125,0.0011797234183177352,0.011746356263756752,0.005074681248515844
1782987260823554800,1.650554931640625,0.0001147253205999732,-0.010257745161652565,-0.0005499148974195123
1782987260833628700,1.660628662109375,0.0013048920081928372,-0.010250022634863853,-0.0027062762528657913
1782987260843702500,1.67070263671875,-0.0004391854163259268,0.009640442207455635,0.004329862538725138
1782987260853777700,1.680777587890625,0.00008678890299052,0.009033242240548134,0.009446061216294765
1782987260863851800,1.690851806640625,-0.0021771909669041634,0.0017903950065374374,-0.0019083934603258967
1782987260873926700,1.7009267578125,0.0003906288184225559,-0.005764193832874298,-0.011928536929190159
1782987260884000800,1.711000732421875,-0.002357265679165721,-0.007786406669765711,0.0025069734547287226
1782987260894074600,1.72107470703125,-0.002740494441241026,0.006292393896728754,0.003812188748270273
1782987260904149800,1.731149658203125,-0.0012885909527540207,0.011477112770080566,-0.007518984377384186
1782987260914223600,1.7412236328125,0.0021010804921388626,-0.005241146311163902,0.0027091519441455603
1782987260924298800,1.751298828125,-0.0004890451673418283,-0.009628631174564362,0.004886440467089415
1782987260934372600,1.76137255859375,-0.0002128753112629056,0.003810478374361992,0.0017878529615700245
1782987260944446500,1.771446533203125,-0.00012185960076749325,0.004639939405024052,-0.0015089960070326924
1782987260954521600,1.781521484375,-0.0002701976918615401,-0.0035436884500086308,-0.00024133130500558764
1782987260964595500,1.791595458984375,0.0010809156810864806,-0.0020958036184310913,0.003516610013321042
1782987260974670600,1.801670654296875,-0.0011377637274563313,0.005949339829385281,0.0017623859457671642
1782987260984744700,1.81174462890625,-0.0015207338146865368,0.0003773618955165148,-0.00022253631323110312
1782987260994818600,1.821818603515625,-0.0013305841712281108,-0.00242801196873188,0.0002317989565199241
1782987261004893700,1.831893798828125,-0.00017640553414821625,0.0031704832799732685,-0.001356830121949315
1782987261014967600,1.841967529296875,-0.0004808048834092915,0.001550748711451888,0.0003883393364958465
1782987261025042700,1.852042724609375,0.0010079022031277418,-0.00359101640060544,0.0023654699325561523
1782987261035116800,1.86211669921875,-0.0009651018772274256,-0.001481031533330679,-0.0016796824056655169
1782987261045190700,1.872190673828125,-0.00036938738776370883,0.0004894810263067484,0.0005228824447840452
1782987261055265800,1.882265869140625,0.00047270418144762516,0.002310284413397312,0.0017458060756325722
1782987261065339600,1.892339599609375,0.0011412764433771372,-0.003065801691263914,0.0007564645493403077
1782987261075414800,1.902414794921875,-0.0003194673336111009,-0.002883907873183489,-0.000554609636310488
1782987261085488600,1.912488525390625,0.0005638670409098268,0.0012447892222553492,-0.0009437514236196876
1782987261095562800,1.922562744140625,0.002325814450159669,0.0007401201874017715,-0.00042603284236975014
1782987261105637600,1.9326376953125,-0.0014948188327252865,-0.0011660183081403375,0.0006827855831943452
1782987261115711700,1.942711669921875,0.0013566277921199799,-0.0006448376225307584,-0.00004159422678640112
1782987261125787000,1.952786865234375,-0.0014257776783779263,0.0010823006741702557,0.0003164875088259578
1782987261135860700,1.96286083984375,-0.0001357424771413207,0.0012894945684820414,0.001230750698596239
1782987261145934600,1.9729345703125,0.0035754912532866,-0.0012372753117233515,-0.0011274554999545217
1782987261156009700,1.983009765625,-0.00040140701457858086,0.0009369293693453074,-0.0020441156812012196
1782987261166083600,1.99308349609375,-0.0005172195960767567,0.000876664649695158,-0.001357917906716466
1782987261176158700,2.00315869140625,-0.001160639338195324,0.0028495341539382935,0.00009430376667296514
1782987261186232600,2.013232666015625,0.0012734817573800683,-0.0015322758117690682,-0.001073294784873724
1782987261196306700,2.023306640625,0.00017546035815030336,-0.001085397438146174,-0.0018517366843298078
1782987261206381600,2.033381591796875,0.0024798689410090446,0.0003046933561563492,-0.00023268736549653113
1782987261216455700,2.04345556640625,-0.0015596137382090092,0.001279676565900445,0.0007801128085702658
1782987261226530600,2.053530517578125,-0.0016762566519901156,0.00007547158747911453,-0.0005106220487505198
1782987261236604700,2.063604736328125,-0.00012709584552794695,-0.0015589103568345308,0.0020566650200635195
1782987261246678500,2.073678466796875,0.0008326078532263637,-0.002315511927008629,0.0005212433752603829
1782987261256753700,2.083753662109375,0.00025629985611885786,-0.0004787297220900655,-0.00015413427900057286
1782987261266827500,2.09382763671875,-0.00009745778515934944,0.0000630358699709177,0.002111944369971752
1782987261276902700,2.103902587890625,0.000031172879971563816,-0.0010443064384162426,0.002492243656888604
1782987261286976500,2.1139765625,-0.00011292833369225264,0.000508501660078764,0.0012161715421825647
1782987261297050600,2.124050537109375,-0.0007132048485800624,-0.00056848069652915,0.0022502769716084003
1782987261307125500,2.13412548828125,-0.0004930387367494404,0.0004781039897352457,-0.001459262683056295
1782987261317199600,2.14419970703125,-0.002401193603873253,0.0025641578249633312,-0.0025413050316274166
1782987261327274500,2.1542744140625,-0.00047516723861917853,0.0008863664697855711,-0.00027175917057320476
1782987261337348600,2.1643486328125,-0.0014333726139739156,0.000392616493627429,0.00017991293861996382
1782987261347422700,2.174422607421875,-0.0013008799869567156,0.0021096705459058285,-0.0008295694715343416
1782987261357497600,2.18449755859375,-0.0012787757441401482,0.0017789057455956936,0.0016218703240156174
1782987261367571700,2.19457177734375,0.0014444179832935333,-0.00040853070095181465,-0.003164478577673435
1782987261377646600,2.204646484375,-0.0009460353758186102,0.0014993578661233187,-0.0012368825264275074
1782987261387720700,2.214720703125,-0.0005059351096861064,0.003546483349055052,0.0031699882820248604
1782987261397794800,2.224794921875,0.0006014072569087148,0.003866329323500395,-0.0007792130927555263
1782987261407869700,2.23486962890625,-0.0005859011434949934,0.0031054257415235043,0.0009863859741017222
1782987261417943800,2.24494384765625,-0.00022184697445482016,-0.0023804197553545237,-0.004324756097048521
1782987261428018700,2.255018798828125,-0.0027544558979570866,-0.0037306416779756546,-0.003622426651418209
1782987261438092800,2.2650927734375,-0.0007533568423241377,0.0025956975296139717,-0.0019592824392020702
1782987261448166700,2.275166748046875,0.0006262789247557521,0.00006474251858890057,-0.0062125492841005325
1782987261458241800,2.28524169921875,0.00016635097563266754,0.000024795066565275192,0.00017717311857268214
1782987261468315600,2.295315673828125,-0.0000837115803733468,-0.00292864884249866,0.00014418168575502932
1782987261478390800,2.305390869140625,-0.0010618907399475574,0.0021025952883064747,-0.00332724885083735
1782987261488464600,2.315464599609375,0.0003694684710353613,0.001742691732943058,0.0004578824737109244
1782987261498538800,2.325538818359375,-0.001928306883201003,0.0015741134993731976,-0.0010302918963134289
1782987261508613600,2.335613525390625,-0.0012531388783827424,0.000496631721034646,-0.001878205919638276
1782987261518687700,2.345687744140625,0.0017519720131531358,0.0007837205193936825,-0.002039860002696514
1782987261528762600,2.3557626953125,-0.0002704148646444082,-0.002127827377989888,0.0002443597768433392
1782987261538836700,2.365836669921875,0.001018022419884801,0.0016274959780275822,0.0006113433628343046
1782987261548910600,2.37591064453125,0.0011668720981106162,0.0008872642647475004,-0.001381130306981504
1782987261558985700,2.38598583984375,0.0012449027271941304,0.00140391755849123,0.00006310197204584256
1782987261569059600,2.3960595703125,0.001208700705319643,0.0002881812397390604,-0.00012120947940275073
1782987261579134700,2.406134765625,-0.0006139667239040136,-0.000870560179464519,0.0021555270068347454
1782987261589208600,2.41620849609375,-0.0010716948891058564,0.0005191650707274675,-0.0011274005519226193
1782987261599282700,2.42628271484375,0.0020332843996584415,0.0005793524906039238,0.0021032800432294607
1782987261609357600,2.436357666015625,-0.001384269678965211,0.001647323602810502,-0.0036309482529759407
1782987261619431700,2.446431640625,-0.00034323998261243105,-0.0010166363790631294,-0.000051926275773439556
1782987261629506600,2.456506591796875,0.000512226833961904,-0.0009054344845935702,-0.00083125289529562
1782987261639580700,2.46658056640625,0.000526874209754169,0.003135113511234522,-0.0011830563889816403
1782987261649654500,2.476654541015625,-0.0008995372918434441,0.0015001131687313318,-0.0008390456787310541
1782987261659729700,2.486729736328125,-0.0005804906249977648,0.000009808223694562912,-0.0007335845148190856
1782987261669803500,2.496803466796875,-0.0015753647312521935,-0.0007647845195606351,-0.002244741888716817
1782987261679878700,2.506878662109375,0.0009415888926014304,-0.0016348392236977816,-0.0014268852537497878
1782987261689952500,2.516952392578125,0.00015804509166628122,0.00159166450612247,-0.0013493046863004565
1782987261700027600,2.527027587890625,-0.00004275725223124027,-0.0003846673062071204,-0.002097652992233634
1782987261710101500,2.5371015625,0.0012506989296525717,-0.00044708955101668835,-0.0009875899413600564
1782987261720175600,2.547175537109375,-0.00011869845911860466,0.00018354691565036774,-0.0016352706588804722
1782987261730250500,2.55725048828125,0.0020430157892405987,-0.00050017808098346,-0.0038610987830907106
1782987261740324600,2.56732470703125,0.0007798783481121063,-0.0005846002604812384,0.0019488533725962043
1782987261750398700,2.577398681640625,0.0013965752441436052,0.0016793194226920605,0.0005917447269894183
1782987261760473900,2.587473876953125,0.00007937569171190262,-0.00007543736137449741,-0.0025582422968000174
1782987261770547700,2.597547607421875,-0.0009451609803363681,-0.00027779932133853436,-0.0018160466570407152
1782987261780622800,2.607622802734375,0.0007209125906229019,0.0010348728392273188,-0.0018376182997599244
1782987261790696700,2.61769677734375,-0.0024948487989604473,0.0017776812892407179,0.0013071643188595772
1782987261800770600,2.6277705078125,-0.0014839126961305737,0.0002596795093268156,0.0001430966512998566
1782987261810845700,2.637845703125,0.0009820916457101703,-0.0003932984545826912,0.002435886301100254
1782987261820919600,2.64791943359375,0.0008737010648474097,0.0024554848205298185,-0.0004576383507810533
1782987261830994700,2.65799462890625,0.00019313918892294168,0.002421247772872448,0.0009022349258884788
1782987261841068800,2.66806884765625,0.0009297694778069854,-0.0011513828067108989,0.003936374559998512
1782987261851143700,2.678143798828125,8.149072527885437e-8,0.002388237975537777,0.0010316193802282214
1782987261861217800,2.6882177734375,-0.00003720272798091173,0.00012188777327537537,0.00041083653923124075
1782987261871291600,2.698291748046875,0.00029033177997916937,0.002518561901524663,-0.00307225389406085
1782987261881366800,2.70836669921875,0.001188083435408771,0.00047165644355118275,0.00030223745852708817
1782987261891440600,2.718440673828125,0.00021158868912607431,0.0005875204224139452,0.0006652240408584476
1782987261901514500,2.728514404296875,0.000496280612424016,0.0009539714083075523,0.003756887512281537
1782987261911589600,2.738589599609375,0.0006807273020967841,0.0011030216701328754,0.00020324857905507088
1782987261921663500,2.74866357421875,0.0027465412858873606,0.002322216983884573,-0.0006774587673135102
1782987261931738600,2.758738525390625,-0.0007982071256265044,0.0021479593124240637,-0.002828689757734537
1782987261941812500,2.7688125,-0.0008884883136488497,0.0008328906260430813,-0.002021751832216978
1782987261951887600,2.7788876953125,-0.0011753018479794264,0.0021623747888952494,-0.0034492979757487774
1782987261961961700,2.788961669921875,-0.0004325461923144758,0.00013144826516509056,-0.0020862920209765434
1782987261972035600,2.79903564453125,0.0007585012353956699,0.001178869279101491,-0.0006934662815183401
1782987261982110700,2.80911083984375,-0.0016308868071064353,-0.00019665341824293137,-0.0012924112379550934
1782987261992184600,2.8191845703125,-0.0014830740401521325,-0.0011014350457116961,-0.0022458909079432487
1782987262002259700,2.829259765625,-0.0023430087603628635,0.0018932893872261047,-0.002371059497818351
1782987262012333600,2.83933349609375,-0.000021194107830524445,-0.0006213717861101031,0.0026862293016165495
1782987262022407400,2.849407470703125,-0.0017285465728491545,0.0012036925181746483,-0.000125003483844921
1782987262032482600,2.859482666015625,-0.0009464938193559647,-0.0001503413077443838,-0.0019509117119014263
1782987262042556400,2.869556396484375,0.0002484666183590889,-0.001014004461467266,0.0024193355347961187
1782987262052631600,2.879631591796875,-0.0012419011909514666,0.0009819664992392063,0.000018563252524472773
1782987262062705400,2.889705322265625,0.0025235421489924192,-0.0008060798281803727,0.00442449701949954
1782987262072779800,2.89977978515625,-0.0016186200082302094,0.0011066501028835773,-0.0021185693331062794
1782987262082854400,2.9098544921875,-0.0014873261097818613,0.0008531173225492239,-0.002387015847489238
1782987262092928800,2.9199287109375,-0.0008602450834587216,0.0006271330639719963,-0.001929971855133772
1782987262103002600,2.930002685546875,-0.000632544863037765,0.0006636185571551323,-0.0002788121346384287
1782987262113077800,2.940077880859375,-0.00015034119132906199,0.0013113196473568678,0.0007028062827885151
1782987262123151600,2.950151611328125,-0.0021370593458414078,0.00021276576444506645,0.0027702180668711662
1782987262133226800,2.960226806640625,-0.002846434246748686,0.001054377993568778,-0.002239675261080265
1782987262143300600,2.970300537109375,-0.0012397492537274957,-0.00158161879517138,0.00023599933774676174
1782987262153375700,2.980375732421875,0.00188267114572227,0.0004236267413944006,0.0009009289788082242
1782987262163449600,2.99044970703125,-0.0026921071112155914,-0.00019502569921314716,-0.002289005322381854
1782987262173523700,3.000523681640625,-0.00026447646087035537,0.00006867479532957077,0.000770716869737953
1782987262183598600,3.0105986328125,0.00016722199507057667,-0.0007622315315529704,-0.00024075168767012656
1782987262193672700,3.020672607421875,-0.0008862570975907147,-0.0003040612209588289,-0.0002733191940933466
1782987262203747600,3.03074755859375,0.0025508184917271137,-0.004593081772327423,0.002605025190860033
1782987262213821700,3.04082177734375,-0.0005114481318742037,-0.0026361802592873573,-0.0014755374286323786
1782987262223895600,3.0508955078125,0.00028030958492308855,0.0014578972477465868,-0.0013168130535632372
1782987262233970700,3.060970703125,-0.0016273147193714976,-0.000033848220482468605,-0.0011931146727874875
1782987262244044500,3.07104443359375,-0.0012997458688914776,-0.0036211260594427586,-0.001256764167919755
1782987262254119700,3.08111962890625,-0.0022952433209866285,-0.0035231923684477806,-0.0010858873138204217
1782987262264193500,3.091193603515625,0.0003977451706305146,-0.0018696356564760208,-0.0002749548002611846
1782987262274267600,3.101267578125,-0.0012181270867586136,-0.0003776303492486477,0.0010378852020949125
1782987262284342500,3.111342529296875,-0.00046658306382596493,-0.0014729885151609778,-0.0013594923075288534
1782987262294416600,3.121416748046875,-0.0003160399501211941,-0.000611431198194623,-0.0009526469511911273
1782987262304491500,3.131491455078125,0.0003209881251677871,0.001149717252701521,0.001588807674124837
1782987262314565600,3.141565673828125,0.0011571224313229322,-0.0015590854454785585,0.0006888809148222208
1782987262324639500,3.151639404296875,-0.0008618200081400573,0.0011703884229063988,-0.001916755922138691
1782987262334714600,3.161714599609375,-0.0006008446216583252,0.0009003912564367056,0.0028948993422091007
1782987262344788500,3.17178857421875,-0.000957441923674196,0.002535838633775711,0.0026328442618250847
1782987262354862600,3.181862548828125,0.002343609230592847,-0.0023065225686877966,0.0006642896914854646
1782987262364937500,3.1919375,0.0007553000468760729,0.002066388027742505,0.0019673744682222605
1782987262375011600,3.202011474609375,0.00013436516746878624,0.0013957128394395113,0.0003326553269289434
1782987262385086500,3.21208642578125,-0.0024797937367111444,0.0029914788901805878,-0.0010543189710006118
1782987262395160300,3.222160400390625,0.0030222611967474222,0.0006737979128956795,0.0014298758469522
1782987262405235500,3.2322353515625,0.0012254263274371624,-0.00004552188329398632,0.0007393182022497058
1782987262415309300,3.242309326171875,0.000597875565290451,0.0014070025645196438,-0.0011341383215039968
1782987262425383700,3.2523837890625,-0.0010564799886196852,0.0010235074441879988,-0.0006747430306859314
1782987262435458300,3.262458251953125,0.0009410461643710732,0.0002704034559428692,0.0016332293162122369
1782987262445532700,3.27253271484375,-0.0005127734038978815,-0.0024542766623198986,0.0036375243216753006
1782987262455607300,3.282607177734375,-0.001283296849578619,-0.0023593921214342117,0.002002921188250184
1782987262465681700,3.292681640625,0.0024227581452578306,-0.0012046453775838017,-0.000036261219065636396
1782987262475755500,3.302755615234375,-0.0003488640650175512,-0.0008188992505893111,0.0024921055883169174
1782987262485830700,3.31283056640625,0.0021073692478239536,0.0003102810587733984,0.0019043461652472615
1782987262495904500,3.322904541015625,-0.001051965868100524,0.000004125060513615608,0.0052972291596233845
1782987262505979600,3.332979736328125,-0.001412291545420885,-0.0016406432259827852,0.00414195004850626
1782987262516053500,3.343053466796875,-0.0004842776106670499,0.0000541547778993845,0.0038489792495965958
1782987262526127600,3.353127685546875,-0.0030230688862502575,0.0022496646270155907,0.002207673154771328
1782987262536202500,3.363202392578125,-0.0007855871226638556,0.00015394994989037514,0.001132879056967795
1782987262546276600,3.373276611328125,-0.00005055463407188654,-0.005620049312710762,0.004556905012577772
1782987262556351500,3.3833515625,0.0008690143004059792,-0.004591079428792,0.002395601011812687
1782987262566425600,3.393425537109375,-0.001600534887984395,0.00039222766645252705,0.0005449703894555569
1782987262576499500,3.40349951171875,0.0009851563954725862,-0.0024994898121804,-0.00022987302509136498
1782987262586574600,3.41357470703125,-0.0005791843868792057,0.000021458370611071587,-0.00030710469582118094
1782987262596648400,3.4236484375,0.0019611481111496687,0.000028445618227124214,-0.001815163646824658
1782987262606723600,3.4337236328125,0.003046120051294565,-0.002735915593802929,-0.0011347259860485792
1782987262616797400,3.44379736328125,0.0007532924646511674,-0.00006302213296294212,-0.0022147418931126595
1782987262626871600,3.45387158203125,-0.002277384977787733,0.000055488431826233864,-0.0020956986118108034
1782987262636946400,3.463946533203125,-0.00046082184417173266,-0.001544289756566286,-0.0006035995902493596
1782987262647020500,3.4740205078125,0.0012020559515804052,-0.00047263375017791986,-0.004738956224173307
1782987262657095400,3.484095458984375,0.0014062030240893364,-0.0008818662026897073,-0.005286416970193386
1782987262667169500,3.49416943359375,-0.0008745281375013292,0.00023799296468496323,-0.004082934465259314
1782987262677243400,3.504243408203125,0.0001280577853322029,-0.00042939186096191406,-0.007470948155969381
1782987262687318500,3.514318603515625,-0.0014197714626789093,-0.002149261301383376,-0.005519384052604437
1782987262697392400,3.524392333984375,-0.000810325494967401,-0.0016199781093746424,-0.004882818553596735
1782987262707467500,3.534467529296875,0.0009031523950397968,-0.000011428957805037498,-0.0033232709392905235
1782987262717541400,3.544541259765625,-0.0002208426594734192,0.00005582557059824467,-0.0063869948498904705
1782987262727615500,3.554615478515625,0.00023402529768645763,-0.0018906787736341357,-0.003588811494410038
1782987262737690400,3.5646904296875,-0.0005355048924684525,-0.0014226147904992104,-0.00554138096049428
1782987262747764500,3.574764404296875,0.0006661134539172053,0.000729485647752881,-0.0007309132488444448
1782987262757838600,3.584838623046875,0.0004925248213112354,0.0007070517167448997,-0.0009727650904096663
1782987262767913500,3.59491357421875,0.001580159761942923,0.0023435642942786217,-0.001100330613553524
1782987262777987600,3.604987548828125,0.000472131185233593,0.0009879742283374071,0.0006990916444920003
1782987262788062500,3.6150625,0.001147242495790124,0.0030745607800781727,-0.004524166230112314
1782987262798136600,3.625136474609375,0.00008783710654824972,0.0041840337216854095,-0.0014386277180165052
1782987262808210700,3.635210693359375,0.0023062501568347216,0.001545906299725175,-0.00021543785987887532
1782987262818285600,3.64528564453125,-0.001604685909114778,0.0026374219451099634,0.0012166881933808327
1782987262828359700,3.655359619140625,0.0015828515170142055,0.0023436753544956446,0.001476879115216434
1782987262838434600,3.6654345703125,0.0011799423955380917,0.0009818482212722301,0.0017869388684630394
1782987262848508700,3.6755087890625,0.0006529027596116066,0.003160314168781042,-0.0013563900720328093
1782987262858582500,3.68558251953125,0.0018915118416771293,0.0017244901973754168,-0.00020996715466026217
1782987262868657700,3.69565771484375,0.0008302421774715185,0.004267276264727116,0.0034601350780576468
1782987262878731500,3.7057314453125,0.0020338785834610462,-0.00011757761240005493,0.001785615342669189
1782987262888806700,3.715806640625,0.001542791724205017,0.0020265334751456976,0.0011544461594894528
1782987262898880500,3.725880615234375,-0.0003779359394684434,0.0036803532857447863,0.0007618429372087121
1782987262908955600,3.73595556640625,0.0012854743981733918,0.004262253642082214,-0.001380403758957982
1782987262919029500,3.746029541015625,0.0014093337813392282,0.003404604271054268,0.0008872095495462418
1782987262929103600,3.756103515625,-0.000026376452296972275,0.002646935172379017,-0.0010350600350648165
1782987262939178500,3.766178466796875,0.0010700002312660217,-0.0016538439085707068,0.0010059104533866048
1782987262949252600,3.776252685546875,0.0007762536406517029,0.0014900176320225,-0.0005424513947218657
1782987262959326500,3.786326416015625,0.00018956942949444056,0.00230418611317873,-0.003294752212241292
1782987262969401600,3.796401611328125,0.0004987623542547226,0.001087654149159789,-0.0005423752591013908
1782987262979475500,3.806475341796875,0.0014224712504073977,-0.002054838929325342,0.0012757877120748162
1782987262989550600,3.816550537109375,-0.00003294635098427534,-0.0010646756272763014,-0.0011420962400734425
1782987262999624400,3.82662451171875,0.00046257313806563616,0.00006032153032720089,-0.0009414615342393517
1782987263009698300,3.8366982421875,0.0007067850092425942,-0.001591104781255126,-0.0011638355208560824
1782987263019773400,3.8467734375,-0.0009449265780858696,-0.001496603130362928,-0.0023884328547865152
1782987263029847300,3.856847412109375,-0.0013348134234547615,-0.0006651642033830285,0.0026358868926763535
1782987263039922400,3.86692236328125,-0.0033631783444434404,-0.003125466639176011,0.0025961599312722683
1782987263049996500,3.87699658203125,-0.0021876590326428413,-0.002684713341295719,-0.00337251671589911
1782987263060070400,3.8870703125,0.00004671746864914894,-0.0009515683632344007,0.0006775427027605474
1782987263070145500,3.8971455078125,0.000042190076783299446,-0.0018413304351270199,0.0009033787646330893
1782987263080219400,3.907219482421875,-0.0009765711147338152,0.0002126514445990324,0.0017128577455878258
1782987263090294500,3.91729443359375,-0.00008760800119489431,-0.0004952169256284833,0.0010350833181291819
1782987263100368400,3.927368408203125,0.0004704435123130679,0.0005442914552986622,-0.00037362962029874325
1782987263110442500,3.9374423828125,0.002244108822196722,-0.0015255173202604055,0.003096469212323427
1782987263120517400,3.947517333984375,-0.0007077147602103651,-0.0016614850610494614,0.00037728954339399934
1782987263130591500,3.957591552734375,0.00043052027467638254,-0.00020766537636518478,-0.0010163425467908382
1782987263140666400,3.967666259765625,0.0018271482549607754,0.0017521502450108528,-0.002995822113007307
1782987263150740500,3.977740478515625,0.001924620009958744,-0.0016708106268197298,0.0005730799166485667
1782987263160814600,3.987814697265625,0.0015262700617313385,-0.0016046131495386362,0.001437875791452825
1782987263170889700,3.9978896484375,0.0032549279276281595,0.000015387777239084244,0.00021468591876327991
1782987263180963600,4.007963623046875,0.00007378531154245138,-0.0002414146438241005,-0.00019615207565948367
1782987263191038700,4.018038818359375,-0.0022764543537050486,-0.0004637886304408312,-0.0004289123462513089
1782987263201112600,4.028112548828125,-0.001123151509091258,-0.0014878513757139444,0.0007069717976264656
1782987263211186400,4.0381865234375,0.001962653361260891,-0.0027027856558561325,-0.001219825237058103
1782987263221261600,4.048261474609375,0.00041793379932641983,-0.00037164625246077776,0.0024286448024213314
1782987263231335400,4.05833544921875,-0.0002694280119612813,-0.0015586171066388488,-0.0035693265963345766
1782987263241410600,4.06841064453125,0.0014197136042639613,-0.0022146301344037056,0.0007178519736044109
1782987263251484400,4.078484375,0.0002955932868644595,-0.0009429706260561943,0.0006800350965932012
1782987263261558500,4.08855859375,0.00020846491679549217,-0.0011112808715552092,-0.0016506167594343424
1782987263271633400,4.09863330078125,-0.0006301645771600306,-0.0018681513611227274,-0.00022662451374344528
1782987263281707500,4.10870751953125,-0.00001994241029024124,-0.0023958003148436546,0.0008114880765788257
1782987263291782700,4.11878271484375,0.002424573292955756,-0.0009015005780383945,-0.000051376118790358305
1782987263301856500,4.1288564453125,0.0013129619183018804,-0.002388146473094821,-0.0013817672152072191
1782987263311930400,4.138930419921875,0.0004362494219094515,-0.002152723027393222,-0.0015673895832151175
1782987263322005500,4.149005615234375,-0.0006593772559426725,-0.0015510425437241793,-0.000008093149517662823
1782987263332079400,4.159079345703125,0.000568073708564043,-0.00023703882470726967,-0.00044538421207107604
1782987263342154500,4.169154541015625,0.0007144565461203456,-0.0010782164754346013,0.002074860967695713
1782987263352228400,4.179228271484375,-0.00036545528564602137,0.001436606515198946,0.0010868282988667488
1782987263362302500,4.189302490234375,-0.001342421630397439,0.00046911370009183884,-0.0011115859961137176
1782987263372377300,4.19937744140625,-0.00039966258918866515,0.00162785523571074,-0.0021496862173080444
1782987263382451500,4.209451416015625,-0.0009265742264688015,0.00037392694503068924,-0.0007772604003548622
1782987263392526300,4.2195263671875,-0.0005974075174890459,-0.001176565303467214,0.0025745939929038286
1782987263402600400,4.229600341796875,-0.0004518229980021715,0.0009846268221735954,-0.003393032355234027
1782987263412674300,4.23967431640625,0.0012890854850411415,-0.0008369752904400229,-0.0004904530942440033
1782987263422749400,4.24974951171875,0.0007427413947880268,0.000554228900000453,0.0011124996235594153
1782987263432823300,4.2598232421875,0.0006601833738386631,0.0023121817503124475,0.000873614102602005
1782987263442898400,4.2698984375,0.00020423252135515213,0.0012913662940263748,-0.001354094361886382
1782987263452972300,4.27997216796875,0.0013208959717303514,0.0017467669676989317,0.0013809718657284975
1782987263463046400,4.29004638671875,0.0014926258008927107,0.0014538562390953302,0.00014070660108700395
1782987263473121300,4.300121337890625,0.0013610655441880226,0.002044012537226081,0.0013796091079711914
1782987263483195400,4.3101953125,0.00026083854027092457,-0.0024452959187328815,-0.0005722047062590718
1782987263493270300,4.320270263671875,-0.0012723433319479227,0.000715343514457345,0.0008845443371683359
1782987263503344600,4.3303447265625,-0.0007472764700651169,-0.00016464036889374256,-0.0012022600276395679
1782987263513418500,4.34041845703125,0.0003704521805047989,0.0003376319073140621,0.0007921813521534204
1782987263523493600,4.35049365234375,-0.000024326262064278126,0.0012775864452123642,0.0016811484238132834
1782987263533567500,4.3605673828125,-0.00023391703143715858,-0.0006193831795826554,-0.0021530045196413994
1782987263543642600,4.370642578125,0.0011479100212454796,0.0003888087812811136,-0.0019840532913804054
1782987263553716500,4.380716552734375,-0.0025301817804574966,-0.0005805819528177381,-0.00003621733048930764
1782987263563790300,4.390790283203125,-0.0006812634528614581,0.0015103500336408615,0.0019006009679287672
1782987263573865500,4.400865478515625,-0.0024304278194904327,-0.0023427114356309175,-0.00216657854616642
1782987263583939300,4.410939208984375,-0.0005414854385890067,-0.004208723083138466,0.0010377276921644807
1782987263594014500,4.421014404296875,-0.00018941552843898535,0.00015193666331470013,-0.0005713542341254652
1782987263604088300,4.43108837890625,0.0003848755732178688,-0.0007342200260609388,0.00005111124846735038
1782987263614162400,4.441162353515625,-0.00012645137030631304,0.0004271846264600754,0.0020780430641025305
1782987263624237600,4.451237548828125,0.0013124593533575535,0.0008329416159540415,0.0011160611175000668
1782987263634311400,4.4613115234375,-0.0015714778564870358,-0.002262450521811843,0.0012252506567165256
1782987263644386600,4.471386474609375,-0.0005424489500001073,0.0004475486930459738,-0.0018392737256363034
1782987263654460400,4.48146044921875,0.0005180217558518052,-0.0009274415206164122,0.0011751583078876138
1782987263664534300,4.4915341796875,-0.000787791796028614,0.0007819798775017262,0.003786734538152814
1782987263674609400,4.501609375,-0.0002884491113945842,0.0005324417725205421,0.0004457991453818977
1782987263684683300,4.511683349609375,-0.001881032483652234,0.0009857097174972296,0.0030403390992432833
1782987263694758400,4.52175830078125,-0.000437865499407053,0.002568426076322794,0.0025721555575728416
1782987263704832300,4.531832275390625,0.0004145939601585269,0.00037993467412889004,0.0013724386226385832
1782987263714906400,4.54190625,-0.0009859624551609159,0.001298991497606039,0.0006296829669736326
1782987263724981200,4.551981201171875,-0.0013359587173908949,0.00009902473539113998,0.0008728480897843838
1782987263735055400,4.562055419921875,0.00012478511780500412,0.00007079518400132656,0.0035373407881706953
1782987263745130200,4.572130126953125,0.001512778690084815,-0.0008122039726004004,-0.0011267770314589143
1782987263755204400,4.582204345703125,0.0008294114377349615,0.0004232365172356367,0.0028067119419574738
1782987263765278500,4.592278564453125,-0.0005025379941798747,0.00010113371536135674,-0.0010824089404195547
1782987263775353300,4.602353271484375,-0.0007360972231253982,0.00006731157191097736,-0.00014444363478105515
1782987263785427500,4.612427490234375,0.0010393249103799462,0.0010454109869897366,-0.0005538386176340282
1782987263795502300,4.62250244140625,0.0015522498870268464,-0.00036100426223129034,-0.0020864878315478563
1782987263805576400,4.632576416015625,-0.0006413616938516498,0.002032412216067314,-0.003562396392226219
1782987263815650600,4.642650634765625,-0.0012751939939334989,0.0017466552089899778,-0.0007785941124893725
1782987263825725400,4.652725341796875,0.001383253955282271,0.0011231608223170042,-0.00037127023097127676
1782987263835799600,4.662799560546875,-0.0014761821366846561,0.0020286357030272484,0.0011206326307728887
1782987263845874400,4.67287451171875,0.0011374151799827814,0.001079463865607977,-0.0020846156403422356
1782987263855948500,4.682948486328125,-0.0010112231830134988,0.00009196368046104908,0.0023607327602803707
1782987263866022400,4.6930224609375,-0.000020404579117894173,0.0026280079036951065,-0.00360037456266582
1782987263876097500,4.70309765625,0.000072539784014225,0.0009478195570409298,0.00047186511801555753
1782987263886171400,4.71317138671875,0.001614492037333548,0.0026309629902243614,-0.0011992525542154908
1782987263896245500,4.72324560546875,0.00012711668387055397,-0.0002543057780712843,-0.0009859333513304591
1782987263906320400,4.7333203125,0.00006862042937427759,0.0012746471911668777,0.0015668915584683418
1782987263916394500,4.74339453125,-0.00039769907016307116,0.000538016902282834,0.005545387975871563
1782987263926469400,4.753469482421875,0.0015962596517056227,0.0001976385246962309,0.004111253656446934
1782987263936543500,4.76354345703125,0.0016228912863880396,0.0018410752527415752,0.0015833807410672307
1782987263946618400,4.773618408203125,-0.00007356691639870405,0.003938556648790836,0.0032091133762151003
1782987263956692500,4.7836923828125,0.001554157235659659,0.004410468973219395,0.004921525716781616
1782987263966766300,4.793766357421875,0.001193932956084609,0.0024401238188147545,0.0027134702540934086
1782987263976841500,4.803841552734375,-0.00036960880970582366,0.003366637509316206,0.0010817514266818762
1782987263986915300,4.813915283203125,0.0009777116356417537,0.002392630558460951,0.0007385133649222553
1782987263996990500,4.823990478515625,0.002165215089917183,0.00015877094119787216,0.0012647539842873812
1782987264007064300,4.834064208984375,0.0009799706749618053,0.002005958463996649,0.0010531455045565963
1782987264017138400,4.844138427734375,0.0007876905146986246,0.0025894567370414734,0.0010664613218978047
1782987264027213300,4.85421337890625,-0.0014695362187922,0.0016617148648947477,0.0005369175923988223
1782987264037287400,4.864287353515625,-0.002060491591691971,0.0034100799821317196,-0.0010726969921961427
1782987264047361300,4.874361328125,-0.0005274238646961749,0.0034165317192673683,-0.002328880364075303
1782987264057436400,4.8844365234375,0.000135436886921525,0.0030463524162769318,-0.0005094085936434567
1782987264067510300,4.89451025390625,-0.00008573068771511316,0.002496598521247506,-0.0011397154303267598
1782987264077585400,4.90458544921875,0.0010442485800012946,0.00033677462488412857,-0.0009090857347473502
1782987264087659300,4.9146591796875,0.00021464412566274405,-0.0011477801017463207,-0.0020758863538503647
1782987264097733400,4.9247333984375,-0.00010626675793901086,0.0014179092831909657,-0.005411495454609394
1782987264107808300,4.934808349609375,-0.0026439798530191183,-0.001657363842241466,-0.003262873040512204
1782987264117882400,4.94488232421875,-0.0005352888838388026,-0.0022624339908361435,-0.0015499278670176864
1782987264127957200,4.954957275390625,-0.0014485260471701622,-0.002601760206744075,-0.0006984829669818282
1782987264138031400,4.96503125,-0.0011750194244086742,-0.00042116385884582996,-0.0011738571338355541
1782987264148105500,4.97510546875,-0.00039387302240356803,-0.002879446605220437,-0.0016674555372446775
1782987264158180400,4.985180419921875,0.001051957136951387,-0.0016733009833842516,-0.0013073962181806564
1782987264168254500,4.99525439453125,0.0018445429159328341,-0.0008039349922910333,0.0004961657105013728
1782987264178329300,5.005329345703125,0.000049838563427329063,-0.0032183569855988026,-0.0011374173918738961
1782987264188403500,5.015403564453125,0.0005995673127472401,-0.0017566579626873136,0.0005813175812363625
1782987264198477600,5.0254775390625,0.0011598963756114244,-0.001172360498458147,0.00019036557932849973
1782987264208552400,5.035552490234375,0.000546404393389821,0.00008017825894057751,0.0011321842903271317
1782987264218626600,5.04562646484375,-0.0009529553353786469,0.0004538197536021471,-0.0015291125746443868
1782987264228701400,5.055701416015625,0.0014292828273028135,0.001402606489136815,-0.0003847398329526186
1782987264238775600,5.065775634765625,0.0007304693572223186,-0.0005417674547061324,0.0014840003568679094
1782987264248849400,5.075849365234375,0.0014142309082672,0.0011451956816017628,0.003073283703997731
1782987264258924500,5.085924560546875,-0.000034795026294887066,0.0023095295764505863,-0.00024608016246929765
1782987264268998400,5.095998291015625,0.0013364313635975122,0.0034630566369742155,0.0000575884769205004
1782987264279073500,5.106073486328125,-0.00023430108558386564,-0.00022941629868000746,0.001822465332224965
1782987264289147400,5.1161474609375,0.0024924552999436855,0.003275162074714899,0.0006636840407736599
1782987264299221500,5.126221435546875,0.00040879787411540747,0.0019188141450285912,0.0020703657064586878
1782987264309296400,5.13629638671875,0.0016337319975718856,0.0018537112046033144,0.001013982924632728
1782987264319370500,5.14637060546875,0.0009708713041618466,0.0014920539688318968,0.0023799182381480932
1782987264329445400,5.1564453125,-0.000015047728084027767,0.0023879779037088156,0.002714059315621853
1782987264339519500,5.16651953125,0.00009334285277873278,0.002186642726883292,0.002339618746191263
1782987264349593300,5.17659326171875,0.0030584558844566345,-0.0004266020841896534,0.000722777855116874
1782987264359668500,5.18666845703125,0.0014685489004477859,0.0005686210934072733,0.002491915598511696
1782987264369742300,5.196742431640625,0.0015476439148187637,0.0022607571445405483,0.0024796421639621258
1782987264379817500,5.2068173828125,0.0012650825083255768,-0.00020612904336303473,-0.0033694584853947163
1782987264389891300,5.216891357421875,-0.00106300157494843,-0.0006233727326616645,-0.0020479520317167044
1782987264399965200,5.226965087890625,0.0003410169156268239,0.0005140632856637239,-0.002275918610394001
1782987264410040300,5.237040283203125,-0.00036151311360299587,-0.0012589131947606802,-0.00044719516881741583
1782987264420114200,5.2471142578125,-0.0014890955062583089,0.0012676278129220009,0.00007212122727651149
1782987264430189300,5.257189208984375,-0.000980644952505827,-0.0004977735225111246,0.0005941520794294775
1782987264440263200,5.26726318359375,0.00152112846262753,0.0007520481012761593,-0.0002508689649403095
1782987264450337500,5.277337646484375,0.00010881572961807251,0.00006300164386630058,0.0016084004892036319
1782987264460412200,5.287412109375,0.00004489987622946501,-0.0009990669786930084,-0.00010055000893771648
1782987264470486500,5.297486572265625,-0.0022216325160115957,-0.0025201498065143824,-0.0017806165851652622
1782987264480561400,5.3075615234375,-0.0010578312212601304,0.0011832420714199543,-0.002592880744487047
1782987264490635500,5.317635498046875,-0.002435988513752818,0.0008683009073138237,-0.0012436546385288239
1782987264500709400,5.32770947265625,0.00046872126404196024,0.001223566709086299,0.0012879462447017431
1782987264510784500,5.337784423828125,0.0005380879156291485,-0.0015582190826535225,-0.0009490189841017127
1782987264520858400,5.3478583984375,0.000789490295574069,-0.000890031922608614,0.0009617991163395345
1782987264530933500,5.35793359375,-0.00046683778055012226,-0.00003586593084037304,0.0009870894718915224
1782987264541007400,5.36800732421875,0.0023443950340151787,-0.0001021786592900753,-0.0011405098484829068
1782987264551081500,5.37808154296875,-0.00004006957169622183,-0.001442671287804842,0.002663110615685582
1782987264561156400,5.38815625,-0.0006499334704130888,-0.0001302654854953289,0.0003821131831500679
1782987264571230500,5.39823046875,0.0006305571878328919,0.0005432809703052044,0.0017424261895939708
1782987264581305300,5.408305419921875,-0.0011106175370514393,-0.0000910838134586811,0.0016665260773152113
1782987264591379500,5.41837939453125,0.001484871027059853,-0.000170557526871562,-1.488388079451397e-7
1782987264601453300,5.428453369140625,0.00028538331389427185,-0.0025442331098020077,0.002595634199678898
1782987264611528400,5.438528564453125,0.0002831831807270646,0.004136380273848772,-0.0006400604033842683
1782987264621602300,5.448602294921875,-0.002152277622371912,0.001992535777390003,-0.0031426327768713236
1782987264631677400,5.458677490234375,0.00027048971969634295,0.0007643394637852907,0.001193437841720879
1782987264641751300,5.468751220703125,-0.0010224749566987157,0.0009550217073410749,0.001020865049213171
1782987264651825400,5.478825439453125,0.0011094321962445974,-0.0013951624277979136,0.0010549003491178155
1782987264661900300,5.488900390625,-0.0012698359787464142,0.0021758703514933586,-0.002750490326434374
1782987264671974400,5.498974365234375,0.0008600328583270311,0.0004905902314931154,-0.003157514613121748
1782987264682049300,5.50904931640625,0.0004453785950317979,-0.0004340594168752432,-0.0006296419887803495
1782987264692123400,5.519123291015625,0.0010772321838885546,0.0006171348504722118,-0.0025904530193656683
1782987264702197200,5.529197265625,-0.0016165552660822868,0.00014229328371584415,-0.00011797441402450204
1782987264712272400,5.5392724609375,-0.00001858395989984274,-0.0005593117093667388,0.00004771566455019638
1782987264722346200,5.54934619140625,-0.0008438975783064961,0.0006921077147126198,0.0017508071614429355
1782987264732420400,5.55942041015625,-0.002422348130494356,-0.000008960487321019173,0.00004345932393334806
1782987264742495200,5.5694951171875,0.0019854498095810413,0.0006967771332710981,0.0010738363489508629
1782987264752569300,5.5795693359375,-0.001074036001227796,0.00021613948047161102,-0.0000627208428340964
1782987264762644200,5.589644287109375,0.00016539916396141052,0.0022124447859823704,0.0004901514039374888
1782987264772718300,5.59971826171875,0.001200946280732751,-0.0008176252013072371,0.0012335904175415635
1782987264782792400,5.60979248046875,0.00013062194921076298,0.0014370069839060307,-0.00035498524084687233
1782987264792867300,5.619867431640625,0.0005215097917243838,-0.0015856616664677858,0.00008317203901242465
1782987264802941400,5.62994140625,0.0017841143999248743,-0.0010154788615182042,0.00040248504956252873
1782987264813015600,5.640015625,-0.000774335814639926,0.001352269435301423,0.0019139908254146576
1782987264823090400,5.65009033203125,0.0004973235772922635,-0.0003830463392660022,-0.0005145456525497139
1782987264833164500,5.66016455078125,-0.00013005785876885056,0.0011042868718504906,0.002507563680410385
1782987264843239400,5.670239501953125,-0.00031008757650852203,-0.00037057173904031515,-0.0007441560155712068
1782987264853313500,5.6803134765625,-0.0009550405666232109,-0.00036529952194541693,-0.0017858825158327818
1782987264863387400,5.690387451171875,0.0008332721190527081,-0.0005365408724173903,-0.00003485409979475662
1782987264873462500,5.700462646484375,-0.000999519950710237,0.001798730343580246,0.0014597122790291905
1782987264883536400,5.710536376953125,0.0008367295376956463,0.001540670171380043,-0.001195725635625422
1782987264893611500,5.720611572265625,-0.001509333960711956,0.0002137916162610054,0.000267706869635731
1782987264903685400,5.730685302734375,-0.0014451517490670085,-0.0004906144458800554,0.00044267656630836427
1782987264913759500,5.740759521484375,-0.001111758523620665,0.0009546075016260147,0.0005251585389487445
1782987264923834400,5.75083447265625,0.0011127799516543746,0.0008193189278244972,0.0012519352603703737
1782987264933908500,5.760908447265625,-0.0015029916539788246,0.0012154097203165293,0.0006445664912462234
1782987264943983400,5.7709833984375,-0.00042734091402962804,-0.0006320251850411296,-0.0017365658422932029
1782987264954057500,5.781057373046875,-0.00007776671554893255,0.0016539962962269783,-0.0013206035364419222
1782987264964131300,5.79113134765625,-0.001566207385621965,0.0005687579978257418,-0.001829001004807651
1782987264974206500,5.80120654296875,0.00018570467364042997,-0.0004714047536253929,0.002267146483063698
1782987264984280300,5.8112802734375,-0.001164784305728972,0.0016567271668463945,0.0035862100776284933
1782987264994355500,5.82135546875,0.0014370393473654985,-0.00286272494122386,-0.0012947708601132035
1782987265004429300,5.83142919921875,0.0002782979281619191,-0.0005873201880604029,-0.0009166020317934453
1782987265014503400,5.84150341796875,0.0008088984759524465,-0.0014884978299960494,-0.0007277603726834059
1782987265024578300,5.851578369140625,0.0005974434316158295,-0.0008738401811569929,0.0011641491437330842
1782987265034652400,5.86165234375,-0.0007615309441462159,-0.0003688158467411995,-0.0014940697001293302
1782987265044727300,5.871727294921875,0.0014528875472024083,-0.001580554060637951,0.0014556475216522813
1782987265054801400,5.881801513671875,0.0003254660405218601,0.0001778190489858389,0.0009220000938512385
1782987265064875300,5.891875244140625,0.0014866043347865343,0.0011112571228295565,0.0025135052856057882
1782987265074950400,5.901950439453125,0.0015887718182057142,0.0024281188379973173,-0.0008330440614372492
1782987265085024300,5.912024169921875,-0.000022706808522343636,-0.0023381407372653484,-0.0007542144740000367
1782987265095099400,5.922099365234375,-0.00035824207589030266,0.001128283329308033,-0.000024039065465331078
1782987265105173200,5.93217333984375,-0.0023212581872940063,0.0017064556013792753,0.0025003713089972734
1782987265115247600,5.94224755859375,-0.0001971354358829558,0.0001581721007823944,-0.0031904391944408417
1782987265125322200,5.952322265625,-0.0001425406662747264,0.00023859948851168156,0.0030967514030635357
1782987265135396600,5.962396728515625,0.0010302462615072727,-0.0008239282760769129,0.0013004958163946867
1782987265145471200,5.97247119140625,-0.001191895455121994,0.0011739751789718866,0.0016182109247893095
1782987265155546400,5.98254638671875,-0.001349531696178019,0.0005722667556256056,-0.0017102266428992152
1782987265165620200,5.9926201171875,-0.0013633801136165857,-0.0007180348038673401,0.001479707658290863
1782987265175695400,6.0026953125,0.00010891619604080915,0.0011068626772612333,0.0011709885438904166
1782987265185769200,6.012769287109375,-0.0017758028116077185,0.0004615788348019123,0.000655134383123368
1782987265195843600,6.022843505859375,-0.0003047860227525234,-0.00023239897564053535,0.0015106169739738107
1782987265205918200,6.032918212890625,0.0008222637698054314,-0.0025623985566198826,0.002268020063638687
1782987265215992600,6.04299267578125,0.00047154026105999947,0.00016353442333638668,0.0013850837713107467
1782987265226067200,6.053067138671875,0.0002606179332360625,-0.0010146481217816472,0.0011928034946322441
1782987265236141600,6.0631416015625,-0.000725816935300827,-0.0005611118394881487,0.0012652415316551924
1782987265246215400,6.07321533203125,0.00015249359421432018,-0.0008870826568454504,-0.003928455524146557
1782987265256290600,6.08329052734375,-0.00022349110804498196,0.00043491763062775135,0.0003539591853041202
1782987265266364400,6.093364501953125,-0.0006472000386565924,0.0010045678354799747,0.004747375845909119
1782987265276439600,6.103439453125,0.00021825882140547037,-0.00016076001338660717,-0.0025680141989141703
1782987265286513400,6.113513427734375,0.0019983157981187105,0.0009849320631474257,-0.00024866723106242716
1782987265296587500,6.12358740234375,0.0011096314992755651,0.000008838251233100891,0.0017754420405253768
1782987265306662400,6.133662353515625,0.0014462550170719624,0.0003174985758960247,-0.0011500403052195907
1782987265316736500,6.143736572265625,0.0005102527793496847,0.0012893218081444502,-0.0012493530521169305
1782987265326811400,6.153811279296875,-0.0016029655234888196,0.0006056884303689003,-0.0023359227925539017
1782987265336885500,6.163885498046875,0.0008773349691182375,0.0006011975929141045,-0.00022294739028438926
1782987265346959400,6.17395947265625,0.0011156877735629678,0.0025527619291096926,-0.0030291201546788216
1782987265357034500,6.184034423828125,0.000655281008221209,-0.0019026993541046977,0.00013290232163853943
1782987265367108400,6.1941083984375,-0.0006126500084064901,-0.002252106089144945,0.00022584665566682816
1782987265377183500,6.20418359375,-0.0006879338761791587,-0.0026243007741868496,-0.00009201322245644405
1782987265387257300,6.21425732421875,-0.0023321695625782013,-0.001417622435837984,-0.0007966856355778873
1782987265397331500,6.22433154296875,-0.0024311793968081474,0.00029021408408880234,0.0005379635840654373
1782987265407406300,6.23440625,0.00006713182665407658,-0.0011668013175949454,0.002319618361070752
1782987265417480400,6.24448046875,-0.0013305095490068197,0.0022461172193288803,0.0012587136588990688
1782987265427555300,6.254555419921875,-0.0006775023648515344,0.0010735276155173779,0.000643789826426655
1782987265437629400,6.26462939453125,-0.0003427354386076331,-0.0023497429210692644,0.00041997648077085614
1782987265447703300,6.274703369140625,-0.0025014937855303288,-0.0007300082361325622,-0.0010636704973876476
1782987265457778400,6.2847783203125,0.0006151049165055156,-0.0026953548658639193,0.0010729669593274593
1782987265467852300,6.294852294921875,-0.0014701501931995153,-0.0015326187713071704,-0.0023859464563429356
1782987265477926400,6.304926513671875,-0.001270564622245729,-0.0005702152848243713,0.0016629555029794574
1782987265488001300,6.315001220703125,0.001007769606076181,-0.0017278913874179125,-0.0005525281303562224
1782987265498075400,6.325075439453125,0.001694463542662561,0.00047595612704753876,-0.000647266220767051
1782987265508150300,6.335150390625,-0.0013039895566180348,0.00365710211917758,0.0011519653489813209
1782987265518224400,6.345224365234375,-0.00005263322964310646,0.0028161262162029743,-0.002730624284595251
1782987265528298500,6.355298583984375,-0.001077950233593583,0.00010849046520888805,-0.001006759935989976
1782987265538373400,6.365373291015625,-0.00017846282571554184,-0.000422767479903996,-0.005860233213752508
1782987265548447500,6.375447509765625,-0.001080209156498313,0.0005815105978399515,-0.009033655747771263
1782987265558522400,6.3855224609375,-0.0010250061750411987,0.003646231023594737,-0.002127761719748378
1782987265568596500,6.395596435546875,0.0005838093347847462,0.001646463293582201,-0.0023855557665228844
1782987265578670600,6.405670654296875,0.0009661298245191574,-0.0006247226847335696,-0.002731479238718748
1782987265588745500,6.415745361328125,-0.00005146395415067673,0.002015002304688096,-0.0020118930842727423
1782987265598819600,6.425819580078125,-0.0013985555851832032,0.00014550285413861275,-0.001532064052298665
1782987265608894500,6.43589453125,-0.00030745851108804345,-0.0014513283967971802,-0.0011357857147231698
1782987265618968600,6.445968505859375,-0.0004689000779762864,-0.00038670748472213745,-0.002915245248004794
1782987265629042400,6.45604248046875,-0.0003346767625771463,0.0021286483388394117,-0.0006496940040960908
1782987265639117600,6.46611767578125,-0.0015678724739700556,0.0052564870566129684,0.0038642892614006996
1782987265649191400,6.47619140625,0.00047423935029655695,0.006363030523061752,0.0028874417766928673
1782987265659266600,6.4862666015625,-0.000047656474635005,0.0039734914898872375,0.0009559727041050792
1782987265669340400,6.49634033203125,0.0024176316801458597,-0.0010170061141252518,0.000682199839502573
1782987265679414500,6.50641455078125,0.0005669738166034222,-0.0025364982429891825,-0.0012134225107729435
1782987265689489400,6.516489501953125,0.0021190638653934,0.0010161586105823517,-0.002113038208335638
1782987265699563500,6.5265634765625,-0.0003630523569881916,0.004824589006602764,0.001235026167705655
1782987265709638400,6.536638427734375,0.002313690958544612,0.005871212109923363,0.00252852332778275
1782987265719712500,6.54671240234375,-0.0014750618720427155,0.003582106903195381,0.0011035571806132793
1782987265729786400,6.556786376953125,0.0021284613758325577,-0.004460373427718878,0.001420473330654204
1782987265739861500,6.566861572265625,0.0017085570143535733,-0.0047692544758319855,-0.00007500804349547252
1782987265749935400,6.576935302734375,-0.0008749755215831101,0.0006606648676097393,-0.0005141632864251733
1782987265760010500,6.587010498046875,0.0033819673117250204,-0.002984597347676754,-0.0033098747953772545
1782987265770084400,6.59708447265625,0.0004871112760156393,-0.0029896574560552835,-0.002859800588339567
1782987265780158500,6.607158447265625,0.0005884562851861119,0.004425568971782923,0.0013388392981141806
1782987265790233300,6.6172333984375,0.0026436178013682365,0.00945361703634262,0.00484782038256526
1782987265800307500,6.627307373046875,0.000874788616783917,0.00856153666973114,0.0033582006581127644
1782987265810382300,6.63738232421875,0.0013863819185644388,0.008406009525060654,0.007237627170979977
1782987265820456400,6.64745654296875,0.00020720320753753185,0.003203184809535742,0.006347552873194218
1782987265830530300,6.6575302734375,0.002178208902478218,0.0020950431935489178,0.0031392425298690796
1782987265840605400,6.66760546875,-0.0005316826282069087,0.000705475453287363,0.0031938303727656603
1782987265850679300,6.67767919921875,-0.0007836176082491875,0.00012570549733936787,0.0013943322701379657
1782987265860754400,6.68775439453125,0.001019060262478888,0.00007366202771663666,0.0020954743959009647
1782987265870828300,6.697828369140625,0.00017217511776834726,0.0002859160304069519,0.002470447449013591
1782987265880902700,6.707902587890625,0.002221438568085432,0.000016748672351241112,0.0009589357068762183
1782987265890977300,6.717977294921875,-0.00008965254528447986,-0.0010554399341344833,0.0011296444572508335
1782987265901051600,6.7280517578125,-0.00011399708455428481,-0.0003607006510719657,0.0018719268264248967
1782987265911126300,6.738126220703125,-0.000023715896531939507,-0.002101342659443617,0.002116937655955553
1782987265921200600,6.74820068359375,0.0005228663794696331,0.0014248406514525414,-0.001180549617856741
1782987265931274500,6.7582744140625,-0.00015490810619667172,-0.0020140991546213627,0.002371574752032757
1782987265941349600,6.768349609375,0.0009426228934898973,-0.0002975849201902747,0.0015516034327447414
1782987265951423500,6.778423583984375,-0.000257131177932024,0.0025879498571157455,0.0014645180199295282
1782987265961498600,6.78849853515625,0.002242026384919882,0.002069931011646986,0.0042307740077376366
1782987265971572500,6.798572509765625,0.0010659744730219245,0.0004864153452217579,0.0013750663492828608
1782987265981646600,6.808646484375,0.0011323026847094297,0.002428199630230665,-0.0024164302740246058
1782987265991721500,6.818721435546875,-0.0009502891916781664,0.0036263559013605118,-0.0008600789005868137
1782987266001795600,6.828795654296875,0.00008000375237315893,0.0009224854875355959,-0.002997509203851223
1782987266011870500,6.838870361328125,-0.003555211005732417,0.0007112969178706408,-0.003590329084545374
1782987266021944600,6.848944580078125,0.00038190814666450024,0.0007533375173807144,0.00008720748883206397
1782987266032018400,6.859018310546875,-0.000749136321246624,-0.0011822478845715523,0.0009047979256138206
1782987266042093600,6.869093505859375,-0.0015079996082931757,0.0023804553784430027,0.0004634662764146924
1782987266052167400,6.87916748046875,-0.0011740392073988914,-0.002348519628867507,0.0008988931076601148
1782987266062242600,6.88924267578125,-0.00034635409247130156,-0.00039858976379036903,-0.00048650664393790066
1782987266072316400,6.89931640625,-0.0011024255072697997,-0.001270508742891252,-0.004553153179585934
1782987266082390300,6.909390380859375,-0.0002131666406057775,0.00008538574911653996,-0.0009244984830729663
1782987266092465400,6.91946533203125,-0.000289066752884537,-0.0008376658661291003,-0.0044105760753154755
1782987266102539300,6.929539306640625,-0.0010070106945931911,-0.0011172977974638343,-0.00218257587403059
1782987266112614400,6.939614501953125,-0.0011921004625037313,-0.003706955583766103,-0.0008291573030874133
1782987266122688500,6.9496884765625,0.0003514289855957031,-0.0015142238698899746,-0.0022050675470381975
1782987266132762400,6.959762451171875,0.000016137026250362396,-0.0014026373391970992,0.0024477411061525345
1782987266142837500,6.96983740234375,-0.0006248134304769337,-0.0009908033534884453,-0.0018888808554038405
1782987266152911400,6.979911376953125,-0.00017180974828079343,0.0014033785555511713,0.00016681314446032047
1782987266162985200,6.989985107421875,-0.001505332882516086,-0.0006104619242250919,-0.001500783022493124
1782987266173060400,7.000060302734375,-0.0000011795200407505035,0.0029544453136622906,-0.0007851916016079485
1782987266183134200,7.01013427734375,-0.00006630830466747284,0.0011706964578479528,0.00005772203439846635
1782987266193209300,7.020209228515625,-0.00029374234145507216,0.00043007126078009605,-0.0022629566956311464
1782987266203283200,7.030283203125,0.0012188423424959183,-0.000023422064259648323,0.0009012200171127915
1782987266213358300,7.0403583984375,-0.001625946257263422,0.00403656717389822,-0.0012564730131998658
1782987266223432200,7.05043212890625,-0.0002503692521713674,0.0029092812910676003,-0.0014676906866952777
1782987266233506600,7.060506591796875,0.00040263787377625704,-0.00006839889101684093,-0.0024964697659015656
1782987266243581400,7.07058154296875,-0.0010323754977434874,-0.0023551350459456444,-0.002350621158257127
1782987266253655600,7.080655517578125,-0.001402554800733924,0.0009434563107788563,-0.0028145438991487026
1782987266263729400,7.0907294921875,-0.001486122258938849,0.000026638619601726532,0.0003032885433640331
1782987266273804500,7.100804443359375,-0.0011729345424100757,-0.0008455464849248528,0.00041620657430030406
1782987266283878400,7.11087841796875,0.0007242467254400253,-0.0035915682092309,0.0017008924623951316
1782987266293953500,7.12095361328125,-0.001686712959781289,0.002863401547074318,0.0004950130823999643
1782987266304027400,7.13102734375,0.00008650077506899834,-0.002292290097102523,0.0006773411296308041
1782987266314101500,7.1411015625,-0.00021789857419207692,0.0012627635151147842,0.0011436606291681528
1782987266324176400,7.15117626953125,-0.0010847968515008688,-0.0013342017773538828,0.0021490948274731636
1782987266334250500,7.16125048828125,-0.0001460325438529253,-0.0013357996940612793,-0.0023993179202079773
1782987266344325400,7.171325439453125,-0.0013301374856382608,0.00008891616016626358,0.00005607126513496041
1782987266354399500,7.1813994140625,-0.0017075072973966599,-0.0006146910600364208,-0.001530906418338418
1782987266364473300,7.191473388671875,-0.0011629515793174505,0.0002115359529852867,-0.002866093534976244
1782987266374548500,7.201548583984375,0.0003404028248041868,-0.0026921085081994534,0.0007211845368146896
1782987266384622000,7.2116220703125,0.0008622228633612394,-0.00045463070273399353,-0.0011641362216323614
1782987266394697000,7.221697021484375,-0.000757511705160141,0.0005120967980474234,-0.0009747854783199728
1782987266404771000,7.23177099609375,-0.0006625021924264729,-0.0002354048192501068,-0.0013306684559211135
1782987266414845000,7.241844970703125,0.001862973440438509,0.0003515558782964945,-0.003695023013278842
1782987266424920000,7.251920166015625,0.0009905056795105338,0.00032011838629841805,-0.0013159625232219696
1782987266434994000,7.261993896484375,-0.001130169490352273,0.0020738099701702595,0.0014670408563688397
1782987266445069000,7.272069091796875,0.001353381434455514,0.0009484116453677416,0.00026575947413221
1782987266455143000,7.282142822265625,-0.0014109797775745392,0.0014714566059410572,-0.001182733802124858
1782987266465217000,7.292217041015625,-0.002257388550788164,0.0010622288100421429,0.0009419644484296441
1782987266475292000,7.3022919921875,-0.0025889521930366755,0.0004534302279353142,-0.0012655297759920359
1782987266485366000,7.312365966796875,0.002758739050477743,-0.0007975252810865641,0.0019374446710571647
1782987266495441000,7.32244091796875,0.0011150360805913806,-0.0005312091670930386,0.0018474298994988203
1782987266505515000,7.332514892578125,-0.0013352561509236693,-0.0004880590131506324,-0.0006847113836556673
1782987266515589000,7.342589111328125,-0.0005152688827365637,-0.00019830709788948298,-0.0012572910636663437
1782987266525664000,7.3526640625,0.00027522502932697535,0.000052033690735697746,0.0025042917113751173
1782987266535738000,7.362738037109375,0.0013740453869104385,0.0013218289241194725,0.002568740164861083
1782987266545813000,7.37281298828125,-0.00020011002197861671,0.002427187282592058,-0.0008014357881620526
1782987266555887000,7.38288720703125,-0.000007030903361737728,0.0017392931040376425,-0.0012057035928592086
1782987266565961200,7.392961181640625,0.0025183018296957016,0.001701506320387125,0.001831959467381239
1782987266576036000,7.4030361328125,0.0013790015364065766,0.0021995173301547766,0.00018878906848840415
1782987266586110200,7.413110107421875,0.0026767244562506676,0.0008819010108709335,0.002201650757342577
1782987266596185000,7.42318505859375,0.0018543401965871453,-0.00019188562873750925,-0.00035525020211935043
1782987266606259200,7.43325927734375,0.0026252823881804943,0.0025512187276035547,-0.002431329572573304
1782987266616333000,7.4433330078125,0.0013261924032121897,0.0020305707585066557,-0.00041584932478144765
1782987266626408200,7.453408203125,0.001197595614939928,0.0004575415514409542,0.0005449309828691185
1782987266636482000,7.46348193359375,-0.0013332064263522625,0.0017507723532617092,0.0016517407493665814
1782987266646557200,7.47355712890625,0.00023101980332285166,-0.0015522995963692665,-0.0020219432190060616
1782987266656631000,7.483631103515625,0.0010448818793520331,0.0013129953294992447,-0.0007111353916116059
1782987266666705200,7.493705078125,-0.0008177788695320487,0.0013054204173386097,-0.0026002232916653156
1782987266676780000,7.503780029296875,-0.0003772919881157577,-0.00011963723227381706,-0.0017565339803695679
1782987266686854100,7.513854248046875,0.00017701741307973862,0.00006638607010245323,-0.0026412506122142076
1782987266696929000,7.523928955078125,-0.00046240759547799826,-0.0003216364420950413,0.0007984880940057337
1782987266707003100,7.534003173828125,-0.0006500459276139736,0.0007937734480947256,-0.003894953290000558
1782987266717077000,7.544076904296875,-0.00046096148435026407,-0.0014653860125690699,-0.0010554910404607654
1782987266727152000,7.554152099609375,0.0004572203615680337,-0.0038590983022004366,-0.0010226708836853504
1782987266737226000,7.56422607421875,-0.0026490907184779644,0.0007329904474318027,-0.00010228239989373833
1782987266747301000,7.574301025390625,-0.0015752669423818588,0.0016066392417997122,0.00211787479929626
1782987266757375000,7.584375,0.0002846847055479884,0.0006625487003475428,0.00018175675359088928
1782987266767449000,7.594448974609375,-0.0014195931144058704,0.0010318716522306204,0.002421178389340639
1782987266777524000,7.60452392578125,-0.000498671957757324,0.0021389476023614407,0.0027551387902349234
1782987266787598000,7.61459814453125,0.0007651845226064324,0.002168946200981736,-0.0009815481025725603
1782987266797673000,7.6246728515625,-0.0007048804545775056,0.0018323229160159826,0.0025668477173894644
1782987266807747000,7.6347470703125,0.0004800516180694103,0.0009710711892694235,-0.00032267128699459136
1782987266817821000,7.644821044921875,0.0010297279804944992,-0.0012132534757256508,-0.0007272054790519178
1782987266827896000,7.65489599609375,0.0003355036024004221,0.0003748624585568905,0.0015013961819931865
1782987266837970000,7.664969970703125,0.001626870478503406,0.000644108047708869,0.004435666836798191
1782987266848045000,7.675045166015625,0.001530348090454936,-0.002430897206068039,-0.0019307603361085057
1782987266858119000,7.685118896484375,0.0009103640913963318,-0.0006436498370021582,0.00014277697482611984
1782987266868193000,7.695193115234375,0.00024736893828958273,0.0015533925034105778,0.0010865539079532027
1782987266878268000,7.705267822265625,-0.0002727464307099581,-0.00047700153663754463,0.000956325326114893
1782987266888342000,7.715342041015625,-0.0004228350007906556,-0.00023443717509508133,-0.0007219529943540692
1782987266898416000,7.725416015625,-0.0008260375470854342,0.0003043203614652157,0.0019286912865936756
1782987266908491000,7.735490966796875,0.0020071445032954216,-0.0024602189660072327,0.001554237911477685
1782987266918565000,7.745565185546875,0.00009259814396500587,-0.000030084513127803802,-0.001459128805436194
1782987266928640000,7.755639892578125,-0.0004411663976497948,0.00010830303654074669,0.0006956643192097545
1782987266938714000,7.765714111328125,0.001950352336280048,-0.000984924496151507,-0.00042739073978736997
1782987266948788000,7.7757880859375,0.00015024503227323294,-0.001292122178710997,-0.0000037243225960992277
1782987266958863000,7.785863037109375,0.0011246957583352923,0.001159051200374961,0.001931328559294343
1782987266968937200,7.795937255859375,-0.00014955131337046623,-0.00244230218231678,0.0015629481058567762
1782987266979012000,7.80601220703125,-0.0009261291124857962,0.0016935868188738823,-0.0003340215771459043
1782987266989086200,7.816086181640625,-0.0014404959511011839,-0.002567859133705497,0.001915452186949551
1782987266999160000,7.82616015625,-0.0010138575453311205,0.00028252205811440945,0.0008690961985848844
1782987267009235200,7.836235107421875,0.001469064736738801,-0.0002188282087445259,-0.00043208885472267866
1782987267019309000,7.84630908203125,-0.0008521465351805091,0.00019928812980651855,0.0005282470374368131
1782987267029384200,7.85638427734375,-0.0012023372109979391,0.0017204012256115675,0.00117588066495955
1782987267039458000,7.8664580078125,-0.0010627876035869122,0.00005113193765282631,0.00022300166892819107
1782987267049532000,7.876531982421875,-0.0009882542071864009,0.0012923860922455788,0.001134813646785915
1782987267059607000,7.88660693359375,0.00025597470812499523,0.0010923827067017555,-0.005142789799720049
1782987267069681000,7.896680908203125,0.0005120063433423638,0.0022609629668295383,-0.0021759187802672386
1782987267079756000,7.906756103515625,0.00025234813801944256,-0.00033215712755918503,0.0003828461922239512
1782987267089830100,7.916830078125,-0.0010917363688349724,-0.00013324851170182228,0.0013951965374872088
1782987267099904000,7.926904052734375,-0.0005556420655921102,0.0011871466413140297,-0.0010429273825138807
1782987267109979100,7.936979248046875,0.002086897846311331,0.0014431211166083813,-0.00025269322213716805
1782987267120053000,7.947052978515625,0.0002823399845510721,-0.0004932633601129055,0.0009217607439495623
1782987267130128100,7.957128173828125,0.0009089289233088493,-0.0011766389943659306,0.00018215019372291863
1782987267140202000,7.967201904296875,0.00013315014075487852,0.00030301325023174286,0.00247353408485651
1782987267150275800,7.97727587890625,0.0015913508832454681,-0.0003758877282962203,0.0013230516342446208
1782987267160351000,7.98735107421875,-0.0013490451965481043,-0.0003902687458321452,0.0008569984929636121
1782987267170424800,7.9974248046875,-0.0017060561804100871,0.0025689383037388325,-0.0031321379356086254
1782987267180500000,8.0075,0.000317147234454751,0.0005689042154699564,-0.001161931548267603
1782987267190573800,8.01757373046875,-0.002169167622923851,-0.002579246647655964,-0.0010041899513453245
1782987267200648200,8.027648193359376,0.00032195320818573236,-0.0006716244388371706,0.0014379287604242563
1782987267210723000,8.03772314453125,-0.0020339847542345524,-0.0019945784006267786,0.0007002546335570514
1782987267220797200,8.047797119140625,-0.00181347515899688,-0.001121061504818499,0.00000623487721895799
1782987267230872000,8.0578720703125,-0.0009667727863416076,0.00007987325079739094,0.0029033427126705647
1782987267240946200,8.0679462890625,-0.0004778164438903332,-0.00009642797522246838,0.001794402371160686
1782987267251020000,8.07802001953125,0.00007843447383493185,0.00020465999841690063,-0.00034769924241118133
1782987267261095200,8.08809521484375,-0.0004640514962375164,0.0017138735856860876,0.0017617907142266631
1782987267271169000,8.0981689453125,0.00064380734693259,0.0002622648607939482,0.0006132668349891901
1782987267281244200,8.108244140625,0.0023985642474144697,-0.0019177988870069385,-0.0019082140643149614
1782987267291318000,8.118318115234375,0.0017659961013123393,0.002308441558852792,-0.00019948239787481725
1782987267301392100,8.12839208984375,0.0004131102468818426,0.0005230584647506475,-0.001238381490111351
1782987267311467000,8.138467041015625,0.0004200476687401533,-0.0013409450184553862,0.002163179684430361
1782987267321541000,8.148541015625,-0.0003011363442055881,0.0008487061131745577,0.00010508889681659639
1782987267331616000,8.158615966796875,-0.0017128719482570887,0.002716817893087864,0.00013691841741092503
1782987267341690000,8.168690185546875,0.0026328745298087597,0.0021660765632987022,-0.002784303156659007
1782987267351764000,8.178763916015624,-0.0004950365400873125,0.00013867276720702648,0.0012919846922159195
1782987267361839000,8.188839111328125,-0.0009957108413800597,0.0027323251124471426,0.0022145037073642015
1782987267371913000,8.198912841796876,0.0032942225225269794,-0.00007947627454996109,0.002785247750580311
1782987267381988000,8.208988037109375,0.0014124327572062612,0.00021054199896752834,0.00039293032023124397
1782987267392062000,8.21906201171875,0.001486349618062377,0.0017563931178301573,0.00036877417005598545
1782987267402136000,8.229135986328124,0.000792862381786108,-0.0006998402532190084,0.00045772374141961336
1782987267412211000,8.2392109375,-0.0005025293212383986,0.00048522953875362873,-0.0006476201233454049
1782987267422285000,8.24928515625,-0.0015254495665431023,0.0010876364540308714,0.002395041286945343
1782987267432359000,8.25935888671875,0.00036447832826524973,0.00004388485103845596,0.002660199534147978
1782987267442434000,8.26943408203125,0.0005061584524810314,-0.00005838042125105858,-0.00010868903336813673
1782987267452508000,8.2795078125,0.004298363346606493,-0.002430288353934884,0.002605482703074813
1782987267462583000,8.2895830078125,0.0008738043252378702,-0.0013628934975713491,-0.0010435805888846517
1782987267472657000,8.299656982421874,0.0004444994265213609,0.002330391202121973,0.0011194056132808328
1782987267482732000,8.30973193359375,-0.0024279861245304346,-0.0015240015927702188,-0.0007485355017706752
1782987267492806000,8.319805908203126,-0.0019673036877065897,0.0013121638912707567,-0.00028909218963235617
1782987267502880000,8.3298798828125,-0.0009124255739152431,-0.0011224979534745216,-0.003725102636963129
1782987267512955000,8.339954833984375,0.0025378935970366,0.00040583848021924496,-0.00109285325743258
1782987267523029000,8.350029052734374,0.0009863360319286585,-0.0029920886736363173,-0.0021589165553450584
1782987267533103000,8.36010302734375,0.0023034566547721624,0.001200622646138072,-0.0017185206525027752
1782987267543178000,8.370177978515626,0.00006853195372968912,0.003122093388810754,-0.0010327566415071487
1782987267553252000,8.380252197265625,0.00043256068602204323,-0.003391641192138195,0.0002868649607989937
1782987267563327000,8.390326904296876,0.0005803661188110709,-0.0008049128809943795,0.0003587703104130924
1782987267573401000,8.400401123046874,-0.0020869383588433266,0.0003638151101768017,0.0007541574887000024
1782987267583475200,8.41047509765625,0.0007373441476374865,0.0024333572946488857,-0.0015875600511208177
1782987267593550000,8.420550048828124,0.0019382528262212873,-0.0002535131061449647,0.0003341383708175272
1782987267603624200,8.430624267578125,0.00010653049685060978,-0.0011307584354653955,0.00022068771068006754
1782987267613699000,8.440698974609376,-0.000023069093003869057,0.003916899673640728,0.0023753258865326643
1782987267623773200,8.450773193359375,-0.00005769019480794668,-0.000009931391105055809,-0.0004545491829048842
1782987267633847000,8.460846923828125,0.0009127323282882571,0.0025030586402863264,-0.00003690275480039418
1782987267643922200,8.470922119140624,0.0007287078769877553,-0.0008277570595964789,0.0002643007901497185
1782987267653996000,8.48099609375,0.00020713394042104483,0.0013873651623725891,-0.003686166601255536
1782987267664071200,8.4910712890625,0.0008228567894548178,0.000997744733467698,-0.000663212442304939
1782987267674145000,8.50114501953125,0.0009361566044390202,-0.0015895736869424582,-0.0012309945886954665
1782987267684219000,8.511218994140625,0.0001864767400547862,0.0010938274208456278,0.0018534786067903042
1782987267694294000,8.5212939453125,-0.0024461238645017147,0.0015371625777333975,0.0015806956216692924
1782987267704368000,8.5313681640625,-0.0019513085717335343,0.0010684460867196321,-0.0005362509982660413
1782987267714443000,8.541443115234374,0.00009479105938225985,-0.0011703020427376032,-0.0023323276545852423
1782987267724517000,8.55151708984375,0.0014508726308122277,0.0007961760275065899,0.00007117528730304912
1782987267734591000,8.561591064453125,0.0012993364362046123,0.0006127525120973587,0.0007033973233774304
1782987267744666000,8.571666015625,-0.001364090945571661,-0.0008200282463803887,-0.00006385938468156382
1782987267754740000,8.581739990234375,-0.00032549735624343157,-0.0007522153900936246,0.0002482394047547132
1782987267764815000,8.591815185546874,-0.0004208385362289846,0.0007082622032612562,0.0009851361392065883
1782987267774889000,8.601888916015625,-0.00013580534141510725,0.00014951801858842373,0.002995119197294116
1782987267784962800,8.611962890625,-0.000509713136125356,-0.0003868426429107785,-0.00041479215724393725
1782987267795038000,8.622037841796875,0.0024545597843825817,0.0000445398036390543,0.00005248362140264362
1782987267805111800,8.63211181640625,0.0004992670146748424,0.00008741673082113266,0.0011398523347452283
1782987267815187000,8.64218701171875,-0.000368177832569927,-0.000322687323205173,0.0009566646767780185
1782987267825261000,8.652260986328125,-0.00009227439295500517,-0.0014899508096277714,0.0013588020810857415
1782987267835335000,8.6623349609375,-0.0010126408888027072,-0.0004941426450386643,0.0017670399975031614
1782987267845410000,8.67241015625,0.0007732749218121171,0.0007056114263832569,0.0007134935585781932
1782987267855484000,8.68248388671875,-0.002400602912530303,0.0011975057423114777,-0.0001472317089792341
1782987267865559000,8.69255908203125,0.0002569655189290643,0.002387938555330038,-0.0036341084633022547
1782987267875633000,8.7026328125,-0.0004719251301139593,-0.00006349827162921429,0.00008115988748613745
1782987267885707000,8.71270703125,0.0000670986482873559,0.0005037549417465925,-0.00005519395926967263
1782987267895782000,8.722781982421875,-0.0016062825452536345,-0.001289401319809258,0.0011929105967283249
1782987267905856000,8.73285595703125,-0.0001958725042641163,-0.00016821047756820917,0.00003203862434020266
1782987267915931000,8.742930908203125,0.0008234700653702021,-0.001409977558068931,0.0010624107671901584
1782987267926005000,8.7530048828125,0.00008524185977876186,0.001164234010502696,0.0012570879189297557
1782987267936079000,8.7630791015625,-0.00005365500692278147,0.0017501602414995432,0.002039242535829544
1782987267946154200,8.773154296875,-0.00013008771929889917,0.0015933001413941383,0.0035846747923642397
1782987267956228000,8.78322802734375,0.0005376075860112906,0.0015436860267072916,0.0025039133615791798
1782987267966303200,8.79330322265625,-0.0008736014133319259,-0.00002624746412038803,0.000668995373416692
1782987267976377000,8.803377197265625,-0.0008636428974568844,0.0014719057362526655,0.0019780255388468504
1782987267986451000,8.813450927734374,0.000057544559240341187,0.002151011722162366,-0.0016129808500409126
1782987267996526000,8.823526123046875,0.0009092814289033413,0.00040949415415525436,0.0010431125992909074
1782987268006600000,8.833599853515626,-0.001247878884896636,0.00031095719896256924,0.0012284686090424657
1782987268016674000,8.843674072265625,-0.0002828342840075493,-0.0011596661061048508,0.0014203621540218592
1782987268026749000,8.8537490234375,-0.0001645899610593915,0.00048563466407358646,-0.002376240212470293
1782987268036823000,8.863822998046874,0.0014445430133491755,0.0004321252927184105,0.006559856701642275
1782987268046898000,8.87389794921875,0.00036969128996133804,-0.0003090325044468045,0.0015581735642626882
1782987268056972000,8.883971923828126,-0.002997166011482477,0.0016662562265992165,0.0010207373416051269
1782987268067046000,8.8940458984375,-0.0012104513589292765,0.0005538538098335266,0.001202897634357214
1782987268077121000,8.90412109375,0.0015804327558726072,0.001441366272047162,0.0003068268997594714
1782987268087195000,8.91419482421875,0.0010805574711412191,0.0009153920691460371,-0.002205332973971963
1782987268097270000,8.92427001953125,-0.0002896170481108129,-0.0003595203161239624,0.0020967386662960052
1782987268107344000,8.93434375,-0.0011964234290644526,0.00015793181955814362,0.00007646471203770489
1782987268117418000,8.94441796875,0.0004018548643216491,0.001534395618364215,0.003671314800158143
1782987268127492900,8.954492919921876,0.00002581649459898472,-0.0011234392877668142,0.00003317042865091935
1782987268137567000,8.96456689453125,0.00017623510211706161,0.0005107936449348927,0.0002584901521913707
1782987268147641900,8.974641845703125,-0.003385476302355528,-0.0009864355670288205,0.00018232375441584736
1782987268157716000,8.984716064453124,-0.0004922841326333582,0.00012652715668082237,0.000715139729436487
1782987268167789800,8.994789794921875,0.002611097414046526,-0.00015816465020179749,0.000489037309307605
1782987268177865000,9.004864990234376,-0.000503055052831769,-0.000283855595625937,0.0011904407292604446
1782987268187938800,9.014938720703125,-0.0012271684827283025,0.000006695277988910675,-0.000831697485409677
1782987268198014000,9.025013916015626,0.0011608750792220235,0.0002546014729887247,-0.0004514987813308835
1782987268208087800,9.035087890625,-0.0012074740370735526,-0.0008301039924845099,0.002174111781641841
1782987268218162200,9.045162109375,-0.00036368053406476974,0.0008586377371102571,-0.0007678262772969902
1782987268228236800,9.05523681640625,0.0002144917380064726,0.0006549060344696045,0.0012308761943131685
1782987268238311200,9.065311279296875,-0.002395111136138439,0.0004815789870917797,-0.00022112144506536424
1782987268248385800,9.0753857421875,-0.00012210302520543337,0.001973481848835945,0.0007290944340638816
1782987268258460200,9.085460205078125,0.0009658491471782327,-0.003402983769774437,-0.0014445701381191611
1782987268268534000,9.095533935546875,0.0007322898600250483,-0.0005821635713800788,-0.002744991797953844
1782987268278609200,9.105609130859374,0.0009062057361006737,0.0011388093698769808,-0.0017523623537272215
1782987268288683000,9.11568310546875,0.0003986072260886431,-0.00027666077949106693,-0.00007696769898757339
1782987268298758100,9.125758056640626,-0.0004924137610942125,0.0025274690706282854,-0.0005274997092783451
1782987268308832000,9.13583203125,-0.0008783057564869523,-0.0005961525021120906,-0.0014649324584752321
1782987268318906000,9.145906005859375,0.0022101267240941525,0.0007787914946675301,-0.002950162859633565
1782987268328981000,9.15598095703125,0.001512644812464714,0.0004964964464306831,0.002458184724673629
1782987268339055000,9.16605517578125,0.0012227410916239023,0.00007627252489328384,-0.0012631532736122608
1782987268349130000,9.1761298828125,-0.00014878675574436784,0.0005268792156130075,0.00039200138417072594
1782987268359204000,9.1862041015625,-0.0015737090725451708,0.0006405618041753769,0.0002357113262405619
1782987268369278000,9.19627783203125,-0.0025252564810216427,-0.00012270035222172737,0.0011691492982208729
1782987268379353000,9.20635302734375,-0.0016121219377964735,0.0026883441023528576,0.0017072681803256273
1782987268389427000,9.216427001953125,0.0005634143017232418,-0.001446746289730072,0.0032218080013990402
1782987268399501800,9.226501708984374,0.00051639333833009,0.0022523566149175167,0.0021557628642767668
1782987268409576000,9.236575927734375,0.001132648903876543,-0.0013383834157139063,-0.001474392251111567
1782987268419649800,9.24664990234375,-0.0005818099016323686,-0.0008733456488698721,-0.0012883867602795362
1782987268429725000,9.256724853515625,-0.0005751519929617643,0.0014846171252429485,0.003600910771638155
1782987268439798800,9.266798828125,-0.000640384154394269,0.0013106500264257193,-0.003768954426050186
1782987268449873000,9.276872802734376,0.0002911895280703902,-0.00049017951823771,0.0022660347167402506
1782987268459947800,9.28694775390625,0.00026586896274238825,-0.00037106522358953953,-0.0029335548169910908
1782987268470022000,9.29702197265625,0.0004964986583217978,0.0005772863514721394,-0.002624361775815487
1782987268480096800,9.3070966796875,-0.00005153520032763481,-0.0003567957319319248,-0.0015992866829037666
1782987268490171000,9.3171708984375,-0.00026964815333485603,0.0023050338495522738,-0.0008429488516412675
1782987268500244700,9.32724462890625,-0.001504720887169242,0.0011513151694089174,0.0006142780766822398
1782987268510319900,9.33731982421875,0.0012047792552039027,0.001295658526942134,-0.0005279516917653382
1782987268520393700,9.347393798828126,0.0013135219924151897,0.0012648291885852814,-0.00011334627197356895
1782987268530468900,9.35746875,-0.0007078172639012337,0.002401466481387615,-0.0015961943427100778
1782987268540542700,9.367542724609375,0.0002953874645754695,0.001458699582144618,0.0014810580760240555
1782987268550617000,9.3776171875,-0.0014636304695159197,0.0009204747620970011,-0.00002149735519196838
1782987268560691700,9.387691650390625,-0.002124156802892685,0.0023195159155875444,0.0006142691127024591
1782987268570766000,9.39776611328125,-0.00044609903125092387,0.001211640890687704,0.0007455629529431462
1782987268580840700,9.4078408203125,-0.0002874693600460887,0.0010168517474085093,0.0011838264763355255
1782987268590915000,9.4179150390625,0.0013746095355600119,-0.0012905109906569123,-0.0015033029485493898
1782987268600989000,9.427989013671874,0.0009324669372290373,-0.0014279080787673593,0.0007725692121312022
1782987268611064000,9.43806396484375,0.000271204044111073,0.0031391470693051815,-0.0010351845994591713
1782987268621138000,9.448137939453124,-0.0007390858954750001,0.0025506382808089256,-0.0032567777670919895
1782987268631213000,9.458213134765625,-0.0004754329565912485,0.0014598076231777668,0.0029651655349880457
1782987268641287000,9.468286865234376,-0.0008292571874335408,-0.00046394241508096457,0.0018110577948391438
1782987268651361000,9.478361083984375,-0.0016058350447565317,0.0013760356232523918,0.00014551680942531675
1782987268661436000,9.488435791015625,-0.0012387410970404744,-0.0011020430829375982,-0.000519735214766115
1782987268671510000,9.498510009765624,0.001359971472993493,-0.0013294769451022148,0.0006459304131567478
1782987268681585000,9.5085849609375,-0.0015351520851254463,-0.00044262735173106194,0.00008582629379816353
1782987268691659000,9.518658935546876,0.00041960820090025663,-0.00012437952682375908,-0.001985047711059451
1782987268701732900,9.52873291015625,0.0004944342654198408,-0.0033397460356354713,0.0008891290053725243
1782987268711808000,9.53880810546875,-0.0010749665088951588,0.002531725447624922,0.00197756290435791
1782987268721881900,9.5488818359375,0.0007282686419785023,-0.0006220806390047073,-0.001630825106985867
1782987268731957000,9.55895703125,-0.0022294381633400917,0.0008495822548866272,0.0007100934744812548
1782987268742030800,9.56903076171875,-0.0010398427257314324,-0.0002885352587327361,-0.00042344973189756274
1782987268752105000,9.57910498046875,0.000052319723181426525,0.0012571634724736214,-0.00038483389653265476
1782987268762179800,9.589179931640626,-0.0002458504168316722,0.002152605215087533,0.0014773806324228644
1782987268772253000,9.5992529296875,-0.0005414612824097276,0.00011901534162461758,0.00041717622661963105
1782987268782327800,9.609327880859375,-0.0004520313232205808,0.0014067143201828003,0.0015037484699860215
1782987268792402000,9.61940185546875,0.000827084993943572,0.00032387301325798035,0.0019407732179388404
1782987268802476000,9.62947607421875,-0.0006023733294568956,-0.0014834890607744455,0.0009238480706699193
1782987268812551000,9.639551025390626,0.0005915217334404588,-0.0013665762962773442,-0.0011377049377188087
1782987268822625000,9.649625,-0.0018601923948153853,0.001694409642368555,-0.002516749780625105
1782987268832700000,9.659699951171875,-0.0005837393109686673,0.00253543583676219,-0.0008876941283233464
1782987268842774000,9.66977392578125,0.0005170839140191674,0.0003272911999374628,0.0015015255194157362
1782987268852847900,9.679847900390625,0.0011892658658325672,-0.000880186096765101,-0.00045616424176841974
1782987268862923000,9.689923095703126,-0.00045423011761158705,-0.0016125851543620229,-0.002284127054736018
1782987268872996900,9.699996826171875,0.00260121445171535,-0.0016035303706303239,-0.0021296637132763863
1782987268883072000,9.710072021484375,-0.0014465422136709094,0.0037206856068223715,0.001893670647405088
1782987268893146000,9.72014599609375,-0.00013919646153226495,0.0020572750363498926,0.00033332459861412644
1782987268903220000,9.730219970703125,-0.0008995383395813406,0.0014222601894289255,0.0022621662355959415
1782987268913295000,9.740295166015626,0.0002956882817670703,0.001417999155819416,0.0015489716315642
1782987268923369000,9.750368896484375,0.0013882877537980676,-0.00006839912384748459,0.0009117114823311567
1782987268933444000,9.760444091796876,0.0008950702613219619,0.0006232236046344042,0.000025944114895537496
1782987268943518000,9.77051806640625,-0.000655041541904211,-0.0006535869324579835,-0.0035069738514721394
1782987268953591800,9.780591796875,0.0017897402867674828,0.0012271373998373747,0.001365013187751174
1782987268963667000,9.7906669921875,0.001185472123324871,-0.00048198120202869177,0.0002146665647160262
1782987268973740800,9.80074072265625,0.0008083684369921684,0.0007779602892696857,0.0010245338780805469
1782987268983816000,9.81081591796875,-0.00023802433861419559,0.0006996695883572102,-0.0011984286829829216
1782987268993889800,9.820889892578125,-0.0005389614962041378,-0.00214538536965847,0.0007914852467365563
1782987269003964000,9.8309638671875,0.0013385883066803217,-0.0005820529768243432,-0.00033396194339729846
1782987269014038800,9.841038818359374,0.00024269765708595514,0.0021599377505481243,-0.0002809650613926351
1782987269024113000,9.85111279296875,0.0004693868104368448,0.0005926364101469517,0.00047869005356915295
1782987269034188000,9.86118798828125,-0.0012225194368511438,-0.0006023239111527801,-0.00008376955520361662
1782987269044262000,9.871261962890625,-0.00031211995519697666,0.0010404465720057487,0.0021714670583605766
1782987269054335700,9.881335693359375,0.0002665849169716239,-0.0005675700958818197,-0.0016762681771069765
1782987269064411000,9.891410888671874,-0.0029102861881256104,0.0007151910103857517,-0.003763835411518812
1782987269074484700,9.901484619140625,0.0013592937029898167,0.00354719627648592,-0.0024018948897719383
1782987269084560000,9.911559814453126,0.0004120953381061554,-0.0004946276312693954,-0.0027771336026489735
1782987269094633700,9.9216337890625,-0.0006779364193789661,0.0016532118897885084,-0.001124908565543592
1782987269104707800,9.931707763671875,-0.00019399495795369148,-0.00014503556303679943,-0.0005034643691033125
1782987269114782700,9.94178271484375,-0.0015082649188116193,-0.0025823605246841908,-0.0008605942130088806
1782987269124856800,9.95185693359375,0.002256049308925867,-0.0020054206252098083,0.00033241425990127027
1782987269134931000,9.961930908203126,0.0007425748044624925,0.0008750543929636478,-0.002683349186554551
1782987269145005800,9.972005859375,0.0033462299033999443,0.0008566670585423708,-0.0010962861124426126
1782987269155081000,9.9820810546875,0.0015350139001384377,0.0008231112733483315,0.0007237180834636092
1782987269165154800,9.99215478515625,0.0008804358076304197,-0.0014577604597434402,0.0012078073341399431
1782987269175230000,10.00222998046875,0.0006884218892082572,0.002032045740634203,-0.0021051650401204824
1782987269185303800,10.0123037109375,-0.0011710331309586763,-0.002277993829920888,0.0021526203490793705
1782987269195378000,10.0223779296875,-0.0005324071389622986,0.0025529805570840836,-0.0003150646516587585
1782987269205452800,10.032452880859376,-0.0015173760475590825,-0.0002553879749029875,0.0007415040745399892
1782987269215527000,10.04252685546875,0.00011913641355931759,0.0002761790528893471,-0.00010937587649095803
1782987269225601800,10.052601806640626,-0.0001751090749166906,0.0007838536985218525,0.0012836658861488104
1782987269235676000,10.062676025390624,-0.0004419577890075743,0.0017484507989138365,-0.002079373924061656
1782987269245750000,10.07275,-0.0010495397727936506,0.003073537489399314,-0.0007184473797678947
1782987269255825000,10.082824951171874,-0.000491341226734221,0.0023845776449888945,-0.0014516155933961272
1782987269265899000,10.09289892578125,-0.0012488201027736068,0.00003303610719740391,0.0006530749378725886
1782987269275974100,10.10297412109375,0.0022806674242019653,0.00012384983710944653,-0.0017445690464228392
1782987269286048000,10.113048095703125,-0.0003204932436347008,0.0010300306603312492,0.0008076460799202323
1782987269296121900,10.123121826171875,0.0004203981952741742,0.0010492054279893637,0.001982632791623473
1782987269306197000,10.133197021484374,-0.0009824439184740186,-0.003000189084559679,-0.002703090663999319
1782987269316270800,10.143270751953125,-0.00014807551633566618,0.0012930927332490683,0.0023710301611572504
1782987269326346000,10.153345947265626,0.001210537739098072,0.0008139954879879951,0.0013539483770728111
1782987269336419800,10.163419921875,-0.0004259746056050062,0.0021455762907862663,0.0005912189953960478
1782987269346494000,10.173493896484375,-0.0015643612714484334,0.0012387046590447426,-0.000628220965154469
1782987269356568800,10.18356884765625,0.0008742953650653362,-0.001779722049832344,0.00013104622485116124
1782987269366643000,10.193642822265625,0.0015378547832369804,0.0017487478908151388,0.001172223244793713
1782987269376717800,10.2037177734375,0.0018086982890963554,0.0005378085188567638,0.0016942028887569904
1782987269386792400,10.21379248046875,-0.00040155614260584116,0.0023364215157926083,0.0007138876244425774
1782987269396866300,10.2238662109375,0.00035078683868050575,-0.0006628306582570076,-0.00032447889680042863
1782987269406941400,10.23394140625,-0.0000874263932928443,0.0000029974617063999176,0.001553813461214304
1782987269417015300,10.244015380859375,0.0021877121180295944,0.0011649345979094505,-0.00016499073535669595
1782987269427090400,10.25409033203125,-0.001087440294213593,0.0027801895048469305,-0.0003127355594187975
1782987269437164300,10.264164306640625,0.0014580091228708625,-0.0027594519779086113,0.0006185718812048435
1782987269447238400,10.27423828125,0.0007095461478456855,0.001157120568677783,0.0015353818889707327
1782987269457313300,10.284313232421875,0.0015846608439460397,0.0016561970114707947,0.0002621245221234858
1782987269467387400,10.294387451171875,0.0025358484126627445,0.0008432951290160418,-0.0016071589197963476
1782987269477462300,10.304462158203124,0.0014000101946294308,0.0006997506134212017,0.003761240979656577
1782987269487536400,10.314536376953125,0.0016733423108235002,0.002011834643781185,-0.00010920235945377499
1782987269497610200,10.3246103515625,-0.0005344180972315371,0.0032917498610913754,0.0013307689223438501
1782987269507685400,10.334685302734375,-0.00008244835771620274,0.0037966081872582436,0.0022220569662749767
1782987269517759200,10.34475927734375,0.0003306078724563122,0.0041089970618486404,-0.001593453693203628
1782987269527834400,10.35483447265625,0.0013143612304702401,0.0025432261172682047,-0.002588209230452776
1782987269537908200,10.364908203125,0.0012882623123005033,0.0025786461774259806,0.0007404758944176137
1782987269547982300,10.374982421875,-0.0018858631374314427,0.13672518730163574,0.1560305804014206
1782987269558057200,10.38505712890625,-0.015158792026340961,0.11636985093355179,0.11620114743709564
1782987269568131300,10.39513134765625,0.012523708865046501,-0.09885392338037491,-0.11960958689451218
1782987269578205400,10.405205322265624,-0.000690896064043045,-0.1764373928308487,-0.15577638149261475
1782987269588280300,10.4152802734375,0.0053430600091814995,-0.026964718475937843,-0.022782040759921074
1782987269598354400,10.4253544921875,-0.005884294398128986,0.09662646055221558,0.04865166172385216
1782987269608429300,10.43542919921875,0.0013295829994603992,0.015470268204808235,0.012655909173190594
