time,seconds_elapsed,z,y,x
1782987351437070000,0.060070068359375,-0.98779296875,0.08428955078125,-0.0849456787109375
1782987351447145000,0.07014501953125,-0.9994049072265625,0.0863189697265625,-0.08990478515625
1782987351457219300,0.08021923828125,-0.990081787109375,0.0855712890625,-0.088623046875
1782987351467294500,0.09029443359375,-0.9747161865234375,0.0809173583984375,-0.080718994140625
1782987351477368300,0.100368408203125,-0.9759674072265625,0.0804901123046875,-0.0807342529296875
1782987351487442400,0.1104423828125,-0.9896240234375,0.0860748291015625,-0.0830230712890625
1782987351497517300,0.120517333984375,-0.996002197265625,0.0880279541015625,-0.08770751953125
1782987351507591400,0.13059130859375,-0.9895172119140625,0.085418701171875,-0.0862884521484375
1782987351517666300,0.140666259765625,-0.9796600341796875,0.0819244384765625,-0.0826568603515625
1782987351527740400,0.150740478515625,-0.9815216064453125,0.0808868408203125,-0.0833282470703125
1782987351537814300,0.160814208984375,-0.9876861572265625,0.0827484130859375,-0.083953857421875
1782987351547889400,0.170889404296875,-0.989532470703125,0.0840911865234375,-0.08514404296875
1782987351557963300,0.18096337890625,-0.9859771728515625,0.0850067138671875,-0.0838165283203125
1782987351568038400,0.191038330078125,-0.985687255859375,0.0846099853515625,-0.081512451171875
1782987351578112300,0.2011123046875,-0.986328125,0.08233642578125,-0.0838623046875
1782987351588186600,0.2111865234375,-0.98712158203125,0.084747314453125,-0.0850067138671875
1782987351598261200,0.22126123046875,-0.9856414794921875,0.0849151611328125,-0.0855712890625
1782987351608335600,0.231335693359375,-0.9838104248046875,0.0830841064453125,-0.08197021484375
1782987351618409500,0.241409423828125,-0.9864501953125,0.0843505859375,-0.083038330078125
1782987351628484600,0.251484619140625,-0.9864959716796875,0.0857391357421875,-0.0854949951171875
1782987351638558500,0.261558349609375,-0.9869384765625,0.083709716796875,-0.086090087890625
1782987351648633600,0.271633544921875,-0.9866790771484375,0.0844268798828125,-0.08465576171875
1782987351658707500,0.28170751953125,-0.98626708984375,0.084747314453125,-0.082366943359375
1782987351668781600,0.291781494140625,-0.9865875244140625,0.08416748046875,-0.0832061767578125
1782987351678856400,0.3018564453125,-0.9858245849609375,0.08380126953125,-0.0855560302734375
1782987351688930600,0.3119306640625,-0.985382080078125,0.0839385986328125,-0.085479736328125
1782987351699005400,0.32200537109375,-0.9857635498046875,0.0841064453125,-0.083892822265625
1782987351709079600,0.33207958984375,-0.984954833984375,0.084869384765625,-0.0838165283203125
1782987351719153400,0.3421533203125,-0.98724365234375,0.085205078125,-0.0850982666015625
1782987351729228500,0.352228515625,-0.98779296875,0.085174560546875,-0.0839996337890625
1782987351739302400,0.362302490234375,-0.9861907958984375,0.0837860107421875,-0.0833587646484375
1782987351749377500,0.37237744140625,-0.9852142333984375,0.08319091796875,-0.083404541015625
1782987351759451400,0.382451416015625,-0.9855194091796875,0.0833282470703125,-0.0850067138671875
1782987351769525500,0.392525390625,-0.9851837158203125,0.0836639404296875,-0.084503173828125
1782987351779600400,0.402600341796875,-0.9869842529296875,0.08270263671875,-0.0842132568359375
1782987351789674500,0.412674560546875,-0.9859619140625,0.0849761962890625,-0.08453369140625
1782987351799749400,0.422749267578125,-0.9854736328125,0.084075927734375,-0.083892822265625
1782987351809823500,0.432823486328125,-0.985809326171875,0.0828857421875,-0.0844573974609375
1782987351819897300,0.4428974609375,-0.98675537109375,0.084503173828125,-0.083038330078125
1782987351829972500,0.452972412109375,-0.9832916259765625,0.084625244140625,-0.0847015380859375
1782987351840046300,0.46304638671875,-0.984893798828125,0.0844268798828125,-0.0817718505859375
1782987351850121500,0.47312158203125,-0.98675537109375,0.084716796875,-0.0838623046875
1782987351860195300,0.4831953125,-0.9879913330078125,0.084625244140625,-0.0853729248046875
1782987351870269400,0.49326953125,-0.9859619140625,0.084686279296875,-0.0847625732421875
1782987351880344300,0.50334423828125,-0.9874725341796875,0.0841217041015625,-0.0834808349609375
1782987351890418400,0.51341845703125,-0.9853668212890625,0.082183837890625,-0.0836944580078125
1782987351900493300,0.523493408203125,-0.986175537109375,0.083984375,-0.086334228515625
1782987351910567400,0.5335673828125,-0.9872589111328125,0.0844268798828125,-0.084136962890625
1782987351920641500,0.5436416015625,-0.98760986328125,0.08477783203125,-0.082611083984375
1782987351930716400,0.55371630859375,-0.9861907958984375,0.0835723876953125,-0.0848236083984375
1782987351940790500,0.56379052734375,-0.9843597412109375,0.0828094482421875,-0.084075927734375
1782987351950864600,0.57386474609375,-0.9869537353515625,0.0844573974609375,-0.083892822265625
1782987351960939500,0.583939453125,-0.987152099609375,0.0852508544921875,-0.085052490234375
1782987351971013600,0.594013671875,-0.9867401123046875,0.0843353271484375,-0.0840911865234375
1782987351981088500,0.604088623046875,-0.9861602783203125,0.085723876953125,-0.0858001708984375
1782987351991162600,0.61416259765625,-0.986480712890625,0.0843353271484375,-0.0859375
1782987352001236500,0.624236572265625,-0.987060546875,0.0836334228515625,-0.0853424072265625
1782987352011311600,0.6343115234375,-0.9862060546875,0.0841064453125,-0.0845184326171875
1782987352021385500,0.644385498046875,-0.9876556396484375,0.0842437744140625,-0.0840911865234375
1782987352031460600,0.654460693359375,-0.98675537109375,0.0843353271484375,-0.0834503173828125
1782987352041534500,0.664534423828125,-0.985076904296875,0.0831298828125,-0.083587646484375
1782987352051608600,0.674608642578125,-0.9841461181640625,0.082672119140625,-0.0836181640625
1782987352061683500,0.684683349609375,-0.9859466552734375,0.0850372314453125,-0.084747314453125
1782987352071757600,0.694757568359375,-0.9858245849609375,0.0844573974609375,-0.086212158203125
1782987352081832400,0.70483251953125,-0.9885711669921875,0.0841522216796875,-0.084686279296875
1782987352091906600,0.714906494140625,-0.9882659912109375,0.083587646484375,-0.08343505859375
1782987352101980400,0.72498046875,-0.98583984375,0.0838165283203125,-0.0838165283203125
1782987352112055600,0.7350556640625,-0.9851837158203125,0.0842132568359375,-0.0846710205078125
1782987352122129400,0.74512939453125,-0.987274169921875,0.0840301513671875,-0.083343505859375
1782987352132204500,0.75520458984375,-0.986663818359375,0.0843963623046875,-0.085052490234375
1782987352142278400,0.7652783203125,-0.986846923828125,0.0834197998046875,-0.0830841064453125
1782987352152352500,0.7753525390625,-0.9873504638671875,0.08343505859375,-0.0831756591796875
1782987352162427400,0.785427490234375,-0.9868621826171875,0.084564208984375,-0.08489990234375
1782987352172501500,0.79550146484375,-0.985687255859375,0.0847930908203125,-0.0847320556640625
1782987352182576400,0.805576416015625,-0.987823486328125,0.084320068359375,-0.083984375
1782987352192650500,0.815650390625,-0.9867401123046875,0.0833740234375,-0.084564208984375
1782987352202724400,0.825724365234375,-0.986419677734375,0.0867767333984375,-0.083770751953125
1782987352212799500,0.835799560546875,-0.9870452880859375,0.0845184326171875,-0.0865631103515625
1782987352222873300,0.845873291015625,-0.986419677734375,0.0842437744140625,-0.084808349609375
1782987352232947500,0.855947509765625,-0.9870758056640625,0.085052490234375,-0.08404541015625
1782987352243022300,0.866022216796875,-0.9869537353515625,0.0848541259765625,-0.0836029052734375
1782987352253096400,0.876096435546875,-0.9845123291015625,0.082183837890625,-0.084228515625
1782987352263171300,0.88617138671875,-0.986114501953125,0.0824737548828125,-0.083740234375
1782987352273245700,0.89624560546875,-0.985015869140625,0.08331298828125,-0.0851593017578125
1782987352283319600,0.906319580078125,-0.9853973388671875,0.085113525390625,-0.0843963623046875
1782987352293394700,0.916394775390625,-0.9871063232421875,0.084625244140625,-0.0865325927734375
1782987352303468500,0.926468505859375,-0.986358642578125,0.08355712890625,-0.0835418701171875
1782987352313543700,0.936543701171875,-0.98504638671875,0.0826416015625,-0.082550048828125
1782987352323617500,0.946617431640625,-0.9835968017578125,0.08319091796875,-0.08648681640625
1782987352333691400,0.95669140625,-0.973358154296875,0.0828857421875,-0.083953857421875
1782987352343766500,0.9667666015625,-0.943603515625,0.0709991455078125,-0.077423095703125
1782987352353840400,0.97684033203125,-1.0384368896484375,0.0867156982421875,-0.083160400390625
1782987352363915500,0.98691552734375,-0.9971160888671875,0.090240478515625,-0.0974578857421875
1782987352373989400,0.9969892578125,-1.021942138671875,0.098236083984375,-0.0861968994140625
1782987352384063500,1.0070634765625,-0.9846038818359375,0.0825042724609375,-0.0797576904296875
1782987352394138600,1.017138671875,-0.9318084716796875,0.073944091796875,-0.083465576171875
1782987352404212500,1.02721240234375,-0.965118408203125,0.0770111083984375,-0.0767059326171875
1782987352414287600,1.03728759765625,-1.013427734375,0.0856475830078125,-0.08929443359375
1782987352424361500,1.047361572265625,-1.0030364990234375,0.087005615234375,-0.09429931640625
1782987352434435300,1.057435302734375,-0.981475830078125,0.0858154296875,-0.08416748046875
1782987352444510500,1.067510498046875,-0.975616455078125,0.083587646484375,-0.080291748046875
1782987352454584300,1.077584228515625,-0.97662353515625,0.084259033203125,-0.0789337158203125
1782987352464659200,1.0876591796875,-0.9947509765625,0.0850982666015625,-0.08807373046875
1782987352474733300,1.0977333984375,-0.99993896484375,0.08636474609375,-0.0896759033203125
1782987352484807200,1.10780712890625,-0.986785888671875,0.0849761962890625,-0.08721923828125
1782987352494882300,1.11788232421875,-0.9750518798828125,0.0823974609375,-0.08355712890625
1782987352504956200,1.1279560546875,-0.980865478515625,0.0810546875,-0.083740234375
1782987352515030300,1.1380302734375,-0.9901885986328125,0.0862884521484375,-0.085357666015625
1782987352525105200,1.148105224609375,-0.9923095703125,0.0866851806640625,-0.08673095703125
1782987352535179300,1.15817919921875,-0.9875640869140625,0.0849151611328125,-0.0849609375
1782987352545254100,1.168254150390625,-0.9851226806640625,0.08306884765625,-0.0837249755859375
1782987352555328300,1.178328369140625,-0.9837493896484375,0.082000732421875,-0.0824737548828125
1782987352565402400,1.18840234375,-0.9846343994140625,0.082489013671875,-0.0840911865234375
1782987352575477200,1.198477294921875,-0.985107421875,0.0841217041015625,-0.0857086181640625
1782987352585551400,1.20855126953125,-0.9865570068359375,0.0855712890625,-0.08404541015625
1782987352595626200,1.218626220703125,-0.9880218505859375,0.0851287841796875,-0.082916259765625
1782987352605700400,1.228700439453125,-0.988128662109375,0.084503173828125,-0.0843963623046875
1782987352615774500,1.2387744140625,-0.9871368408203125,0.0838165283203125,-0.0840301513671875
1782987352625849300,1.248849365234375,-0.9841766357421875,0.083709716796875,-0.0853729248046875
1782987352635923500,1.25892333984375,-0.9849853515625,0.0831756591796875,-0.0831146240234375
1782987352645998300,1.268998291015625,-0.988006591796875,0.0849761962890625,-0.08392333984375
1782987352656072400,1.279072509765625,-0.9875335693359375,0.0838775634765625,-0.0840911865234375
1782987352666146300,1.289146240234375,-0.985748291015625,0.0835723876953125,-0.0854949951171875
1782987352676221400,1.299221435546875,-0.9856414794921875,0.084503173828125,-0.08428955078125
1782987352686295300,1.30929541015625,-0.987274169921875,0.0854644775390625,-0.08465576171875
1782987352696370400,1.319370361328125,-0.9876556396484375,0.085968017578125,-0.0851287841796875
1782987352706444300,1.3294443359375,-0.987060546875,0.083709716796875,-0.086151123046875
1782987352716518400,1.339518310546875,-0.9861907958984375,0.0865631103515625,-0.083770751953125
1782987352726593300,1.34959326171875,-0.9848175048828125,0.084686279296875,-0.0850830078125
1782987352736667400,1.35966748046875,-0.9860382080078125,0.084686279296875,-0.082855224609375
1782987352746742300,1.3697421875,-0.9859619140625,0.08599853515625,-0.0844268798828125
1782987352756816400,1.37981640625,-0.9862518310546875,0.0853118896484375,-0.084503173828125
1782987352766890200,1.38989013671875,-0.98541259765625,0.0847930908203125,-0.085479736328125
1782987352776965400,1.39996533203125,-0.9858551025390625,0.0852813720703125,-0.08477783203125
1782987352787039200,1.410039306640625,-0.9858856201171875,0.0848541259765625,-0.0855255126953125
1782987352797114400,1.4201142578125,-0.986846923828125,0.0832366943359375,-0.0853118896484375
1782987352807188200,1.430188232421875,-0.9865875244140625,0.08343505859375,-0.0852508544921875
1782987352817262300,1.440262451171875,-0.986297607421875,0.0828094482421875,-0.0841827392578125
1782987352827337200,1.450337158203125,-0.9854278564453125,0.0836639404296875,-0.0841064453125
1782987352837411300,1.460411376953125,-0.98529052734375,0.0836944580078125,-0.083251953125
1782987352847486200,1.470486328125,-0.98638916015625,0.08428955078125,-0.082244873046875
1782987352857560300,1.480560302734375,-0.98541259765625,0.0829315185546875,-0.0834503173828125
1782987352867634200,1.49063427734375,-0.984954833984375,0.0830841064453125,-0.084228515625
1782987352877709300,1.500709228515625,-0.9864501953125,0.08319091796875,-0.0861053466796875
1782987352887783200,1.510783203125,-0.9868011474609375,0.083587646484375,-0.0833740234375
1782987352897857300,1.520857177734375,-0.9857940673828125,0.0838470458984375,-0.0850982666015625
1782987352907932200,1.53093212890625,-0.9860382080078125,0.0847320556640625,-0.0826416015625
1782987352918006300,1.54100634765625,-0.9865264892578125,0.083526611328125,-0.08392333984375
1782987352928081200,1.5510810546875,-0.9859619140625,0.083587646484375,-0.0851287841796875
1782987352938155300,1.5611552734375,-0.9872589111328125,0.0843658447265625,-0.0835113525390625
1782987352948229400,1.5712294921875,-0.9856109619140625,0.08526611328125,-0.0839080810546875
1782987352958304500,1.581304443359375,-0.98675537109375,0.08441162109375,-0.0850677490234375
1782987352968378400,1.59137841796875,-0.9873199462890625,0.08343505859375,-0.0858917236328125
1782987352978453500,1.60145361328125,-0.98455810546875,0.084320068359375,-0.08612060546875
1782987352988527400,1.61152734375,-0.97796630859375,0.082061767578125,-0.0819854736328125
1782987352998601200,1.621601318359375,-0.9767608642578125,0.081939697265625,-0.0912322998046875
1782987353008676400,1.63167626953125,-1.0084228515625,0.0885009765625,-0.08197021484375
1782987353018750200,1.641750244140625,-0.998077392578125,0.08642578125,-0.0841217041015625
1782987353028825300,1.651825439453125,-0.97100830078125,0.0803375244140625,-0.0884857177734375
1782987353038899200,1.661899169921875,-0.9796142578125,0.075225830078125,-0.0784759521484375
1782987353048973300,1.671973388671875,-0.9838714599609375,0.08612060546875,-0.0827484130859375
1782987353059048200,1.682048095703125,-0.9900665283203125,0.0846710205078125,-0.0883636474609375
1782987353069122300,1.692122314453125,-0.9935455322265625,0.0828399658203125,-0.0844573974609375
1782987353079196200,1.702196044921875,-0.9839019775390625,0.08270263671875,-0.0852508544921875
1782987353089271300,1.712271240234375,-0.9753265380859375,0.0809783935546875,-0.081329345703125
1782987353099345200,1.72234521484375,-0.9788818359375,0.0828399658203125,-0.0839080810546875
1782987353109420300,1.732420166015625,-0.9898834228515625,0.08380126953125,-0.0867767333984375
1782987353119494100,1.742494140625,-0.99334716796875,0.0870208740234375,-0.08770751953125
1782987353129568300,1.752568359375,-0.9860992431640625,0.084930419921875,-0.0861663818359375
1782987353139643100,1.76264306640625,-0.9833984375,0.085601806640625,-0.0828399658203125
1782987353149717200,1.77271728515625,-0.9870147705078125,0.0834503173828125,-0.0827484130859375
1782987353159792000,1.782792236328125,-0.9868011474609375,0.0861053466796875,-0.084625244140625
1782987353169866200,1.7928662109375,-0.988861083984375,0.08477783203125,-0.0849609375
1782987353179940000,1.802940185546875,-0.9890289306640625,0.0846710205078125,-0.084503173828125
1782987353190015200,1.81301513671875,-0.98309326171875,0.0818939208984375,-0.0836639404296875
1782987353200089300,1.82308935546875,-0.978607177734375,0.08221435546875,-0.0836639404296875
1782987353210164200,1.833164306640625,-0.98516845703125,0.08245849609375,-0.0816802978515625
1782987353220238300,1.84323828125,-0.990020751953125,0.08306884765625,-0.0829925537109375
1782987353230312400,1.8533125,-0.989990234375,0.082611083984375,-0.0831298828125
1782987353240387300,1.86338720703125,-0.9855499267578125,0.078399658203125,-0.0796356201171875
1782987353250461400,1.87346142578125,-0.980926513671875,0.0797271728515625,-0.08233642578125
1782987353260536300,1.883536376953125,-0.9849700927734375,0.07763671875,-0.0805816650390625
1782987353270610400,1.8936103515625,-0.9772796630859375,0.0737152099609375,-0.0782318115234375
1782987353280684300,1.903684326171875,-0.9710693359375,0.0809326171875,-0.0848236083984375
1782987353290759400,1.913759521484375,-0.9925384521484375,0.0862579345703125,-0.079315185546875
1782987353300833300,1.923833251953125,-0.991180419921875,0.0813446044921875,-0.0933380126953125
1782987353310908400,1.933908447265625,-0.9909210205078125,0.0892181396484375,-0.0909576416015625
1782987353320982300,1.943982177734375,-1.0003814697265625,0.0959625244140625,-0.0864105224609375
1782987353331056400,1.954056396484375,-0.9900360107421875,0.0898895263671875,-0.0943450927734375
1782987353341131300,1.96413134765625,-0.9942626953125,0.0918121337890625,-0.0934295654296875
1782987353351205400,1.974205322265625,-1.0025482177734375,0.0854339599609375,-0.0889739990234375
1782987353361279200,1.984279296875,-0.9919586181640625,0.08074951171875,-0.0860443115234375
1782987353371354400,1.994354248046875,-0.978790283203125,0.0781097412109375,-0.0804443359375
1782987353381428200,2.00442822265625,-0.9763336181640625,0.08135986328125,-0.0802154541015625
1782987353391503400,2.01450341796875,-0.98236083984375,0.083221435546875,-0.08197021484375
1782987353401577200,2.0245771484375,-0.98663330078125,0.08612060546875,-0.081878662109375
1782987353411651300,2.0346513671875,-0.986419677734375,0.087799072265625,-0.0855712890625
1782987353421726200,2.044726318359375,-0.986541748046875,0.091705322265625,-0.081695556640625
1782987353431800300,2.05480029296875,-0.99090576171875,0.0936126708984375,-0.085113525390625
1782987353441875200,2.064875244140625,-0.9887542724609375,0.0932769775390625,-0.08807373046875
1782987353451949300,2.07494921875,-0.9833526611328125,0.0925750732421875,-0.0876922607421875
1782987353462024000,2.08502392578125,-0.9854278564453125,0.0890350341796875,-0.082916259765625
1782987353472099000,2.09509912109375,-0.9881744384765625,0.0821380615234375,-0.079864501953125
1782987353482173000,2.1051728515625,-0.9829254150390625,0.07672119140625,-0.0814971923828125
1782987353492248000,2.115248046875,-0.982391357421875,0.0781707763671875,-0.081207275390625
1782987353502322000,2.125322021484375,-0.9904937744140625,0.0803985595703125,-0.0828857421875
1782987353512396000,2.13539599609375,-0.9953155517578125,0.0824737548828125,-0.08367919921875
1782987353522471000,2.145470947265625,-0.991363525390625,0.08349609375,-0.08148193359375
1782987353532545000,2.155544921875,-0.978546142578125,0.0826263427734375,-0.07720947265625
1782987353542620000,2.165619873046875,-0.9765167236328125,0.05889892578125,-0.07806396484375
1782987353552694000,2.175694091796875,-0.991546630859375,0.0474090576171875,-0.06524658203125
1782987353562768000,2.185767822265625,-0.9553680419921875,0.078155517578125,-0.0758209228515625
1782987353572843000,2.195843017578125,-0.940826416015625,0.0858001708984375,-0.09967041015625
1782987353582916900,2.205916748046875,-1.025665283203125,0.04791259765625,-0.07940673828125
1782987353592992000,2.215991943359375,-1.0416717529296875,0.053924560546875,-0.052703857421875
1782987353603065900,2.22606591796875,-0.9314422607421875,0.08758544921875,-0.076812744140625
1782987353613140200,2.23614013671875,-0.926910400390625,0.077178955078125,-0.10601806640625
1782987353623214800,2.24621484375,-1.0115814208984375,0.08685302734375,-0.085418701171875
1782987353633289200,2.256289306640625,-1.027069091796875,0.093231201171875,-0.076263427734375
1782987353643363000,2.266363037109375,-1.0024871826171875,0.0689849853515625,-0.0847930908203125
1782987353653438200,2.276438232421875,-0.972381591796875,0.0803680419921875,-0.0901641845703125
1782987353663512000,2.286511962890625,-0.95068359375,0.112823486328125,-0.0975494384765625
1782987353673587200,2.296587158203125,-0.98876953125,0.1178436279296875,-0.0960693359375
1782987353683661000,2.3066611328125,-1.0326080322265625,0.1043853759765625,-0.0905303955078125
1782987353693735200,2.316735107421875,-1.0121612548828125,0.1055450439453125,-0.0859375
1782987353703810000,2.32681005859375,-0.9713592529296875,0.111236572265625,-0.0872039794921875
1782987353713884200,2.33688427734375,-0.963409423828125,0.114715576171875,-0.0854949951171875
1782987353723959000,2.346958984375,-0.9939422607421875,0.1036376953125,-0.08917236328125
1782987353734033200,2.357033203125,-1.017669677734375,0.0879669189453125,-0.0859527587890625
1782987353744107000,2.36710693359375,-0.9976654052734375,0.0777130126953125,-0.0804290771484375
1782987353754182100,2.37718212890625,-0.97174072265625,0.0804443359375,-0.0758056640625
1782987353764256000,2.387256103515625,-0.9689483642578125,0.0770263671875,-0.079986572265625
1782987353774331100,2.3973310546875,-0.980682373046875,0.0710296630859375,-0.0831146240234375
1782987353784405000,2.407405029296875,-0.9859619140625,0.070404052734375,-0.079742431640625
1782987353794479000,2.41747900390625,-0.986724853515625,0.06787109375,-0.0733184814453125
1782987353804554000,2.427553955078125,-0.9781494140625,0.0761566162109375,-0.076751708984375
1782987353814628000,2.437628173828125,-0.9736480712890625,0.0915985107421875,-0.0908966064453125
1782987353824702000,2.447701904296875,-0.9964752197265625,0.10015869140625,-0.0900115966796875
1782987353834777000,2.457777099609375,-1.0022735595703125,0.099456787109375,-0.0786285400390625
1782987353844851000,2.467850830078125,-0.9689483642578125,0.0858154296875,-0.076995849609375
1782987353854926000,2.477926025390625,-0.9576568603515625,0.0782928466796875,-0.086181640625
1782987353865000000,2.488,-0.99627685546875,0.090789794921875,-0.0938873291015625
1782987353875074000,2.498073974609375,-1.03564453125,0.104461669921875,-0.09832763671875
1782987353885149000,2.50814892578125,-1.0314178466796875,0.0956878662109375,-0.09783935546875
1782987353895223000,2.51822314453125,-0.9931640625,0.0732574462890625,-0.0848846435546875
1782987353905298000,2.5282978515625,-0.9504241943359375,0.051116943359375,-0.066436767578125
1782987353915372000,2.5383720703125,-0.9395751953125,0.053558349609375,-0.0625152587890625
1782987353925446100,2.548446044921875,-0.9695281982421875,0.0738525390625,-0.0735626220703125
1782987353935521000,2.55852099609375,-1.0004425048828125,0.098480224609375,-0.0904541015625
1782987353945595100,2.56859521484375,-1.0060882568359375,0.1060943603515625,-0.096221923828125
1782987353955670000,2.578669921875,-0.9926605224609375,0.0975341796875,-0.087738037109375
1782987353965744000,2.588744140625,-0.978424072265625,0.08758544921875,-0.0791015625
1782987353975818200,2.598818359375,-0.975311279296875,0.079193115234375,-0.0807342529296875
1782987353985893000,2.60889306640625,-0.9752197265625,0.0776824951171875,-0.083221435546875
1782987353995967200,2.61896728515625,-0.99188232421875,0.0745391845703125,-0.0909271240234375
1782987354006042000,2.6290419921875,-0.982757568359375,0.0697784423828125,-0.0782623291015625
1782987354016116200,2.6391162109375,-0.9627838134765625,0.0681610107421875,-0.070709228515625
1782987354026190000,2.649190185546875,-0.95892333984375,0.065521240234375,-0.06976318359375
1782987354036265200,2.65926513671875,-0.970703125,0.0675506591796875,-0.077178955078125
1782987354046339000,2.669339111328125,-0.994293212890625,0.0762939453125,-0.0881500244140625
1782987354056414200,2.679414306640625,-1.008819580078125,0.086212158203125,-0.0923614501953125
1782987354066488000,2.689488037109375,-1.0156707763671875,0.09698486328125,-0.0954742431640625
1782987354076562000,2.69956201171875,-1.0061798095703125,0.1035308837890625,-0.0999603271484375
1782987354086637000,2.709636962890625,-0.9965057373046875,0.1015625,-0.098846435546875
1782987354096711200,2.719711181640625,-0.993072509765625,0.0916900634765625,-0.0894317626953125
1782987354106785000,2.729784912109375,-0.98577880859375,0.0893707275390625,-0.0819244384765625
1782987354116860200,2.739860107421875,-0.980316162109375,0.093048095703125,-0.081695556640625
1782987354126934000,2.74993408203125,-0.9828948974609375,0.095123291015625,-0.0883026123046875
1782987354137009200,2.760009033203125,-0.985687255859375,0.09320068359375,-0.0872802734375
1782987354147083000,2.7700830078125,-0.981109619140625,0.08526611328125,-0.0810089111328125
1782987354157156900,2.780156982421875,-0.978759765625,0.0741119384765625,-0.0752410888671875
1782987354167232000,2.79023193359375,-0.9821319580078125,0.07470703125,-0.0781402587890625
1782987354177305900,2.800305908203125,-0.987579345703125,0.08197021484375,-0.0853424072265625
1782987354187381000,2.810381103515625,-0.9962005615234375,0.087890625,-0.094696044921875
1782987354197454800,2.820454833984375,-0.998321533203125,0.0927734375,-0.0881805419921875
1782987354207529000,2.830529052734375,-0.9909210205078125,0.0912322998046875,-0.084747314453125
1782987354217604000,2.84060400390625,-0.9798126220703125,0.086273193359375,-0.084930419921875
1782987354227678000,2.850677978515625,-0.976776123046875,0.0859527587890625,-0.0852508544921875
1782987354237753000,2.860753173828125,-0.9822845458984375,0.085296630859375,-0.08477783203125
1782987354247827000,2.870826904296875,-0.98382568359375,0.0874176025390625,-0.0848388671875
1782987354257901000,2.880901123046875,-0.982208251953125,0.0883331298828125,-0.084564208984375
1782987354267976000,2.890975830078125,-0.9819183349609375,0.089813232421875,-0.0862579345703125
1782987354278050000,2.901050048828125,-0.9825897216796875,0.089752197265625,-0.0901031494140625
1782987354288124200,2.911124267578125,-0.9904022216796875,0.089385986328125,-0.0864410400390625
1782987354298199000,2.921198974609375,-0.9885406494140625,0.0857696533203125,-0.0858612060546875
1782987354308273200,2.931273193359375,-0.98663330078125,0.08319091796875,-0.0876007080078125
1782987354318348000,2.94134814453125,-0.9906158447265625,0.0833740234375,-0.088653564453125
1782987354328422100,2.951422119140625,-0.994842529296875,0.0852813720703125,-0.091583251953125
1782987354338496000,2.96149609375,-0.99493408203125,0.0850830078125,-0.08953857421875
1782987354348571100,2.971571044921875,-0.99371337890625,0.0855712890625,-0.0875701904296875
1782987354358645000,2.98164501953125,-0.989990234375,0.08544921875,-0.08319091796875
1782987354368720100,2.99172021484375,-0.9823760986328125,0.08355712890625,-0.0847320556640625
1782987354378794000,3.0017939453125,-0.9791107177734375,0.0814971923828125,-0.0838470458984375
1782987354388868000,3.0118681640625,-0.979949951171875,0.0807952880859375,-0.0832061767578125
1782987354398943000,3.02194287109375,-0.9790496826171875,0.0814208984375,-0.0806427001953125
1782987354409017000,3.03201708984375,-0.9768524169921875,0.0810699462890625,-0.080841064453125
1782987354419092000,3.042092041015625,-0.979034423828125,0.082672119140625,-0.08197021484375
1782987354429166000,3.052166015625,-0.9857330322265625,0.0845184326171875,-0.0823822021484375
1782987354439240000,3.062239990234375,-0.98492431640625,0.0825347900390625,-0.0854339599609375
1782987354449315000,3.072315185546875,-0.9844512939453125,0.0818023681640625,-0.08111572265625
1782987354459388200,3.08238818359375,-0.9846038818359375,0.0827178955078125,-0.0832061767578125
1782987354469463300,3.09246337890625,-0.984039306640625,0.08453369140625,-0.0839080810546875
1782987354479537200,3.102537109375,-0.98687744140625,0.0843353271484375,-0.0853424072265625
1782987354489611300,3.112611328125,-0.9866485595703125,0.0838470458984375,-0.084075927734375
1782987354499686100,3.12268603515625,-0.986175537109375,0.0851593017578125,-0.0859527587890625
1782987354509760300,3.13276025390625,-0.9879608154296875,0.0860137939453125,-0.087432861328125
1782987354519834400,3.14283447265625,-0.98992919921875,0.0872039794921875,-0.0859222412109375
1782987354529909200,3.1529091796875,-0.990325927734375,0.0874786376953125,-0.0884552001953125
1782987354539983400,3.1629833984375,-0.98944091796875,0.08740234375,-0.0885772705078125
1782987354550058200,3.173058349609375,-0.9897003173828125,0.086090087890625,-0.0882568359375
1782987354560132400,3.18313232421875,-0.9882049560546875,0.08648681640625,-0.0891876220703125
1782987354570206500,3.19320654296875,-0.9886322021484375,0.0875396728515625,-0.08636474609375
1782987354580281300,3.20328125,-0.988067626953125,0.0865020751953125,-0.0865020751953125
1782987354590355500,3.21335546875,-0.98651123046875,0.0866851806640625,-0.085662841796875
1782987354600430300,3.223430419921875,-0.98516845703125,0.085418701171875,-0.08642578125
1782987354610504400,3.23350439453125,-0.9856719970703125,0.0841064453125,-0.08428955078125
1782987354620578300,3.243578369140625,-0.983673095703125,0.0857391357421875,-0.0842132568359375
1782987354630653400,3.2536533203125,-0.9832611083984375,0.08404541015625,-0.0852508544921875
1782987354640727300,3.263727294921875,-0.9853057861328125,0.08343505859375,-0.0860748291015625
1782987354650802400,3.273802490234375,-0.985382080078125,0.083282470703125,-0.0842132568359375
1782987354660876300,3.283876220703125,-0.9848175048828125,0.084564208984375,-0.0828094482421875
1782987354670950100,3.2939501953125,-0.98370361328125,0.083404541015625,-0.0843505859375
1782987354681025300,3.304025390625,-0.985260009765625,0.0859527587890625,-0.0834503173828125
1782987354691099400,3.314099365234375,-0.985870361328125,0.085968017578125,-0.0847320556640625
1782987354701173200,3.32417333984375,-0.9854583740234375,0.0853424072265625,-0.08526611328125
1782987354711248400,3.334248291015625,-0.985748291015625,0.08721923828125,-0.0858001708984375
1782987354721322200,3.344322265625,-0.9897918701171875,0.088043212890625,-0.0854339599609375
1782987354731397400,3.3543974609375,-0.988494873046875,0.0861358642578125,-0.086212158203125
1782987354741471200,3.36447119140625,-0.9889068603515625,0.0855255126953125,-0.0843505859375
1782987354751545000,3.374545166015625,-0.983367919921875,0.0843048095703125,-0.08721923828125
1782987354761620200,3.3846201171875,-0.9842681884765625,0.086944580078125,-0.0860595703125
1782987354771694000,3.394694091796875,-0.9874114990234375,0.084869384765625,-0.0840301513671875
1782987354781769200,3.404769287109375,-0.98779296875,0.0842742919921875,-0.0851287841796875
1782987354791843000,3.414843017578125,-0.9852447509765625,0.0832977294921875,-0.0846405029296875
1782987354801917400,3.42491748046875,-0.9813690185546875,0.0832977294921875,-0.0844268798828125
1782987354811992300,3.434992431640625,-0.9842529296875,0.084320068359375,-0.0838623046875
1782987354822066400,3.44506640625,-0.9888458251953125,0.085205078125,-0.085693359375
1782987354832141300,3.455141357421875,-0.9888916015625,0.0850372314453125,-0.0847930908203125
1782987354842215400,3.46521533203125,-0.984771728515625,0.08538818359375,-0.083343505859375
1782987354852289300,3.475289306640625,-0.9843597412109375,0.086578369140625,-0.0853118896484375
1782987354862364400,3.485364501953125,-0.9855804443359375,0.085418701171875,-0.0870208740234375
1782987354872438300,3.495438232421875,-0.98895263671875,0.0865936279296875,-0.084991455078125
1782987354882513400,3.505513427734375,-0.9877471923828125,0.0853118896484375,-0.0853118896484375
1782987354892587300,3.515587158203125,-0.9838409423828125,0.086639404296875,-0.082763671875
1782987354902661400,3.525661376953125,-0.985504150390625,0.0860443115234375,-0.0844879150390625
1782987354912736300,3.535736328125,-0.9872894287109375,0.08587646484375,-0.0853118896484375
1782987354922810400,3.545810302734375,-0.9883575439453125,0.0854034423828125,-0.0841064453125
1782987354932884200,3.55588427734375,-0.9849853515625,0.0866241455078125,-0.0868072509765625
1782987354942959400,3.56595947265625,-0.9841156005859375,0.086456298828125,-0.08587646484375
1782987354953033200,3.576033203125,-0.9859619140625,0.0873870849609375,-0.0845947265625
1782987354963108400,3.5861083984375,-0.986480712890625,0.08428955078125,-0.0862274169921875
1782987354973182200,3.59618212890625,-0.984375,0.0850677490234375,-0.0854339599609375
1782987354983256300,3.60625634765625,-0.9852752685546875,0.08489990234375,-0.0840301513671875
1782987354993331200,3.616331298828125,-0.9852752685546875,0.0853424072265625,-0.0840301513671875
1782987355003405300,3.6264052734375,-0.983856201171875,0.0852203369140625,-0.08453369140625
1782987355013480200,3.636480224609375,-0.983978271484375,0.084197998046875,-0.0849151611328125
1782987355023554300,3.64655419921875,-0.9843902587890625,0.0843048095703125,-0.083770751953125
1782987355033628200,3.656628173828125,-0.9861297607421875,0.0855560302734375,-0.084259033203125
1782987355043703300,3.666703369140625,-0.9845733642578125,0.0852813720703125,-0.0848236083984375
1782987355053777200,3.676777099609375,-0.9839935302734375,0.086151123046875,-0.08355712890625
1782987355063852300,3.686852294921875,-0.9857635498046875,0.0876312255859375,-0.0844268798828125
1782987355073926100,3.696926025390625,-0.987030029296875,0.0870819091796875,-0.084564208984375
1782987355084000300,3.707000244140625,-0.9860687255859375,0.0885772705078125,-0.085235595703125
1782987355094075100,3.7170751953125,-0.98828125,0.0874176025390625,-0.0858306884765625
1782987355104149200,3.727149169921875,-0.9885406494140625,0.08642578125,-0.0859222412109375
1782987355114223400,3.737223388671875,-0.9885101318359375,0.0859375,-0.08551025390625
1782987355124298200,3.74729833984375,-0.9863128662109375,0.08636474609375,-0.08636474609375
1782987355134372400,3.757372314453125,-0.985992431640625,0.0857086181640625,-0.0863494873046875
1782987355144447200,3.767447265625,-0.9885711669921875,0.0855255126953125,-0.0847930908203125
1782987355154521300,3.777521240234375,-0.9894561767578125,0.0855560302734375,-0.084564208984375
1782987355164595500,3.787595458984375,-0.9856719970703125,0.082977294921875,-0.0831146240234375
1782987355174670300,3.79767041015625,-0.9832611083984375,0.084136962890625,-0.0843353271484375
1782987355184744400,3.807744384765625,-0.9845733642578125,0.084075927734375,-0.085174560546875
1782987355194819300,3.8178193359375,-0.9856414794921875,0.083648681640625,-0.0849151611328125
1782987355204893400,3.8278935546875,-0.9864501953125,0.0837860107421875,-0.0847015380859375
1782987355214967300,3.83796728515625,-0.982421875,0.082489013671875,-0.0836029052734375
1782987355225042400,3.84804248046875,-0.98431396484375,0.083526611328125,-0.0834808349609375
1782987355235116300,3.8581162109375,-0.9884185791015625,0.0818939208984375,-0.085113525390625
1782987355245191400,3.86819140625,-0.985260009765625,0.0825042724609375,-0.0847625732421875
1782987355255265300,3.878265380859375,-0.983978271484375,0.083251953125,-0.085052490234375
1782987355265339400,3.88833935546875,-0.9865264892578125,0.0842437744140625,-0.085693359375
1782987355275414300,3.898414306640625,-0.98504638671875,0.0857391357421875,-0.0856475830078125
1782987355285488400,3.90848828125,-0.9846038818359375,0.084381103515625,-0.0858612060546875
1782987355295563300,3.918563232421875,-0.985992431640625,0.0858306884765625,-0.0848846435546875
1782987355305637400,3.928637451171875,-0.9871368408203125,0.0864715576171875,-0.083892822265625
1782987355315711200,3.938711181640625,-0.9866485595703125,0.08453369140625,-0.08642578125
1782987355325786400,3.948786376953125,-0.9872283935546875,0.0830230712890625,-0.086212158203125
1782987355335860200,3.958860107421875,-0.983184814453125,0.087127685546875,-0.0856475830078125
1782987355345935400,3.968935302734375,-0.98712158203125,0.084686279296875,-0.0834197998046875
1782987355356009200,3.97900927734375,-0.9865875244140625,0.0866546630859375,-0.084930419921875
1782987355366083300,3.989083251953125,-0.9835357666015625,0.0871124267578125,-0.0873565673828125
1782987355376158200,3.999158203125,-0.987884521484375,0.082916259765625,-0.0848388671875
1782987355386232300,4.009232421875,-0.983489990234375,0.0877685546875,-0.0855255126953125
1782987355396306200,4.01930615234375,-0.984100341796875,0.0861358642578125,-0.085479736328125
1782987355406381300,4.02938134765625,-0.9850006103515625,0.086029052734375,-0.0845184326171875
1782987355416455200,4.039455078125,-0.9849853515625,0.0861663818359375,-0.08489990234375
1782987355426530300,4.0495302734375,-0.9880523681640625,0.0862884521484375,-0.0850067138671875
1782987355436604200,4.059604248046875,-0.9871368408203125,0.0861968994140625,-0.0865936279296875
1782987355446678500,4.069678466796875,-0.98663330078125,0.086700439453125,-0.0858001708984375
1782987355456753200,4.079753173828125,-0.9862060546875,0.0864410400390625,-0.0838165283203125
1782987355466827500,4.08982763671875,-0.9864349365234375,0.08575439453125,-0.0869293212890625
1782987355476902700,4.099902587890625,-0.989013671875,0.0850067138671875,-0.08514404296875
1782987355486976500,4.1099765625,-0.9870147705078125,0.0843658447265625,-0.0852813720703125
1782987355497051000,4.12005078125,-0.985137939453125,0.0845947265625,-0.0856781005859375
1782987355507125500,4.13012548828125,-0.9875640869140625,0.085052490234375,-0.085968017578125
1782987355517200000,4.140199951171875,-0.9877166748046875,0.088470458984375,-0.0853729248046875
1782987355527274500,4.1502744140625,-0.987762451171875,0.0843353271484375,-0.0869293212890625
1782987355537348900,4.160348876953125,-0.9848785400390625,0.0862884521484375,-0.0868988037109375
1782987355547422700,4.170422607421875,-0.98529052734375,0.08447265625,-0.0848236083984375
1782987355557497900,4.180497802734375,-0.9864044189453125,0.0843505859375,-0.0838775634765625
1782987355567571700,4.19057177734375,-0.9861297607421875,0.0843505859375,-0.086944580078125
1782987355577645800,4.200645751953125,-0.987945556640625,0.0853271484375,-0.085662841796875
1782987355587720700,4.210720703125,-0.98529052734375,0.083343505859375,-0.0859527587890625
1782987355597794800,4.220794921875,-0.98486328125,0.0839080810546875,-0.0817108154296875
1782987355607869700,4.23086962890625,-0.9857940673828125,0.086151123046875,-0.0838165283203125
1782987355617943800,4.24094384765625,-0.9859619140625,0.0880889892578125,-0.085968017578125
1782987355628017700,4.251017578125,-0.989410400390625,0.08355712890625,-0.084686279296875
1782987355638092800,4.2610927734375,-0.985107421875,0.0868988037109375,-0.0870819091796875
1782987355648166700,4.271166748046875,-0.98663330078125,0.08599853515625,-0.087677001953125
1782987355658241800,4.28124169921875,-0.98919677734375,0.08526611328125,-0.0869140625
1782987355668315600,4.291315673828125,-0.9851837158203125,0.0834503173828125,-0.0837860107421875
1782987355678389500,4.301389404296875,-0.9837799072265625,0.0802001953125,-0.0810089111328125
1782987355688464600,4.311464599609375,-0.980133056640625,0.0783233642578125,-0.0813446044921875
1782987355698538800,4.321538818359375,-0.9801483154296875,0.0807342529296875,-0.08416748046875
1782987355708613600,4.331613525390625,-0.984161376953125,0.0832977294921875,-0.0840911865234375
1782987355718687700,4.341687744140625,-0.9876556396484375,0.0849456787109375,-0.086669921875
1782987355728761600,4.35176171875,-0.9877777099609375,0.086578369140625,-0.0847930908203125
1782987355738836700,4.361836669921875,-0.985809326171875,0.0873565673828125,-0.08575439453125
1782987355748910600,4.37191064453125,-0.98760986328125,0.0879364013671875,-0.0870208740234375
1782987355758984400,4.381984375,-0.9872283935546875,0.0887603759765625,-0.0870819091796875
1782987355769059600,4.3920595703125,-0.9854888916015625,0.08990478515625,-0.0871124267578125
1782987355779133400,4.402133544921875,-0.9852752685546875,0.0864410400390625,-0.0864715576171875
1782987355789208600,4.41220849609375,-0.985687255859375,0.0858001708984375,-0.0855712890625
1782987355799282400,4.422282470703125,-0.9859771728515625,0.08514404296875,-0.0850982666015625
1782987355809356800,4.432356689453125,-0.98724365234375,0.0858306884765625,-0.085479736328125
1782987355819431700,4.442431640625,-0.98687744140625,0.0847015380859375,-0.0843353271484375
1782987355829505800,4.452505859375,-0.9860076904296875,0.08551025390625,-0.0838470458984375
1782987355839580700,4.46258056640625,-0.9865264892578125,0.0859222412109375,-0.0850677490234375
1782987355849654800,4.47265478515625,-0.9868621826171875,0.0850677490234375,-0.0861968994140625
1782987355859728600,4.482728759765625,-0.9860992431640625,0.08453369140625,-0.0853118896484375
1782987355869803800,4.4928037109375,-0.986724853515625,0.0858001708984375,-0.0868988037109375
1782987355879877600,4.502877685546875,-0.9839019775390625,0.084197998046875,-0.0843963623046875
1782987355889952800,4.512952880859375,-0.9867095947265625,0.083770751953125,-0.0859832763671875
1782987355900026600,4.523026611328125,-0.9866180419921875,0.0837860107421875,-0.08416748046875
1782987355910100700,4.533100830078125,-0.9849700927734375,0.08612060546875,-0.0852203369140625
1782987355920175600,4.543175537109375,-0.9856414794921875,0.0857086181640625,-0.0840301513671875
1782987355930249700,4.553249755859375,-0.985321044921875,0.0846710205078125,-0.0839996337890625
1782987355940324900,4.563324951171875,-0.9871368408203125,0.08380126953125,-0.084930419921875
1782987355950398700,4.573398681640625,-0.9883270263671875,0.08526611328125,-0.0863800048828125
1782987355960472600,4.58347265625,-0.9870147705078125,0.0835418701171875,-0.0832366943359375
1782987355970547700,4.593547607421875,-0.9825286865234375,0.0852508544921875,-0.0867919921875
1782987355980621600,4.60362158203125,-0.9873199462890625,0.084442138671875,-0.0878448486328125
1782987355990695700,4.61369580078125,-0.9880218505859375,0.0861053466796875,-0.08673095703125
1782987356000770600,4.6237705078125,-0.98638916015625,0.0868988037109375,-0.0871124267578125
1782987356010844700,4.6338447265625,-0.988128662109375,0.0849761962890625,-0.0861053466796875
1782987356020919600,4.64391943359375,-0.98626708984375,0.0862579345703125,-0.0860748291015625
1782987356030993700,4.65399365234375,-0.9862060546875,0.086517333984375,-0.085479736328125
1782987356041067500,4.664067626953125,-0.9849700927734375,0.0846710205078125,-0.08660888671875
1782987356051142700,4.674142578125,-0.98663330078125,0.082794189453125,-0.0846710205078125
1782987356061216500,4.684216552734375,-0.9834747314453125,0.0826263427734375,-0.082855224609375
1782987356071291600,4.694291748046875,-0.98394775390625,0.082000732421875,-0.0848846435546875
1782987356081365500,4.704365478515625,-0.98638916015625,0.0831298828125,-0.0831146240234375
1782987356091439600,4.714439697265625,-0.9832611083984375,0.0852203369140625,-0.085601806640625
1782987356101514500,4.724514404296875,-0.986785888671875,0.0847930908203125,-0.0850830078125
1782987356111588600,4.734588623046875,-0.987640380859375,0.0842742919921875,-0.0861053466796875
1782987356121663500,4.74466357421875,-0.984649658203125,0.084991455078125,-0.0864715576171875
1782987356131737600,4.754737548828125,-0.9861297607421875,0.0859527587890625,-0.08843994140625
1782987356141811700,4.764811767578125,-0.987213134765625,0.0878753662109375,-0.08599853515625
1782987356151886600,4.774886474609375,-0.9878082275390625,0.086700439453125,-0.084869384765625
1782987356161960700,4.784960693359375,-0.9870758056640625,0.0849761962890625,-0.0872039794921875
1782987356172034800,4.795034912109375,-0.9871063232421875,0.0846710205078125,-0.0870513916015625
1782987356182109700,4.805109619140625,-0.9864654541015625,0.0844879150390625,-0.086273193359375
1782987356192183800,4.815183837890625,-0.9875335693359375,0.0868072509765625,-0.0854339599609375
1782987356202258700,4.8252587890625,-0.98602294921875,0.08551025390625,-0.0864715576171875
1782987356212332800,4.835332763671875,-0.9869232177734375,0.08343505859375,-0.08526611328125
1782987356222406700,4.84540673828125,-0.9863433837890625,0.0830841064453125,-0.0837860107421875
1782987356232481800,4.855481689453125,-0.9861602783203125,0.0850830078125,-0.08587646484375
1782987356242555600,4.8655556640625,-0.9875335693359375,0.086761474609375,-0.0861358642578125
1782987356252630800,4.875630859375,-0.985504150390625,0.085906982421875,-0.08624267578125
1782987356262704600,4.88570458984375,-0.9861602783203125,0.0871429443359375,-0.0862579345703125
1782987356272778800,4.89577880859375,-0.9857330322265625,0.0864410400390625,-0.0872955322265625
1782987356282853600,4.905853515625,-0.98553466796875,0.0858306884765625,-0.085479736328125
1782987356292927700,4.915927734375,-0.98455810546875,0.0844879150390625,-0.0858154296875
1782987356303002600,4.926002685546875,-0.987060546875,0.0849456787109375,-0.08538818359375
1782987356313076700,4.93607666015625,-0.9868927001953125,0.084716796875,-0.084228515625
1782987356323150600,4.946150634765625,-0.9823760986328125,0.084869384765625,-0.0839080810546875
1782987356333225700,4.956225830078125,-0.9849395751953125,0.0820770263671875,-0.0823974609375
1782987356343299600,4.966299560546875,-0.987060546875,0.0840301513671875,-0.0853424072265625
1782987356353373700,4.976373779296875,-0.98541259765625,0.0852508544921875,-0.083984375
1782987356363448600,4.986448486328125,-0.9861297607421875,0.0841827392578125,-0.086151123046875
1782987356373522700,4.996522705078125,-0.9850921630859375,0.0857696533203125,-0.084564208984375
1782987356383597600,5.00659765625,-0.98541259765625,0.0843963623046875,-0.0853729248046875
1782987356393670700,5.016670654296875,-0.98553466796875,0.08416748046875,-0.08514404296875
1782987356403745500,5.02674560546875,-0.9849853515625,0.08575439453125,-0.0839996337890625
1782987356413819600,5.036819580078125,-0.987335205078125,0.084808349609375,-0.0857086181640625
1782987356423893800,5.046893798828125,-0.9859771728515625,0.0833587646484375,-0.08331298828125
1782987356433969000,5.056968994140625,-0.98406982421875,0.0835418701171875,-0.0843353271484375
1782987356444042800,5.067042724609375,-0.9847564697265625,0.0838775634765625,-0.0836944580078125
1782987356454116600,5.07711669921875,-0.984527587890625,0.083282470703125,-0.0847320556640625
1782987356464191700,5.087191650390625,-0.9835968017578125,0.084869384765625,-0.0843963623046875
1782987356474265000,5.09726513671875,-0.983245849609375,0.0836639404296875,-0.0843963623046875
1782987356484340000,5.107340087890625,-0.98681640625,0.084808349609375,-0.084930419921875
1782987356494414000,5.1174140625,-0.9871063232421875,0.08416748046875,-0.086273193359375
1782987356504488000,5.127488037109375,-0.986846923828125,0.086181640625,-0.0845794677734375
1782987356514563000,5.13756298828125,-0.9882049560546875,0.086578369140625,-0.0851898193359375
1782987356524637000,5.147636962890625,-0.9878997802734375,0.0875396728515625,-0.08465576171875
1782987356534712000,5.157712158203125,-0.9869537353515625,0.0872802734375,-0.0865631103515625
1782987356544786000,5.167785888671875,-0.98638916015625,0.0849609375,-0.0861968994140625
1782987356554860000,5.177860107421875,-0.9860992431640625,0.0865325927734375,-0.086090087890625
1782987356564935000,5.187934814453125,-0.9878082275390625,0.0859375,-0.086822509765625
1782987356575009000,5.198009033203125,-0.9891510009765625,0.086395263671875,-0.0860595703125
1782987356585084000,5.208083984375,-0.9879150390625,0.0862274169921875,-0.0837249755859375
1782987356595158000,5.218157958984375,-0.9834442138671875,0.084564208984375,-0.08294677734375
1782987356605232000,5.228232177734375,-0.985137939453125,0.085418701171875,-0.0840301513671875
1782987356615307000,5.23830712890625,-0.9874114990234375,0.08392333984375,-0.08526611328125
1782987356625381000,5.248381103515625,-0.986328125,0.0843963623046875,-0.083526611328125
1782987356635456000,5.2584560546875,-0.984344482421875,0.0838775634765625,-0.083038330078125
1782987356645530000,5.268530029296875,-0.9860687255859375,0.0825958251953125,-0.084716796875
1782987356655604200,5.278604248046875,-0.9856414794921875,0.0856475830078125,-0.0853729248046875
1782987356665679000,5.28867919921875,-0.9852447509765625,0.0846710205078125,-0.084869384765625
1782987356675753200,5.298753173828125,-0.9857940673828125,0.083770751953125,-0.0852203369140625
1782987356685827000,5.3088271484375,-0.9856414794921875,0.084686279296875,-0.0841827392578125
1782987356695902200,5.318902099609375,-0.984100341796875,0.0827484130859375,-0.085113525390625
1782987356705976000,5.32897607421875,-0.9857177734375,0.0835723876953125,-0.0830535888671875
1782987356716051200,5.33905126953125,-0.9847869873046875,0.083740234375,-0.0854034423828125
1782987356726125000,5.349125,-0.984832763671875,0.086029052734375,-0.08624267578125
1782987356736199200,5.35919921875,-0.9858856201171875,0.085052490234375,-0.0841217041015625
1782987356746274000,5.369274169921875,-0.986175537109375,0.0846099853515625,-0.0860137939453125
1782987356756348200,5.37934814453125,-0.984893798828125,0.085784912109375,-0.08538818359375
1782987356766423000,5.389423095703125,-0.9847412109375,0.08575439453125,-0.0850830078125
1782987356776497200,5.3994970703125,-0.9856414794921875,0.08489990234375,-0.084381103515625
1782987356786571000,5.409571044921875,-0.987701416015625,0.0838775634765625,-0.084808349609375
1782987356796646100,5.419646240234375,-0.9867095947265625,0.085357666015625,-0.08526611328125
1782987356806720000,5.429719970703125,-0.9879913330078125,0.082794189453125,-0.0840606689453125
1782987356816795100,5.439795166015625,-0.9829254150390625,0.0875091552734375,-0.085052490234375
1782987356826869000,5.449868896484375,-0.9859161376953125,0.0851593017578125,-0.085113525390625
1782987356836943000,5.459943115234375,-0.9898223876953125,0.0848846435546875,-0.0870513916015625
1782987356847018000,5.47001806640625,-0.9841461181640625,0.08575439453125,-0.085296630859375
1782987356857092000,5.480092041015625,-0.984619140625,0.0863189697265625,-0.085357666015625
1782987356867167000,5.4901669921875,-0.9859466552734375,0.086822509765625,-0.086334228515625
1782987356877241000,5.500240966796875,-0.9871826171875,0.0858001708984375,-0.086883544921875
1782987356887315000,5.51031494140625,-0.987640380859375,0.0870208740234375,-0.0856475830078125
1782987356897390000,5.52039013671875,-0.9857177734375,0.085968017578125,-0.0847930908203125
1782987356907464000,5.5304638671875,-0.98388671875,0.0837554931640625,-0.0850830078125
1782987356917538000,5.5405380859375,-0.9858245849609375,0.0838165283203125,-0.08575439453125
1782987356927613000,5.550613037109375,-0.9877166748046875,0.08319091796875,-0.0837249755859375
1782987356937687000,5.56068701171875,-0.9868316650390625,0.0852203369140625,-0.0841827392578125
1782987356947762000,5.570761962890625,-0.98443603515625,0.0860595703125,-0.08514404296875
1782987356957836000,5.5808359375,-0.9846343994140625,0.085205078125,-0.0851287841796875
1782987356967910100,5.59091015625,-0.9875335693359375,0.0852813720703125,-0.085662841796875
1782987356977985000,5.600985107421875,-0.985504150390625,0.0853271484375,-0.0848541259765625
1782987356988059100,5.61105908203125,-0.9852447509765625,0.08441162109375,-0.0850982666015625
1782987356998134000,5.621134033203125,-0.985198974609375,0.085235595703125,-0.08612060546875
1782987357008208100,5.6312080078125,-0.9873199462890625,0.084503173828125,-0.0872955322265625
1782987357018282000,5.641281982421875,-0.988006591796875,0.0840301513671875,-0.0860137939453125
1782987357028357000,5.651357177734375,-0.984161376953125,0.0828094482421875,-0.0849456787109375
1782987357038431000,5.661430908203125,-0.9830474853515625,0.0833740234375,-0.0855560302734375
1782987357048506000,5.671506103515625,-0.9868621826171875,0.085235595703125,-0.085113525390625
1782987357058580200,5.681580322265625,-0.9876708984375,0.0854034423828125,-0.086334228515625
1782987357068654000,5.691654052734375,-0.9855804443359375,0.0859375,-0.0863800048828125
1782987357078729200,5.701729248046875,-0.9853057861328125,0.084716796875,-0.085968017578125
1782987357088803000,5.711802978515625,-0.9841461181640625,0.0837249755859375,-0.0856475830078125
1782987357098877000,5.721876953125,-0.9858245849609375,0.0853271484375,-0.0861968994140625
1782987357108952000,5.7319521484375,-0.9874420166015625,0.0846099853515625,-0.0868988037109375
1782987357119026000,5.74202587890625,-0.986724853515625,0.084869384765625,-0.0850830078125
1782987357129101000,5.75210107421875,-0.9837493896484375,0.0851593017578125,-0.0838623046875
1782987357139175000,5.7621748046875,-0.985626220703125,0.0851287841796875,-0.0855712890625
1782987357149249000,5.7722490234375,-0.987335205078125,0.086761474609375,-0.0873870849609375
1782987357159324000,5.782323974609375,-0.9870452880859375,0.08587646484375,-0.0866241455078125
1782987357169398000,5.79239794921875,-0.98565673828125,0.0854339599609375,-0.084747314453125
1782987357179473000,5.802472900390625,-0.9856109619140625,0.0845489501953125,-0.084686279296875
1782987357189547000,5.812547119140625,-0.9862518310546875,0.0850982666015625,-0.0854949951171875
1782987357199620900,5.822620849609375,-0.988128662109375,0.08660888671875,-0.085205078125
1782987357209696000,5.832696044921875,-0.9864959716796875,0.0859375,-0.0853271484375
1782987357219769900,5.842769775390625,-0.9864349365234375,0.086029052734375,-0.086029052734375
1782987357229845000,5.852844970703125,-0.98748779296875,0.084259033203125,-0.084564208984375
1782987357239918800,5.8629189453125,-0.9868316650390625,0.0836334228515625,-0.0868682861328125
1782987357249993000,5.872992919921875,-0.9870452880859375,0.0883941650390625,-0.0870208740234375
1782987357260067800,5.88306787109375,-0.988616943359375,0.086456298828125,-0.0877532958984375
1782987357270142000,5.893141845703125,-0.98553466796875,0.085845947265625,-0.0858001708984375
1782987357280216800,5.903216796875,-0.985107421875,0.085540771484375,-0.0850830078125
1782987357290291000,5.913291015625,-0.985626220703125,0.0840301513671875,-0.0843505859375
1782987357300365000,5.923364990234375,-0.985015869140625,0.0836334228515625,-0.0863494873046875
1782987357310440000,5.93343994140625,-0.9813079833984375,0.0841217041015625,-0.0868988037109375
1782987357320514000,5.94351416015625,-0.9850311279296875,0.084136962890625,-0.0857086181640625
1782987357330588200,5.953588134765625,-0.9845428466796875,0.083984375,-0.08331298828125
1782987357340663000,5.9636630859375,-0.9847564697265625,0.08258056640625,-0.0850982666015625
1782987357350737200,5.973737060546875,-0.9867401123046875,0.0836639404296875,-0.0858001708984375
1782987357360812000,5.98381201171875,-0.985504150390625,0.08587646484375,-0.085174560546875
1782987357370886100,5.99388623046875,-0.9847259521484375,0.085479736328125,-0.0856170654296875
1782987357380960000,6.0039599609375,-0.985931396484375,0.08563232421875,-0.0854339599609375
1782987357391035100,6.01403515625,-0.984710693359375,0.0865020751953125,-0.087188720703125
1782987357401109000,6.02410888671875,-0.9848480224609375,0.08441162109375,-0.08526611328125
1782987357411184000,6.03418408203125,-0.9840545654296875,0.083343505859375,-0.0839996337890625
1782987357421258000,6.044258056640625,-0.983551025390625,0.0848846435546875,-0.0865936279296875
1782987357431332000,6.05433203125,-0.988037109375,0.0855712890625,-0.0874176025390625
1782987357441407000,6.064406982421875,-0.9896697998046875,0.0872650146484375,-0.0871429443359375
1782987357451481000,6.074481201171875,-0.9862823486328125,0.08709716796875,-0.0839385986328125
1782987357461556000,6.084555908203125,-0.9840087890625,0.0862579345703125,-0.0868988037109375
1782987357471629800,6.0946298828125,-0.9860992431640625,0.0872039794921875,-0.085174560546875
1782987357481704000,6.104703857421875,-0.9856414794921875,0.08551025390625,-0.0853729248046875
1782987357491778800,6.11477880859375,-0.9865875244140625,0.083587646484375,-0.0863494873046875
1782987357501853000,6.12485302734375,-0.9850311279296875,0.0859375,-0.08453369140625
1782987357511927800,6.134927734375,-0.9846343994140625,0.085052490234375,-0.0856475830078125
1782987357522002000,6.145001953125,-0.98492431640625,0.083892822265625,-0.0844573974609375
1782987357532075800,6.15507568359375,-0.986114501953125,0.085784912109375,-0.084381103515625
1782987357542151000,6.16515087890625,-0.9872283935546875,0.0869140625,-0.08624267578125
1782987357552224800,6.175224853515625,-0.9872283935546875,0.08575439453125,-0.084320068359375
1782987357562299100,6.185299072265625,-0.987457275390625,0.0839996337890625,-0.0854644775390625
1782987357572373800,6.195373779296875,-0.983856201171875,0.0843353271484375,-0.0865631103515625
1782987357582448000,6.2054482421875,-0.98529052734375,0.08489990234375,-0.0836639404296875
1782987357592522800,6.215522705078125,-0.9879150390625,0.0861663818359375,-0.0862579345703125
1782987357602597000,6.22559716796875,-0.989013671875,0.0853729248046875,-0.087005615234375
1782987357612671000,6.2356708984375,-0.9865570068359375,0.0858917236328125,-0.086517333984375
1782987357622746000,6.24574609375,-0.985626220703125,0.085113525390625,-0.084930419921875
1782987357632820000,6.255820068359375,-0.985137939453125,0.0852508544921875,-0.0855255126953125
1782987357642895000,6.26589501953125,-0.9871826171875,0.084564208984375,-0.0850677490234375
1782987357652969000,6.275968994140625,-0.9861297607421875,0.0858001708984375,-0.0853729248046875
1782987357663043000,6.28604296875,-0.983978271484375,0.084747314453125,-0.08447265625
1782987357673118000,6.296117919921875,-0.9859771728515625,0.0837249755859375,-0.08526611328125
1782987357683192000,6.306192138671875,-0.9861907958984375,0.0858001708984375,-0.0850982666015625
1782987357693267000,6.316266845703125,-0.98565673828125,0.0853118896484375,-0.087738037109375
1782987357703341000,6.326341064453125,-0.9858245849609375,0.086669921875,-0.0850067138671875
1782987357713415000,6.336414794921875,-0.9884796142578125,0.084869384765625,-0.084869384765625
1782987357723490000,6.346489990234375,-0.9860382080078125,0.0847015380859375,-0.086578369140625
1782987357733564000,6.35656396484375,-0.9851837158203125,0.0858612060546875,-0.0858154296875
1782987357743638000,6.366637939453125,-0.9846649169921875,0.0851593017578125,-0.0845184326171875
1782987357753713000,6.376712890625,-0.987335205078125,0.0855255126953125,-0.0864410400390625
1782987357763787000,6.386787109375,-0.98480224609375,0.08502197265625,-0.0837249755859375
1782987357773862000,6.39686181640625,-0.9865875244140625,0.08538818359375,-0.0850372314453125
1782987357783936000,6.40693603515625,-0.9853973388671875,0.0846710205078125,-0.0874176025390625
1782987357794009900,6.417009765625,-0.9874725341796875,0.085174560546875,-0.08502197265625
1782987357804085000,6.4270849609375,-0.98773193359375,0.0839691162109375,-0.08575439453125
1782987357814158800,6.437158935546875,-0.98651123046875,0.08477783203125,-0.0867156982421875
1782987357824234000,6.44723388671875,-0.9851226806640625,0.0832977294921875,-0.086456298828125
1782987357834307800,6.457307861328125,-0.9851837158203125,0.0849609375,-0.0848541259765625
1782987357844382000,6.4673818359375,-0.986663818359375,0.0842437744140625,-0.0853729248046875
1782987357854456800,6.477456787109375,-0.9861602783203125,0.0835418701171875,-0.087615966796875
1782987357864531000,6.487531005859375,-0.9853668212890625,0.084991455078125,-0.085174560546875
1782987357874605800,6.497605712890625,-0.98797607421875,0.084686279296875,-0.0859527587890625
1782987357884680000,6.507679931640625,-0.986541748046875,0.0844573974609375,-0.08624267578125
1782987357894754000,6.517754150390625,-0.985260009765625,0.087158203125,-0.0862884521484375
1782987357904829000,6.527828857421875,-0.9851226806640625,0.0857086181640625,-0.0859832763671875
1782987357914903000,6.537903076171875,-0.9864044189453125,0.0854034423828125,-0.0848846435546875
1782987357924978000,6.54797802734375,-0.9869842529296875,0.0864410400390625,-0.085357666015625
1782987357935052000,6.558052001953125,-0.9854583740234375,0.086517333984375,-0.08734130859375
1782987357945126100,6.568126220703125,-0.9868011474609375,0.0852508544921875,-0.0848541259765625
1782987357955201000,6.578200927734375,-0.9859161376953125,0.08489990234375,-0.0858917236328125
1782987357965275100,6.588275146484375,-0.98626708984375,0.0852813720703125,-0.084381103515625
1782987357975349000,6.598348876953125,-0.9860687255859375,0.0837249755859375,-0.08447265625
1782987357985424100,6.608424072265625,-0.984619140625,0.084442138671875,-0.0835418701171875
1782987357995498000,6.618498046875,-0.9843597412109375,0.084716796875,-0.0850372314453125
1782987358005573000,6.628572998046875,-0.9865264892578125,0.0846710205078125,-0.086517333984375
1782987358015647000,6.63864697265625,-0.98712158203125,0.085784912109375,-0.0858917236328125
1782987358025721000,6.64872119140625,-0.987091064453125,0.0837554931640625,-0.0873870849609375
1782987358035796000,6.6587958984375,-0.9866943359375,0.083038330078125,-0.0865936279296875
1782987358045870000,6.6688701171875,-0.9854888916015625,0.0840911865234375,-0.08575439453125
1782987358055945000,6.678945068359375,-0.984588623046875,0.085174560546875,-0.0871429443359375
1782987358066019000,6.68901904296875,-0.98724365234375,0.0853424072265625,-0.0868377685546875
1782987358076093000,6.699093017578125,-0.9866180419921875,0.087371826171875,-0.0889739990234375
1782987358086168000,6.70916796875,-0.9853973388671875,0.0876922607421875,-0.086090087890625
1782987358096242000,6.719241943359375,-0.9846038818359375,0.0855712890625,-0.0853424072265625
1782987358106317000,6.729317138671875,-0.9855499267578125,0.082763671875,-0.08636474609375
1782987358116391000,6.739390869140625,-0.9873504638671875,0.08489990234375,-0.08612060546875
1782987358126464800,6.74946484375,-0.987030029296875,0.084442138671875,-0.085540771484375
1782987358136540000,6.759539794921875,-0.986083984375,0.0848388671875,-0.0854339599609375
1782987358146614000,6.769614013671875,-0.98553466796875,0.0853729248046875,-0.0863494873046875
1782987358156689000,6.77968896484375,-0.9868927001953125,0.0836334228515625,-0.0863800048828125
1782987358166763000,6.789762939453125,-0.9857330322265625,0.085968017578125,-0.0843353271484375
1782987358176836900,6.7998369140625,-0.9857177734375,0.0858306884765625,-0.085845947265625
1782987358186912000,6.809912109375,-0.9862518310546875,0.0855560302734375,-0.0860748291015625
1782987358196985900,6.81998583984375,-0.9851531982421875,0.085296630859375,-0.0868377685546875
1782987358207060000,6.83006005859375,-0.9853668212890625,0.086273193359375,-0.0885467529296875
1782987358217134800,6.840134765625,-0.983978271484375,0.087066650390625,-0.085540771484375
1782987358227209000,6.850208984375,-0.9873504638671875,0.0857391357421875,-0.085357666015625
1782987358237283800,6.860283935546875,-0.98724365234375,0.08636474609375,-0.0866546630859375
1782987358247358000,6.87035791015625,-0.9866790771484375,0.08563232421875,-0.0863189697265625
1782987358257432000,6.88043212890625,-0.9850311279296875,0.0841064453125,-0.0858917236328125
1782987358267507200,6.890507080078125,-0.986053466796875,0.085845947265625,-0.0852508544921875
1782987358277581000,6.9005810546875,-0.9859619140625,0.0852203369140625,-0.0853424072265625
1782987358287656200,6.91065625,-0.9857940673828125,0.084747314453125,-0.0865478515625
1782987358297730000,6.92072998046875,-0.9841766357421875,0.0856170654296875,-0.0870513916015625
1782987358307804000,6.930803955078125,-0.9864959716796875,0.085540771484375,-0.08642578125
1782987358317879000,6.940879150390625,-0.9866943359375,0.0852813720703125,-0.0865325927734375
1782987358327953000,6.950952880859375,-0.9860687255859375,0.083740234375,-0.084716796875
1782987358338028000,6.961028076171875,-0.9860992431640625,0.0851593017578125,-0.0849151611328125
1782987358348102000,6.971101806640625,-0.9853973388671875,0.085357666015625,-0.0880126953125
1782987358358176000,6.981176025390625,-0.9844207763671875,0.085113525390625,-0.0863037109375
1782987358368251000,6.9912509765625,-0.9866485595703125,0.0853424072265625,-0.086395263671875
1782987358378325000,7.001324951171875,-0.9874114990234375,0.08526611328125,-0.0852203369140625
1782987358388400000,7.011400146484375,-0.98577880859375,0.085601806640625,-0.0842132568359375
1782987358398474000,7.021473876953125,-0.986083984375,0.0858917236328125,-0.08544921875
1782987358408547800,7.0315478515625,-0.9847564697265625,0.0856781005859375,-0.0857696533203125
1782987358418623000,7.041623046875,-0.98760986328125,0.085662841796875,-0.0862579345703125
1782987358428696800,7.05169677734375,-0.98699951171875,0.0869903564453125,-0.086578369140625
1782987358438771000,7.06177099609375,-0.9868621826171875,0.084747314453125,-0.0849151611328125
1782987358448845800,7.071845703125,-0.984161376953125,0.083892822265625,-0.0844879150390625
1782987358458920000,7.081919921875,-0.982513427734375,0.0839080810546875,-0.0854339599609375
1782987358468994800,7.091994873046875,-0.9863739013671875,0.0853424072265625,-0.0860443115234375
1782987358479069000,7.10206884765625,-0.98822021484375,0.0852508544921875,-0.0877838134765625
1782987358489142800,7.112142822265625,-0.9854278564453125,0.083587646484375,-0.086700439453125
1782987358499218000,7.122218017578125,-0.98614501953125,0.0857391357421875,-0.0864715576171875
1782987358509291800,7.132291748046875,-0.9857940673828125,0.0860595703125,-0.086517333984375
1782987358519367000,7.142366943359375,-0.985687255859375,0.085906982421875,-0.08612060546875
1782987358529440800,7.152440673828125,-0.98651123046875,0.085052490234375,-0.0864105224609375
1782987358539515100,7.16251513671875,-0.984283447265625,0.0847930908203125,-0.0859527587890625
1782987358549589800,7.17258984375,-0.9829864501953125,0.0859527587890625,-0.0841217041015625
1782987358559664000,7.1826640625,-0.9865264892578125,0.0860595703125,-0.084930419921875
1782987358569738800,7.19273876953125,-0.9869232177734375,0.084991455078125,-0.0849761962890625
1782987358579813000,7.202813232421875,-0.98480224609375,0.08477783203125,-0.0861968994140625
1782987358589887000,7.212886962890625,-0.9859771728515625,0.0853424072265625,-0.0873260498046875
1782987358599962000,7.222962158203125,-0.98504638671875,0.0837554931640625,-0.0880889892578125
1782987358610036000,7.233035888671875,-0.9866790771484375,0.0847320556640625,-0.086669921875
1782987358620111000,7.243111083984375,-0.9855804443359375,0.0850677490234375,-0.0869903564453125
1782987358630185000,7.25318505859375,-0.9863128662109375,0.0860595703125,-0.085418701171875
1782987358640259000,7.263259033203125,-0.9868011474609375,0.0849609375,-0.0864105224609375
1782987358650334000,7.273333984375,-0.9862213134765625,0.0853271484375,-0.0874176025390625
1782987358660408000,7.283407958984375,-0.9864349365234375,0.084564208984375,-0.0860595703125
1782987358670482000,7.29348193359375,-0.9859619140625,0.0843505859375,-0.08660888671875
1782987358680557000,7.30355712890625,-0.9860687255859375,0.085723876953125,-0.0855712890625
1782987358690631000,7.313630859375,-0.9864501953125,0.086334228515625,-0.0844879150390625
1782987358700706000,7.3237060546875,-0.9851226806640625,0.0844879150390625,-0.0854034423828125
1782987358710780000,7.33377978515625,-0.9852142333984375,0.084625244140625,-0.0864105224609375
1782987358720853800,7.343853759765625,-0.9864654541015625,0.084716796875,-0.0869903564453125
1782987358730929000,7.353928955078125,-0.9873504638671875,0.083770751953125,-0.084716796875
1782987358741003000,7.3640029296875,-0.9866485595703125,0.084564208984375,-0.085601806640625
1782987358751078000,7.374077880859375,-0.9869842529296875,0.0854034423828125,-0.085601806640625
1782987358761152000,7.384152099609375,-0.9866485595703125,0.086029052734375,-0.0859222412109375
1782987358771225900,7.394225830078125,-0.9857177734375,0.0848846435546875,-0.087249755859375
1782987358781301000,7.404301025390625,-0.985748291015625,0.0846710205078125,-0.086700439453125
1782987358791374800,7.414374755859375,-0.986297607421875,0.0868682861328125,-0.08563232421875
1782987358801450000,7.424449951171875,-0.985321044921875,0.0851593017578125,-0.0877838134765625
1782987358811523800,7.43452392578125,-0.9856414794921875,0.0854949951171875,-0.0880889892578125
1782987358821597700,7.44459765625,-0.9855194091796875,0.08563232421875,-0.085357666015625
1782987358831672800,7.4546728515625,-0.9860076904296875,0.0858154296875,-0.0847320556640625
1782987358841746700,7.46474658203125,-0.98675537109375,0.0847015380859375,-0.0867462158203125
1782987358851821800,7.47482177734375,-0.9877777099609375,0.0850677490234375,-0.085418701171875
1782987358861895700,7.484895751953125,-0.9854583740234375,0.0858306884765625,-0.0858306884765625
1782987358871970000,7.494969970703125,-0.9839324951171875,0.0847015380859375,-0.0862579345703125
1782987358882045000,7.505044921875,-0.9865875244140625,0.0843963623046875,-0.084808349609375
1782987358892119000,7.515119140625,-0.9853363037109375,0.0857696533203125,-0.0860137939453125
1782987358902193000,7.52519287109375,-0.9849700927734375,0.0855865478515625,-0.0851898193359375
1782987358912268000,7.53526806640625,-0.984588623046875,0.0848846435546875,-0.086669921875
1782987358922342000,7.545341796875,-0.98486328125,0.084564208984375,-0.0861663818359375
1782987358932417000,7.5554169921875,-0.9886932373046875,0.085845947265625,-0.0843505859375
1782987358942491000,7.565490966796875,-0.988067626953125,0.0849151611328125,-0.085296630859375
1782987358952565000,7.57556494140625,-0.9855804443359375,0.0843658447265625,-0.0855712890625
1782987358962640000,7.585639892578125,-0.9855804443359375,0.084686279296875,-0.086181640625
1782987358972714000,7.5957138671875,-0.984283447265625,0.084442138671875,-0.0865020751953125
1782987358982788900,7.605788818359375,-0.98663330078125,0.0840606689453125,-0.0858306884765625
1782987358992863000,7.615863037109375,-0.9854736328125,0.0852813720703125,-0.0852203369140625
1782987359002936800,7.625936767578125,-0.9873504638671875,0.086151123046875,-0.0873870849609375
1782987359013012000,7.636011962890625,-0.9875640869140625,0.0862274169921875,-0.085540771484375
1782987359023085800,7.6460859375,-0.9871063232421875,0.0843963623046875,-0.0854034423828125
1782987359033161000,7.656160888671875,-0.9849853515625,0.085906982421875,-0.0851593017578125
1782987359043234800,7.66623486328125,-0.9859771728515625,0.0850677490234375,-0.0866851806640625
1782987359053309000,7.676308837890625,-0.9866943359375,0.0839996337890625,-0.0858306884765625
1782987359063383800,7.6863837890625,-0.986785888671875,0.0839691162109375,-0.0853424072265625
1782987359073458000,7.6964580078125,-0.98626708984375,0.085784912109375,-0.0863189697265625
1782987359083531800,7.70653173828125,-0.9856719970703125,0.08538818359375,-0.0846710205078125
1782987359093607000,7.71660693359375,-0.9857177734375,0.086700439453125,-0.0847320556640625
1782987359103680800,7.7266806640625,-0.986846923828125,0.0853424072265625,-0.087615966796875
1782987359113756000,7.736755859375,-0.9875030517578125,0.085540771484375,-0.08624267578125
1782987359123829800,7.746829833984375,-0.9848480224609375,0.0859222412109375,-0.0871124267578125
1782987359133904000,7.75690380859375,-0.985076904296875,0.0846405029296875,-0.0865020751953125
1782987359143978800,7.766978759765625,-0.985015869140625,0.0848236083984375,-0.0872650146484375
1782987359154052900,7.777052978515625,-0.988677978515625,0.086029052734375,-0.085479736328125
1782987359164127700,7.787127685546875,-0.986083984375,0.086181640625,-0.0861358642578125
1782987359174201900,7.797201904296875,-0.9857330322265625,0.0838623046875,-0.0854034423828125
1782987359184276000,7.80727587890625,-0.986572265625,0.0862274169921875,-0.086822509765625
1782987359194350800,7.817350830078125,-0.9857330322265625,0.085601806640625,-0.0865020751953125
1782987359204425000,7.827425048828125,-0.9864501953125,0.0863800048828125,-0.0853118896484375
1782987359214499800,7.837499755859375,-0.986968994140625,0.08612060546875,-0.0865631103515625
1782987359224574000,7.847573974609375,-0.9866943359375,0.0843353271484375,-0.087615966796875
1782987359234648000,7.85764794921875,-0.984832763671875,0.0839080810546875,-0.0863800048828125
1782987359244723000,7.867722900390625,-0.985198974609375,0.084564208984375,-0.08624267578125
1782987359254797000,7.877797119140625,-0.9870147705078125,0.0841827392578125,-0.0879364013671875
1782987359264871000,7.887870849609375,-0.987762451171875,0.085052490234375,-0.085845947265625
1782987359274946000,7.897946044921875,-0.98565673828125,0.0847625732421875,-0.0857696533203125
1782987359285020000,7.90802001953125,-0.9849090576171875,0.0841522216796875,-0.0859527587890625
1782987359295095000,7.918094970703125,-0.9852142333984375,0.083984375,-0.0859375
1782987359305169000,7.9281689453125,-0.987213134765625,0.0850982666015625,-0.0861053466796875
1782987359315243000,7.938242919921875,-0.9860382080078125,0.0849609375,-0.085693359375
1782987359325318000,7.94831787109375,-0.98577880859375,0.083740234375,-0.0868377685546875
1782987359335392000,7.95839208984375,-0.9854583740234375,0.0843505859375,-0.0870361328125
1782987359345467000,7.968466796875,-0.9856109619140625,0.08428955078125,-0.0859222412109375
1782987359355541000,7.978541015625,-0.986541748046875,0.0846710205078125,-0.0856781005859375
1782987359365614800,7.98861474609375,-0.98565673828125,0.0857086181640625,-0.0858306884765625
1782987359375690000,7.99868994140625,-0.9865875244140625,0.0864410400390625,-0.0872344970703125
1782987359385763800,8.008763916015624,-0.984527587890625,0.084869384765625,-0.0847930908203125
1782987359395839000,8.0188388671875,-0.9847564697265625,0.086212158203125,-0.0851898193359375
1782987359405912800,8.028912841796876,-0.987640380859375,0.0859375,-0.0872955322265625
1782987359415987000,8.038987060546875,-0.9854583740234375,0.0865631103515625,-0.084991455078125
1782987359426061800,8.049061767578126,-0.9853973388671875,0.0855560302734375,-0.084503173828125
1782987359436136000,8.059135986328124,-0.98565673828125,0.085205078125,-0.08587646484375
1782987359446210800,8.0692109375,-0.9867706298828125,0.08551025390625,-0.0867767333984375
1782987359456285000,8.079284912109374,-0.98675537109375,0.08514404296875,-0.0863800048828125
1782987359466358800,8.08935888671875,-0.9867706298828125,0.0850067138671875,-0.08685302734375
1782987359476434200,8.09943408203125,-0.986663818359375,0.08477783203125,-0.0860443115234375
1782987359486508300,8.10950830078125,-0.98419189453125,0.084686279296875,-0.0865631103515625
1782987359496583200,8.119583251953125,-0.9847869873046875,0.0859527587890625,-0.086273193359375
1782987359506657300,8.1296572265625,-0.9843292236328125,0.0850982666015625,-0.0869598388671875
1782987359516731100,8.139731201171875,-0.98529052734375,0.0857391357421875,-0.087066650390625
1782987359526806300,8.14980615234375,-0.98577880859375,0.084442138671875,-0.086090087890625
1782987359536880000,8.159880126953125,-0.9847259521484375,0.08514404296875,-0.0870208740234375
1782987359546954500,8.16995458984375,-0.9867401123046875,0.0864715576171875,-0.0870513916015625
1782987359557029000,8.180029052734374,-0.986572265625,0.0854644775390625,-0.0876922607421875
1782987359567103500,8.190103515625,-0.986541748046875,0.0840606689453125,-0.0855560302734375
1782987359577178000,8.20017822265625,-0.986358642578125,0.084075927734375,-0.085418701171875
1782987359587252500,8.21025244140625,-0.98492431640625,0.0834808349609375,-0.086029052734375
1782987359597326300,8.220326416015626,-0.98394775390625,0.08380126953125,-0.0874481201171875
1782987359607401500,8.2304013671875,-0.9872589111328125,0.0849761962890625,-0.085968017578125
1782987359617475300,8.240475341796875,-0.9871063232421875,0.084991455078125,-0.0868072509765625
1782987359627550500,8.250550537109374,-0.9861297607421875,0.08453369140625,-0.0868072509765625
1782987359637624300,8.260624267578125,-0.9849090576171875,0.08489990234375,-0.0861358642578125
1782987359647698400,8.270698486328126,-0.9872589111328125,0.0842132568359375,-0.088043212890625
1782987359657773300,8.280773193359375,-0.9876556396484375,0.0847320556640625,-0.0881195068359375
1782987359667847400,8.290847412109375,-0.985260009765625,0.0851593017578125,-0.085693359375
1782987359677922300,8.30092236328125,-0.9851837158203125,0.084625244140625,-0.0859222412109375
1782987359687996400,8.310996337890625,-0.9847259521484375,0.0833587646484375,-0.0861968994140625
1782987359698070300,8.3210703125,-0.9862213134765625,0.0838165283203125,-0.08740234375
1782987359708145400,8.3311455078125,-0.98577880859375,0.0857696533203125,-0.086669921875
1782987359718219300,8.34121923828125,-0.986236572265625,0.084747314453125,-0.0867156982421875
1782987359728294400,8.35129443359375,-0.98675537109375,0.084625244140625,-0.087158203125
1782987359738368300,8.3613681640625,-0.9849700927734375,0.0853729248046875,-0.0863800048828125
1782987359748442400,8.3714423828125,-0.98675537109375,0.085296630859375,-0.0867919921875
1782987359758517200,8.381517333984375,-0.9849090576171875,0.0856170654296875,-0.08563232421875
1782987359768591400,8.39159130859375,-0.98516845703125,0.0840911865234375,-0.0855865478515625
1782987359778665200,8.401665283203124,-0.986053466796875,0.0843658447265625,-0.085540771484375
1782987359788740400,8.411740234375,-0.98394775390625,0.084686279296875,-0.0850982666015625
1782987359798814200,8.421814208984374,-0.98468017578125,0.0845794677734375,-0.085235595703125
1782987359808889300,8.431889404296875,-0.98486328125,0.0851898193359375,-0.0864410400390625
1782987359818963200,8.441963134765626,-0.986083984375,0.08416748046875,-0.087860107421875
1782987359829037300,8.452037353515625,-0.9858856201171875,0.0855712890625,-0.0876617431640625
1782987359839112200,8.4621123046875,-0.985382080078125,0.085662841796875,-0.0856475830078125
1782987359849186300,8.472186279296874,-0.985137939453125,0.0860748291015625,-0.085052490234375
1782987359859261200,8.48226123046875,-0.9861297607421875,0.0844879150390625,-0.0871429443359375
1782987359869335300,8.492335205078126,-0.986419677734375,0.08447265625,-0.085693359375
1782987359879409400,8.502409423828125,-0.985595703125,0.0848846435546875,-0.085113525390625
1782987359889484300,8.512484375,-0.9851837158203125,0.08526611328125,-0.08599853515625
1782987359899558400,8.522558349609374,-0.9842681884765625,0.086273193359375,-0.0868988037109375
1782987359909633300,8.53263330078125,-0.987091064453125,0.0850372314453125,-0.0872650146484375
1782987359919707400,8.542707275390624,-0.9874267578125,0.0847625732421875,-0.0846099853515625
1782987359929781200,8.55278125,-0.9849395751953125,0.0851593017578125,-0.085418701171875
1782987359939856400,8.5628564453125,-0.9849853515625,0.0849609375,-0.0875396728515625
1782987359949930200,8.57293017578125,-0.9851531982421875,0.0853729248046875,-0.087188720703125
1782987359960004400,8.58300439453125,-0.986175537109375,0.083526611328125,-0.0853729248046875
1782987359970079200,8.593079345703124,-0.9846954345703125,0.085174560546875,-0.0864715576171875
1782987359980153300,8.6031533203125,-0.985198974609375,0.0862579345703125,-0.0856781005859375
1782987359990228200,8.613228271484376,-0.9874114990234375,0.085906982421875,-0.087646484375
1782987360000302300,8.62330224609375,-0.98675537109375,0.0846405029296875,-0.0845947265625
1782987360010376200,8.633376220703125,-0.9857635498046875,0.0864410400390625,-0.083709716796875
1782987360020451300,8.643451416015624,-0.986083984375,0.084869384765625,-0.0858306884765625
1782987360030525200,8.653525146484375,-0.9871063232421875,0.08538818359375,-0.0848846435546875
1782987360040600300,8.663600341796876,-0.9873046875,0.0830841064453125,-0.085723876953125
1782987360050674200,8.673674072265625,-0.9853363037109375,0.084625244140625,-0.0846710205078125
1782987360060748300,8.683748291015625,-0.9853363037109375,0.084747314453125,-0.08709716796875
1782987360070823200,8.6938232421875,-0.9863433837890625,0.0846405029296875,-0.0865020751953125
1782987360080897300,8.703897216796875,-0.9849395751953125,0.0854949951171875,-0.0856475830078125
1782987360090972200,8.71397216796875,-0.98638916015625,0.0840606689453125,-0.0846710205078125
1782987360101046300,8.72404638671875,-0.983856201171875,0.0834197998046875,-0.084503173828125
1782987360111120100,8.7341201171875,-0.9856109619140625,0.0847015380859375,-0.085968017578125
1782987360121195300,8.7441953125,-0.986541748046875,0.085113525390625,-0.0881805419921875
1782987360131269000,8.75426904296875,-0.9875030517578125,0.0857391357421875,-0.0869293212890625
1782987360141343200,8.76434326171875,-0.987518310546875,0.0860443115234375,-0.0881500244140625
1782987360151418000,8.774418212890625,-0.987060546875,0.08551025390625,-0.0845794677734375
1782987360161492200,8.7844921875,-0.9858245849609375,0.08648681640625,-0.08685302734375
1782987360171567000,8.794567138671875,-0.9874420166015625,0.0864105224609375,-0.08697509765625
1782987360181641200,8.80464111328125,-0.9912109375,0.08428955078125,-0.08612060546875
1782987360191715300,8.81471533203125,-0.9874725341796875,0.082916259765625,-0.0847625732421875
1782987360201790200,8.824790283203125,-0.9818115234375,0.0846710205078125,-0.0825042724609375
1782987360211864300,8.8348642578125,-0.987274169921875,0.0844573974609375,-0.086761474609375
1782987360221939200,8.844939208984375,-0.9871826171875,0.085418701171875,-0.086761474609375
1782987360232013300,8.855013427734375,-0.98529052734375,0.0876312255859375,-0.088897705078125
1782987360242087400,8.86508740234375,-0.9856414794921875,0.08673095703125,-0.083526611328125
1782987360252162300,8.875162353515625,-0.9818878173828125,0.08843994140625,-0.0901031494140625
1782987360262236400,8.885236328125,-0.9911041259765625,0.085784912109375,-0.092864990234375
1782987360272311300,8.895311279296875,-0.9964752197265625,0.0859222412109375,-0.0892333984375
1782987360282385400,8.905385498046876,-0.986480712890625,0.082763671875,-0.0828704833984375
1782987360292459300,8.915459228515624,-0.97198486328125,0.0743865966796875,-0.075408935546875
1782987360302534400,8.925534423828125,-0.968353271484375,0.083282470703125,-0.0901947021484375
1782987360312608300,8.935608154296874,-0.9974517822265625,0.0846405029296875,-0.088134765625
1782987360322683400,8.945683349609375,-1.0005035400390625,0.087677001953125,-0.0897674560546875
1782987360332757200,8.95575732421875,-0.979736328125,0.0865325927734375,-0.0897064208984375
1782987360342831400,8.965831298828125,-0.98040771484375,0.081878662109375,-0.0837860107421875
1782987360352906200,8.97590625,-0.9800872802734375,0.0861053466796875,-0.0879974365234375
1782987360362980400,8.98598046875,-0.983306884765625,0.09197998046875,-0.09112548828125
1782987360373054200,8.99605419921875,-0.991729736328125,0.089385986328125,-0.0899810791015625
1782987360383129300,9.00612939453125,-0.984619140625,0.0829620361328125,-0.089324951171875
1782987360393203200,9.016203125,-0.9788665771484375,0.089935302734375,-0.0858154296875
1782987360403278300,9.0262783203125,-0.985748291015625,0.089019775390625,-0.0861663818359375
1782987360413352200,9.036352294921874,-0.9911651611328125,0.089385986328125,-0.089813232421875
1782987360423426300,9.04642626953125,-0.986663818359375,0.086517333984375,-0.0895538330078125
1782987360433501200,9.056501220703124,-0.9864501953125,0.08563232421875,-0.0872802734375
1782987360443575300,9.0665751953125,-0.985565185546875,0.084197998046875,-0.085174560546875
1782987360453650200,9.076650146484376,-0.986175537109375,0.084991455078125,-0.0879058837890625
1782987360463724300,9.086724365234375,-0.986846923828125,0.084503173828125,-0.088653564453125
1782987360473798100,9.096798095703125,-0.9846954345703125,0.08758544921875,-0.0868072509765625
1782987360483872800,9.106872802734374,-0.9857635498046875,0.0860595703125,-0.0876617431640625
1782987360493947100,9.116947021484375,-0.98583984375,0.0847015380859375,-0.0869903564453125
1782987360504021800,9.127021728515626,-0.9866943359375,0.0850372314453125,-0.08795166015625
1782987360514096000,9.13709619140625,-0.985992431640625,0.0855255126953125,-0.087860107421875
1782987360524170000,9.147169921875,-0.98492431640625,0.0874176025390625,-0.0859527587890625
1782987360534245000,9.1572451171875,-0.9835357666015625,0.085174560546875,-0.0869903564453125
1782987360544319000,9.167319091796875,-0.9828338623046875,0.087188720703125,-0.0869293212890625
1782987360554392800,9.177392822265626,-0.9868011474609375,0.085540771484375,-0.0856475830078125
1782987360564468000,9.187468017578125,-0.9876708984375,0.0850982666015625,-0.088348388671875
1782987360574541800,9.197541748046875,-0.98541259765625,0.0869140625,-0.088226318359375
1782987360584617000,9.207616943359374,-0.9866790771484375,0.0861358642578125,-0.0872344970703125
1782987360594690800,9.21769091796875,-0.9852294921875,0.0872802734375,-0.086181640625
1782987360604765000,9.227764892578126,-0.9847869873046875,0.086761474609375,-0.0879058837890625
1782987360614840000,9.237840087890625,-0.9842529296875,0.08612060546875,-0.087158203125
1782987360624914000,9.247913818359375,-0.985809326171875,0.089019775390625,-0.0868072509765625
1782987360634989000,9.257989013671875,-0.9869537353515625,0.086029052734375,-0.087432861328125
1782987360645063000,9.26806298828125,-0.9861907958984375,0.0858306884765625,-0.0894317626953125
1782987360655136800,9.27813671875,-0.9858551025390625,0.08428955078125,-0.0870361328125
1782987360665212000,9.2882119140625,-0.984375,0.0853729248046875,-0.0867767333984375
1782987360675285800,9.29828564453125,-0.988189697265625,0.085784912109375,-0.0875396728515625
1782987360685361000,9.30836083984375,-0.9871673583984375,0.0844268798828125,-0.090728759765625
1782987360695434800,9.318434814453125,-0.9850616455078125,0.08624267578125,-0.089202880859375
1782987360705508900,9.3285087890625,-0.983551025390625,0.0861968994140625,-0.0867919921875
1782987360715583700,9.338583740234375,-0.982513427734375,0.0871124267578125,-0.086212158203125
1782987360725657900,9.348657958984376,-0.9856109619140625,0.08905029296875,-0.08795166015625
1782987360735733000,9.35873291015625,-0.9886016845703125,0.0879058837890625,-0.0884857177734375
1782987360745806800,9.368806884765625,-0.9861297607421875,0.0881195068359375,-0.0890350341796875
1782987360755881000,9.378880859375,-0.983734130859375,0.0851287841796875,-0.0876617431640625
1782987360765955800,9.388955810546875,-0.9843597412109375,0.0854949951171875,-0.087127685546875
1782987360776030000,9.399030029296876,-0.9847564697265625,0.085296630859375,-0.0858917236328125
1782987360786104000,9.40910400390625,-0.9852752685546875,0.0845184326171875,-0.0861358642578125
1782987360796179000,9.419178955078126,-0.984893798828125,0.0859222412109375,-0.087249755859375
1782987360806253000,9.429253173828124,-0.9863128662109375,0.0859527587890625,-0.087493896484375
1782987360816328000,9.439327880859375,-0.9890289306640625,0.0862274169921875,-0.089385986328125
1782987360826402000,9.449402099609374,-0.99017333984375,0.0882110595703125,-0.0882110595703125
1782987360836476000,9.459475830078125,-0.9901275634765625,0.0891265869140625,-0.0886993408203125
1782987360846551000,9.469551025390626,-0.9846038818359375,0.0876922607421875,-0.0877838134765625
1782987360856625000,9.479625,-0.9815826416015625,0.086273193359375,-0.0887908935546875
1782987360866700000,9.489699951171875,-0.9834136962890625,0.0857086181640625,-0.0870208740234375
1782987360876774000,9.49977392578125,-0.9883270263671875,0.0843658447265625,-0.0891876220703125
1782987360886848000,9.509847900390625,-0.9903564453125,0.0835113525390625,-0.08984375
1782987360896923000,9.5199228515625,-0.9861907958984375,0.0830230712890625,-0.086761474609375
1782987360906997000,9.5299970703125,-0.981719970703125,0.082550048828125,-0.08489990234375
1782987360917072000,9.54007177734375,-0.98297119140625,0.0839996337890625,-0.085845947265625
1782987360927146000,9.55014599609375,-0.9861907958984375,0.08563232421875,-0.0879364013671875
1782987360937219800,9.5602197265625,-0.9886016845703125,0.08709716796875,-0.08807373046875
1782987360947295000,9.570294921875,-0.9866943359375,0.0876312255859375,-0.089447021484375
1782987360957368800,9.580368896484375,-0.9820556640625,0.0850830078125,-0.089599609375
1782987360967443000,9.59044287109375,-0.984710693359375,0.0853118896484375,-0.08880615234375
1782987360977517800,9.600517822265624,-0.9874267578125,0.0862579345703125,-0.088043212890625
1782987360987592000,9.610592041015625,-0.989593505859375,0.086029052734375,-0.087646484375
1782987360997666800,9.620666748046874,-0.98675537109375,0.086456298828125,-0.0863189697265625
1782987361007741000,9.630740966796875,-0.982452392578125,0.085723876953125,-0.0872955322265625
1782987361017814800,9.640814697265625,-0.9823150634765625,0.0859375,-0.0851898193359375
1782987361027890000,9.650889892578125,-0.9847412109375,0.0848388671875,-0.0879669189453125
1782987361037963800,9.6609638671875,-0.9869232177734375,0.0887451171875,-0.08831787109375
1782987361048039000,9.671038818359374,-0.98968505859375,0.088409423828125,-0.089569091796875
1782987361058112800,9.68111279296875,-0.98858642578125,0.0883026123046875,-0.0894775390625
1782987361068187000,9.691186767578126,-0.9884796142578125,0.086944580078125,-0.0865325927734375
1782987361078261800,9.70126171875,-0.98260498046875,0.0860748291015625,-0.085693359375
1782987361088336000,9.7113359375,-0.984619140625,0.08563232421875,-0.0874786376953125
1782987361098410800,9.72141064453125,-0.9873046875,0.0871734619140625,-0.0883331298828125
1782987361108484900,9.73148486328125,-0.986724853515625,0.0865020751953125,-0.087493896484375
1782987361118559000,9.74155908203125,-0.983917236328125,0.0858917236328125,-0.086273193359375
1782987361128633900,9.7516337890625,-0.9837799072265625,0.084686279296875,-0.0858917236328125
1782987361138708000,9.7617080078125,-0.984375,0.0854949951171875,-0.0860748291015625
1782987361148782800,9.771782958984375,-0.9873199462890625,0.0855560302734375,-0.08746337890625
1782987361158857000,9.78185693359375,-0.9877166748046875,0.08447265625,-0.08697509765625
1782987361168931000,9.79193115234375,-0.9849700927734375,0.086578369140625,-0.08642578125
1782987361179006000,9.802005859375,-0.9833526611328125,0.0849456787109375,-0.0862884521484375
1782987361189080000,9.812080078125,-0.9846954345703125,0.0843658447265625,-0.0892181396484375
1782987361199154000,9.82215380859375,-0.9879150390625,0.0862884521484375,-0.0872039794921875
1782987361209229000,9.83222900390625,-0.987030029296875,0.086273193359375,-0.0880584716796875
1782987361219303000,9.842302978515624,-0.9873046875,0.084228515625,-0.0894775390625
1782987361229378000,9.8523779296875,-0.9871368408203125,0.084625244140625,-0.0875396728515625
1782987361239452000,9.862451904296876,-0.9850006103515625,0.08648681640625,-0.086517333984375
1782987361249526000,9.872526123046875,-0.985595703125,0.08740234375,-0.0865478515625
1782987361259601000,9.882600830078125,-0.985015869140625,0.086212158203125,-0.0878753662109375
1782987361269675000,9.892675048828124,-0.9859771728515625,0.086029052734375,-0.0876007080078125
1782987361279750000,9.90275,-0.9859619140625,0.08563232421875,-0.0884552001953125
1782987361289824000,9.912823974609376,-0.9864959716796875,0.085113525390625,-0.087127685546875
1782987361299897900,9.92289794921875,-0.9846038818359375,0.08538818359375,-0.088165283203125
1782987361309973000,9.932972900390626,-0.984771728515625,0.087310791015625,-0.086944580078125
1782987361320046800,9.943046875,-0.9845733642578125,0.086395263671875,-0.0889434814453125
1782987361330122000,9.9531220703125,-0.9872894287109375,0.086090087890625,-0.088775634765625
1782987361340195800,9.96319580078125,-0.98516845703125,0.085845947265625,-0.08819580078125
1782987361350270000,9.97327001953125,-0.982757568359375,0.0850982666015625,-0.08782958984375
1782987361360344800,9.9833447265625,-0.9853668212890625,0.0854644775390625,-0.08697509765625
1782987361370419000,9.9934189453125,-0.9866943359375,0.0843658447265625,-0.088775634765625
1782987361380493800,10.003493896484375,-0.98724365234375,0.0864715576171875,-0.08807373046875
1782987361390568000,10.01356787109375,-0.98583984375,0.0858917236328125,-0.0886077880859375
1782987361400641800,10.023641845703125,-0.9861297607421875,0.0864410400390625,-0.08795166015625
1782987361410717000,10.033717041015626,-0.98687744140625,0.0880126953125,-0.089874267578125
1782987361420790800,10.043790771484375,-0.9841766357421875,0.08709716796875,-0.0872039794921875
1782987361430865000,10.053864990234375,-0.9872894287109375,0.087615966796875,-0.0876312255859375
1782987361440939800,10.063939697265624,-0.987579345703125,0.08709716796875,-0.089019775390625
1782987361451014000,10.074013916015625,-0.9875946044921875,0.0862579345703125,-0.08648681640625
1782987361461088800,10.0840888671875,-0.9869232177734375,0.085113525390625,-0.08880615234375
1782987361471163600,10.09416357421875,-0.98492431640625,0.0853118896484375,-0.0875396728515625
1782987361481237800,10.10423779296875,-0.9843902587890625,0.0844573974609375,-0.0863189697265625
1782987361491312600,10.114312744140625,-0.9846343994140625,0.08502197265625,-0.087310791015625
1782987361501386800,10.12438671875,-0.98809814453125,0.0849609375,-0.087158203125
1782987361511461600,10.134461669921874,-0.987274169921875,0.0860137939453125,-0.0863189697265625
1782987361521535700,10.14453564453125,-0.985595703125,0.086761474609375,-0.08685302734375
1782987361531609900,10.15460986328125,-0.9825592041015625,0.08740234375,-0.0862579345703125
1782987361541684700,10.164684814453125,-0.9847869873046875,0.0855865478515625,-0.085723876953125
1782987361551758800,10.1747587890625,-0.987762451171875,0.08587646484375,-0.0879974365234375
1782987361561833700,10.184833740234374,-0.986602783203125,0.08441162109375,-0.08819580078125
1782987361571907800,10.194907958984375,-0.9843597412109375,0.0849609375,-0.0873870849609375
1782987361581981700,10.204981689453126,-0.9834442138671875,0.0859222412109375,-0.0861053466796875
1782987361592056800,10.215056884765625,-0.984527587890625,0.0847625732421875,-0.0860443115234375
1782987361602130700,10.225130615234375,-0.9865875244140625,0.0854339599609375,-0.0867156982421875
1782987361612205800,10.235205810546875,-0.98553466796875,0.0858154296875,-0.087493896484375
1782987361622279700,10.24527978515625,-0.9833526611328125,0.0841217041015625,-0.087615966796875
1782987361632353800,10.255353759765624,-0.9843292236328125,0.08526611328125,-0.0881500244140625
1782987361642428700,10.2654287109375,-0.9875640869140625,0.0864715576171875,-0.0890655517578125
1782987361652502800,10.275502685546876,-0.9881439208984375,0.0873870849609375,-0.087310791015625
1782987361662576600,10.28557666015625,-0.9871063232421875,0.088104248046875,-0.08831787109375
1782987361672651800,10.29565185546875,-0.98699951171875,0.08685302734375,-0.088775634765625
1782987361682725600,10.3057255859375,-1.0014801025390625,0.079803466796875,-0.0856170654296875
1782987361692800800,10.31580078125,-0.95526123046875,0.0980987548828125,-0.08203125
1782987361702874600,10.32587451171875,-0.962127685546875,0.051483154296875,-0.0864410400390625
1782987361712948500,10.335948486328125,-1.0104827880859375,0.0836944580078125,-0.0925445556640625
1782987361723023600,10.346023681640625,-1.0283050537109375,0.0998992919921875,-0.08563232421875
1782987361733097500,10.356097412109374,-0.9840545654296875,0.06988525390625,-0.092864990234375
1782987361743172600,10.366172607421875,-0.9442138671875,0.0806732177734375,-0.072021484375
