time,seconds_elapsed,z,y,x
1782987351449663200,0.072663330078125,0.001828241627663374,0.029368670657277107,0.021761927753686905
1782987351459737600,0.082737548828125,0.0005065147997811437,0.013838444836437702,0.009234684519469738
1782987351469812500,0.0928125,0.002741166390478611,-0.018241669982671738,-0.014446764253079891
1782987351479886600,0.102886474609375,-0.0003560898476280272,-0.018815048038959503,-0.012846204452216625
1782987351489960400,0.11296044921875,0.0009421645663678646,0.006179694551974535,0.0034612473100423813
1782987351500035600,0.12303564453125,-0.0021561570465564728,0.015469333156943321,0.012170583009719849
1782987351510109400,0.133109375,0.0004547908902168274,0.0037184804677963257,-0.00030409812461584806
1782987351520184600,0.1431845703125,0.0005298920441418886,-0.013964109122753143,-0.010303468443453312
1782987351530258400,0.153258544921875,0.0011880580568686128,-0.005813202820718288,-0.0027637702878564596
1782987351540332500,0.16333251953125,-0.00021116685820743442,0.006168890744447708,0.005254209041595459
1782987351550407400,0.173407470703125,0.0009715954074636102,0.0072733135893940926,0.0035503690596669912
1782987351560481500,0.1834814453125,0.00014734710566699505,-0.0045950645580887794,-0.00224893051199615
1782987351570556400,0.193556396484375,0.00019616633653640747,-0.0036681685596704483,-0.0018892826046794653
1782987351580630500,0.203630615234375,-0.0006528494413942099,0.00127039710059762,-0.0001260036078747362
1782987351590704400,0.213704345703125,0.00011920090764760971,0.0026818725746124983,0.002947018016129732
1782987351600779500,0.223779541015625,0.0007311953231692314,0.0007359008304774761,0.0015528530348092318
1782987351610853400,0.233853271484375,-0.0013676788657903671,-0.0022165682166814804,0.00035854295128956437
1782987351620927500,0.243927490234375,0.0008786974940448999,-0.0012226765975356102,-0.0010342902969568968
1782987351631002400,0.25400244140625,-0.000013841898180544376,0.001878085546195507,-0.0009314175695180893
1782987351641076500,0.264076416015625,0.0015052251983433962,0.001333469059318304,0.001526680076494813
1782987351651151400,0.2741513671875,-0.000289827527012676,0.0002038970123976469,-0.0034849029034376144
1782987351661225500,0.2842255859375,-0.0016440448816865683,-0.0009780138498172164,-0.0002707336680032313
1782987351671299600,0.294299560546875,0.00006606813985854387,0.003439950058236718,-0.0012146095978096128
1782987351681374500,0.30437451171875,0.0013198844389989972,0.0015557636506855488,0.004141540266573429
1782987351691448600,0.314448486328125,0.0009569250978529453,0.0010112561285495758,0.0002464702120050788
1782987351701523500,0.3245234375,-0.0011211393866688013,-0.0016103596426546574,-0.0018510353984311223
1782987351711597600,0.33459765625,-0.0013131465530022979,0.00029804231598973274,0.0011104781879112124
1782987351721671400,0.34467138671875,-0.0006630689604207873,0.0027249809354543686,0.000029501188691938296
1782987351731746600,0.35474658203125,0.000655561569146812,0.004669389687478542,0.00041914544999599457
1782987351741820700,0.364820556640625,0.0002781916409730911,-0.00032190687488764524,-0.0013545197434723377
1782987351751895600,0.3748955078125,-0.00022340245777741075,-0.0013333125971257687,-0.00014518227544613183
1782987351761969700,0.3849697265625,-0.0005027680308558047,0.0020925779826939106,0.002616782207041979
1782987351772043500,0.39504345703125,0.000530370743945241,0.0008318738546222448,0.002775795990601182
1782987351782118700,0.40511865234375,0.000043544918298721313,-0.0004941140068694949,-0.0009414443629793823
1782987351792192500,0.415192626953125,0.0006577388849109411,0.0005819965153932571,0.002232464961707592
1782987351802267600,0.425267578125,-0.00014067679876461625,-0.0014713006094098091,0.003235145006328821
1782987351812341500,0.435341552734375,0.0002629747614264488,-0.0024165716022253036,0.0017300707986578345
1782987351822415400,0.445415283203125,0.000396931660361588,0.0013832265976816416,-0.000981559744104743
1782987351832490500,0.455490478515625,-0.0015453267842531204,0.00014333799481391907,0.00021323248802218586
1782987351842564400,0.465564453125,-0.001386336050927639,-0.0005040764808654785,0.00045318331103771925
1782987351852639500,0.475639404296875,-0.0013353560352697968,0.0013853935524821281,0.0011039851233363152
1782987351862713600,0.485713623046875,-0.0012037958949804306,0.001147040631622076,-0.00003824471787083894
1782987351872787500,0.495787353515625,0.00100165163166821,0.0011271820403635502,-0.0006932608084753156
1782987351882862600,0.505862548828125,-0.0008367284317500889,-0.0010486205574125051,0.002414381830021739
1782987351892936400,0.5159365234375,0.00025160680525004864,0.000656565185636282,-0.0007247093017213047
1782987351903011600,0.526011474609375,0.000006063375622034073,0.0003897163551300764,-0.0010429570684209466
1782987351913085400,0.53608544921875,-0.0013333094539120793,-0.0012957254657521844,0.0023920342791825533
1782987351923159300,0.5461591796875,-0.0004390199319459498,0.00040523544885218143,-0.0008604842587374151
1782987351933234400,0.556234375,-0.0007238942198455334,-0.00043647491838783026,-0.0016028517857193947
1782987351943308300,0.566308349609375,-0.0006416025571525097,0.0003206618130207062,-0.0016473266296088696
1782987351953382400,0.57638232421875,0.0011203447356820107,-0.0037787421606481075,-0.0008225456695072353
1782987351963457300,0.586457275390625,0.0005139430286362767,0.003036553505808115,-0.0006190801504999399
1782987351973531400,0.596531494140625,-0.0020670548547059298,0.0016780027654021978,0.000653597991913557
1782987351983606500,0.6066064453125,0.0003026258200407028,-0.002490909770131111,0.0013161924434825778
1782987351993680400,0.616680419921875,-0.001324163400568068,0.0010658663231879473,-0.00046475770068354905
1782987352003754500,0.62675439453125,-0.0003955191350542009,-0.0010907613905146718,0.0005075624212622643
1782987352013829400,0.636829345703125,-0.00032704282784834504,0.0020326897501945496,-0.0015397298848256469
1782987352023903500,0.646903564453125,-0.0017534319777041674,0.0008063041605055332,-0.000016135485566337593
1782987352033978400,0.656978271484375,-0.0005304109072312713,0.0004292463418096304,0.0005396147025749087
1782987352044052500,0.667052490234375,0.0007572274189442396,-0.00022163009271025658,-0.0008526860037818551
1782987352054126600,0.677126708984375,0.0011440858943387866,-0.0015993193956092,-0.001550191198475659
1782987352064201500,0.687201416015625,0.0019243921851739287,-0.0002304546069353819,0.0007196209626272321
1782987352074275600,0.697275634765625,-0.0011505773290991783,-0.0013600164093077183,-0.002325825160369277
1782987352084350500,0.7073505859375,0.0014100519474595785,0.0015327089931815863,-0.0005252620903775096
1782987352094424600,0.717424560546875,0.00010661804117262363,0.000026194844394922256,0.0005573364323936403
1782987352104498400,0.72749853515625,-0.0008798168273642659,-0.0007671607891097665,-0.001603019773028791
1782987352114573600,0.737573486328125,-0.0023479918017983437,-0.0008660709718242288,-0.0007083883974701166
1782987352124647400,0.7476474609375,-0.0001751186209730804,0.00003141420893371105,0.0012330560712143779
1782987352134722600,0.75772265625,-0.0011073010973632336,0.0013713485095649958,-0.0015532661927863955
1782987352144796400,0.76779638671875,-0.0008742744685150683,0.0012312661856412888,0.0013804720947518945
1782987352154870500,0.77787060546875,-0.0002254198770970106,0.000019645551219582558,0.0007427366217598319
1782987352164945400,0.7879453125,-0.00005817331839352846,0.001746971858665347,-0.0014565017772838473
1782987352175019500,0.79801953125,0.0014500896213576198,0.0021700256038457155,-0.00019363717001397163
1782987352185094400,0.808094482421875,-0.00032916839700192213,0.0019343357998877764,0.000994398957118392
1782987352195168500,0.81816845703125,-0.0009362793061882257,0.002218034118413925,-0.001554194139316678
1782987352205242400,0.828242431640625,-0.00020950264297425747,-0.0009015927789732814,-0.0013214340433478355
1782987352215317500,0.8383173828125,-0.0009086110512726009,0.0026000721845775843,0.00033801031531766057
1782987352225391400,0.848391357421875,-0.0009488248033449054,0.0011441220995038748,0.0015004801098257303
1782987352235465500,0.858465576171875,-0.000034344266168773174,0.0002511488273739815,-0.0010890072444453835
1782987352245540400,0.868540283203125,0.0020562373101711273,0.00031213508918881416,-0.00018007034668698907
1782987352255614500,0.878614501953125,0.00214908504858613,-0.0021025745663791895,-0.0001826174557209015
1782987352265689300,0.888689453125,-0.0004504263633862138,0.0005619178991764784,-0.0006177779869176447
1782987352275763500,0.898763427734375,0.001071288832463324,-0.000574208446778357,-0.00044666111352853477
1782987352285837300,0.90883740234375,-0.00009677361231297255,-0.001177414320409298,0.0013584295520558953
1782987352295912400,0.918912353515625,0.0004921121289953589,-0.0009480167645961046,-0.0015936034033074975
1782987352305986300,0.928986328125,0.00036587833892554045,0.0009404306765645742,-0.002624513115733862
1782987352316061400,0.9390615234375,-0.0012205089442431927,-0.001093926839530468,-0.0011588034685701132
1782987352326135300,0.94913525390625,-0.0005517892423085868,0.0025447499938309193,-0.00029540661489591
1782987352336209400,0.95920947265625,0.003201231826096773,0.013028508052229881,0.049286630004644394
1782987352346284300,0.9692841796875,-0.0031679843086749315,-0.029009222984313965,-0.003325715195387602
1782987352356358700,0.979358642578125,0.0011847864370793104,-0.0007357654394581914,-0.05102220177650452
1782987352366433300,0.989433349609375,0.0007901060162112117,0.01880517788231373,-0.01765305921435356
1782987352376507600,0.999507568359375,-0.0035513793118298054,0.020661935210227966,0.018648488447070122
1782987352386581500,1.00958154296875,0.0021123653277754784,-0.0005464147543534636,0.0096129160374403
1782987352396656600,1.01965673828125,0.0013193752383813262,-0.01419108547270298,-0.010761572979390621
1782987352406730500,1.02973046875,0.0004847405944019556,-0.03133758157491684,-0.007264310494065285
1782987352416805600,1.0398056640625,-0.0002479942049831152,0.004548212513327599,-0.0040850527584552765
1782987352426879500,1.04987939453125,0.00243966793641448,0.03386668860912323,-0.0008706171647645533
1782987352436953600,1.05995361328125,-0.0014626086922362447,-0.0021349783055484295,0.00549571868032217
1782987352447028500,1.070028564453125,0.00028309342451393604,-0.024915391579270363,-0.005437356419861317
1782987352457102600,1.0801025390625,-0.001374226063489914,-0.010081952437758446,-0.0066920435056090355
1782987352467177500,1.090177490234375,0.0004180814139544964,0.007383324671536684,0.0011709390673786402
1782987352477251300,1.100251220703125,0.001180275110527873,0.011912837624549866,0.004579177591949701
1782987352487325200,1.1103251953125,0.0005307301180437207,0.0015483475290238857,0.0006395637174136937
1782987352497400300,1.120400390625,0.0007162494584918022,-0.007392718456685543,-0.0012888547498732805
1782987352507474200,1.13047412109375,0.0011586005566641688,-0.0053607262670993805,0.00021183658100198954
1782987352517548300,1.14054833984375,0.0001586773432791233,0.004730825312435627,-0.0006435472751036286
1782987352527623200,1.150623046875,0.00011446885764598846,0.005210460629314184,0.0031882086768746376
1782987352537697300,1.160697265625,0.0005027195438742638,-0.0015135942958295345,-0.0023789338301867247
1782987352547772400,1.1707724609375,0.0002403981052339077,-0.0009231714066118002,-0.0017887774156406522
1782987352557846300,1.18084619140625,0.0013799207517877221,0.0002466661389917135,-0.0008901090477593243
1782987352567920000,1.190920166015625,0.0023575671948492527,-0.0018487090710550547,0.0014433527830988169
1782987352577995300,1.200995361328125,-0.0005100138369016349,-0.0010005534859374166,0.0014585360186174512
1782987352588069000,1.211069091796875,-0.0005901749827899039,-0.0011763221118599176,-0.0006296485662460327
1782987352598144300,1.221144287109375,-0.0009932464454323053,-0.0017812518635764718,-0.0013155840570107102
1782987352608218000,1.231218017578125,0.0005607081111520529,-0.0011530121555551887,0.002596599515527487
1782987352618292200,1.241292236328125,-0.0007232953794300556,0.00011000991798937321,0.0002435751084703952
1782987352628367000,1.2513671875,0.0012604932999238372,0.00013238051906228065,-0.0026398294139653444
1782987352638441200,1.261441162109375,0.0011578499106690288,-0.0022804790642112494,0.0025053746066987514
1782987352648516000,1.27151611328125,0.0011621109442785382,0.00024046911858022213,0.0007112027960829437
1782987352658590200,1.281590087890625,0.0004571265308186412,-0.0003612444270402193,-0.00063962338026613
1782987352668664300,1.291664306640625,0.001554615329951048,-0.0041969954036176205,-0.002260955749079585
1782987352678739200,1.3017392578125,0.0007882204372435808,-0.0022498229518532753,-0.0015266798436641693
1782987352688813300,1.311813232421875,0.0003293576883152127,0.0003475579433143139,0.0012563234195113182
1782987352698888200,1.32188818359375,0.0005517880199477077,0.002733144210651517,0.00263339770026505
1782987352708962300,1.33196240234375,-0.0017244156915694475,0.004662870429456234,0.0031162288505584
1782987352719036400,1.342036376953125,0.00034913874696940184,-0.0016798696015030146,-0.0001790974783943966
1782987352729111300,1.352111328125,-0.0005113285733386874,-0.0001695910468697548,0.00011731234553735703
1782987352739185400,1.362185302734375,-0.0005055402289144695,-0.001246798550710082,0.002808371325954795
1782987352749260300,1.37226025390625,0.0011283090570941567,0.0009769408497959375,-0.00016744482854846865
1782987352759334400,1.38233447265625,0.00009893090464174747,0.00009809806942939758,0.001789586734957993
1782987352769408300,1.392408203125,0.0001663088332861662,-0.0006912628887221217,0.0013922431971877813
1782987352779483400,1.4024833984375,-0.0008747492684051394,-0.0014360700733959675,0.002620058599859476
1782987352789557200,1.41255712890625,0.002678972901776433,-0.0005803965032100677,0.0041063688695430756
1782987352799632400,1.42263232421875,0.00026383460499346256,0.0020479129161685705,0.0018850493943318725
1782987352809706200,1.432706298828125,0.0010694408556446433,0.0005027470178902149,-0.000588228227570653
1782987352819780400,1.4427802734375,-0.0010297951521351933,0.0007842867635190487,0.0010217273375019431
1782987352829855200,1.452855224609375,0.000271158991381526,-0.00011532916687428951,0.0019636875949800014
1782987352839929300,1.462929443359375,0.000005355570465326309,0.001106262905523181,0.0018494378309696913
1782987352850004200,1.473004150390625,-0.00040157546754926443,0.003007227089256048,-0.0014941608533263206
1782987352860078300,1.483078369140625,0.001068319077603519,-0.0003137781750410795,0.0020019621588289738
1782987352870152200,1.493152099609375,-0.0009868424385786057,0.0006936956197023392,0.0007164543494582176
1782987352880227300,1.503227294921875,0.00038076064083725214,0.002789971651509404,0.002749975770711899
1782987352890301200,1.51330126953125,0.0003333563217893243,-0.0009363234275951982,-0.0015816556988283992
1782987352900375300,1.523375244140625,-0.0007631184998899698,-0.0001763508189469576,0.00017801443755161017
1782987352910450200,1.5334501953125,-0.00013301463332027197,-0.0003230910515412688,0.0021753853652626276
1782987352920524300,1.543524169921875,0.0007394037675112486,0.002358259866014123,0.0015823967987671494
1782987352930599200,1.55359912109375,-0.0014001798117533326,-0.0003477780846878886,0.004186968319118023
1782987352940673300,1.56367333984375,-0.0029979590326547623,0.000725072342902422,0.00009359357500215992
1782987352950747100,1.5737470703125,-0.00007380824536085129,0.00018817908130586147,0.0025085480883717537
1782987352960822300,1.583822265625,0.00046048418153077364,-0.0014213076792657375,0.0020161750726401806
1782987352970896100,1.593896240234375,-0.0009802860440686345,0.002510849619284272,-0.0008403314277529716
1782987352980971300,1.60397119140625,-0.0005106236785650253,0.015026871114969254,0.00813210103660822
1782987352991045000,1.614045166015625,-0.00013165583368390799,0.0009861544240266085,0.009500965476036072
1782987353001119500,1.624119384765625,0.002632417716085911,-0.009942393749952316,0.0003708507865667343
1782987353011194000,1.634194091796875,-0.003514158073812723,0.00815405324101448,-0.00301029859110713
1782987353021268500,1.6442685546875,-0.0003028595820069313,0.013400165364146233,0.0028581160586327314
1782987353031343000,1.654343017578125,-0.003074144944548607,0.005928134545683861,0.014399989508092403
1782987353041417500,1.66441748046875,-0.00006254541222006083,-0.007896589115262032,-0.0006435707327909768
1782987353051491300,1.6744912109375,-0.0002617498394101858,-0.008416437543928623,-0.011083428747951984
1782987353061566500,1.68456640625,0.0002127594780176878,0.009911229833960533,0.00007613790512550622
1782987353071640300,1.694640380859375,0.000041518243961036205,0.014988547191023827,0.007911424152553082
1782987353081714400,1.70471435546875,-0.0005385245312936604,0.005886939354240894,0.0010664919391274452
1782987353091789300,1.714789306640625,0.0011137006804347038,-0.007601971738040447,-0.006391957402229309
1782987353101863400,1.724863525390625,0.0008653264958411455,-0.005122799426317215,-0.002555117243900895
1782987353111938300,1.734938232421875,-0.0012481581652536988,0.010020732879638672,0.0048303608782589436
1782987353122012400,1.745012451171875,-0.0012212235014885664,0.011357729323208332,0.004200139082968235
1782987353132086300,1.755086181640625,0.001249124645255506,-0.0012795024085789919,0.0009148637764155865
1782987353142161400,1.765161376953125,0.0008046592120081186,-0.0028247490990906954,0.001308114849962294
1782987353152235300,1.7752353515625,0.0008041266119107604,0.002517285756766796,0.0008479206589981914
1782987353162310400,1.785310302734375,0.0011438755318522453,0.003748535644263029,0.003920456860214472
1782987353172384300,1.79538427734375,-0.0010953102027997375,0.002538661938160658,0.006085606757551432
1782987353182458400,1.805458251953125,-0.000618032063357532,0.006531098857522011,0.002162917982786894
1782987353192533200,1.815533203125,0.0005279261386021972,0.006728172302246094,0.0011210895609110594
1782987353202607400,1.825607421875,0.0003584489459171891,-0.00404007313773036,0.002231260295957327
1782987353212682200,1.83568212890625,0.0006247650599107146,-0.004788421560078859,0.00026717910077422857
1782987353222756400,1.84575634765625,0.0015699774958193302,0.0016023744828999043,-0.00011999328853562474
1782987353232830200,1.855830322265625,-0.00119145424105227,0.005857839714735746,-0.000053946896514389664
1782987353242905300,1.8659052734375,-0.0007947242120280862,-0.002687611151486635,0.0010842522606253624
1782987353252979200,1.875979248046875,-0.0032200650312006474,-0.005136121530085802,-0.004822638817131519
1782987353263054300,1.886054443359375,-0.0025810576044023037,0.004672027193009853,-0.0007392978295683861
1782987353273128200,1.896128173828125,-0.0023842500522732735,-0.008488515391945839,-0.006391058210283518
1782987353283202300,1.906202392578125,-0.0019363369792699814,-0.011605891399085522,-0.006278466898947954
1782987353293277200,1.916277099609375,-0.003104133065789938,-0.011759555898606777,-0.008986369706690311
1782987353303351300,1.926351318359375,-0.0006520497845485806,0.003066003555431962,-0.013131207786500454
1782987353313426200,1.93642626953125,0.002006583847105503,-0.0009543042397126555,-0.00823099073022604
1782987353323500300,1.946500244140625,-0.00024814566131681204,-0.011472238227725029,-0.0030899732373654842
1782987353333574400,1.956574462890625,0.001551618566736579,0.0027964459732174873,-0.003292107256129384
1782987353343649300,1.966649169921875,0.0003276638453826308,0.01844075322151184,0.0010656958911567926
1782987353353723400,1.976723388671875,0.0012528460938483477,0.015390104614198208,0.0060061258263885975
1782987353363797200,1.98679736328125,-0.0000448769424110651,0.0069613829255104065,-0.00040340100531466305
1782987353373872400,1.996872314453125,0.0017189346253871918,0.005444446578621864,-0.008850947953760624
1782987353383946200,2.0069462890625,0.0034631695598363876,-0.004869755357503891,-0.008234499953687191
1782987353394021400,2.017021484375,0.0014993546064943075,0.00034231715835630894,-0.0030858106911182404
1782987353404095500,2.027095458984375,0.0005386305274441838,0.007566551677882671,0.00042246474185958505
1782987353414169300,2.03716943359375,0.0024318716023117304,0.005546810571104288,-0.0006542513146996498
1782987353424244500,2.047244384765625,-0.0001725487527437508,0.0016448693349957466,-0.0008958933758549392
1782987353434318300,2.057318359375,0.0017284156056120992,0.004900850355625153,0.00958364550024271
1782987353444393500,2.0673935546875,0.0005260100588202477,0.019236646592617035,0.016429034993052483
1782987353454467300,2.07746728515625,0.0019297621911391616,0.01987500488758087,0.021001948043704033
1782987353464542200,2.087542236328125,0.0022366931661963463,0.013107774779200554,0.020125940442085266
1782987353474617000,2.0976171875,0.001845741062425077,0.009051247499883175,0.01313594076782465
1782987353484691200,2.107691162109375,-0.0015135703142732382,0.007380380295217037,0.005536610726267099
1782987353494766000,2.11776611328125,0.004175208043307066,0.005341730080544949,0.007352619897574186
1782987353504840200,2.127840087890625,0.0033827507868409157,0.004289017058908939,0.00749325891956687
1782987353514914000,2.1379140625,0.007423831149935722,0.007826494053006172,0.00041963683906942606
1782987353524989200,2.1479892578125,0.0025469004176557064,0.010560715571045876,-0.00499490974470973
1782987353535063000,2.15806298828125,-0.0015373235801234841,-0.0022951618302613497,0.0027130774687975645
1782987353545138200,2.16813818359375,-0.0032044784165918827,0.005556982941925526,0.011346344836056232
1782987353555212000,2.1782119140625,0.0021388877648860216,0.001554784132167697,-0.011954184621572495
1782987353565286100,2.1882861328125,0.002276990097016096,-0.03330861032009125,-0.042516015470027924
1782987353575361000,2.198361083984375,-0.005857902113348246,-0.014982866123318672,-0.008847001008689404
1782987353585435100,2.20843505859375,-0.0032069426961243153,0.036963436752557755,0.02796352654695511
1782987353595510000,2.218510009765625,0.0035689380019903183,0.013739075511693954,-0.024037357419729233
1782987353605584100,2.228584228515625,-0.004396708682179451,-0.0677947998046875,-0.06380890309810638
1782987353615658000,2.238657958984375,-0.005658780224621296,-0.0481015220284462,-0.04472869262099266
1782987353625733000,2.248733154296875,-0.0028289565816521645,0.023029368370771408,-0.015861671417951584
1782987353635807000,2.258806884765625,-0.0057477811351418495,0.011259796097874641,0.0003785504668485373
1782987353645880800,2.268880859375,-0.003389871446415782,-0.033335644751787186,-0.026411570608615875
1782987353655956000,2.2789560546875,-0.0014249911764636636,-0.02841891534626484,-0.06782478839159012
1782987353666029800,2.28902978515625,-0.0019045579247176647,-0.015814779326319695,-0.04740611091256142
1782987353676105000,2.29910498046875,-0.0029578381218016148,-0.005054010543972254,0.013357101939618587
1782987353686179000,2.309178955078125,-0.0018512267852202058,0.01822434365749359,0.009679761715233326
1782987353696253200,2.319253173828125,0.0035464682150632143,0.009593037888407707,-0.021807324141263962
1782987353706328000,2.329328125,0.004739814437925816,-0.017773523926734924,-0.015585550107061863
1782987353716402200,2.339402099609375,0.00006543414201587439,-0.020536553114652634,0.02322203479707241
1782987353726477000,2.34947705078125,0.0009894835529848933,0.013311494141817093,0.040327031165361404
1782987353736551200,2.35955126953125,0.0015799064422026277,0.03068835474550724,0.015955645591020584
1782987353746625000,2.369625,0.0032937342766672373,-0.003192265285179019,-0.00041468400740996003
1782987353756700200,2.3797001953125,0.0023054350167512894,-0.02499929443001747,0.002222378272563219
1782987353766774000,2.38977392578125,-0.000025113346055150032,-0.0006501973839476705,0.009892912581562996
1782987353776849200,2.39984912109375,0.0016947559779509902,0.017708037048578262,0.011167234741151333
1782987353786923000,2.409923095703125,0.0018481860170140862,0.007495185825973749,0.0027935286052525043
1782987353796997000,2.4199970703125,-0.0020445566624403,-0.016063669696450233,-0.006466016639024019
1782987353807072000,2.430072021484375,0.0009281086968258023,-0.015334732830524445,-0.012342842295765877
1782987353817146000,2.44014599609375,-0.001117199077270925,0.004089831840246916,0.002948762383311987
1782987353827220000,2.450219970703125,-0.0005138196866028011,0.0214980635792017,0.018894227221608162
1782987353837295000,2.460295166015625,-0.0005606913473457098,0.012024400755763054,0.01953764818608761
1782987353847369000,2.470368896484375,-0.0011611183872446418,-0.022016970440745354,0.008325399830937386
1782987353857444000,2.480444091796875,-0.0004159659147262573,-0.028164612129330635,0.005918967071920633
1782987353867518000,2.49051806640625,-0.0013732889201492071,-0.0002963789738714695,0.019567254930734634
1782987353877592000,2.500592041015625,-0.0007911219727247953,0.04123322293162346,0.031197546049952507
1782987353887667000,2.5106669921875,-0.003416351042687893,0.0506245493888855,0.03420737758278847
1782987353897741000,2.520740966796875,-0.0032107545994222164,0.025198815390467644,0.016400417312979698
1782987353907816000,2.53081591796875,-0.001625359756872058,-0.010942489840090275,-0.008403563871979713
1782987353917890000,2.54089013671875,0.00015842542052268982,-0.04331400990486145,-0.025850996375083923
1782987353927964000,2.5509638671875,0.0034561031498014927,-0.03598388284444809,-0.02720513939857483
1782987353938039000,2.5610390625,0.002071525901556015,0.003507866058498621,-0.01650935225188732
1782987353948113000,2.57111279296875,0.004759005270898342,0.02177433669567108,0.0024050709325820208
1782987353958188000,2.58118798828125,0.00019674410577863455,0.0026448513381183147,0.010968465358018875
1782987353968262000,2.591261962890625,0.00020420097280293703,-0.02216995134949684,0.0034937711898237467
1782987353978336000,2.6013359375,0.004559800960123539,-0.017788251861929893,-0.007312004920095205
1782987353988411000,2.611410888671875,0.0005247789667919278,-0.018494460731744766,-0.0015804937575012445
1782987353998485000,2.621485107421875,-0.0029876641929149628,0.004416446667164564,0.000875739729963243
1782987354008559900,2.631559814453125,0.003581139724701643,-0.000014569377526640892,-0.010077381506562233
1782987354018634000,2.641634033203125,0.0021760561503469944,-0.03242816776037216,-0.023209694772958755
1782987354028708000,2.6517080078125,0.0005778580671176314,-0.0511058084666729,-0.033381517976522446
1782987354038783000,2.661782958984375,0.0024703005328774452,-0.042856134474277496,-0.03496317192912102
1782987354048857000,2.671857177734375,0.0008330726996064186,-0.02233930118381977,-0.03315122798085213
1782987354058932000,2.681931884765625,-0.000328864436596632,-0.013409988023340702,-0.02214890904724598
1782987354069006000,2.692006103515625,0.0002011718461290002,-0.0033313173335045576,-0.010596239008009434
1782987354079080200,2.702080078125,-0.0007413208950310946,0.006568717770278454,-0.003943129442632198
1782987354089155000,2.712155029296875,-0.0007309507927857339,0.019606836140155792,0.008108570240437984
1782987354099229200,2.722229248046875,-0.0019698534160852432,0.012890344485640526,0.00982764083892107
1782987354109303000,2.732302978515625,-0.002461691154167056,-0.0014209260698407888,0.004059207625687122
1782987354119378200,2.742378173828125,-0.0032419972121715546,-0.0090482197701931,0.0019001829205080867
1782987354129452000,2.7524521484375,-0.0021667280234396458,0.004320095293223858,0.010468712076544762
1782987354139527200,2.762527099609375,-0.0010031929705291986,0.01633414626121521,0.014034152030944824
1782987354149601000,2.77260107421875,0.00010764284525066614,0.0026301590260118246,0.014318647794425488
1782987354159675100,2.782675048828125,0.0004589138552546501,-0.0175227802246809,0.0025394863914698362
1782987354169750000,2.79275,-0.0011012201430276036,-0.01530224084854126,-0.007223181426525116
1782987354179824000,2.80282421875,-0.0009472894016653299,-0.0011233058758080006,-0.005387996789067984
1782987354189899000,2.81289892578125,-0.00016251637134701014,0.013185909017920494,0.0010913335718214512
1782987354199973000,2.82297314453125,0.0011450957972556353,0.015818709507584572,0.0025592681486159563
1782987354210047000,2.833046875,0.0015591337578371167,0.005393384024500847,-0.00000600999737798702
1782987354220122000,2.8431220703125,0.0013394231209531426,-0.005335692781955004,-0.008340106345713139
1782987354230196000,2.853196044921875,0.002568137366324663,-0.002163530793040991,-0.0010669664479792118
1782987354240271000,2.86327099609375,0.0009726376738399267,0.0019483899232000113,0.00125317950733006
1782987354250345000,2.873344970703125,0.0025103988591581583,-0.0030213254503905773,-0.0007089870050549507
1782987354260419000,2.883419189453125,0.0026424915995448828,-0.008237658999860287,-0.006542108952999115
1782987354270494000,2.893493896484375,0.005637732334434986,-0.009820294566452503,-0.0057220240123569965
1782987354280568000,2.903568115234375,0.003764198860153556,-0.001739464933052659,0.003457359503954649
1782987354290642000,2.913641845703125,0.0023403731174767017,-0.0014324364019557834,0.004530056845396757
1782987354300717000,2.923717041015625,0.0017600703286007047,-0.007200310938060284,-0.0011475363280624151
1782987354310791000,2.933791015625,0.003435262478888035,-0.009655002504587173,-0.0012312834151089191
1782987354320866000,2.943865966796875,0.00219662650488317,-0.002377116121351719,0.0043951766565442085
1782987354330940000,2.95393994140625,-0.0012258418137207627,0.009333784691989422,0.007465118542313576
1782987354341014300,2.96401416015625,-0.00006603519432246685,0.010821692645549774,0.00726298475638032
1782987354351089000,2.9740888671875,-0.0005041842232458293,0.0112204160541296,0.00533711351454258
1782987354361163300,2.984163330078125,0.0021880054846405983,0.010729596018791199,0.0069398037157952785
1782987354371238000,2.99423779296875,0.0020738698076456785,0.010809713043272495,0.007593268528580666
1782987354381312300,3.004312255859375,-0.0005346964462660253,0.0048503577709198,0.005355414468795061
1782987354391386000,3.01438623046875,-0.00014339439803734422,0.008036678656935692,0.006794442422688007
1782987354401461200,3.024461181640625,0.0003937651636078954,0.004849673714488745,0.0015797065570950508
1782987354411535000,3.03453515625,0.0015649765264242887,-0.0006891952361911535,0.0012684101238846779
1782987354421610200,3.0446103515625,-0.0015858092810958624,0.00016860896721482277,0.0020354005973786116
1782987354431684000,3.05468408203125,-0.0040115672163665295,0.001957409083843231,0.0002491443301551044
1782987354441758200,3.06475830078125,-0.0009539921302348375,-0.000369128305464983,-0.002180990297347307
1782987354451833000,3.0748330078125,-0.002953008748590946,-0.007609222084283829,-0.0021037322003394365
1782987354461906200,3.08490625,-0.002649142174050212,-0.00560253020375967,-0.0021106565836817026
1782987354471981300,3.094981201171875,-0.005600591655820608,-0.0017378778429701924,-0.005264542996883392
1782987354482055200,3.10505517578125,-0.0023869555443525314,-0.005988283082842827,-0.005002754274755716
1782987354492129300,3.11512939453125,-0.002566867507994175,-0.006103122606873512,-0.003932161256670952
1782987354502204200,3.1252041015625,0.001098441076464951,-0.005680212285369635,-0.004591826349496841
1782987354512278300,3.1352783203125,-0.004001264460384846,-0.0018547551007941365,-0.0030458399560302496
1782987354522352000,3.14535205078125,-0.00027976336423307657,-0.0025711453054100275,-0.0017057372024282813
1782987354532427300,3.15542724609375,-0.0022407867945730686,0.001380065456032753,-0.0025674430653452873
1782987354542501000,3.165501220703125,0.001781119150109589,0.0024139047600328922,-0.0022848816588521004
1782987354552576300,3.175576171875,-0.0015216791070997715,0.005580409429967403,-0.0006246153498068452
1782987354562650000,3.185650146484375,0.0006567867239937186,0.005415293388068676,-0.0007732197409495711
1782987354572724200,3.19572412109375,0.0008360694628208876,0.004677074030041695,0.0009014265378937125
1782987354582799000,3.205799072265625,0.000792393577285111,0.005084537900984287,0.0009277918143197894
1782987354592873200,3.215873291015625,0.0011187468189746141,0.005902872886508703,-0.00035665006726048887
1782987354602948000,3.225947998046875,-0.0011979369446635246,0.008030738681554794,0.0032130510080605745
1782987354613022200,3.236022216796875,0.001010140753351152,0.004110851790755987,0.0007698425324633718
1782987354623096300,3.246096435546875,-0.00013848068192601204,0.00641555106267333,0.0008374868775717914
1782987354633171200,3.256171142578125,-0.0019262970890849829,0.003878267714753747,-0.0011485805734992027
1782987354643245300,3.266245361328125,0.000902778934687376,0.003679063403978944,-0.0005672124680131674
1782987354653320200,3.2763203125,-0.0023160013370215893,0.006334652658551931,-0.0004094084433745593
1782987354663394300,3.286394287109375,-0.0015127918450161815,0.0036102384328842163,0.0010707764886319637
1782987354673468400,3.296468505859375,-0.00032928306609392166,-0.0005400317022576928,-0.0030049250926822424
1782987354683543300,3.306543212890625,0.00023504078853875399,0.0017279163002967834,-0.001784931169822812
1782987354693617400,3.316617431640625,-0.0000741989933885634,0.003436307655647397,-0.0014402910601347685
1782987354703691300,3.326691162109375,-0.0003732719924300909,0.0006477115675806999,-0.004820641130208969
1782987354713766400,3.336766357421875,-0.0014955280348658562,-0.003585116472095251,-0.0006272279424592853
1782987354723840300,3.34684033203125,-0.0013951269211247563,0.002365184249356389,0.001637790584936738
1782987354733915400,3.356915283203125,-0.0006347944145090878,0.002342547057196498,0.0007520231883972883
1782987354743989200,3.3669892578125,-0.003666536882519722,0.0012043123133480549,-0.00342008494772017
1782987354754063400,3.3770634765625,-0.002105324761942029,0.0007331301458179951,-0.0026813719887286425
1782987354764138200,3.38713818359375,0.00023586011957377195,-0.0005345344543457031,0.002243878087028861
1782987354774212400,3.39721240234375,-0.0022624717094004154,0.002359617967158556,0.001172775635495782
1782987354784287200,3.407287353515625,-0.0010139817604795098,0.002160946372896433,0.0018164615612477064
1782987354794361300,3.417361328125,-0.0006437186384573579,0.0034574882593005896,-0.001360301859676838
1782987354804435200,3.427435302734375,0.0002580276923254132,0.0011764909140765667,-0.0029126584995537996
1782987354814510300,3.43751025390625,-0.0015974119305610657,-0.0006849792553111911,-0.0023210723884403706
1782987354824584200,3.447584228515625,0.0007307236082851887,0.004532419610768557,-0.0036657024174928665
1782987354834659300,3.457659423828125,-0.000394081580452621,0.004482574760913849,-0.0009192591533064842
1782987354844733200,3.467733154296875,0.001275187823921442,-0.0016219229437410831,-0.004921191371977329
1782987354854807300,3.477807373046875,0.0005503122229129076,-0.002904678927734494,-0.002711950335651636
1782987354864882200,3.487882080078125,0.00014950649347156286,0.00009217625483870506,-0.003208363661542535
1782987354874956300,3.497956298828125,0.0009667632402852178,0.004325074143707752,-0.002103370614349842
1782987354885031200,3.50803125,0.00005702744238078594,0.0016379451844841242,-0.004534836858510971
1782987354895105300,3.518105224609375,-0.00016536249313503504,-0.0016874636057764292,-0.0035624189767986536
1782987354905179100,3.52817919921875,0.002099123317748308,0.0014862255193293095,-0.0034606861881911755
1782987354915254300,3.538254150390625,-0.00031723035499453545,0.002559017390012741,0.0008981566643342376
1782987354925328100,3.548328125,0.0014441843377426267,0.0011528681498020887,0.002008428331464529
1782987354935402500,3.558402587890625,0.002569354372099042,-0.0036460678093135357,0.0034783249720931053
1782987354945477000,3.56847705078125,-0.00022350274957716465,-0.0036194361746311188,0.0035411755088716745
1782987354955551500,3.578551513671875,-0.00039130542427301407,0.001968775875866413,0.0009278338984586298
1782987354965626000,3.588626220703125,0.0012025964679196477,0.0005652899853885174,0.000010108571586897597
1782987354975700500,3.598700439453125,0.002013445133343339,0.00023334519937634468,-0.0014915033243596554
1782987354985774300,3.6087744140625,0.00106376176699996,-0.0007552200695499778,0.002169810701161623
1782987354995849500,3.618849365234375,0.002571301767602563,-0.00034656189382076263,0.0005369849386624992
1782987355005923300,3.62892333984375,0.00134331826120615,0.0003101734910160303,0.0013511133147403598
1782987355015998500,3.63899853515625,0.0025082461070269346,-0.0009727225406095386,0.0008766782702878118
1782987355026072300,3.649072265625,0.0008762609213590622,-0.00009387941099703312,-0.00043412961531430483
1782987355036146400,3.659146484375,-0.00011165934847667813,0.0000014211982488632202,0.0012774080969393253
1782987355046221300,3.66922119140625,0.0007807658985257149,-0.0018928853096440434,-0.0014355541206896305
1782987355056295400,3.67929541015625,-0.00002458365634083748,-0.0031722127459943295,-0.0016925656236708164
1782987355066370300,3.689370361328125,0.0015264414250850677,-0.004053985234349966,0.003083813702687621
1782987355076444400,3.6994443359375,0.0024480288848280907,-0.0010500630596652627,-0.0003300698008388281
1782987355086518300,3.709518310546875,0.0009143142960965633,0.0002490268088877201,0.000020135892555117607
1782987355096593400,3.719593505859375,-0.0013472894206643105,-0.00045407284051179886,0.0016694583464413881
1782987355106667300,3.729667236328125,-0.0007826993241906166,0.0003203745000064373,0.005038889590650797
1782987355116741000,3.7397412109375,0.0009434415260329843,0.0015313751064240932,0.0036678912583738565
1782987355126816300,3.749816162109375,-0.0008099836413748562,-0.002653782721608877,-0.0006251244922168553
1782987355136890400,3.759890380859375,0.00042146211490035057,-0.003592813154682517,0.004623699933290482
1782987355146965200,3.76996533203125,-0.0007817541481927037,0.0017838426865637302,-0.00032045887201093137
1782987355157039400,3.780039306640625,-0.0023597078397870064,0.0020455243065953255,0.0034904542844742537
1782987355167113200,3.79011328125,-0.0006467624916695058,-0.0029257982969284058,0.0023178644478321075
1782987355177188400,3.800188232421875,-0.0004717621486634016,-0.004128907807171345,0.0017482845578342676
1782987355187262200,3.81026220703125,-0.000476023240480572,-0.0025850730016827583,0.0036164922639727592
1782987355197337300,3.82033740234375,0.0007719375425949693,-0.0015720200026407838,0.0016093439189717174
1782987355207411200,3.8304111328125,-0.0018816362135112286,0.0013617181684821844,-0.0005302397185005248
1782987355217485300,3.8404853515625,0.00027770421002060175,-0.004854876548051834,-0.0006748748710379004
1782987355227560200,3.850560302734375,0.0002816988853737712,0.0011396324262022972,0.0015619141049683094
1782987355237634300,3.86063427734375,-0.0010294057428836823,0.0019050859846174717,-0.0021810363978147507
1782987355247709200,3.870709228515625,-0.0007883897051215172,0.000717582181096077,-0.0047083767130970955
1782987355257783300,3.880783203125,0.00043818773701786995,-0.003197812009602785,-0.0016764161409810185
1782987355267857400,3.890857421875,0.0012512507382780313,-0.0001913693267852068,-0.0015991844702512026
1782987355277932300,3.900932373046875,0.0023911655880510807,0.0012340911198407412,-0.00010455182928126305
1782987355288006400,3.91100634765625,0.0009993977146223187,-0.003237888915464282,-0.0037813119124621153
1782987355298081300,3.921081298828125,0.0010151562746614218,-0.0017512015765532851,-0.0026883932296186686
1782987355308155400,3.9311552734375,-0.0000623585656285286,-0.003312080167233944,-0.0006574665894731879
1782987355318229200,3.941229248046875,-0.0014135303208604455,0.0012687426060438156,0.00252784276381135
1782987355328304400,3.951304443359375,-0.00026837101904675364,-0.0007531293667852879,-0.0022389492951333523
1782987355338378200,3.961378173828125,-0.0006723818369209766,-0.0022459193132817745,-0.0037747470196336508
1782987355348453400,3.971453369140625,0.00017982965800911188,-0.002291725715622306,0.003634965978562832
1782987355358527200,3.98152734375,0.00020068057347089052,0.0019138928037136793,-0.003096561413258314
1782987355368601300,3.991601318359375,0.0009050866356119514,-0.00020225509069859982,0.0011533109936863184
1782987355378676200,4.00167626953125,0.0017611137591302395,-0.0012748085428029299,-0.004234140273183584
1782987355388750300,4.011750244140625,0.0015312829054892063,-0.0026138457469642162,-0.00375583628192544
1782987355398824200,4.02182421875,-0.0013185580028221011,-0.0039869206957519054,0.0005408581928350031
1782987355408899300,4.0318994140625,0.00047295051626861095,-0.0012246901169419289,-0.005118092987686396
1782987355418973200,4.04197314453125,-0.0004653144860640168,-0.0024498957209289074,-0.0015859408304095268
1782987355429048300,4.05204833984375,0.000509668723680079,-0.0011870248708873987,-0.00013744761236011982
1782987355439122200,4.0621220703125,-0.0006677380297333002,-0.002152696019038558,-0.0015318304067477584
1782987355449196300,4.0721962890625,0.0008044573478400707,-0.002604101784527302,0.0004751277738250792
1782987355459271200,4.082271240234375,0.00019658461678773165,-0.0006053907563909888,-0.0008294414146803319
1782987355469345500,4.092345458984375,0.0012424079468473792,0.002405579201877117,0.002573545789346099
1782987355479420700,4.102420654296875,0.0005976483225822449,0.0039361570961773396,-0.00010488477710168809
1782987355489494500,4.11249462890625,0.001317500718869269,-0.001726255752146244,-0.0010103596141561866
1782987355499568600,4.122568603515625,0.0011535815428942442,0.0014089576434344053,-0.001286966959014535
1782987355509643500,4.1326435546875,0.004542454145848751,0.0011341194622218609,0.00046326249139383435
1782987355519717600,4.142717529296875,-0.002361444290727377,0.003996510058641434,0.0009618325857445598
1782987355529792800,4.152792724609375,-0.0014586325269192457,0.0018561279866844416,0.0014822141965851188
1782987355539866600,4.16286669921875,0.00038231059443205595,0.003154384670779109,0.0002608645590953529
1782987355549940500,4.1729404296875,-0.0006014611572027206,-0.0000789593905210495,0.0006161302444525063
1782987355560015600,4.183015625,0.003434406593441963,0.002703999634832144,0.0007245655287988484
1782987355570089500,4.19308935546875,-0.0012066839262843132,0.0013548419810831547,0.0017147287726402283
1782987355580163800,4.203163818359375,-0.0004687116015702486,0.002591390861198306,0.0012817509705200791
1782987355590238500,4.213238525390625,0.0013347811764106154,0.002335727447643876,-0.0002714046277105808
1782987355600312800,4.223312744140625,-0.00018905388424172997,0.0018722794484347105,-0.0036310814321041107
1782987355610387500,4.233387451171875,0.0018764937995001674,-0.002380522433668375,-0.0025538327172398567
1782987355620461800,4.2434619140625,0.0003754210192710161,0.0032294713892042637,0.004821333102881908
1782987355630535700,4.25353564453125,-0.0026672405656427145,0.0012257089838385582,-0.0025894450955092907
1782987355640610800,4.26361083984375,-0.001375989755615592,-0.001002510660327971,-0.0013707091566175222
1782987355650684700,4.2736845703125,0.0004631893243640661,0.0015061870217323303,0.0011800664942711592
1782987355660759800,4.283759765625,0.0005011222092434764,0.004028952214866877,0.0023168965708464384
1782987355670833700,4.293833740234375,0.0010169765446335077,0.003736537415534258,0.003110252320766449
1782987355680907800,4.30390771484375,0.0015602093189954758,-0.003079300280660391,-0.003066201461479068
1782987355690982700,4.313982666015625,0.0005146523471921682,-0.004637781996279955,-0.003712550736963749
1782987355701056800,4.324056884765625,-0.00009609147673472762,-0.0037297718226909637,-0.005398377310484648
1782987355711131600,4.334131591796875,0.00030045327730476856,-0.001547045074403286,0.00031783172744326293
1782987355721205800,4.344205810546875,-0.0012380379484966397,-0.0012935942504554987,-0.002831186866387725
1782987355731279600,4.354279541015625,-0.0013389717787504196,-0.006173836998641491,-0.0028474321588873863
1782987355741354800,4.364354736328125,-0.0005435054190456867,-0.002683136845007539,-0.002384553663432598
1782987355751428600,4.3744287109375,-0.0002691998379305005,-0.0008996179094538093,-0.0014191577211022377
1782987355761502700,4.384502685546875,0.00232382258400321,0.0009733373299241066,0.000715151138138026
1782987355771577600,4.39457763671875,-0.0012650531716644764,0.001013284781947732,0.0014389982679858804
1782987355781651700,4.404651611328125,0.00013014383148401976,0.0005109165795147419,0.0022846723441034555
1782987355791726600,4.4147265625,0.001207392429932952,0.0011969469487667084,0.002473224187269807
1782987355801800700,4.42480078125,0.001796287833712995,-0.0012302580289542675,0.0022346049081534147
1782987355811874600,4.43487451171875,0.0010870880214497447,0.0005447387229651213,0.0040159933269023895
1782987355821949700,4.44494970703125,-0.0010119890794157982,0.0005483869463205338,0.0020030788145959377
1782987355832023600,4.4550234375,0.0005313127767294645,0.0005113689694553614,-0.0006728655425831676
1782987355842098700,4.4650986328125,-0.00010463455691933632,-0.004765232093632221,0.0014176181284710765
1782987355852172500,4.475172607421875,-0.0014447371941059828,-0.00018752459436655045,0.0014138896949589252
1782987355862246700,4.48524658203125,0.0009050364606082439,0.0013738102279603481,0.002223250223323703
1782987355872321500,4.495321533203125,-0.00012241100193932652,-0.0003724244888871908,0.0012621155474334955
1782987355882395600,4.505395751953125,-0.0010929335840046406,-0.0018365540308877826,0.0021995222195982933
1782987355892470500,4.515470458984375,0.0002927090972661972,0.0018183684442192316,0.005477340891957283
1782987355902544600,4.525544677734375,0.000005106208845973015,0.003602327313274145,0.0019843170884996653
1782987355912618800,4.53561865234375,0.000004307250492274761,0.0011077441740781069,0.0012402298161759973
1782987355922693600,4.545693603515625,0.0007928521372377872,0.002353919902816415,0.0015191594138741493
1782987355932767700,4.555767822265625,-0.0006204874953255057,0.0009251339361071587,-0.0011309521505609155
1782987355942842600,4.565842529296875,-0.0006619986379519105,-0.002071353141218424,0.0017959346296265721
1782987355952916700,4.575916748046875,0.00045972480438649654,-0.0006641388172283769,0.003714209422469139
1782987355962990800,4.585990966796875,0.000004273140802979469,-0.001655911561101675,0.0001079732901416719
1782987355973065700,4.596065673828125,0.0003347714664414525,-0.0027432802598923445,-0.0008811247535049915
1782987355983139800,4.606139892578125,0.0014426140114665031,-0.0008565355092287064,0.0009337480296380818
1782987355993213700,4.616213623046875,0.0010748314671218395,-0.0012746518477797508,0.0012533273547887802
1782987356003288800,4.626288818359375,-0.0022929131519049406,-0.0015927946660667658,0.0006906729540787637
1782987356013362700,4.63636279296875,-0.002617286052554846,-0.0034996180329471827,-0.0004888410912826657
1782987356023437800,4.646437744140625,0.0002618158468976617,-0.0013697606045752764,-0.000021551801182795316
1782987356033511700,4.65651171875,-0.0021222459618002176,-0.0005151522345840931,0.0024466656614094973
1782987356043585800,4.666585693359375,-0.0012567772064357996,0.001951483078300953,0.0025544376112520695
1782987356053660700,4.67666064453125,-0.00021761178504675627,-0.0006834485102444887,0.0012457603588700294
1782987356063734800,4.68673486328125,-0.001074084546416998,-0.0029887433629482985,-0.0032447618432343006
1782987356073809700,4.6968095703125,-0.002290350152179599,-0.001654233317822218,-0.0030215890146791935
1782987356083883800,4.7068837890625,-0.0013535781763494015,-0.003657241817563772,-0.0028344430029392242
1782987356093957600,4.71695751953125,-0.0012771454639732838,-0.0014867654535919428,-0.001126025104895234
1782987356104032800,4.72703271484375,0.0004836530424654484,-0.0017950087785720825,-0.0025674491189420223
1782987356114106600,4.737106689453125,0.0015851365169510245,-0.0036866520531475544,-0.0023003341630101204
1782987356124181800,4.747181640625,-0.002581676933914423,-0.001240910729393363,-0.0015845473390072584
1782987356134255600,4.757255615234375,0.00001197541132569313,-0.001761558698490262,-0.0008742823265492916
1782987356144329700,4.767329833984375,-0.00016923545626923442,0.00004411162808537483,0.001284815720282495
1782987356154404600,4.777404541015625,0.0016419804887846112,-0.001876826398074627,-0.0011897935764864087
1782987356164478700,4.787478759765625,0.0010256898822262883,-0.001588498242199421,0.0017733583226799965
1782987356174552600,4.797552490234375,0.00033353432081639767,-0.00016290810890495777,0.0005134169477969408
1782987356184627700,4.807627685546875,0.0007433467544615269,-0.0014503039419651031,0.0019960249774158
1782987356194701600,4.81770166015625,-0.0008771867724135518,0.0009529325179755688,0.002447697101160884
1782987356204776700,4.827776611328125,0.0007331096567213535,-0.0006451823282986879,0.003093586303293705
1782987356214850600,4.8378505859375,0.0005616020644083619,-0.0009407931938767433,0.0020453662145882845
1782987356224924700,4.847924560546875,-0.0001607640879228711,0.0001634091604501009,0.0011100627016276121
1782987356234999600,4.85799951171875,-0.0021461506839841604,0.0009045668411999941,-0.002198115922510624
1782987356245073700,4.86807373046875,0.00043226906564086676,0.001191647257655859,-0.0005800301441922784
1782987356255148500,4.8781484375,-0.00001301150768995285,0.003202067455276847,0.000057530662161298096
1782987356265222700,4.88822265625,-0.0020323828794062138,0.003468670416623354,0.0023503464180976152
1782987356275296800,4.898296875,0.0012904430041089654,0.0013671701308339834,0.0015695076435804367
1782987356285372000,4.908371826171875,-0.0011802545050159097,0.004442472476512194,0.002420799108222127
1782987356295445800,4.91844580078125,-0.0011847818968817592,0.004640079103410244,0.004759853705763817
1782987356305521000,4.92852099609375,-0.0016405002679675817,0.0033287201076745987,0.0026684969197958708
1782987356315594800,4.9385947265625,-0.0008327635587193072,0.004572416190057993,0.0008759231423027813
1782987356325668600,4.948668701171875,0.0021154554560780525,0.0005697275046259165,0.0019230279140174389
1782987356335743700,4.95874365234375,-0.0007019027252681553,0.00029195984825491905,-0.0005300096236169338
1782987356345817600,4.968817626953125,-0.0012786772567778826,0.00375825515948236,-0.0016144233522936702
1782987356355891700,4.9788916015625,0.00029312039259821177,0.0033606451470404863,-0.002154245972633362
1782987356365966600,4.988966552734375,-0.0009011072106659412,0.0005135347601026297,-0.0005441243993118405
1782987356376040700,4.999040771484375,0.0014075870858505368,0.0026326121296733618,0.0005123516311869025
1782987356386115600,5.009115478515625,0.0008622708264738321,0.0018169214017689228,0.002119859214872122
1782987356396189700,5.019189697265625,-0.0011931569315493107,0.0006121073383837938,0.0011922800913453102
1782987356406263600,5.029263671875,0.00026597362011671066,-0.00032497942447662354,-0.0005096480017527938
1782987356416338700,5.039338623046875,-0.0010456332238391042,0.0012308394070714712,-0.0013552017044276
1782987356426412500,5.04941259765625,-0.0015653031878173351,0.0036743253003805876,-0.0023886472918093204
1782987356436486700,5.059486572265625,0.00033539487048983574,0.002195205306634307,0.0012023590970784426
1782987356446561500,5.0695615234375,0.00006916234269738197,0.0014200748410075903,-0.0004595984355546534
1782987356456635600,5.0796357421875,0.0007464041700586677,0.0013247337192296982,-0.00008941902342485264
1782987356466710000,5.0897099609375,0.0019696615636348724,0.003034945111721754,-0.0042597102001309395
1782987356476783900,5.099783935546875,0.0011222438188269734,0.0024053738452494144,-0.004663445521146059
1782987356486858200,5.109858154296875,0.0028538312762975693,-0.0011201186571270227,-0.0036413241177797318
1782987356496932900,5.119932861328125,-0.00004129123408347368,-0.0007624562131240964,-0.002870605094358325
1782987356507007200,5.13000732421875,0.00030764995608478785,0.000638296827673912,-0.0032456261105835438
1782987356517081000,5.1400810546875,0.0009761034743860364,0.000524846138432622,-0.0011949922190979123
1782987356527156200,5.15015625,0.0012152196140959859,-0.002023090608417988,0.003364191623404622
1782987356537230000,5.16022998046875,-0.0006900058942846954,0.0009308876469731331,-0.002708081854507327
1782987356547305200,5.17030517578125,-0.0013565621338784695,0.0022209323942661285,0.0010747227352112532
1782987356557379000,5.180379150390625,-0.00031180400401353836,0.00035911635495722294,0.0014976327074691653
1782987356567453200,5.190453125,0.0013802989851683378,0.0018949268851429224,0.001046425779350102
1782987356577528000,5.200528076171875,0.00012035737745463848,0.0031237092334777117,0.001665610703639686
1782987356587602200,5.210602294921875,-0.0021924255415797234,0.0014017911162227392,-0.00007014054426690564
1782987356597677000,5.220677001953125,-0.0012611179845407605,-0.0023514018394052982,-0.00019690701446961612
1782987356607751200,5.230751220703125,0.000035081757232546806,0.0005079524125903845,-0.0004966097185388207
1782987356617825000,5.240824951171875,-0.00010073941666632891,0.0005119473207741976,0.0013580155791714787
1782987356627900200,5.250900146484375,0.0019891925621777773,-0.0004299781285226345,0.0014957247767597437
1782987356637974000,5.26097412109375,-0.00041084818076342344,-0.0019061684142798185,-0.00231632380746305
1782987356648047900,5.2710478515625,0.0021102195605635643,0.0004520399961620569,0.00006003971793688834
1782987356658123000,5.281123046875,0.0022697430104017258,0.0014030549209564924,-0.0016049685655161738
1782987356668197000,5.291197021484375,0.0001570923486724496,0.0014740214683115482,-8.279093890450895e-7
1782987356678272000,5.30127197265625,-0.00041016092291101813,-0.0014847505372017622,0.0009395342785865068
1782987356688346000,5.31134619140625,0.0019298519473522902,0.000942928483709693,-0.0016374238766729832
1782987356698420000,5.321419921875,-0.0003319706884212792,0.00022201077081263065,-0.001405196264386177
1782987356708495000,5.3314951171875,-0.000025808345526456833,-0.0018641354981809855,0.001408965210430324
1782987356718569000,5.34156884765625,0.0005542280850932002,-0.0025986351538449526,-0.0015087940264493227
1782987356728644000,5.35164404296875,-0.0011401392985135317,-0.0012650297721847892,-0.0013439112808555365
1782987356738718000,5.361718017578125,0.001059897942468524,-0.0032943584956228733,-0.003693085629492998
1782987356748791800,5.371791748046875,0.0004938759375363588,-0.00034908694215118885,-0.0007272922666743398
1782987356758867000,5.381866943359375,-0.003042535623535514,-0.0034809643402695656,-0.0018133294070139527
1782987356768940800,5.39194091796875,-0.0012458018027245998,-0.0034902035258710384,-0.0010891190031543374
1782987356779016000,5.402015869140625,0.00021041464060544968,-0.00004886672832071781,-0.001424144604243338
1782987356789091000,5.412091064453125,0.000627026311121881,-0.0019916086457669735,-0.00407849345356226
1782987356799165000,5.4221650390625,-0.0025791532825678587,0.004251107107847929,-0.0007559334044344723
1782987356809239000,5.432239013671875,0.00015510886441916227,-0.0050013745203614235,-0.0009398623951710761
1782987356819314000,5.44231396484375,0.0014121208805590868,-0.002628764370456338,-0.003507415996864438
1782987356829388000,5.452387939453125,0.0007801190949976444,-0.0024069459177553654,0.0034543792717158794
1782987356839463000,5.462462890625,0.0010363151086494327,0.00021280557848513126,-0.0009374397341161966
1782987356849537000,5.472537109375,0.0014042918337509036,-0.0007222073618322611,-0.0026794392615556717
1782987356859611100,5.482611083984375,-0.0005065262666903436,-0.005673290230333805,-0.0008277432643808424
1782987356869686000,5.49268603515625,-0.00001879432238638401,-0.005433524958789349,-0.0025054370053112507
1782987356879760100,5.502760009765625,-0.0026257627177983522,-0.0012544929049909115,-0.0025587002746760845
1782987356889834000,5.512833984375,-0.001386776682920754,0.000217019347473979,0.006250092759728432
1782987356899909000,5.5229091796875,0.0031507168896496296,-0.0006197458133101463,0.0018907641060650349
1782987356909983200,5.532983154296875,0.0004974849289283156,-0.001653062179684639,-0.0016261787386611104
1782987356920058000,5.54305810546875,0.00033236900344491005,-0.0021223111543804407,-0.001116183353587985
1782987356930132200,5.55313232421875,0.0012964452616870403,-0.0010678052203729749,0.0012461430160328746
1782987356940206000,5.5632060546875,0.0019041786435991526,0.0003756280057132244,-0.003366451943293214
1782987356950281200,5.57328125,0.0007399520836770535,-0.002362038940191269,0.003198765916749835
1782987356960355000,5.58335498046875,0.002422803547233343,-0.0027615129947662354,-0.0007754692924208939
1782987356970430200,5.59343017578125,-0.000725085730664432,-0.004549143370240927,0.002556929364800453
1782987356980504000,5.603504150390625,-0.0009405354503542185,-0.0005432165926322341,-0.0015435396926477551
1782987356990578000,5.613577880859375,-0.0026051453314721584,-0.00397823192179203,0.0005163458408787847
1782987357000653000,5.623653076171875,0.0016311447834596038,-0.00017497176304459572,0.00009556639997754246
1782987357010727000,5.633726806640625,-0.0007118477369658649,-0.00023826526012271643,0.0038173794746398926
1782987357020802000,5.643802001953125,0.000757684581913054,0.0012328650336712599,0.0040746405720710754
1782987357030876200,5.653876220703125,0.0024201050400733948,-0.001816488686017692,-0.0010470853885635734
1782987357040950000,5.663949951171875,-0.0014337552711367607,-0.0016420516185462475,-0.00473290029913187
1782987357051025200,5.674025146484375,-0.0005262711783871055,-0.0010295853717252612,0.002284788293763995
1782987357061099000,5.68409912109375,-0.001202980405651033,-0.0012748624430969357,-0.0016348522622138262
1782987357071174100,5.694174072265625,0.0011595424730330706,-0.0003725483547896147,-0.002386152744293213
1782987357081248000,5.704248046875,-0.0002980054705403745,-0.0030279862694442272,-0.0016370054800063372
1782987357091321900,5.71432177734375,-0.00007564143743366003,-0.002018929459154606,-0.0015144463395699859
1782987357101397000,5.72439697265625,0.0017531511839479208,-0.0012114590499550104,-0.0029387050308287144
1782987357111470800,5.734470947265625,-0.0004162428085692227,0.00014107837341725826,-0.002559833927080035
1782987357121545000,5.744544921875,-0.00045272812712937593,-0.0015668068081140518,-0.003180883126333356
1782987357131619800,5.754619873046875,0.00020930124446749687,-0.001794345211237669,-0.00282333348877728
1782987357141694000,5.76469384765625,-0.0007347893551923335,-0.0021831667982041836,0.0016603644471615553
1782987357151769000,5.77476904296875,0.0003635974135249853,0.0014906993601471186,-0.0025332916993647814
1782987357161843000,5.784843017578125,0.0003321721451357007,0.0008558016270399094,-0.002541281282901764
1782987357171917000,5.7949169921875,-0.001319924253039062,0.00025194138288497925,-0.0004719120333902538
1782987357181992000,5.804991943359375,-0.0012773136841133237,-0.0003794940421357751,-0.00039121825830079615
1782987357192066000,5.815066162109375,0.0003112410195171833,-0.001741665881127119,-0.0005068134632892907
1782987357202141000,5.825140869140625,0.0032199453562498093,-0.00033817999064922333,-0.001861563534475863
1782987357212215000,5.835215087890625,0.0014632247621193528,-0.0004893697332590818,-0.0010854839347302914
1782987357222289200,5.8452890625,0.00002751452848315239,-0.0005578129785135388,-0.0008239613962359726
1782987357232364000,5.855364013671875,0.001127745141275227,-0.002881021471694112,-0.0001342769683105871
1782987357242438100,5.865438232421875,0.0008526406018063426,-0.002589138923212886,-0.0034584347158670425
1782987357252513000,5.875512939453125,0.0009074361296370625,0.0025518862530589104,-0.00013521962682716548
1782987357262587100,5.885587158203125,0.001467765192501247,-0.00032006693072617054,0.002994793700054288
1782987357272661000,5.895660888671875,0.0003911659587174654,0.002768885809928179,-0.0014594161184504628
1782987357282736000,5.905736083984375,-0.0001555809867568314,-0.0005880289245396852,0.0003403480804990977
1782987357292810000,5.91581005859375,0.001202129409648478,0.0015136576257646084,0.0022616414353251457
1782987357302884000,5.925884033203125,0.0006513877306133509,0.0018223181832581758,0.0002397695352556184
1782987357312959000,5.935958984375,-0.0012854724191129208,-0.0017898433143272996,-0.003219892969354987
1782987357323033000,5.946033203125,0.0001853914000093937,-0.0014601439470425248,-0.0026505091227591038
1782987357333108000,5.95610791015625,0.0015239446656778455,-0.0009852671064436436,-0.006819624453783035
1782987357343182000,5.96618212890625,0.0011748044053092599,-0.0005130886565893888,-0.0014357783365994692
1782987357353256000,5.976255859375,0.00015136238653212786,0.002780294045805931,0.0005904108402319252
1782987357363331000,5.9863310546875,-0.0006494501139968634,0.0015547075308859348,-0.0013427777448669076
1782987357373405000,5.996405029296875,0.00042854459024965763,0.0002991650253534317,0.0006448609638027847
1782987357383480000,6.00647998046875,0.0018120566383004189,0.0005961076822131872,-0.002173828659579158
1782987357393554000,6.016553955078125,0.0007262385915964842,0.0024082036688923836,-0.0010493448935449123
1782987357403628000,6.0266279296875,0.000032485113479197025,-0.0014613692183047533,0.00016718717233743519
1782987357413703000,6.036702880859375,0.00136861193459481,-0.001408710260875523,-0.0018576328875496984
1782987357423777000,6.046777099609375,-0.0002694985014386475,-0.0017373443115502596,-0.003094404935836792
1782987357433852000,6.056851806640625,-0.0015591600676998496,-0.0021036029793322086,-0.0014345634263008833
1782987357443926000,6.066926025390625,0.002471001585945487,0.001858115429058671,-0.0016763784224167466
1782987357453999900,6.076999755859375,3.009336069226265e-7,-0.0006333066849038005,0.00045355097972787917
1782987357464074800,6.08707470703125,-0.0006361945997923613,-0.00003995443694293499,0.0004191962070763111
1782987357474148900,6.09714892578125,-0.00012391339987516403,0.00044174748472869396,0.0007910082931630313
1782987357484223700,6.1072236328125,-0.0005721233901567757,0.0004952771123498678,0.0016312355874106288
1782987357494297900,6.1172978515625,-0.0013121014926582575,0.002058414975181222,0.0012053028913214803
1782987357504372000,6.1273720703125,-0.000599173188675195,-0.00013816053979098797,-0.0013057916657999158
1782987357514446800,6.13744677734375,0.0005676783621311188,0.001572654116898775,0.00007132506289053708
1782987357524521000,6.14752099609375,-0.00023313419660553336,-0.0005645327037200332,-0.002381180180236697
1782987357534595000,6.157594970703125,-0.0012824874138459563,0.0007115399930626154,-0.0027593839913606644
1782987357544670000,6.167669921875,0.0014091694029048085,-0.0008189787622541189,-0.004460078664124012
1782987357554744000,6.177744140625,0.0006634950404986739,-0.0019334506941959262,0.00045318607590161264
1782987357564819000,6.18781884765625,-0.00042786833364516497,-0.0006079954328015447,0.0013741072034463286
1782987357574893000,6.19789306640625,-0.00047102879034355283,0.001618606736883521,0.00034666602732613683
1782987357584967000,6.207966796875,0.001470948220230639,-0.0025297992397099733,-0.001095702056773007
1782987357595042000,6.2180419921875,-0.0004254671512171626,0.0015036382246762514,-0.0009298518998548388
1782987357605116000,6.228115966796875,-0.0006952453404664993,0.0032120561227202415,0.0005356856272555888
1782987357615191000,6.23819091796875,-0.0006844365270808339,-0.00029772589914500713,0.001990295248106122
1782987357625265000,6.248264892578125,0.0009153244318440557,0.002532149199396372,0.0006709654117003083
1782987357635339000,6.258339111328125,0.0006034915568307042,-0.0000809363555163145,0.0007014042348600924
1782987357645414000,6.268413818359375,-0.0015201130881905556,-0.002320122206583619,0.0014574755914509296
1782987357655488000,6.278488037109375,-0.0010959119535982609,0.0014264320489019156,0.0006504023913294077
1782987357665563000,6.28856298828125,-0.0017039116937667131,0.0006157658062875271,0.00032389882835559547
1782987357675637000,6.298636962890625,0.0012548400554805994,-0.0008632529061287642,0.0016707477625459433
1782987357685710800,6.3087109375,-0.0008426655549556017,-0.001889368868432939,-0.0014275738503783941
1782987357695786000,6.318785888671875,0.000458215712569654,-0.000567711191251874,-0.0022069185506552458
1782987357705859800,6.32885986328125,-0.0019258460961282253,0.0003172573633491993,0.00004984406768926419
1782987357715935000,6.33893505859375,0.0006361713167279959,0.00006566569209098816,0.0024579151067882776
1782987357726008800,6.3490087890625,-0.0006053943652659655,0.00040228920988738537,-0.0002582428860478103
1782987357736083000,6.3590830078125,-0.0012806064914911985,0.0017655871342867613,-0.00143237819429487
1782987357746157800,6.36915771484375,-0.0004654128570109606,-0.00031514069996774197,-0.0013085412792861462
1782987357756232000,6.37923193359375,-0.001488607027567923,-0.0007949343416839838,0.0019487879471853375
1782987357766306000,6.38930615234375,-0.00010216538794338703,-0.0012785643339157104,-0.000397190626244992
1782987357776381000,6.399380859375,-0.0007334105903282762,-0.0022722145076841116,0.0007763499743305147
1782987357786455000,6.409455078125,0.0001222630962729454,-0.0002546036848798394,-0.00031048606615513563
1782987357796530000,6.419530029296875,-0.0011163762537762523,0.0009028799831867218,0.00031202216632664204
1782987357806604000,6.42960400390625,0.0011108254548162222,0.0003944826312363148,0.0010728872148320079
1782987357816678100,6.43967822265625,-0.00117116526234895,-0.0012023800518363714,0.0009445151081308722
1782987357826753000,6.4497529296875,-0.00020949781173840165,-0.001197586301714182,-0.000981216668151319
1782987357836827100,6.4598271484375,0.0004521164810284972,-0.00043004448525607586,0.0005193392280489206
1782987357846902000,6.469902099609375,-0.00003364414442330599,0.0017068760935217142,-0.0002484500873833895
1782987357856976100,6.47997607421875,-0.0005774428718723357,0.00033551082015037537,0.0001676977553870529
1782987357867050000,6.490050048828125,-0.002666959073394537,-0.0018741138046607375,-0.0013487060787156224
1782987357877125000,6.500125,0.0005531198112294078,-0.003610997460782528,-0.0013677817769348621
1782987357887199000,6.510198974609375,0.002555816899985075,0.00012994487769901752,0.0005062846466898918
1782987357897274000,6.520274169921875,-0.00040347204776480794,0.001040210947394371,0.0014148590853437781
1782987357907348000,6.530347900390625,-0.0013017563614994287,0.0004681639838963747,0.0005320212221704423
1782987357917422000,6.540422119140625,-0.0013947173720225692,0.0011553713120520115,0.00017174988170154393
1782987357927497000,6.5504970703125,0.00031556468456983566,0.0006805297452956438,0.002853819401934743
1782987357937571000,6.560571044921875,0.00026869820430874825,-0.0002605810295790434,-0.0016554100438952446
1782987357947645000,6.57064501953125,0.0013645889703184366,-0.0011197167914360762,0.0008980287238955498
1782987357957720000,6.580719970703125,0.0007944159442558885,0.0012619651388376951,0.0038383365608751774
1782987357967794000,6.5907939453125,0.00021517835557460785,0.00016527529805898666,0.0007469389820471406
1782987357977869000,6.600869140625,0.0012717492645606399,-0.00045134383253753185,0.0011986992321908474
1782987357987943000,6.61094287109375,-0.0010284229647368193,0.0011159265413880348,0.00023862969828769565
1782987357998017000,6.62101708984375,0.001557038864120841,-0.0008094236254692078,-0.0013473530998453498
1782987358008092000,6.631091796875,0.000283248838968575,-0.00221370835788548,0.0020383235532790422
1782987358018166000,6.641166015625,0.0017772013088688254,-0.0013193911872804165,0.001161849475465715
1782987358028241000,6.651240966796875,0.0021223467774689198,0.0015091521199792624,0.0011610505171120167
1782987358038315000,6.66131494140625,0.000535657862201333,-0.001678973319940269,0.00019172969041392207
1782987358048388900,6.671388916015625,-0.001264106365852058,-0.002292299410328269,0.0006007912452332675
1782987358058464000,6.681464111328125,-0.0015882343286648393,0.00036392570473253727,-0.0008182176388800144
1782987358068537900,6.691537841796875,-0.002553363796323538,0.0007956242188811302,-0.0000712009787093848
1782987358078613000,6.701613037109375,-0.000453080574516207,0.00128456624224782,0.0009984347270801663
1782987358088686800,6.711686767578125,0.00027902238070964813,0.00041504413820803165,0.000056208322348538786
1782987358098761000,6.721760986328125,0.0011336904717609286,-0.0004713829839602113,-0.0031835006084293127
1782987358108835800,6.7318359375,0.0016330332728102803,-0.0007962886011227965,0.0006125691579654813
1782987358118910000,6.741909912109375,-0.000328850990626961,-0.001228750217705965,-0.0017947916639968753
1782987358128984800,6.75198486328125,0.0010967390844598413,0.0005217455327510834,-0.00067226926330477
1782987358139059000,6.762058837890625,0.0014239008305594325,0.0012066024355590343,0.0011978346155956388
1782987358149133000,6.772133056640625,-0.00010315567487850785,-0.00039448996540158987,-0.0012477461714297533
1782987358159208000,6.7822080078125,0.0019252513302490115,0.0004517266061156988,-0.0006022978341206908
1782987358169282000,6.792281982421875,0.0003848790656775236,0.0013958173803985119,-0.001828949898481369
1782987358179356000,6.80235595703125,-0.0003853824455291033,-0.0011754288570955396,0.00274682161398232
1782987358189431000,6.81243115234375,-0.0002703338977880776,0.0005204721819609404,-0.0006926509086042643
1782987358199505000,6.8225048828125,0.0005389569560065866,0.00033780280500650406,0.0004657293320633471
1782987358209580000,6.832580078125,0.0002675808500498533,-0.003181830979883671,0.001604496967047453
1782987358219654000,6.84265380859375,0.0013517976040020585,-0.002155571011826396,0.0014798090560361743
1782987358229728000,6.85272802734375,-0.000054884119890630245,-0.0014365174574777484,-0.0016142514068633318
1782987358239803100,6.86280322265625,-0.001469109207391739,0.002801651367917657,-0.0020107366144657135
1782987358249877000,6.872876953125,-0.0012438057456165552,0.0009829786140471697,0.0011741375783458352
1782987358259952000,6.8829521484375,-0.00025713129434734583,-0.0018820648547261953,0.0016831662505865097
1782987358270026000,6.89302587890625,-0.0003953493433073163,-0.0013654115609824657,-0.00015761070244479924
1782987358280099800,6.903099853515625,0.00009374564979225397,0.002193107735365629,0.0015156982699409127
1782987358290175000,6.913175048828125,-0.00131053919903934,-0.0020514382049441338,-0.00008379635983146727
1782987358300248800,6.923248779296875,0.0004486867692321539,0.001295407535508275,0.0010181262623518705
1782987358310324000,6.933323974609375,0.0001094000181183219,0.0008112448267638683,0.0007211838965304196
1782987358320397800,6.943397705078125,0.0009214989840984344,0.00035935593768954277,0.00214963685721159
1782987358330472000,6.953471923828125,-0.0015749481972306967,0.0023402152583003044,0.00019008296658284962
1782987358340546800,6.963546875,0.0020165457390248775,0.0014009173028171062,0.0017960036639124155
1782987358350621000,6.973620849609375,-0.0004266383475624025,0.0017090451437979937,-0.0021009999327361584
1782987358360696000,6.983696044921875,-0.001317410496994853,-0.0014535249210894108,0.00001971110759768635
1782987358370770000,6.99377001953125,-0.00003323424607515335,-0.0015549914678558707,0.00041066313860937953
1782987358380843800,7.00384375,0.00036249321419745684,0.0007980377413332462,-0.0007052287692204118
1782987358390919000,7.0139189453125,-0.0007411206606775522,-0.000049646361730992794,-0.00003890588413923979
1782987358400992800,7.02399267578125,-0.0008716369629837573,-0.0007910989224910736,-0.0011686553480103612
1782987358411068000,7.03406787109375,-0.0013036016607657075,0.0004206392914056778,-0.0000064518608269281685
1782987358421141800,7.044141845703125,0.00017623277381062508,0.0007709937635809183,0.00002768163540167734
1782987358431216000,7.054216064453125,0.001537906937301159,0.004242956638336182,0.0034559688065201044
1782987358441290800,7.064290771484375,-0.0004916833131574094,0.00017591030336916447,-0.0011646751081570983
1782987358451365000,7.074365234375,-0.0010006134398281574,-0.0009119909955188632,0.001374116400256753
1782987358461439000,7.08443896484375,-0.0006730106542818248,-0.0014833842869848013,-0.00031873967964202166
1782987358471514000,7.09451416015625,0.0006268782308325171,-0.0005749799311161041,-0.00003404775634407997
1782987358481588000,7.104587890625,0.0011564957676455379,0.0017835376784205437,-0.005370901431888342
1782987358491663000,7.1146630859375,0.0008502323180437088,0.00013450835831463337,-0.0008456578943878412
1782987358501737000,7.124737060546875,0.001044515403918922,-0.000513468636199832,-0.0035621984861791134
1782987358511811000,7.13481103515625,0.000538248335942626,-0.0014937781961634755,0.0013745033647865057
1782987358521886000,7.144885986328125,-0.0015351749025285244,0.0023832828737795353,0.00044943223474547267
1782987358531960000,7.1549599609375,0.0012827159371227026,0.0006351838819682598,-0.0019870938267558813
1782987358542035000,7.165034912109375,-0.0008684280328452587,-0.0019151212181895971,-0.0009302567923441529
1782987358552109000,7.175109130859375,-0.0013033222639933228,-0.0005326742539182305,-0.003920719958841801
1782987358562183000,7.185182861328125,0.0011114769149571657,0.0020768516696989536,-0.00009946605132427067
1782987358572258000,7.195258056640625,0.0009112074039876461,0.002742375247180462,-0.00037004321347922087
1782987358582332000,7.205331787109375,-0.0014431481249630451,-0.0008280277252197266,0.00002927191962953657
1782987358592407000,7.215406982421875,-0.0008274252759292722,0.0006508256774395704,-0.0030834306962788105
1782987358602481000,7.22548095703125,0.0013989388244226575,0.0014178205747157335,-0.00235686800442636
1782987358612555000,7.235554931640625,-0.0008562259608879685,-0.0020594687666743994,0.0009100318420678377
1782987358622630000,7.2456298828125,-0.0020376541651785374,-0.0014279983006417751,0.0004869819094892591
1782987358632704000,7.2557041015625,-0.0021668176632374525,-0.0006889710202813148,-0.0014286297373473644
1782987358642777900,7.26577783203125,-0.00042698089964687824,0.0005051302723586559,0.00021306436974555254
1782987358652853000,7.27585302734375,-0.0026376708410680294,0.0003602541983127594,0.0033401481341570616
1782987358662926800,7.2859267578125,0.0013325416948646307,0.0006986728403717279,0.0008195232949219644
1782987358673002000,7.296001953125,0.0009951191022992134,0.0005026643630117178,0.000901548657566309
1782987358683075800,7.306075927734375,0.0000016828998923301697,-0.0007781839231029153,-0.00047987588914111257
1782987358693149700,7.316149658203125,-0.0015525378985330462,-0.00008336524479091167,-0.00037707790033891797
1782987358703224800,7.326224853515625,-0.0003189882845617831,0.00000537605956196785,-0.0011493107303977013
1782987358713299000,7.336298828125,0.001689834170974791,-0.00028144638054072857,0.0009718970977701247
1782987358723373800,7.346373779296875,0.0009388340404257178,0.0006276913918554783,-0.0005183161119930446
1782987358733448000,7.356447998046875,0.001442437875084579,0.0006540566682815552,-0.0011348379775881767
1782987358743522000,7.36652197265625,-0.0007586268475279212,0.001910356804728508,0.0017266115173697472
1782987358753597000,7.376596923828125,0.000979085685685277,0.00006878096610307693,-0.0008513284847140312
1782987358763671000,7.386671142578125,0.00037777936086058617,-0.0011972589418292046,-0.0007715680985711515
1782987358773746000,7.396745849609375,-0.000017167418263852596,-0.0010249523911625147,0.0015927862841635942
1782987358783820000,7.406820068359375,-0.0010998838115483522,-0.00030926510225981474,0.0003497525758575648
1782987358793894000,7.416893798828125,0.0004066664259880781,0.0007232425268739462,0.0009492301614955068
1782987358803969000,7.426968994140625,0.0006423869635909796,0.0007423011120408773,0.0006190930143930018
1782987358814043000,7.43704296875,-0.002486560959368944,0.002404113532975316,0.0010140398517251015
1782987358824117000,7.447116943359375,-0.00038543279515579343,-0.0005117092514410615,0.00011920024553546682
1782987358834192000,7.45719189453125,0.00010192568879574537,0.0005229287780821323,0.0024846200831234455
1782987358844266000,7.467265869140625,0.0007505835965275764,0.0035234736278653145,-0.00013080803910270333
1782987358854341000,7.477341064453125,0.0004967843415215611,0.0027144053019583225,-0.0033673476427793503
1782987358864415000,7.4874150390625,0.0013272478245198727,-0.0001571952598169446,0.0021540638990700245
1782987358874488800,7.49748876953125,0.0006555987056344748,0.000046536559239029884,-0.0009533123811706901
1782987358884564000,7.50756396484375,0.0010223588906228542,-0.002428770996630192,-0.0012524258345365524
1782987358894637800,7.517637939453125,-0.0014250860549509525,0.0012802132405340672,-0.00046998902689665556
1782987358904713000,7.527712890625,-0.000645969994366169,0.00013998919166624546,-0.0014551053754985332
1782987358914786800,7.537786865234375,0.0006720284000039101,-0.0007311308290809393,0.0005795496981590986
1782987358924861000,7.54786083984375,0.0008189087966457009,0.0006604313384741545,-0.0009109134553000331
1782987358934935800,7.557935791015625,0.0003560513723641634,0.00046522170305252075,0.0015919252764433622
1782987358945010000,7.568010009765625,-0.000709023792296648,0.0026070899330079556,-0.0006551690166816115
1782987358955084800,7.578084716796875,-0.00023870955919846892,-0.0010736648691818118,-0.00016567998682148755
1782987358965159000,7.588158935546875,0.0012636483879759908,-0.0022941655479371548,-0.0004122824757359922
1782987358975232800,7.598232666015625,-0.001038121641613543,-0.00037988543044775724,0.0021488794591277838
1782987358985308000,7.608307861328125,0.0009559063473716378,0.0018941788002848625,-0.0012416813988238573
1782987358995381800,7.6183818359375,0.0005380563670769334,-0.0017050832975655794,0.0015487788477912545
1782987359005457000,7.628456787109375,0.0013172432081773877,-0.002623660257086158,0.0018091695383191109
1782987359015530800,7.63853076171875,0.00004744797479361296,-0.0008939371909946203,-0.0013927490217611194
1782987359025604900,7.64860498046875,0.0006740016397088766,-0.00030499312561005354,0.0026689914520829916
1782987359035679700,7.6586796875,0.001186393783427775,-0.00045279855839908123,-0.0022868849337100983
1782987359045753900,7.66875390625,-0.0012396350502967834,-0.0007321290904656053,-0.0002531761128921062
1782987359055828700,7.678828857421875,0.0001012666616588831,-0.00010655249934643507,-0.0024063419550657272
1782987359065902800,7.68890283203125,0.0015274275792762637,-0.0009371216874569654,-0.0002805410767905414
1782987359075977000,7.69897705078125,-0.0027890237979590893,0.00041230209171772003,0.0006294610211625695
1782987359086051800,7.7090517578125,-0.0007557158824056387,-0.0033005266450345516,-0.0017451825551688671
1782987359096126000,7.7191259765625,0.0021628423128277063,-0.0017300606705248356,0.00021383879357017577
1782987359106200000,7.729199951171875,-0.0004727524355985224,0.0006889011710882187,-0.00027105837943963706
1782987359116275000,7.73927490234375,0.0003328537568449974,0.002369622001424432,0.003551110392436385
1782987359126349000,7.74934912109375,0.0013224646681919694,-0.0014896979555487633,0.00016268414037767798
1782987359136424000,7.759423828125,-0.0007603935082443058,0.0016775995027273893,0.0004806655633728951
1782987359146498000,7.769498046875,0.001157415215857327,-0.0008009078446775675,-0.0001997786748688668
1782987359156572000,7.779572021484375,-0.0002774960012175143,0.001939750974997878,0.0020905397832393646
1782987359166647000,7.78964697265625,0.0009569586254656315,0.0007171421311795712,0.0006156280869618058
1782987359176721000,7.799720947265625,-0.0009298910154029727,0.0010899847839027643,-0.00005389057332649827
1782987359186796000,7.809796142578125,0.002662472892552614,0.0003544522915035486,-0.000028073307476006448
1782987359196870000,7.819869873046875,0.002179908100515604,-0.0018759450176730752,0.0020201639272272587
1782987359206944000,7.829944091796875,0.002620445564389229,0.0010577868670225143,-0.0009174292208626866
1782987359217019000,7.840018798828125,-0.000603044405579567,0.0017683182377368212,-0.0010529841529205441
1782987359227093000,7.850093017578125,0.000213074148632586,-0.001164475455880165,0.0013856592122465372
1782987359237167900,7.86016796875,0.0002628753427416086,0.001371386693790555,0.0012045642361044884
1782987359247242000,7.870241943359375,0.0008323744405061007,0.00046867644414305687,0.0015527852810919285
1782987359257315800,7.88031591796875,-0.0014379704371094704,0.00035788887180387974,-0.0009934630943462253
1782987359267391000,7.890390869140625,-0.0016853457782417536,-0.001340530812740326,0.0015680833021178842
1782987359277464800,7.90046484375,0.0014723642962053418,0.0023500777315348387,0.0023899348452687263
1782987359287539000,7.9105390625,0.0005391133017838001,-0.002346126828342676,0.001994649413973093
1782987359297613800,7.92061376953125,0.00040409108623862267,-0.0020955235231667757,0.002408771077170968
1782987359307688000,7.93068798828125,0.0015725172124803066,-0.0001993830082938075,0.00024729681899771094
1782987359317762800,7.9407626953125,-0.0012919788714498281,0.002691744826734066,0.0004755297559313476
1782987359327837000,7.9508369140625,0.0012900442816317081,-0.0009872952941805124,0.0012566274963319302
1782987359337910800,7.960910888671875,0.003585156286135316,-0.00007436377927660942,0.002017226302996278
1782987359347986000,7.97098583984375,-0.0010896482272073627,0.0003398992121219635,0.0007224461296573281
1782987359358059800,7.981059814453125,-0.00028777046827599406,0.0019513778388500214,-0.0013369763037189841
1782987359368135000,7.991135009765625,-0.0009759048698469996,-0.0009284700499847531,-0.0002369106514379382
1782987359378208800,8.001208740234375,0.001215610420331359,-0.0006999708712100983,-0.000429457169957459
1782987359388283100,8.011283203125,-0.0006967809749767184,0.0005899239331483841,0.0015215675812214613
1782987359398357800,8.021357666015625,0.00019191589672118425,-0.002718521049246192,0.0009892017114907503
1782987359408432000,8.03143212890625,-0.0008560590213164687,0.00037419027648866177,0.0011621974408626556
1782987359418506800,8.0415068359375,0.0020326715894043446,-0.0004085127729922533,0.00022929208353161812
1782987359428581000,8.0515810546875,-0.00004391535185277462,-0.002230457728728652,-0.00011234184785280377
1782987359438655000,8.061655029296874,0.0006935138953849673,0.0012708001304417849,-0.0002710662374738604
1782987359448730000,8.071730224609375,-0.00042605301132425666,-0.0003277411451563239,0.0007379812886938453
1782987359458804000,8.081803955078126,-0.0009749305318109691,-0.0004363980842754245,0.0016024434007704258
1782987359468879000,8.091879150390625,-0.00006359303370118141,0.00014373823069036007,-0.001153179444372654
1782987359478953500,8.101953369140626,0.0005215033888816833,0.0006627882830798626,-0.0006226776749826968
1782987359489027300,8.11202734375,-0.0004755691043101251,-0.0014430515002459288,0.0033148028887808323
1782987359499102500,8.1221025390625,0.0015311228344216943,-0.0020294797141104937,0.0003983750066254288
1782987359509176300,8.13217626953125,0.0003963010385632515,0.0021283584646880627,0.0002597722632344812
1782987359519250400,8.14225048828125,0.0012205494567751884,-0.00033160322345793247,0.0010571227176114917
1782987359529325300,8.1523251953125,-0.0001877725007943809,0.0001684483140707016,0.0006789396284148097
1782987359539399400,8.1623994140625,-0.002791012404486537,-0.0009503456531092525,-0.001806588494218886
1782987359549474300,8.172474365234375,-0.0005659912712872028,0.0006772147025913,0.00298911496065557
1782987359559548400,8.18254833984375,-0.0008229863597080112,-0.000628266716375947,0.000117694609798491
1782987359569622300,8.192622314453125,-0.0015829391777515411,-0.0008043615380302072,-0.0007876162999309599
1782987359579697400,8.202697509765626,-0.0009834617376327515,-0.00046640634536743164,-0.0010129197034984827
1782987359589771300,8.212771240234375,0.0012935814447700977,-0.0006834483938291669,-0.0027041519060730934
1782987359599846400,8.222846435546876,-7.149064913392067e-7,-0.0003873049281537533,-0.0003288786974735558
1782987359609920300,8.232920166015624,0.000384159036912024,-0.0006411479553207755,-0.0002707640524022281
1782987359619994400,8.242994384765625,0.0021719392389059067,-0.0008837619097903371,0.0032805614173412323
1782987359630069200,8.2530693359375,-0.000957458047196269,-0.0007361073512583971,0.0006356308585964143
1782987359640143400,8.263143310546875,-0.0009803612483665347,0.0018136030994355679,0.000506733893416822
1782987359650218200,8.27321826171875,-0.001795662334188819,-0.0005286603700369596,-0.0004478462506085634
1782987359660292400,8.283292236328125,-0.0005975061794742942,0.0015749705489724874,-0.0009802122367545962
1782987359670366200,8.2933662109375,0.0001560603268444538,0.0017973699141293764,-0.0012871217913925648
1782987359680441300,8.30344140625,-0.0007475502206943929,-0.00022396922577172518,0.00027961586602032185
1782987359690515200,8.31351513671875,0.0018374802311882377,-0.0012192265130579472,0.00033338760840706527
1782987359700590300,8.32359033203125,0.000523210153914988,0.0031747231259942055,0.0004806604119949043
1782987359710664200,8.333664306640625,-0.00022730324417352676,-0.00048243021592497826,0.001360761933028698
1782987359720738300,8.34373828125,0.0006494093686342239,-0.00001557823270559311,0.0047379168681800365
1782987359730813200,8.353813232421874,-0.0008035952341742814,0.0008575988467782736,0.0016101289074867964
1782987359740887300,8.36388720703125,0.0005136042600497603,-0.0000734422355890274,0.001115047256462276
1782987359750961400,8.37396142578125,-0.0017590856878086925,0.0006892969831824303,-0.0008287436794489622
1782987359761036300,8.384036376953125,0.0025549689307808876,-0.0007560004014521837,0.002724978607147932
1782987359771110400,8.3941103515625,0.0005054913926869631,0.0005503545980900526,0.0005119317793287337
1782987359781185300,8.404185302734374,-0.00003486394416540861,-0.00012342515401542187,0.0006501498282887042
1782987359791259400,8.41425927734375,0.001629627775400877,-0.00014838518109172583,-0.0009810507763177156
1782987359801333200,8.424333251953126,0.0024573381524533033,-0.0003390675410628319,-0.0011088827159255743
1782987359811408400,8.434408447265625,0.0005474642384797335,-0.0007782235043123364,0.0015721517847850919
1782987359821482200,8.444482177734375,0.00004705623723566532,0.002621834399178624,0.0007766655180603266
1782987359831557400,8.454557373046875,0.000636627315543592,-0.0006926442729309201,0.00029220295255072415
1782987359841631200,8.46463134765625,0.00004354130942374468,-0.0009291330352425575,0.0005377464112825692
1782987359851705300,8.474705322265624,0.001012487686239183,-0.0015207112301141024,0.00024980842135846615
1782987359861780500,8.484780517578125,-0.0004439951735548675,0.0009584254585206509,0.0006498152506537735
1782987359871854300,8.494854248046876,-0.001523918705061078,0.001514313044026494,-0.001052205334417522
1782987359881929500,8.504929443359375,-0.0014216533163562417,0.0006330730393528938,-0.0016482206992805004
1782987359892003300,8.51500341796875,0.0013226706068962812,0.00004932098090648651,-0.00034313611104153097
1782987359902077200,8.5250771484375,0.0012379821855574846,-0.002246057614684105,0.00148272723890841
1782987359912152300,8.53515234375,-0.0005017647636123002,-0.0008944828296080232,-0.0017036888748407364
1782987359922226200,8.54522607421875,0.0002559046261012554,0.00037477980367839336,0.0012686651898548007
1782987359932300300,8.55530029296875,-0.0000065568601712584496,0.0015335571952164173,0.0003165472880937159
1782987359942375200,8.565375244140625,0.0013932007132098079,0.0011628451757133007,-0.000027799454983323812
1782987359952449300,8.57544921875,0.000615259981714189,-0.0010372984688729048,-0.0030227317474782467
1782987359962524200,8.585524169921875,-0.002642584964632988,-0.0007382255280390382,-0.003945250995457172
1782987359972598300,8.595598388671876,0.0005013339687138796,-0.001933764899149537,-0.0011875330237671733
1782987359982672100,8.605672119140625,-0.0009226581896655262,0.0002585493493825197,0.0004998458898626268
1782987359992747300,8.615747314453126,-0.0026536164805293083,0.0005928019527345896,-0.0018382095731794834
1782987360002821000,8.625821044921874,0.0001416373997926712,-0.000732653308659792,0.00028459608438424766
1782987360012896300,8.635896240234375,-0.0005498456303030252,-0.00017957238014787436,0.0007624459685757756
1782987360022970000,8.64597021484375,0.0006413863738998771,-0.0023401950020343065,-0.0011659490410238504
1782987360033044200,8.656044189453125,-0.0020820130594074726,0.00043415604159235954,-0.0007467061514034867
1782987360043119000,8.666119140625,-0.0004502941737882793,-0.0008990223286673427,-0.0023163731675595045
1782987360053193200,8.676193115234375,-0.0006200133357197046,-0.0006496307905763388,-0.0005746028618887067
1782987360063268000,8.68626806640625,0.0008433936163783073,-0.0035348995588719845,0.00033033924410119653
1782987360073342200,8.69634228515625,-0.001030665822327137,-0.0001763439504429698,0.003645932534709573
1782987360083416300,8.706416259765625,0.0018868271727114916,0.0007160813547670841,0.0019257967360317707
1782987360093491200,8.7164912109375,0.0011013209586963058,-0.0011227165814489126,-0.001735279569402337
1782987360103565300,8.7265654296875,-0.0010284089948982,-0.003554715309292078,0.0004445177619345486
1782987360113640200,8.73664013671875,-0.0012062749592587352,-0.001494276337325573,-0.0013488526456058025
1782987360123714300,8.74671435546875,-0.00010798731818795204,-0.00004525040276348591,-0.0015720255905762315
1782987360133788400,8.756788330078125,-0.0011873372131958604,0.001450663898140192,-0.0033811796456575394
1782987360143863300,8.76686328125,0.0004923184169456363,-0.00011713895946741104,-0.0014799488708376884
1782987360153937400,8.7769375,0.0031758472323417664,-0.0052002957090735435,-0.0005776462494395673
1782987360164011300,8.78701123046875,0.0005028324667364359,-0.0059824660420417786,-0.0012274575419723988
1782987360174086400,8.79708642578125,0.0015812560450285673,-0.0013721631839871407,0.002037249505519867
1782987360184160300,8.80716015625,-0.0009061364689841866,-0.00011781428474932909,0.0023722751066088676
1782987360194235400,8.8172353515625,0.0008453571936115623,-0.005853505339473486,-0.002093619666993618
1782987360204309200,8.827309326171875,-0.0013693274231627584,-0.014073352329432964,-0.005064375698566437
1782987360214383400,8.83738330078125,-0.0010810812236741185,-0.007876351475715637,-0.003767730202525854
1782987360224458200,8.847458251953125,-0.0008091724012047052,-0.0016006117220968008,0.0003385978634469211
1782987360234532400,8.857532470703125,0.0010762611636891961,-0.0018534730188548565,-0.0033094550017267466
1782987360244607200,8.867607177734374,-0.000824969494715333,-0.010956689715385437,-0.0024545802734792233
1782987360254681300,8.877681396484375,0.005105134565383196,-0.011777245439589024,-0.004781478550285101
1782987360264755200,8.887755126953126,0.0035754148848354816,0.0017486836295574903,-0.003253889037296176
1782987360274830300,8.897830322265625,-0.0003406296600587666,0.0060258484445512295,-0.001936252461746335
1782987360284904200,8.907904296875,-0.0014024319825693965,0.002158405724912882,0.0001300942967645824
1782987360294979300,8.917979248046874,-0.002668831730261445,-0.026472637429833412,-0.01044047623872757
1782987360305053200,8.92805322265625,-0.002761509735137224,-0.02057240530848503,-0.01450738962739706
1782987360315127300,8.938127197265626,-0.0014941947301849723,0.004674779251217842,-0.008677318692207336
1782987360325202200,8.9482021484375,0.0002062335843220353,0.009947305545210838,-0.00987068098038435
1782987360335276300,8.9582763671875,-0.0023679453879594803,-0.005834490060806274,-0.008018840104341507
1782987360345350100,8.96835009765625,-0.00017536472296342254,-0.013970447704195976,-0.013080177828669548
1782987360355425300,8.97842529296875,-0.0003424142487347126,-0.007565198466181755,-0.013343858532607555
1782987360365499100,8.9884990234375,-0.0003282994730398059,0.004579083062708378,0.0009160377667285502
1782987360375574300,8.99857421875,-0.0005273677525110543,0.00836009718477726,0.007116581313312054
1782987360385648000,9.008648193359376,-0.0011729180114343762,0.006028765346854925,-0.004568037576973438
1782987360395722500,9.018722412109375,0.001468638889491558,-0.01097801886498928,-0.004258117638528347
1782987360405796400,9.02879638671875,0.00068300636485219,-0.008765198290348053,0.002696195151656866
1782987360415871500,9.03887158203125,-0.0012850211933255196,0.01074301265180111,0.0031790004577487707
1782987360425945300,9.0489453125,0.0001871743006631732,0.006578361615538597,0.0024945680052042007
1782987360436019200,9.059019287109376,-0.0001773450057953596,-0.008009439334273338,0.0001072628510883078
1782987360446094300,9.06909423828125,0.00247569615021348,-0.0037904600612819195,-0.00418495386838913
1782987360456168200,9.079168212890625,0.0020605595782399178,0.005052046850323677,-0.0005012202309444547
1782987360466243300,9.089243408203124,0.0028901342302560806,0.003965476993471384,-0.001486589782871306
1782987360476317000,9.09931689453125,0.002492740284651518,-0.004493534564971924,0.0005091338534839451
1782987360486390800,9.109390869140626,0.0008692772826179862,-0.0028543591033667326,-0.0009558710735291243
1782987360496466000,9.1194658203125,0.0032504256814718246,0.0022321983706206083,-0.0037227266002446413
1782987360506539800,9.129539794921875,0.002326575107872486,0.0018886502366513014,-0.0017447968712076545
1782987360516615000,9.139614990234374,0.004553175996989012,0.0004889639094471931,0.000304286164464429
1782987360526688800,9.149688720703125,-0.00095610530115664,-0.0035755527205765247,-0.0012241019867360592
1782987360536763000,9.159762939453126,0.0012588457902893424,-0.00005325581878423691,-0.002148751635104418
1782987360546837800,9.169837646484375,0.0025390274822711945,0.0010341128800064325,0.000852897297590971
1782987360556911900,9.179911865234375,-0.0011525785084813833,-0.0022656144574284554,-0.00245159980840981
1782987360566985700,9.18998583984375,0.0003236116608604789,0.001093696802854538,-0.002168772043660283
1782987360577060900,9.200060791015625,-0.0008919383981265128,0.0011574893724173307,-0.0007371039828285575
1782987360587134700,9.210134765625,-0.000127877457998693,-0.0008627846837043762,0.002158284652978182
1782987360597209900,9.2202099609375,-0.0009122940246015787,0.0015570165123790503,-0.0005674607818946242
1782987360607283700,9.23028369140625,0.0002850631717592478,-0.0014326480450108647,-0.0010018222965300083
1782987360617358000,9.240358154296874,-0.0010240159463137388,-0.002165408805012703,0.0014438527869060636
1782987360627432700,9.2504326171875,-0.0008581010042689741,-0.00017762533389031887,0.0016973856836557388
1782987360637507000,9.260507080078124,0.0003029563231393695,-0.00010824459604918957,0.0007271505892276764
1782987360647581700,9.270581787109375,-0.000017155660316348076,0.0006419678684324026,0.003236380871385336
1782987360657656000,9.280656005859376,0.0005128964548930526,-0.001415207632817328,-0.002822455484420061
1782987360667730000,9.29072998046875,-0.0004522330709733069,-0.0023124266881495714,-0.0021374905481934547
1782987360677805000,9.30080517578125,0.001146113034337759,-0.0012488765642046928,-0.001157035818323493
1782987360687879000,9.31087890625,0.0000915012788027525,-0.00021556997671723366,-0.004233785904943943
1782987360697954000,9.3209541015625,0.000421217642724514,0.0009675903711467981,-0.003985676448792219
1782987360708028000,9.33102783203125,0.00016715202946215868,-0.003319832496345043,0.002474886365234852
1782987360718102000,9.34110205078125,-0.000966606370639056,-0.003565920516848564,0.0018687013071030378
1782987360728177000,9.351177001953126,0.00015937816351652145,0.0004032545257359743,0.0007272704388014972
1782987360738251000,9.3612509765625,-0.00030261307256296277,-0.00043491192627698183,0.003550706198439002
1782987360748326000,9.371325927734375,0.0010305652394890785,0.0016237115487456322,0.002479582792147994
1782987360758400000,9.38139990234375,-0.0017342452192679048,0.002075765747576952,0.001013367553241551
1782987360768473900,9.391473876953125,0.00044874788727611303,-0.000816160929389298,0.001138269784860313
1782987360778549000,9.401549072265626,0.00033952249214053154,0.000015986384823918343,0.0012939168373122811
1782987360788624000,9.411623779296875,0.00122236052993685,-0.0006282322574406862,-0.000020619496353901923
1782987360798698000,9.421697998046875,-0.0013490855926647782,-0.001758721424266696,0.00041757035069167614
1782987360808771800,9.431771728515624,0.001590245170518756,-0.002685235347598791,-0.0018455839017406106
1782987360818847000,9.441846923828125,0.0012437176192179322,0.0013334616087377071,-0.0017641403246670961
1782987360828920800,9.4519208984375,0.0007483697263523936,0.002130012959241867,-0.002353764371946454
1782987360838996000,9.461995849609375,-0.0024983733892440796,0.004177336115390062,0.00216869474388659
1782987360849069800,9.47206982421875,0.0008281812770292163,0.0011322775389999151,0.0047961692325770855
1782987360859144000,9.48214404296875,0.0006299263332039118,-0.0017478845547884703,0.002933894284069538
1782987360869218800,9.49221875,0.0008621539454907179,-0.00013480789493769407,0.0022009925451129675
1782987360879293000,9.50229296875,0.00042208272498100996,0.002559560351073742,0.002219707239419222
1782987360889367800,9.512367919921875,0.0005685565993189812,0.004449073225259781,-0.0010956620099022985
1782987360899442000,9.52244189453125,-0.00044510868610814214,0.002553236670792103,0.001184052205644548
1782987360909515800,9.532515869140624,0.0002824668772518635,-0.0012617416214197874,-0.0000029186976462369785
1782987360919591000,9.5425908203125,0.0010432652197778225,-0.0025197502691298723,-0.0017424473771825433
1782987360929664800,9.552664794921874,0.0011215622071176767,-0.00040253729093819857,-0.0007578767836093903
1782987360939740000,9.562739990234375,-0.00006670854054391384,0.0041989777237176895,0.0008811034495010972
1782987360949813800,9.572813720703126,-0.001745565328747034,0.0006985189393162727,0.0001327551726717502
1782987360959888000,9.582887939453125,0.0015565870562568307,-0.002066871849820018,0.0033687856048345566
1782987360969962800,9.592962646484375,0.0013757584383711219,-0.002927339170128107,0.000513876904733479
1782987360980036900,9.603036865234374,0.00003214622847735882,0.0006505926139652729,-0.0008826578850857913
1782987360990111000,9.613111083984375,-0.00046400068094953895,0.0002788151614367962,0.0031030289828777313
1782987361000185900,9.623185791015626,-0.0025439132004976273,0.0011421311646699905,0.0036941533908247948
1782987361010260000,9.633260009765625,-0.0007369585218839347,-0.002153264358639717,-0.00029526196885854006
1782987361020334800,9.6433349609375,-0.0011833711760118604,-0.002785703632980585,-0.0006924837362021208
1782987361030409000,9.653408935546874,-0.0015705948462709785,-0.0018519993172958493,0.0026202222798019648
1782987361040483000,9.663483154296875,0.002347148722037673,-0.00032131094485521317,-0.0008976927492767572
1782987361050558000,9.673557861328124,-0.0001881805364973843,0.0036502613220363855,-0.00028836147976107895
1782987361060632000,9.683632080078125,-0.0004929624847136438,0.0009144432842731476,-0.00008349121344508603
1782987361070707000,9.69370703125,0.0015310398302972317,0.0007418703753501177,-0.0015495613915845752
1782987361080781000,9.703781005859375,-0.001594179542735219,-0.002437144983559847,-0.00009174701699521393
1782987361090855000,9.71385498046875,-0.0016445133369415998,0.0015027355402708054,-0.002880875486880541
1782987361100930000,9.723929931640624,-0.0009184710797853768,0.00041051581501960754,0.001274863607250154
1782987361111004000,9.73400390625,0.0014269750099629164,0.003984744660556316,-0.004179023671895266
1782987361121079000,9.7440791015625,-0.00033199123572558165,0.00014500855468213558,0.0015646660467609763
1782987361131153000,9.75415283203125,0.0035655449610203505,-0.001319996314123273,-0.0006753187626600266
1782987361141227000,9.76422705078125,-0.0005343914381228387,-0.00003954838030040264,-0.0013112815795466304
1782987361151302000,9.774302001953124,-0.001576486392877996,0.0020510328467935324,-0.00032431414001621306
1782987361161376000,9.7843759765625,0.00009271560702472925,0.0012316484935581684,0.0026305103674530983
1782987361171449900,9.794449951171876,-0.0013584408443421125,-0.002815557410940528,0.001309049897827208
1782987361181525000,9.80452490234375,-0.0000811718637123704,-0.0007061575306579471,-0.003876413917168975
1782987361191598800,9.814598876953125,-0.0013477712636813521,-0.0012486435007303953,-0.002275321399793029
1782987361201674000,9.824674072265625,-0.001049764920026064,0.0015769803430885077,-0.0007147840224206448
1782987361211747800,9.834747802734375,-0.00037145777605473995,0.002340775215998292,-0.0012111972318962216
1782987361221822000,9.844822021484376,-0.00008911383338272572,0.0024110907688736916,-0.00020839495118707418
1782987361231896800,9.854896728515625,0.00020623067393898964,0.0020813914015889168,-0.0008068072493188083
1782987361241971000,9.864970947265626,0.002516609150916338,0.0025052179116755724,0.0029834529850631952
1782987361252045800,9.8750458984375,0.002400761703029275,-0.0009595546871423721,-0.00140011019539088
1782987361262120000,9.885119873046875,0.00039478251710534096,0.0002597889397293329,-0.0003484772169031203
1782987361272193800,9.89519384765625,0.0014552533393725753,0.0004552651662379503,-0.0036955380346626043
1782987361282269000,9.90526904296875,-0.000794299878180027,-0.000909151160158217,0.0032239840365946293
1782987361292342800,9.9153427734375,-0.0008813851745799184,0.00036517134867608547,-0.0041023725643754005
1782987361302418000,9.92541796875,0.00026976282242685556,-0.0005449544405564666,-0.0012468370841816068
1782987361312491800,9.93549169921875,-0.00012092292308807373,-0.001409416552633047,-0.003464717650786042
1782987361322566100,9.945566162109374,-0.0010091336444020271,-0.0022595245391130447,-0.0010348218493163586
1782987361332640800,9.955640869140625,0.0015775946667417884,0.0017637130804359913,-0.000011102658390882425
1782987361342715100,9.965715087890626,-0.00021156645379960537,0.0008765922393649817,0.0006517830770462751
1782987361352789800,9.975789794921875,-0.002551952376961708,-0.0015956200659275055,0.00019931203860323876
1782987361362864000,9.985864013671875,-0.001642898889258504,0.00008798227645456791,0.0003760730614885688
1782987361372938000,9.99593798828125,0.00003835477400571108,-0.00008112844079732895,-0.0024633894208818674
1782987361383013000,10.00601318359375,-0.0017197326524183154,0.002592026488855481,-0.0017184081953018904
1782987361393087000,10.0160869140625,0.0005333016160875559,0.0009709603618830442,-0.002588196424767375
1782987361403160800,10.026160888671875,0.0010513379238545895,-0.0009377166861668229,-0.0007750662043690681
1782987361413236000,10.036236083984376,-0.0021660267375409603,0.0022136017214506865,-0.0008938431856222451
1782987361423309800,10.046309814453124,0.0005110821221023798,-0.000472427811473608,0.002757108071818948
1782987361433385000,10.056385009765625,-0.002591766882687807,0.0017345338128507137,0.0035770954564213753
1782987361443459000,10.066458984375,0.00004810874816030264,0.0007172534242272377,0.0012338532833382487
1782987361453533000,10.076532958984375,-0.0013276803074404597,0.0011185917537659407,0.0018588971579447389
1782987361463608000,10.086608154296876,-0.0018699667416512966,0.0022627541329711676,0.0009974127169698477
1782987361473682700,10.0966826171875,0.0009511196985840797,0.0005074648652225733,0.0016418977174907923
1782987361483757800,10.1067578125,-0.000045368215069174767,-0.002001834101974964,-0.0025920437183231115
1782987361493831700,10.116831787109374,0.001977036241441965,-0.003361111506819725,-0.0013672561617568135
1782987361503905800,10.12690576171875,-0.0003781473496928811,0.003032558597624302,-0.0037351460196077824
1782987361513980700,10.136980712890624,0.0010756723349913955,0.002963316161185503,0.0021429830230772495
1782987361524054800,10.1470546875,0.0007197236409410834,-0.0023247103672474623,0.0008731887210160494
1782987361534129700,10.157129638671876,0.0012297191424295306,0.000047633424401283264,0.00014854256005492061
1782987361544203800,10.167203857421875,-0.001021233620122075,0.0014290004037320614,0.0006523642223328352
1782987361554277600,10.177277587890625,0.0006222031079232693,0.0024388711899518967,0.0005879157106392086
1782987361564352800,10.187352783203124,0.00011676759459078312,0.0027686741668730974,-0.000882876745890826
1782987361574426600,10.197426513671875,0.00014979077968746424,0.0016163245309144258,0.0018223623046651483
1782987361584501800,10.207501708984376,0.0011230764212086797,0.0021236217580735683,0.00023509458696935326
1782987361594575600,10.21757568359375,-0.0016364909242838621,0.0020996532402932644,0.0005871644825674593
1782987361604649700,10.227649658203125,-0.0017219623550772667,0.00495554693043232,-0.0016174977645277977
1782987361614724600,10.237724609375,-0.00039490917697548866,0.00047051720321178436,-0.0007413178100250661
1782987361624798700,10.247798828125,-0.0011169082717970014,0.0005470302421599627,-0.0003659808717202395
1782987361634872600,10.25787255859375,0.0015166917582973838,0.0014903219416737556,0.002058560959994793
1782987361644947700,10.26794775390625,0.0010092600714415312,0.0021901659201830626,-0.0008855873602442443
1782987361655021600,10.278021484375,-0.0004743869649246335,0.0031773995142430067,0.000015093675756361336
1782987361665096700,10.2880966796875,0.003397770458832383,-0.001430615084245801,-0.000007422343514917884
1782987361675170600,10.298170654296875,-0.011063193902373314,0.03352789953351021,0.2604409158229828
1782987361685244700,10.30824462890625,-0.018450751900672913,0.07764211297035217,0.22534099221229553
1782987361695319600,10.318319580078125,0.008904441259801388,0.03015715628862381,-0.05155079811811447
1782987361705393700,10.3283935546875,0.00777264591306448,-0.08536995947360992,-0.1921912133693695
1782987361715468500,10.338468505859375,0.008529516868293285,-0.05867389589548111,-0.14217118918895721
1782987361725542700,10.348542724609375,0.0007592785404995084,0.037414222955703735,-0.06163306534290314
1782987361735616800,10.35861669921875,0.000466597150079906,0.007987357676029205,-0.010473210364580154
1782987361745692000,10.36869189453125,-0.00598982023075223,-0.03776223957538605,0.016719868406653404
