time,seconds_elapsed,z,y,x
1782986891557466600,0.064466552734375,0.12908932124972342,0.21570815877765415,-0.1381733028721064
1782986891567541500,0.07454150390625,0.12187164495587348,0.28349925397783515,-0.03947539355903864
1782986891577615600,0.08461572265625,0.14759294618964194,0.3333013957619667,-0.09120229286067187
1782986891587690500,0.0946904296875,0.21311434289216993,0.29427637631893155,-0.15301752852164208
1782986891597764600,0.1047646484375,0.2705219912439585,0.20377105274647472,-0.18036942663192748
1782986891607839500,0.114839599609375,0.2959031007379293,0.12944383377581833,-0.22908888774588704
1782986891617913600,0.12491357421875,0.330072496843338,0.06824526870846748,-0.33159729525782167
1782986891627987700,0.13498779296875,0.36386838346123695,-0.03690320498347282,-0.46129707655608654
1782986891638062600,0.1450625,0.3652747431278229,-0.1078933884859085,-0.44217656182684
1782986891648136700,0.15513671875,0.2687672565311193,-0.11408581338524817,-0.48112793151177463
1782986891658211600,0.165211669921875,0.2287134785622358,-0.08181465211659669,-0.545186562185362
1782986891668285700,0.17528564453125,0.19990590175092218,-0.06993366018682717,-0.6496881893411278
1782986891678360600,0.185360595703125,0.13355097683370112,-0.12836451410651206,-0.6341684025175869
1782986891688434700,0.1954345703125,0.07365326523184776,-0.10520429553240537,-0.5495987526044249
1782986891698509600,0.205509521484375,0.08031739929616451,-0.08689356281608343,-0.500640368168056
1782986891708583700,0.215583740234375,0.1492944894105196,-0.027438626545667647,-0.41418578129112715
1782986891718658600,0.225658447265625,0.22542671197652817,-0.007887538379430771,-0.32150004493966694
1782986891728732700,0.235732666015625,0.25344810684621333,-0.06788461870253086,-0.25224727968908844
1782986891738807600,0.2458076171875,0.23510288733839987,-0.03676993399262428,-0.18700616123266517
1782986891748881700,0.255881591796875,0.1626139897108078,-0.0229658650457859,-0.1452756091579795
1782986891758956500,0.26595654296875,0.08692892639040946,0.020324118365347383,-0.058467094276845454
1782986891769030700,0.27603076171875,0.07519757206439971,0.06139584120512008,-0.038800782233104104
1782986891779104500,0.2861044921875,0.1012532198190689,0.047401802644133566,-0.04159720801860094
1782986891789179600,0.2961796875,0.08696867387890815,-0.022394202637672424,-0.02903166789077222
1782986891799253500,0.30625341796875,0.02031213566660881,0.00675122782588005,-0.02558364632874727
1782986891809328600,0.31632861328125,-0.09008359102904796,-0.031272797881066794,-0.057600175249204036
1782986891819402500,0.326402587890625,-0.19447744696140287,-0.021984745053946972,-0.04211670184805989
1782986891829477600,0.3364775390625,-0.17253858687579632,0.018787410317361353,-0.06975669618472456
1782986891839551500,0.346551513671875,-0.10165361731350421,-0.0027481296643614766,-0.0745285136964172
1782986891849626600,0.356626708984375,-0.039682022047042846,-0.03779781573563814,-0.06272877030931413
1782986891859700700,0.36670068359375,-0.008009703454375267,-0.09306377588361502,-0.05537606945894658
1782986891869775600,0.376775634765625,-0.0033498949497938156,-0.09991641825735569,-0.07662738567180931
1782986891879849700,0.386849609375,-0.010335516053438186,-0.11850889052450657,-0.06728058839477598
1782986891889924600,0.396924560546875,-0.03548515487909317,-0.0851502262800932,-0.0307982391718775
1782986891899998700,0.406998779296875,-0.02320434997677803,-0.0596805617198348,0.003334770445898175
1782986891910073600,0.417073486328125,-0.13358955527842045,-0.054984512858092784,0.08313369882591068
1782986891920147700,0.427147705078125,-0.2942909893661737,0.014163549908995628,0.1639985759370029
1782986891930221600,0.4372216796875,-0.3924076647251844,0.09397796811908483,0.15968063967265186
1782986891940296700,0.447296630859375,-0.3513303889274597,0.16177257045060395,0.20058928090520203
1782986891950370600,0.45737060546875,-0.23194588461220264,0.1589016911894083,0.2332695344313979
1782986891960445700,0.46744580078125,-0.09780512519180774,0.00663227762132883,0.12525967995896936
1782986891970519600,0.47751953125,0.0002408230185508728,-0.07979775933623313,0.012612155748531221
1782986891980594700,0.4875947265625,0.12367314141988754,-0.11336042172014713,-0.14792583140581844
1782986891990668500,0.49766845703125,0.2758744581878185,-0.13364917651116848,-0.22548655240498483
1782986892000743700,0.50774365234375,0.4117319583982229,-0.12760054399669168,-0.26662038069553673
1782986892010817500,0.517817626953125,0.4653337847262621,-0.17339549596607684,-0.32157902846001085
1782986892020892700,0.527892578125,0.4732663312911987,-0.18261808234155177,-0.34203868283852934
1782986892030966500,0.537966552734375,0.4397650437057018,-0.20416531276106833,-0.34376908682771024
1782986892041041700,0.548041748046875,0.41452305042147636,-0.21299276233911513,-0.34652876079939304
1782986892051115500,0.558115478515625,0.36536475949883457,-0.18447510838508605,-0.3099494540080428
1782986892061191400,0.56819140625,0.32976912998259067,-0.20215455746054647,-0.26874446017742154
1782986892071265300,0.578265380859375,0.25953356423974033,-0.2162485492646694,-0.2659614053301513
1782986892081340400,0.58834033203125,0.2002881790667772,-0.17307985414564608,-0.2565781485002488
1782986892091414300,0.598414306640625,0.17599895646274089,-0.16624445516765116,-0.2684614054523408
1782986892101489400,0.608489501953125,0.17047697817087173,-0.1165332065373659,-0.24253581381812692
1782986892111563300,0.618563232421875,0.1744517270207405,-0.03410100704431534,-0.2087908536698669
1782986892121637400,0.628637451171875,0.12979776178002356,-0.0010462941825389862,-0.22302001616097986
1782986892131712300,0.638712158203125,0.10385551127195358,0.00799216779768467,-0.201464017913118
1782986892141786400,0.648786376953125,0.07854980510175227,0.057091422009468075,-0.04589680490866303
1782986892151861200,0.658861328125,0.08859422925412655,0.08209434584081172,0.031922713157162066
1782986892161935400,0.668935302734375,0.03228431301116943,0.07882160778045653,0.07629121252000332
1782986892172010200,0.67901025390625,-0.1066997947871685,0.09011749329864978,0.00952529564909637
1782986892182084400,0.68908447265625,-0.2088029094338417,0.10543255133032799,-0.09661978786475955
1782986892192159200,0.6991591796875,-0.22384382669925687,0.0913192703038454,-0.21627375677116215
1782986892202233300,0.7092333984375,-0.1919973205834627,0.08039689427316188,-0.2321062628056854
1782986892212308200,0.71930810546875,-0.2132733328461647,0.06236205588877201,-0.1644805873002857
1782986892222382300,0.72938232421875,-0.2655260826528072,0.040298108118772505,-0.08198467492125928
1782986892232457200,0.739457275390625,-0.28516251101493834,0.06771627639830112,-0.048437721563130615
1782986892242531300,0.74953125,-0.1822112551063299,0.09525953236222266,-0.09501045297197996
1782986892252606200,0.759606201171875,-0.021926585125923156,0.13292378484606743,-0.09566811316311359
1782986892262680300,0.769680419921875,0.09748188458681106,0.15050328067839144,-0.0913631825108081
1782986892272754200,0.779754150390625,0.1270510934203863,0.13533376859724522,-0.08527684833444654
1782986892282829300,0.789829345703125,0.10093407086730002,0.07481763283610343,-0.09024616117961705
1782986892292903200,0.799903076171875,0.06009703356623649,0.04044131598174572,-0.11388831805177033
1782986892302978300,0.809978271484375,0.0014133739292621612,0.002520458388328552,-0.11600713683664798
1782986892313052200,0.82005224609375,0.027234043884277342,0.030761048966646193,-0.09408552014678716
1782986892323127300,0.830127197265625,0.14188976611196993,0.0957896937161684,-0.08217237951308488
1782986892333201200,0.840201171875,0.23050270006656645,0.1204676233768463,-0.0616632599696517
1782986892343276300,0.8502763671875,0.24091771109700202,0.07622925319969653,0.014710370136797428
1782986892353350100,0.86035009765625,0.1689537141263485,-0.0020645313143730164,0.12528064968176186
1782986892363425300,0.87042529296875,0.07484335179924964,0.0026198271095752715,0.18555939649045466
1782986892373499100,0.8804990234375,0.34874972478449345,0.08444295479357242,0.2807428679417819
1782986892383574300,0.89057421875,0.5001765500485896,-0.00885083045363426,0.40185704559385776
1782986892393648000,0.900648193359375,0.4893962128371,-0.1421434486120939,0.19859014297723768
1782986892403723300,0.91072314453125,0.4447399095088243,-0.19847499216496944,0.11085581848807632
1782986892413797000,0.920797119140625,0.43079146365523335,-0.26078093395233154,-0.048500119274854654
1782986892423872300,0.930872314453125,0.4547288040816784,-0.2783101609021425,-0.2093112242821604
1782986892433946000,0.940946044921875,0.41544951761662957,-0.26359014615416526,-0.11599939192160963
1782986892444020200,0.951020263671875,0.314372823408246,-0.31798809129595756,0.10403517868779599
1782986892454095000,0.96109521484375,0.10799041911959648,-0.33166648803651333,0.10583879404366016
1782986892464169200,0.971169189453125,-0.10226268912255763,-0.2451367900967598,-0.006148147366195917
1782986892474244000,0.981244140625,-0.24851065044403076,-0.09668576577305793,0.03240801245607435
1782986892484318200,0.991318115234375,-0.3358493266791105,0.06107844581902027,0.11388853724747895
1782986892494393300,1.001393310546875,-0.4032359327316284,0.08601122702360153,0.12149769707694649
1782986892504467200,1.01146728515625,-0.4241244069814682,-0.017839608073234557,0.0692640903621912
1782986892514542300,1.021542236328125,-0.4120411704778671,-0.1763560993373394,-0.05433372079916298
1782986892524616200,1.0316162109375,-0.2555447868645191,-0.2354325576841831,-0.16362134012244642
1782986892534691300,1.04169140625,-0.0494914683997631,-0.19989830296635627,-0.1839719081033021
1782986892544765200,1.05176513671875,0.1455214006125927,-0.16726503038704393,-0.1371025318354368
1782986892554840300,1.06184033203125,0.27725919054448606,-0.177196057292819,-0.12628726944103835
1782986892564914200,1.0719140625,0.37432372650206086,-0.1628881304770708,-0.128580056553334
1782986892574989300,1.0819892578125,0.4349035751491785,-0.14682546894848345,-0.07289002577438951
1782986892585063200,1.092063232421875,0.4254039253979921,-0.12658289138674736,-0.006162322022020816
1782986892595138300,1.10213818359375,0.34887072081565856,-0.07958674693405628,-0.020937062631919977
1782986892605212200,1.112212158203125,0.22984978911578655,-0.03485562480390072,-0.056729237633571024
1782986892615286300,1.122286376953125,0.11483341688215731,0.027030045744776725,-0.0473432773899287
1782986892625361200,1.132361083984375,0.008738602250814437,0.050722471499443054,-0.02766264455989003
1782986892635435300,1.142435302734375,-0.1397252815544605,0.010470540609955788,0.002680690451338887
1782986892645510100,1.15251025390625,-0.23015432502031324,-0.019447043269872663,-0.05279613596834242
1782986892655584300,1.162584228515625,-0.24958558619916438,0.03968319109082222,-0.13710428540110586
1782986892665659100,1.1726591796875,-0.18452829987704752,0.14043664469420908,-0.13722316254042088
1782986892675733200,1.182733154296875,-0.1361702194213867,0.1768792464286089,-0.09986907198429107
1782986892685808000,1.19280810546875,-0.09405424822568893,0.1436029997706413,-0.0656632163260132
1782986892695882200,1.20288232421875,-0.061577042990922926,0.0889314983844757,-0.07659801344685256
1782986892705957000,1.21295703125,0.009664484924077987,0.03831307178139686,-0.1429235661391169
1782986892716031200,1.22303125,0.06270458571612834,0.01180500408411026,-0.21770576233565805
1782986892726106000,1.233106201171875,0.1589794326007366,0.013707622835040092,-0.2568064773634076
1782986892736180200,1.24318017578125,0.2386392447710037,0.044701311513781546,-0.22966244985014198
1782986892746255000,1.253255126953125,0.21947160296440124,-0.005585691177845001,-0.25307269766256213
1782986892756329200,1.2633291015625,0.1488981835693121,-0.03896013751327991,-0.24186617092825471
1782986892766404000,1.273404052734375,0.12801964619159698,-0.030032734692096708,-0.258314543838799
1782986892776478200,1.283478271484375,0.07177285831272602,0.02460954059958458,-0.2413240268755704
1782986892786552000,1.293552001953125,-0.12800854027569294,0.07531564548611641,-0.19890878047235308
1782986892796627200,1.303627197265625,-0.2819476406216621,0.07090776591598986,-0.25096264670602975
1782986892806701000,1.313701171875,-0.29284312864542006,0.0974631798863411,-0.28589045996330675
1782986892816776200,1.323776123046875,-0.17529402306377886,0.12166004803180694,-0.29474633191823957
1782986892826850000,1.33385009765625,0.014637012639641761,0.09934417132735252,-0.2783716087657958
1782986892836925200,1.34392529296875,0.17916823414862154,0.0995277112007141,-0.17567798088006675
1782986892846999300,1.353999267578125,0.20662965704798697,0.06009469547867775,-0.04880129417851567
1782986892857074200,1.36407421875,0.12475216882824897,0.050773324903845785,0.07695778666995465
1782986892867148300,1.374148193359375,0.023891747719049453,0.025782676032185554,0.17053185016326605
1782986892877223200,1.38422314453125,-0.06548690991103649,-0.011397007805109024,0.23745588020533323
1782986892887297300,1.39429736328125,-0.14790391183495522,-0.08248597550690173,0.22385924346409736
1782986892897372200,1.4043720703125,-0.17926760286986826,-0.09214519973397255,0.1620612511988729
1782986892907446300,1.4144462890625,-0.15487316632568834,-0.04332826959490776,0.1485433057170361
1782986892917521200,1.424521240234375,0.039863808354735374,0.04564180723428726,0.04679974509775638
1782986892927595300,1.43459521484375,0.3941244055151939,0.08788520420193671,0.03528875552415848
1782986892937669400,1.44466943359375,1.032042369824648,-0.11328677196204662,0.2500679628886282
1782986892947744300,1.454744140625,0.9952250895589589,-0.3354670493632555,0.3847527660578489
1782986892957818400,1.464818359375,0.590514992621541,-0.2932283285707235,0.24774485370330512
1782986892967893200,1.474893310546875,0.04320201286673546,-0.014598434194922447,0.16313830584585665
1782986892977967400,1.48496728515625,-0.20823475415706633,0.09128361446857453,0.06706460755653679
1782986892988042200,1.495042236328125,-0.18086217858493328,0.06259118846952914,0.11471161713339388
1782986892998116400,1.505116455078125,-0.14944295797049997,0.06931903541982173,0.18754355604499579
1782986893008191200,1.515191162109375,-0.139220839163661,0.16466273893415928,0.054230114294216036
1782986893018265300,1.525265380859375,-0.10360650494694709,0.18372925845384597,-0.02695354644246399
1782986893028340200,1.53534033203125,-0.03820902688503265,0.14822422983050346,0.0585085953310132
1782986893038414300,1.545414306640625,0.012018354573845863,0.08313713289201259,0.12375906613767146
1782986893048489200,1.5554892578125,0.01973521256148815,0.004907061263918876,0.10605470181666314
1782986893058563300,1.565563232421875,-0.014381576573848724,-0.02104629516005516,0.0219545691113919
1782986893068638200,1.57563818359375,-0.01661854184567928,0.041675826212763785,-0.021569807577505706
1782986893078712000,1.585712158203125,0.09264671951532363,0.12499182280302047,-0.05539499335512518
1782986893088787200,1.595787109375,0.21438860061168669,0.15912556307315825,-0.11727737596817314
1782986893098861000,1.605861083984375,0.31514673039019103,0.15453180554211138,-0.13173369827866555
1782986893108935200,1.61593505859375,0.3469482283204794,0.11502397101819514,-0.14967333266027272
1782986893119010000,1.626010009765625,0.3317740400642156,0.061056233987212175,-0.1397115452900529
1782986893129084200,1.636084228515625,0.3057932111114263,0.04536240577101707,-0.12441110030561685
1782986893139159000,1.646158935546875,0.27354747654497624,0.022020693150162696,-0.10118789949789643
1782986893149233200,1.656233154296875,0.190001178330183,-0.0041167876690626146,-0.0649989071983844
1782986893159308000,1.66630810546875,0.04004150300920009,-0.05815291376113891,-0.014677856106683611
1782986893169382100,1.676382080078125,-0.17806173421144483,-0.077367901840806,-0.002176540321484208
1782986893179457000,1.68645703125,-0.30758360165953635,-0.0645493367999792,-0.021297785703092813
1782986893189531100,1.69653125,-0.33356443061232566,-0.03495966970026493,-0.012515563506260513
1782986893199606300,1.706606201171875,-0.23546938256323335,-0.009755085816979408,-0.03978950100950897
1782986893209680100,1.71668017578125,-0.1107604683548212,-0.022964111480116844,-0.012239376913383603
1782986893219755300,1.72675537109375,-0.04742284543216228,-0.045508536243438716,0.011696867534518242
1782986893229829000,1.7368291015625,-0.0004465747237205505,-0.06235270353853702,-0.009339490753412246
1782986893239904300,1.746904296875,0.05684066211879253,-0.04368833507895469,-0.020048808555305005
1782986893249978000,1.75697802734375,0.14074351868629456,-0.015519056171178817,0.03170373664423823
1782986893260053200,1.76705322265625,0.21648352706432342,-0.01094751047194004,0.08416004619896411
1782986893270127000,1.777127197265625,0.28484745371639725,-0.0031827216893434524,0.09584968027509748
1782986893280201000,1.787200927734375,0.32535189806222914,-0.010583353334665297,0.0810086694959551
1782986893290276000,1.797276123046875,0.32716274687647817,-0.018014964640140532,0.0757193309161812
1782986893300350000,1.807349853515625,0.2778285148650408,0.0015431377887725828,0.06342617798894644
1782986893310425000,1.817425048828125,0.2629997790455818,0.031169629767537115,0.027067382080480453
1782986893320499200,1.827499267578125,0.29693185926377774,0.033684827458858486,-0.006005597090348601
1782986893330574000,1.837573974609375,0.3096984018564224,-0.005740589478611946,-0.05925407993607223
1782986893340648200,1.847648193359375,0.2923521302580833,-0.021315759751200675,-0.08763539415933191
1782986893350723000,1.85772314453125,0.2523141343802214,-0.058933250483870506,-0.08010558317638933
1782986893360797200,1.867797119140625,0.17532792533338068,-0.022669512447714806,-0.06676328652240336
1782986893370872000,1.8778720703125,0.12876081994771957,0.03542553364634514,0.00015679799690842628
1782986893380946200,1.8879462890625,0.10580956794917583,0.09103402362167835,0.05447269087843597
1782986893391021000,1.89802099609375,0.030500936725735662,0.06921440600156784,0.04726809326186776
1782986893401095200,1.90809521484375,-0.0728846189469099,0.03359539560973644,-0.018879764775931833
1782986893411170000,1.918170166015625,-0.18074059803187847,0.06898351985514163,-0.07366057175546883
1782986893421244200,1.928244140625,-0.28019875112771986,0.10562602807581424,-0.030988720242679117
1782986893431318000,1.938318115234375,-0.37436873468756676,0.10910744045078753,0.07886164752990008
1782986893441393200,1.94839306640625,-0.4222919308573007,0.08831658135652541,0.17262136978842316
1782986893451467000,1.958467041015625,-0.42668636642396446,0.06777297502160072,0.15165383895300327
1782986893461542100,1.968542236328125,-0.3212047152549028,0.07176818213760852,0.018942527813836933
1782986893471616000,1.978615966796875,-0.1357394267886877,0.13457739727199078,-0.06517389843910933
1782986893481691100,1.988691162109375,0.0014876082092523575,0.0723135410606861,-0.12743753545470535
1782986893491765000,1.998764892578125,0.07725742720365524,0.04364800306856632,-0.1335494424637407
1782986893501840100,2.008840087890625,0.0662707537651062,0.020220365729928014,-0.11075089680887758
1782986893511914000,2.0189140625,0.08850596644878386,-0.05887012211978435,-0.15672332423701882
1782986893521989000,2.028989013671875,0.07681728222072123,-0.12739888394474982,-0.21234737710766494
1782986893532063000,2.03906298828125,0.1453682558774948,-0.08026420780420303,-0.1877860595639795
1782986893542138000,2.04913818359375,0.20295418340563773,0.00031681086421012875,-0.021184388456493616
1782986893552212000,2.0592119140625,0.18618308134675024,0.06034428632557392,0.060102805719897144
1782986893562287000,2.069287109375,0.2102232976257801,0.2179793185800314,0.10292582920640707
1782986893572361000,2.07936083984375,0.25992227129638196,0.19984043529927728,0.2795708284877241
1782986893582435000,2.08943505859375,0.15438567506968975,0.020713117682933806,0.24785101749151944
1782986893592510000,2.099510009765625,0.047326399320364,-0.02167933236658573,0.047501463626325124
1782986893602584000,2.109583984375,0.02603285140097141,0.00418926838338375,-0.004851750880107283
1782986893612659000,2.119658935546875,0.10822247430980204,0.046970425489544866,0.007579276147857308
1782986893622733000,2.129733154296875,0.21179040081202982,0.10297229869663714,0.06048822484090924
1782986893632808000,2.139807861328125,0.23964754503071306,0.07736907088458538,0.06263963072113693
1782986893642882000,2.149882080078125,0.2202794122159481,0.03304419146776199,0.0505722493737936
1782986893652957000,2.15995703125,0.15241525177955625,0.015379939961433409,0.03523329900987446
1782986893663031000,2.170031005859375,0.0771802703142166,-0.044865562164783476,-0.004524491687119007
1782986893673106000,2.18010595703125,-0.005265957704186439,-0.07130524080097675,0.019066519519686697
1782986893683180000,2.190179931640625,-0.04620236372649669,-0.04936345810592174,0.08180581122301518
1782986893693255200,2.200255126953125,0.014352350479364393,0.000005845218896865844,0.13384806008413433
1782986893703329000,2.2103291015625,0.14495967507660387,0.04446341110467911,0.10970489488728344
1782986893713404200,2.220404052734375,0.2472188570678234,0.013217793491482733,0.06853058845587075
1782986893723478000,2.23047802734375,0.267260943621397,-0.006648936495184898,0.011118410059437155
1782986893733553200,2.24055322265625,0.2556026545315981,-0.05486906978487968,-0.07697707589231431
1782986893743627000,2.250626953125,0.1992483146250248,-0.09846680397093295,-0.15742153563424943
1782986893753700900,2.260700927734375,0.13843699530959128,-0.11592004307508467,-0.18999080306664107
1782986893763776000,2.27077587890625,0.06058335577845573,-0.10626724858880042,-0.20593780232630668
1782986893773849900,2.280849853515625,-0.0354185193836689,-0.06594459055066108,-0.17999007192552088
1782986893783925000,2.290925048828125,-0.21700901224315164,-0.036976270219683645,-0.02288315519839525
1782986893793998800,2.300998779296875,-0.2616904500126839,-0.041862288695573804,0.022374621154367922
1782986893804074000,2.311073974609375,-0.23238369150757787,-0.09389934992492198,-0.02947970391921699
1782986893814147800,2.32114794921875,-0.16158756927251816,-0.06675473788976669,-0.04316328829154372
1782986893824223000,2.331222900390625,-0.16810966451764106,-0.08471358842849731,0.020318127015978096
1782986893834297000,2.341297119140625,-0.19267945762872696,-0.1108563299447298,0.08972937076389789
1782986893844372000,2.3513720703125,-0.24789865602552888,-0.09096446551680565,0.10079963083267211
1782986893854446000,2.361446044921875,-0.18910276818573474,-0.06176642808318138,0.07652326771020888
1782986893864521000,2.37152099609375,-0.08096563407182693,-0.049559857460856435,0.051567251760512585
1782986893874595000,2.381594970703125,-0.029992402681708333,-0.09483049329519272,0.04551788859367371
1782986893884669200,2.391669189453125,-0.0019335984110832214,-0.11115852776169777,0.01949731215238571
1782986893894744000,2.401744140625,0.06037585050761699,-0.07344283735156058,-0.012664032066240906
1782986893904818200,2.411818115234375,0.13933482093214988,-0.05213993708193302,-0.0482668219756335
1782986893914893000,2.42189306640625,0.21456045004725455,-0.08487783907949924,-0.06622318829633295
1782986893924967200,2.43196728515625,0.2490875735491514,-0.11204057129323482,-0.1009925961215049
1782986893935042000,2.4420419921875,0.22992753052711484,-0.087384853464365,-0.11163593601509927
1782986893945116200,2.4521162109375,0.1572065777093172,-0.0792237588405609,-0.13870930944494902
1782986893955191000,2.46219091796875,0.08252747656106948,-0.06746902363896369,-0.12412190810069441
1782986893965265200,2.47226513671875,0.023028993409872054,-0.06713584616184234,-0.10083623651601374
1782986893975340000,2.482340087890625,-0.04620236372649669,-0.0773766696691513,-0.08372245849929749
1782986893985414100,2.4924140625,-0.09741408004760742,-0.0725140320688486,-0.1316700584579259
1782986893995489000,2.502489013671875,-0.142488316527009,-0.07043021153211593,-0.13141169978268444
1782986894005563100,2.512563232421875,-0.22856384095847607,-0.07816051352322101,-0.13352218913063407
1782986894015638000,2.522637939453125,-0.21620295655727384,-0.04303951578140258,-0.11175737043768166
1782986894025712000,2.532712158203125,-0.11126023457050323,-0.013023732224106788,-0.0606796557597816
1782986894035786200,2.5427861328125,-0.0014478607207536697,-0.022741408640146253,0.032436507898196576
1782986894045861000,2.552861083984375,0.10406535463035106,0.0014975450813770293,0.06955620517656207
1782986894055935200,2.562935302734375,0.16382745715379715,-0.04255494713485241,0.03542049214504659
1782986894066009900,2.573009765625,0.1653811163365841,-0.0404161815404892,0.01856251552030444
1782986894076083700,2.583083740234375,0.15052899964153765,-0.020213351467251776,0.017324644288420676
1782986894086158800,2.593158935546875,0.1257569619566202,0.01400222186744213,0.057296443062275645
1782986894096232700,2.603232666015625,0.09245090468227862,0.04263619567751884,0.05728657925538718
1782986894106307800,2.613307861328125,0.10704524722397327,0.044994156980514524,0.022962869371101258
1782986894116381700,2.623381591796875,0.08177695045471191,0.048667877057194706,-0.03707571200616658
1782986894126456800,2.633456787109375,0.11056348447799683,0.0709194563537836,-0.05109261998608708
1782986894136530700,2.64353076171875,0.1826607524394989,0.07568214071094989,-0.008438157999515533
1782986894146605800,2.653605712890625,0.2445335635066032,0.0849888982385397,0.0005962853927165269
1782986894156679700,2.6636796875,0.24656886872649192,0.06147767426967621,-0.02206811248846352
1782986894166754800,2.6737548828125,0.2137175694823265,0.04404138630032539,-0.04697787814363837
1782986894176828700,2.68382861328125,0.1571972253590822,0.04986263979971409,-0.021822832490503787
1782986894186903800,2.69390380859375,0.11745616660118102,0.05241232428252697,-0.04272745415754616
1782986894196977700,2.703977783203125,0.15561726269125936,0.05210194315910339,-0.07302212772145866
1782986894207051800,2.7140517578125,0.19017302776575087,0.05482990681827068,-0.08851816834323108
1782986894217126700,2.724126708984375,0.18414017734229562,0.06454758323431015,-0.06822035346291959
1782986894227200800,2.73420068359375,0.12366963428854942,0.0032727380603551864,-0.06104337450563907
1782986894237275600,2.744275634765625,0.10888532213270663,-0.0012163900524377821,-0.11284005110785364
1782986894247349800,2.754349853515625,0.09998130018711089,0.02817220151722431,-0.09512260810956358
1782986894257424600,2.764424560546875,0.11960194645822048,0.07089549095630646,-0.05278912170566618
1782986894267498800,2.774498779296875,0.09587737199962139,0.11220599098801612,-0.004474588130787015
1782986894277573600,2.78457373046875,0.04400748403072357,0.12195990776121615,0.012286723186448216
1782986894287647700,2.794647705078125,-0.014652210208773612,0.09616203415989875,0.005762216788530349
1782986894297722600,2.80472265625,-0.010910685592889786,0.07432312731742859,-0.08234415588341652
1782986894307796700,2.814796630859375,0.0463502477645874,0.01650748268663883,-0.1132272237945348
1782986894317871900,2.824871826171875,0.08552782742083072,-0.015497428861260413,-0.08970869330205022
1782986894327945700,2.83494580078125,0.14155074341595172,-0.05320902761816978,-0.028713907178491354
1782986894338020900,2.845020751953125,0.22049568531513214,-0.03060439710021019,0.060551791596412656
1782986894348094700,2.8550947265625,0.2621615746557712,0.02120879224538803,0.15693901281431316
1782986894358168600,2.86516845703125,0.2545978614032268,0.04435644359886646,0.1840042760029435
1782986894368243700,2.87524365234375,0.2734422626048326,0.02501169165968895,0.12144472478069364
1782986894378317600,2.885317626953125,0.26090076093971726,0.01945464205443859,0.09751593298688531
1782986894388392700,2.895392822265625,0.23220891946256159,-0.006077274087071418,0.10274696550816297
1782986894398466600,2.905466552734375,0.15150164406597613,-0.08925123185813426,0.06293934432007373
1782986894408541700,2.915541748046875,0.03523907116353511,-0.11314473314285278,-0.0028811814595013853
1782986894418615600,2.925615478515625,-0.05969955868124961,-0.12312193727791308,-0.022025661586225032
1782986894428690700,2.935690673828125,-0.10257482381165027,-0.08482640115320682,-0.007955123722925781
1782986894438764800,2.945764892578125,-0.13089198675751684,-0.08189853100776671,0.022802637308090925
1782986894448839700,2.955839599609375,-0.16008710158169268,-0.09291384601891041,0.013718947946652769
1782986894458913800,2.965913818359375,-0.14881576598286628,-0.09094342272877692,-0.02102137991450727
1782986894468988700,2.97598876953125,-0.1106990935564041,-0.06910100875496863,0.009865633519366384
1782986894479062800,2.986062744140625,-0.09187924227416515,-0.08731763344705104,0.05775068963579833
1782986894489137700,2.9961376953125,-0.058032502251863474,-0.07075637474656105,0.088367727021873
1782986894499211800,3.006211669921875,-0.010051438415050505,-0.05097966113090515,0.14640402866601943
1782986894509285600,3.01628564453125,0.007775310176610946,-0.018756722918152807,0.16824651570506394
1782986894519360800,3.02636083984375,0.03095511023402214,-0.016660627421736716,0.10921791508793831
1782986894529434600,3.0364345703125,0.036007132926583287,-0.01932078654170036,0.07369593532979488
1782986894539509800,3.046509765625,0.02718494404554367,0.001620294678211212,0.021540216156840323
1782986894549583600,3.05658349609375,0.09479366841614245,0.027581249886751175,-0.005964315231889486
1782986894559658800,3.06665869140625,0.24838147110641,0.06299158596396445,-0.008569163968041539
1782986894569732600,3.076732666015625,0.3192272777020931,0.011654781958460807,-0.009945639953017234
1782986894579807700,3.086807861328125,0.3155868753731251,-0.02536766549050808,-0.06824314981661736
1782986894589881600,3.096881591796875,0.3064180650115013,-0.02993161240518093,-0.16359898216016588
1782986894599956700,3.106956787109375,0.31232524322867394,-0.02362520573735237,-0.2191973160676658
1782986894610030600,3.117030517578125,0.31942250801324845,-0.036444355300068856,-0.19004129114486276
1782986894620105700,3.127105712890625,0.31928631441295147,-0.07479483648240566,-0.1404724466599524
1782986894630179600,3.1371796875,0.2932598927527666,-0.1247773032695055,-0.14576711900196967
1782986894640254700,3.147254638671875,0.19414953018128872,-0.1084814175069332,-0.19403635213039813
1782986894650328600,3.15732861328125,0.09950725293457507,-0.09019815731942653,-0.18954481286481023
1782986894660402700,3.167402587890625,0.05397825842499732,-0.0971925462514162,-0.13071158868931232
1782986894670477600,3.1774775390625,0.02790507501363754,-0.10430091695189475,-0.05545417619645595
1782986894680551700,3.1875517578125,-0.01973988873660564,-0.12392623939812182,-0.022765300972387194
1782986894690626600,3.19762646484375,-0.03362988240122795,-0.11764204456210135,-0.05663016117326915
1782986894700700700,3.20770068359375,-0.009458148697018623,-0.10760054301917553,-0.13442344881929458
1782986894710775600,3.217775634765625,0.017911504265666008,-0.11799684934914112,-0.13671455543115735
1782986894720849700,3.227849609375,0.041728433182835575,-0.1363321319848299,-0.10062843898423016
1782986894730924500,3.237924560546875,0.23234160593152045,-0.11442775869071482,-0.11071480258218944
1782986894740998700,3.24799853515625,0.1374333712249994,-0.16575871747732163,-0.03745243636406958
1782986894751073500,3.258073486328125,-0.05473229166269302,-0.09715455232858657,-0.010023819755762815
1782986894761147600,3.268147705078125,-0.18100187931656836,-0.05851181020140647,-0.026480887429416178
1782986894771222500,3.278222412109375,-0.19505378554463385,-0.012440963900089263,-0.04092734593302011
1782986894781296600,3.288296630859375,-0.12816811475157738,-0.030364158603549,0.0017736586090177297
1782986894791371500,3.29837158203125,-0.06608838293552398,-0.011190087056159972,0.026162030738592145
1782986894801445600,3.308445556640625,-0.02483165891766548,-0.01341886902153492,0.000635083033144474
1782986894811520500,3.3185205078125,0.0015466449201107025,-0.021232173120975494,-0.015579115795344113
1782986894821594600,3.3285947265625,0.0677741440653801,-0.03518997132480144,-0.01502308934777975
1782986894831668700,3.338668701171875,0.14838497335016726,-0.028113749328255652,-0.006975465035811066
1782986894841743600,3.34874365234375,0.1823375118345022,-0.0009416647642850875,0.03403415235318243
1782986894851817700,3.358817626953125,0.18673896166384218,0.022823826226592063,0.09405592872612177
1782986894861892600,3.368892578125,0.1391594643652439,0.05435527504384517,0.15476576042845844
1782986894871966700,3.378966796875,0.10745908872187138,0.06450023696124553,0.1188406066969037
1782986894882041600,3.38904150390625,0.14550211139023303,0.044320203241705894,0.06693155576139688
1782986894892115700,3.39911572265625,0.15169278272390366,0.008255202648043632,0.08311009875461459
1782986894902190600,3.409190673828125,0.13145955751240251,-0.0030775077491998672,0.07609978160113096
1782986894912264700,3.4192646484375,0.18583003012537955,0.02403378653824329,0.0642718350328505
1782986894922339600,3.429339599609375,0.22097791587412355,0.058496028110384936,0.11085348040051758
1782986894932413700,3.43941357421875,0.1925771662980318,0.06518412757217884,0.16168459990620612
1782986894942488600,3.449488525390625,0.0776426271289587,0.04435118290185928,0.18399360847845672
1782986894952562700,3.459562744140625,0.03682838618159294,0.03912847981750965,0.12397775038965046
1782986894962636800,3.46963671875,0.04012918129265308,0.04732932192981243,0.09539397239685057
1782986894972711700,3.479711669921875,0.05694762962460517,0.03661035951673984,0.08492123982980847
1782986894982785800,3.489785888671875,0.09519874208569526,0.03628594986796379,0.1453778274234384
1782986894992860700,3.499860595703125,0.10715046116411685,0.010695581537485122,0.20421784666590392
1782986895002934800,3.509934814453125,0.10254559771716594,-0.004869651862978935,0.2267299035295844
1782986895013009700,3.520009765625,0.10566402199864387,-0.021520926934480666,0.17490232033245265
1782986895023083800,3.530083740234375,0.12721943572461605,0.002037058785557747,0.12816336551122368
1782986895033158700,3.54015869140625,0.14289163663089274,0.010135025045275688,0.08268310551419854
1782986895043232800,3.550232666015625,0.11450666914582251,0.007077975562214851,0.005890665473788977
1782986895053307600,3.5603076171875,0.1124900686264038,0.014039046746492385,-0.06071691903024912
1782986895063382300,3.57038232421875,0.08095511267781257,-0.00026128128468990325,-0.08949300472475588
1782986895073457000,3.580456787109375,0.022438626301288605,-0.02786708109080791,-0.08736994815617799
1782986895083531300,3.59053125,-0.019995909324288366,-0.046669981238245964,-0.07544701678082347
1782986895093606000,3.60060595703125,-0.07815116117298603,-0.07603168480098248,-0.06791157977469266
1782986895103680300,3.61068017578125,-0.08971417319476604,-0.10482932474017143,-0.07762399549372494
1782986895113754000,3.620754150390625,-0.10945289288759232,-0.10882686994373798,-0.09042787442207335
1782986895123829200,3.630829345703125,-0.12480243771076202,-0.11595511438846587,-0.11766878643855452
1782986895133903000,3.640903076171875,-0.15105156221091745,-0.0998287399739027,-0.13394530991353093
1782986895143978200,3.650978271484375,-0.16220131725668907,-0.07289280225336552,-0.12359306192100047
1782986895154052000,3.661052001953125,-0.10615852751731872,-0.07477087108492851,-0.10170812397971749
1782986895164127200,3.671127197265625,-0.05142272872328758,-0.04109890310764312,-0.13852876524627208
1782986895174201000,3.681201171875,-0.011087211203575134,-0.009459902262687683,-0.12205175076313315
1782986895184276200,3.691276123046875,0.0052425768285989756,0.0026209961533546445,-0.08479125677458942
1782986895194350000,3.70135009765625,0.05067395618259907,-0.008116670960187911,-0.11580956843793391
1782986895204425200,3.71142529296875,0.11790683297812939,-0.006565934386849403,-0.1440322580333799
1782986895214499000,3.7214990234375,0.1484662218928337,0.013534604355692863,-0.10873473468087613
1782986895224574200,3.73157421875,0.1468628783494234,0.02535714409649372,-0.08269077736400067
1782986895234648000,3.74164794921875,0.1584954484760761,0.036815526700019835,-0.09896956586129962
1782986895244723200,3.75172314453125,0.20751053153574464,0.03331657866835594,-0.09801898713819682
1782986895254797000,3.761797119140625,0.24533728110492228,0.0408341146916151,-0.09170856188237667
1782986895264871200,3.77187109375,0.23513386699855326,0.039756840848922725,-0.09231003490686417
1782986895274946000,3.781946044921875,0.15127543409466743,0.036822540962696076,-0.07369198980703949
1782986895285020200,3.792020263671875,0.07989537449181079,0.07183481763303279,-0.07104169449396432
1782986895295095000,3.802094970703125,0.01774666909277439,0.08000877173840999,-0.028528613739460706
1782986895305169200,3.812169189453125,0.024843933877348897,0.06021101533472538,0.03521021039523184
1782986895315244000,3.822244140625,0.039411388412117956,0.01516775851547718,0.1097944728668779
1782986895325318100,3.832318115234375,0.01735679299235344,0.01733282759487629,0.09249700884632765
1782986895335393000,3.84239306640625,0.0030476971328258513,-0.001886252138018608,0.09323270270973444
1782986895345467100,3.852467041015625,0.011741875720024109,0.01815232728421688,0.10257847707346081
1782986895355542300,3.862542236328125,0.025955694511532783,0.037864743492007254,0.1500392433632165
1782986895365616000,3.8726162109375,0.004548749345541,-0.003016132950782776,0.1394645847916603
1782986895375691300,3.882691162109375,0.0017716858476400374,-0.01418050104379654,0.11888627246953547
1782986895385765000,3.89276513671875,0.02199088253378868,-0.008445756784081458,0.07136990353502333
1782986895395840300,3.90284033203125,0.01767301933467388,-0.004222586131095886,0.002853416669741273
1782986895405914000,3.9129140625,0.015482231292128562,-0.01866203037202358,-0.0104645492605865
1782986895415989200,3.9229892578125,0.010793196693062782,-0.035543607068061825,-0.041003626039624215
1782986895426063000,3.93306298828125,0.028895255094766616,-0.04241115474998951,-0.0509901094596833
1782986895436137000,3.943136962890625,0.05087386266887187,-0.032635026144981386,-0.0872187761824578
1782986895446212000,3.953212158203125,0.04033844012916088,-0.033816929405927655,-0.0733504098277539
1782986895456286000,3.963285888671875,0.06572656388580798,-0.033195582637190815,-0.004006678358092904
1782986895466361000,3.973361083984375,0.09429857837557792,-0.05565992790162563,0.04996164319477975
1782986895476435200,3.983435302734375,0.10115911179482936,-0.06037643502950668,0.04138319994173944
1782986895486510000,3.993510009765625,0.06730243490040302,-0.059981882753968235,0.01885280370377004
1782986895496584200,4.003584228515625,0.02798690807819366,-0.07331833418905735,0.01296608375273645
1782986895506659000,4.0136591796875,-0.00474222609102726,-0.06272153685092925,0.026689269483089445
1782986895516733200,4.023733154296875,-0.019503157371282578,-0.05311375055015087,0.012784443575516342
1782986895526808000,4.03380810546875,-0.011029343536496162,-0.03623626550734043,0.022523235844820737
1782986895536882200,4.043882080078125,-0.013855506873130797,-0.01973988873660564,-0.015413330774381756
1782986895546957000,4.05395703125,0.029154198291897773,-0.028542203873395917,-0.01753178423307836
1782986895557031200,4.06403125,0.10728490119874477,-0.04295651367306709,-0.036018458038195963
1782986895567106000,4.07410595703125,0.15547347030639647,-0.039914661759138104,-0.020862828351929784
1782986895577180200,4.08418017578125,0.14882278024554252,-0.054169981604814524,0.005165054612979293
1782986895587254000,4.09425390625,0.12995908982157706,-0.03737257606089115,-0.022673750231415032
1782986895597329200,4.1043291015625,0.11166589276194572,-0.004582651615142822,-0.039447774899750945
1782986895607403000,4.114403076171875,0.0797118346184492,0.016744798573851586,-0.06384688761904836
1782986895617478100,4.12447802734375,0.04357961400747299,0.013699439528584479,-0.09231018103733658
1782986895627552000,4.134552001953125,0.03847439982295036,0.010518471404910088,-0.09585296821072697
1782986895637627100,4.144627197265625,0.0527636219382286,0.010893734458088875,-0.0831203278876841
1782986895647701000,4.154700927734375,0.08978139321208,-0.00509293922483921,-0.043138080785050985
1782986895657776000,4.164776123046875,0.11945756955146788,-0.03248305045366287,0.038795959927514195
1782986895667850000,4.17485009765625,0.0912450360238552,-0.06039630877375602,0.10276282066442072
1782986895677925000,4.184925048828125,0.10485796631276607,0.012082651981711387,0.15014474956430493
1782986895687999000,4.1949990234375,0.17666881854832173,0.09700783733427525,0.17125395389273762
1782986895698074000,4.20507421875,0.2405395254343748,0.10823241118192672,0.12264642872065305
1782986895708148000,4.21514794921875,0.2270411614358425,0.06228372995555401,0.052346930896118284
1782986895718222000,4.22522216796875,0.1963935097157955,0.03378361165821552,-0.028519115258753298
1782986895728297000,4.235296875,0.15509119299054144,0.0226087221711874,-0.10605156001150608
1782986895738371000,4.24537109375,0.10983750829100608,0.02622866623401642,-0.10336707016788423
1782986895748446000,4.255446044921875,0.0025917700588703155,0.04647124379575252,-0.055367447761073704
1782986895758520000,4.26552001953125,-0.1250210488975048,0.059707741987705225,-0.018846885419636965
1782986895768595000,4.275594970703125,-0.16637714163661002,0.06516366930603981,0.006055062255263328
1782986895778669000,4.2856689453125,-0.08916764522790908,0.03613514322042465,-0.020031930485740302
1782986895788744000,4.295743896484375,-0.005225625693798065,-0.010393968242406845,-0.041506241799518465
1782986895798818000,4.305818115234375,0.03550327505767345,-0.050073067680001256,-0.07003178679905832
1782986895808893000,4.315892822265625,0.09073299484848976,-0.04189794453084469,-0.08946523993499576
1782986895818967000,4.325967041015625,0.13212065176963805,-0.04041793510615825,-0.10946282975971698
1782986895829042000,4.3360419921875,0.1257347501248121,-0.015474632507562636,-0.07677366227470338
1782986895839116000,4.346115966796875,0.12486147442162036,0.015738836401700974,-0.04912387719638645
1782986895849191000,4.35619091796875,0.14913783754408358,0.01638940926492214,-0.016401465028896927
1782986895859265000,4.36626513671875,0.2118307328224182,0.02263444113433361,0.016134046264365313
1782986895869340200,4.376340087890625,0.2519336106300354,0.01352116035223007,0.028872239545360206
1782986895879414000,4.3864140625,0.22331015821397304,0.023118425258994102,0.03837839210256934
1782986895889488000,4.39648779296875,0.09939444020986557,0.01410685128569603,0.015639686876162885
1782986895899563000,4.40656298828125,0.01667348690330982,0.013663783693313598,-0.02007255475707352
1782986895909636900,4.416636962890625,0.03585106558203697,0.013593056544661522,-0.048726913768053055
1782986895919712000,4.4267119140625,0.08189268578886985,-0.012796353209018707,-0.015569471184164284
1782986895929785900,4.436785888671875,0.09370295056998729,-0.050123921084403986,-0.010101853428035974
1782986895939861000,4.446861083984375,0.09033318187594414,-0.06877426101863383,-0.043637116348370905
1782986895949934800,4.456934814453125,0.10701251399815082,-0.05916062949895858,-0.04876965693123638
1782986895960010000,4.467010009765625,0.1159539453446865,-0.06713935329318046,-0.03386814813651144
1782986895970083800,4.477083740234375,0.08808803329765796,-0.05561842684745788,-0.023004370425269007
1782986895980159000,4.487158935546875,0.04082300877571106,-0.06474807424247264,-0.036576238051429386
1782986895990233000,4.497233154296875,0.029745149922370907,-0.05699322233200073,-0.010942468970641493
1782986896000308000,4.507307861328125,0.012252747851610183,-0.0674865592956543,0.013650339689850806
1782986896010382000,4.517382080078125,0.000042670097947120666,-0.07565233009457588,0.0151996149584651
1782986896020457000,4.52745703125,-0.036112346866726874,-0.07538812620043754,0.03010981851629913
1782986896030531000,4.537531005859375,-0.05767886650860309,-0.04524900852441788,0.042481881898641584
1782986896040605200,4.547605224609375,-0.05532791946828365,-0.0485679238140583,0.00021627309918403624
1782986896050680000,4.55768017578125,-0.03462064700424671,-0.08402502164244652,0.010865165950730442
1782986896060754200,4.567754150390625,-0.021093641433119772,-0.09948211849331855,0.01859174161478877
1782986896070828800,4.577828857421875,0.030950434058904647,-0.0645277094900608,-0.03289462692923844
1782986896080903000,4.58790283203125,0.1252343993872404,-0.0668985302746296,-0.08322071952223778
1782986896090977800,4.597977783203125,0.21341303357779978,-0.0873193870127201,-0.060373439354822034
1782986896101052000,4.608052001953125,0.24956045175790786,-0.09828794027268886,-0.057793725059926505
1782986896111126800,4.618126708984375,0.21879238852858543,-0.09944354004859923,-0.07938925160057843
1782986896121201000,4.628200927734375,0.14060440247654915,-0.08979191460609436,-0.09228701935745776
1782986896131275800,4.63827587890625,0.07395780113637447,-0.05640285522341728,-0.10858239366337656
1782986896141350000,4.648349853515625,0.05269581739902496,0.0009755670338869094,-0.05702149857841432
1782986896151424800,4.6584248046875,0.05096738617122173,0.030069559571146962,-0.010396671656146645
1782986896161499000,4.668498779296875,0.0809101044923067,0.03987959044575691,0.011236629611626267
1782986896171573800,4.67857373046875,0.11170680929422377,0.023788287344574926,0.004822963177040219
1782986896181648000,4.68864794921875,0.14324293428659438,0.028220716834068297,-0.032584611131995914
1782986896191722000,4.698721923828125,0.1988993550568819,0.040546529921889306,-0.04181245820447802
1782986896201796900,4.708796875,0.24304361720979212,0.041858781564235684,-0.07083988831155001
1782986896211871000,4.71887109375,0.26753683795332905,0.051509237962961196,-0.06969159505926072
1782986896221945900,4.72894580078125,0.25529928767085075,0.044912908437848086,-0.08118387993238865
1782986896232020000,4.73902001953125,0.2224398051202297,0.04227905280292034,-0.06365764865726233
1782986896242094800,4.7490947265625,0.1726736114323139,0.04015080860257148,-0.052925461436435575
1782986896252169000,4.7591689453125,0.13148936812877654,0.06959142262041568,-0.08303769110552967
1782986896262243800,4.769243896484375,0.04798983166515827,0.10425181711316107,-0.08251827034130692
1782986896272318000,4.77931787109375,-0.0418318935573101,0.09773439804315566,-0.07918518039584159
1782986896282393000,4.78939306640625,-0.08220598952174187,0.09973580099344254,-0.095718162849918
1782986896292467000,4.799467041015625,-0.0833241798967123,0.09627250879704952,-0.11387830811440944
1782986896302542000,4.8095419921875,-0.09033610448539256,0.043694764819741244,-0.0630971652302891
1782986896312616000,4.819615966796875,-0.03433832293152809,-0.0031283611536026,-0.0031912703219801187
1782986896322691000,4.829691162109375,0.03447334748804569,-0.029112697237730023,0.05308744706511497
1782986896332765000,4.839764892578125,0.07045008527636527,-0.015878537133336066,0.11974822306111454
1782986896342838800,4.8498388671875,0.11959376315176486,0.01167640926837921,0.18092932553701102
1782986896352914000,4.859913818359375,0.18320844945013523,0.03633738779425621,0.14317914833538234
1782986896362987800,4.86998779296875,0.23451485831737517,0.026655951735377312,0.05583228879384696
1782986896373063000,4.88006298828125,0.21934885336756704,-0.014293313768506049,-0.05953888822682202
1782986896383136800,4.89013671875,0.12972469654381275,-0.04667758002281189,-0.12633797671496869
1782986896393212000,4.9002119140625,0.0351613297522068,-0.06589432166814804,-0.13176365502551196
1782986896403285800,4.91028564453125,-0.026762919241189956,-0.08769991076290606,-0.08066467836387455
1782986896413361000,4.92036083984375,-0.017976970717310903,-0.07278115857243538,-0.0185642690859735
1782986896423435000,4.93043505859375,0.007128828966617584,-0.1324836398631334,0.010439487884566187
1782986896433510000,4.940510009765625,0.019040216034650802,-0.15504326219558714,-0.015136705790087579
1782986896443584000,4.950583984375,0.02818915265202522,-0.17349428016543386,-0.030347499729692935
1782986896453659000,4.960658935546875,0.02252981171607971,-0.17025661341845988,-0.039209582229703666
1782986896463733000,4.97073291015625,0.055876785522699354,-0.1647784742683172,-0.0722870914451778
1782986896473806800,4.980806884765625,0.08184358595013617,-0.17430150489509105,-0.05011697988696396
1782986896483882000,4.990882080078125,0.07739303628206252,-0.17174422162771225,-0.008142536053806543
1782986896493955800,5.000955810546875,0.053419455498456954,-0.1329851596444845,0.036930458316579456
1782986896504031000,5.011031005859375,0.04581131858229637,-0.07294307113587856,0.05228745579384267
1782986896514104800,5.021104736328125,0.03809972129166126,-0.04017009782493114,0.039665217042714355
1782986896524180000,5.031179931640625,0.06035188511013984,0.000021627309918403625,0.03735869366601109
1782986896534253800,5.04125390625,0.09755787243247031,0.003786532801389694,0.03163688195310533
1782986896544329000,5.051328857421875,0.15719547179341314,-0.030909517526626584,0.07740216943658888
1782986896554402800,5.06140283203125,0.13247954820990562,0.010147300004959106,0.06897292539589106
1782986896564478000,5.07147802734375,0.08758183734118938,0.05780103158354759,0.06782244018651544
1782986896574551800,5.0815517578125,0.05843056165874004,0.0643272184818983,0.059083107283338904
1782986896584627000,5.091626953125,0.02521159814596176,0.047449733439087864,-0.006562646451219916
1782986896594700800,5.10170068359375,-0.045565819388628005,0.03423252446949482,-0.029697730584070086
1782986896604776000,5.11177587890625,-0.06355448054373264,0.02991933744549751,-0.06422405036836862
1782986896614849800,5.121849853515625,-0.05521159961223602,0.0004985971719026565,-0.02663045196793973
1782986896624925000,5.131925048828125,-0.041433249628543854,0.012846037569642066,0.010902575351670383
1782986896634998800,5.141998779296875,-0.049051907938718796,0.01326981593966484,0.022896160810440776
1782986896645073000,5.152072998046875,-0.04633037402033806,-0.01819675094783306,0.045523587682098146
1782986896655147800,5.162147705078125,0.017554361391067502,-0.008217208725214004,0.03562083702273667
1782986896665222000,5.172221923828125,0.07115794128477573,0.013575520887970923,0.043178266664966936
1782986896675296800,5.182296875,0.12083002694845199,0.004377484431862831,0.07829363838359713
1782986896685371000,5.192370849609375,0.13545885628163815,-0.010815993046760558,0.09807371300011873
1782986896695445800,5.20244580078125,0.1260796180397272,0.011498130092024803,0.06598251140825451
1782986896705519900,5.212519775390625,0.13761515753269193,0.031444939577579496,0.05371025513857603
1782986896715594800,5.2225947265625,0.14719196417331695,0.029426000970602034,0.016666837966814636
1782986896725668900,5.2326689453125,0.11281155566573142,0.023334113836288452,-0.023718363913521168
1782986896735743700,5.24274365234375,0.06271218450069427,0.011866963404417038,-0.06222783504985273
1782986896745817900,5.25281787109375,0.0588549245506525,-0.012059271106123924,-0.07972074857726692
1782986896755892700,5.262892822265625,0.07311667413711548,-0.005901917520165443,-0.05441263125427067
1782986896765966800,5.272966796875,0.06444762999117375,-0.00889583863914013,-0.030489976940304038
1782986896776041700,5.283041748046875,0.021495792493224142,-0.01639642352759838,-0.04361826551742851
1782986896786115800,5.29311572265625,0.03532733396887779,-0.004053659304976463,-0.060351592849195
1782986896796189700,5.303189697265625,0.11340367633998394,-0.020715455770492552,-0.09085508685819804
1782986896806264800,5.313264892578125,0.15408464629650115,-0.022243395990133284,-0.060375119855254886
1782986896816338700,5.323338623046875,0.17312720041871069,-0.029771453407406806,-0.015653203944861888
1782986896826413800,5.333413818359375,0.18921032021343706,-0.012664251261949538,-0.028318039728701113
1782986896836487700,5.34348779296875,0.23220775041878222,-0.011783961296081542,-0.041403365946933626
1782986896846562800,5.353562744140625,0.22527941246032712,-0.01580605641901493,-0.06651661828495561
1782986896856636700,5.36363671875,0.19907997232079505,-0.009778466692566871,-0.08133169090524316
1782986896866711800,5.3737119140625,0.2079138516396284,-0.0013099135547876358,-0.06661671765856444
1782986896876785700,5.38378564453125,0.2353589079260826,-0.007146949145197868,-0.0449109356764704
1782986896886860800,5.39386083984375,0.21697394092977046,0.0061596916735172265,-0.09572539630830287
1782986896896934700,5.4039345703125,0.17181202616691588,0.007805120792984962,-0.09111519909910858
1782986896907009800,5.414009765625,0.11164368093013763,-0.00025075989067554474,-0.07320515613816678
1782986896917084000,5.424083984375,0.03482464514374733,0.00806581755578518,-0.08768442093282937
1782986896927158800,5.43415869140625,-0.08917465949058533,0.04373042065501213,-0.06251030525304377
1782986896937233000,5.44423291015625,-0.14499533091187478,0.06228665256500244,-0.04980433374121785
1782986896947306800,5.454306640625,-0.14204232632517813,0.02252104388773441,-0.03640563072487712
1782986896957382000,5.4643818359375,-0.1362491298764944,-0.019479776495695114,0.002405380641296506
1782986896967455700,5.474455810546875,-0.1028524717092514,-0.07049217085242271,0.044612756447494024
1782986896977531000,5.48453076171875,-0.08208440896868706,-0.0863128403186798,0.10693718373961746
1782986896987604700,5.494604736328125,-0.016942951494455336,-0.04600070367455482,0.19565423565581438
1782986896997679900,5.504679931640625,0.061385904332995414,0.026391747841238974,0.28515330479517575
1782986897007753700,5.514753662109375,0.13020634258091449,0.08373451426327227,0.26915413695685564
1782986897017827800,5.524827880859375,0.1306108317285776,0.0959767407208681,0.15174429371543227
1782986897027902700,5.53490283203125,0.08429682432115078,0.06415186191499232,0.04968063429631293
1782986897037976800,5.544976806640625,0.015623685589432716,0.049698389148712156,-0.02236892206594348
1782986897048051000,5.555051025390625,-0.017942483925819395,-0.005147299760580063,-0.04233275575153529
1782986897058126000,5.5651259765625,-0.04789046294391155,-0.009310264658927916,-0.01915207891128957
1782986897068199700,5.57519970703125,-0.031605683097243306,0.0037169746965169904,0.013286547878757118
1782986897078274800,5.58527490234375,-0.022916180685162543,0.03266425223946571,0.04847125850655138
1782986897088348700,5.5953486328125,-0.007325812843441963,0.011069675546884535,-0.00012150748781859874
1782986897098423800,5.605423828125,0.03926642698347568,-0.017861819905042646,-0.0286116158477962
1782986897108497700,5.61549755859375,0.09128945968747139,-0.06338321563005447,-0.06011361937485635
1782986897118572800,5.62557275390625,0.15342296751737594,-0.12127134097516536,-0.060757762497290965
1782986897128646700,5.635646728515625,0.2012777746260166,-0.09590016835331916,-0.03349624608419836
1782986897138721800,5.6457216796875,0.2014081230074167,-0.021895605465769765,0.039989992017671463
1782986897148795600,5.655795654296875,0.14304770397543906,0.03825578863620758,0.08988346534706651
1782986897158870800,5.665870849609375,0.10734159982204437,0.06025953065156936,0.054089829040691255
1782986897168944600,5.675944580078125,0.10646423246562481,0.0328261648029089,0.04739632275141775
1782986897179019800,5.686019775390625,0.14571546187996864,-0.02256254494190216,0.03514583992213011
1782986897189093600,5.69609375,0.1517389599531889,-0.057007835379242894,0.01053556867018342
1782986897199168800,5.706168701171875,0.12887889336943625,-0.04770809211432934,-0.016708996608108283
1782986897209242600,5.71624267578125,0.17536416569054125,-0.021899112597107886,-0.03841857798248529
1782986897219316700,5.726316650390625,0.24078151749670504,-0.009745148944854736,-0.05416121377646923
1782986897229391600,5.7363916015625,0.27373686163723465,-0.03926350437402725,-0.06668700641579926
1782986897239465700,5.7464658203125,0.28083529546558855,-0.03937105640172958,-0.1290054423585534
1782986897249540900,5.756540771484375,0.2692249371707439,-0.03779167825579643,-0.14391308863312005
1782986897259614700,5.76661474609375,0.16966040109097957,-0.011176058530807494,-0.13105053832009433
1782986897269689900,5.77668994140625,0.06737140848338603,0.0023410101681947708,-0.09345350585356355
1782986897279763700,5.786763671875,0.0017424597531557082,0.027389526706933974,-0.09862499020732939
1782986897289838800,5.7968388671875,0.0027267946153879162,0.06373392876386642,-0.05434241556227207
1782986897299912700,5.80691259765625,0.04960252755880355,0.09605331308841705,0.03698284609094262
1782986897309987800,5.81698779296875,0.05967968493700027,0.1286860011458397,0.10868081253655254
1782986897320061700,5.827061767578125,0.06845978824198246,0.1399088214278221,0.15533208907432852
1782986897330136800,5.83713671875,0.059279287442564964,0.1324760410785675,0.1559766705881804
1782986897340210700,5.847210693359375,0.037275545427203176,0.10813654959201813,0.11623444278649984
1782986897350285800,5.857285888671875,0.03162204971015453,0.09554594808816909,0.10171623422093688
1782986897360359700,5.867359619140625,-0.021200608938932417,0.058358080944418904,0.07572934085354209
1782986897370433800,5.877433837890625,-0.04435293646752834,0.027909166666865347,0.05042107740007341
1782986897380508700,5.8875087890625,-0.046536125725507735,0.008840309059619904,0.04663461766391992
1782986897390582800,5.897582763671875,0.0013625205248594284,-0.04000701621770859,0.00517462615892291
1782986897400657700,5.90765771484375,0.031628479450941084,-0.09779869545102118,0.005714724384993314
1782986897410731800,5.917731689453125,0.06259235751330852,-0.1501268485814333,-0.027982012707367537
1782986897420806700,5.927806640625,0.07813304099440574,-0.17075462606847286,-0.06555266862362623
1782986897430880800,5.937880859375,0.0717734428346157,-0.19280922148823737,-0.06458521183095872
1782986897440955600,5.94795556640625,0.05313011716306209,-0.18952128585875033,-0.06305215704478323
1782986897451029800,5.95802978515625,0.021536124503612517,-0.16363690301775932,-0.026896190232038496
1782986897461104600,5.968104736328125,-0.011221066716313361,-0.14919512068927288,0.0024884558148682116
1782986897471178800,5.9781787109375,-0.024360534274578093,-0.14703881943821906,0.006477598516270518
1782986897481253600,5.988253662109375,-0.021148586490750312,-0.14748480964004992,-0.0010412526812404394
1782986897491327700,5.99832763671875,-0.029369886869192122,-0.13704232608079908,0.012328662632033228
1782986897501401600,6.008401611328125,-0.02551788761615753,-0.1308721130132675,-0.013944719526544212
1782986897511476700,6.018476806640625,-0.0018003274202346802,-0.11378536913394928,-0.033642011230438945
1782986897521550600,6.028550537109375,0.04231821576952934,-0.10040040238201618,-0.06036247956939041
1782986897531625700,6.038625732421875,0.12093056471347809,-0.09824468565285205,-0.07512216874063014
1782986897541699600,6.048699462890625,0.21737375390231609,-0.11110592079162597,-0.0710248164243996
1782986897551774700,6.058774658203125,0.29637364085912704,-0.09412848250567912,-0.09069624303467572
1782986897561848600,6.0688486328125,0.3634416824817657,-0.07609305959939956,-0.1137504439510405
1782986897571923700,6.078923828125,0.3456085041493177,-0.04142039014697075,-0.0829636760212481
1782986897581997600,6.08899755859375,0.2501198392063379,-0.005983166062831878,-0.08801584484428167
1782986897592072700,6.09907275390625,0.16805588850378989,0.010606734210252761,-0.1113788194488734
1782986897602146600,6.109146484375,0.1216179624557495,0.01749006398320198,-0.1279314564514905
1782986897612221700,6.1192216796875,0.0661877516567707,0.0007476034969091414,-0.08514723060540855
1782986897622295600,6.129295654296875,0.0467728570908308,-0.023513562056422233,0.0233749573033303
1782986897632370700,6.13937060546875,0.041942952716350554,-0.06522387506067752,0.10431355723775923
1782986897642444500,6.149444580078125,0.11415244888067244,-0.038110242685675616,0.08547149412371217
1782986897652519700,6.159519775390625,0.19915946729779244,0.03645020051896572,0.13449008431471884
1782986897662593500,6.169593505859375,0.12679682639837264,0.0628062925249338,0.23363427609056234
1782986897672667600,6.179667724609375,-0.023026655322313308,0.0667372022330761,0.2256897468268871
1782986897682742500,6.189742431640625,-0.06094283674061298,0.07300093880295754,0.11043152866140007
1782986897692816600,6.199816650390625,-0.07596154217422008,0.055336102774739264,-0.009261384015902875
1782986897702891500,6.2098916015625,-0.09950549936890601,0.054953825458884234,-0.05432824090644717
1782986897712965600,6.219965576171875,-0.15713585056066512,0.029896541091799733,-0.07697218052148819
1782986897723040500,6.23004052734375,-0.17974281916618345,0.027905659535527226,-0.12348105291388928
1782986897733114600,6.240114501953125,-0.20612872178852557,0.01086860001683235,-0.08297061721868812
1782986897743189800,6.250189697265625,-0.15202712924480438,0.01911737292408943,-0.07167896948419511
1782986897753263600,6.260263671875,-0.024161796832084654,0.01602466760575771,-0.07958776984736322
1782986897763338800,6.2703388671875,0.07645546317100524,0.006834229934215545,-0.08960267564430832
1782986897773412600,6.28041259765625,0.1790437309861183,-0.023198504757881162,-0.07417948106303811
1782986897783487700,6.29048779296875,0.23282792814373968,-0.038977088648080825,-0.06425510309375822
1782986897793561600,6.3005615234375,0.24326573552787303,-0.0005640636235475539,-0.026059008755534886
1782986897803636700,6.31063671875,0.2209410909950733,0.018467969104647635,-0.0048746202990412706
1782986897813710600,6.320710693359375,0.19090543369352816,0.05183890830874443,0.021454949026182293
1782986897823784700,6.33078466796875,0.1605874523192644,0.03026362083852291,0.04320332804098725
1782986897833859600,6.340859619140625,0.12396832497417926,-0.017232874351739882,0.02582783034816384
1782986897843933700,6.35093359375,0.10753683013319969,-0.0350479325056076,0.010109890604019164
1782986897854008600,6.361008544921875,0.09239420605897902,-0.026350246787071225,-0.04164696544446051
1782986897864082700,6.371082763671875,0.10471768105924129,-0.04881751466095447,-0.06236074071452021
1782986897874157600,6.381157470703125,0.15715104812979697,-0.09036299249231815,-0.10710698734857141
1782986897884231700,6.391231689453125,0.18427870903015137,-0.08959259264171122,-0.13722557369321584
1782986897894306600,6.401306640625,0.17902327271997928,-0.08186579778194426,-0.1642336268018931
1782986897904380700,6.411380615234375,0.15914485229551792,-0.1231651918977499,-0.1507744257699698
1782986897914455600,6.42145556640625,0.1609925259888172,-0.1516810922861099,-0.09966302801817654
1782986897924529700,6.43152978515625,0.17865853106081483,-0.07062719540894032,-0.09053791066780686
1782986897934604500,6.4416044921875,0.16631868944764136,0.19305413616001604,0.14477671972513198
1782986897944678700,6.4516787109375,0.13173895897567273,0.17812603161931037,0.3583630640432238
1782986897954753500,6.46175341796875,-0.04603285237848759,0.05170622183978557,0.08834105821065605
1782986897964827600,6.47182763671875,-0.1371434483677149,0.05642214444577694,-0.14877842964716254
1782986897974902500,6.481902587890625,-0.1235001229405403,0.003382628175616264,-0.14212215009573848
1782986897984977000,6.491976806640625,-0.06891571531593799,0.035005262407660484,-0.1329802642736584
1782986897995050800,6.50205078125,-0.0062742579638957975,0.05242693732976913,-0.07165894960947335
1782986898005126000,6.5121259765625,0.09657061496078967,0.090613167861104,0.021639073421433567
1782986898015199700,6.52219970703125,0.22838147012889384,0.12942016063928605,0.07581866310480982
1782986898025275000,6.53227490234375,0.36151392928957937,0.1450946996331215,0.12567081804312766
1782986898035348700,6.5423486328125,0.4664607429295778,0.12778057673871515,0.11594291249401867
1782986898045423900,6.552423828125,0.40810500007271766,0.09695639940798283,0.06730203304160386
1782986898055497700,6.562497802734375,0.24245617271065711,0.016982698982954025,-0.05718932942599058
1782986898065572900,6.57257275390625,-0.03980769425332546,-0.05054302327930927,-0.2569705818839371
1782986898075646700,6.582646728515625,-0.26722411874234675,-0.08530161744952201,-0.32666966612990944
1782986898085721600,6.5927216796875,-0.31811434802412986,-0.06614215894937515,-0.23656766266133636
1782986898095795700,6.602795654296875,-0.2607487852483988,-0.021965748092532156,-0.036024485920183355
1782986898105870600,6.61287060546875,-0.20822131015360354,0.015445990934967993,0.10776632804013789
1782986898115944700,6.62294482421875,-0.1159235502064228,0.02098258227407932,0.11730667512789368
1782986898126019600,6.63301953125,-0.02071194863915443,-0.005141454541683197,0.04684146534763276
1782986898136093700,6.64309375,0.046643093231320376,-0.04791267477571964,-0.02338412699047476
1782986898146167600,6.65316748046875,0.13767244067788123,-0.06997545350193977,-0.040156288495287296
1782986898156242700,6.66324267578125,0.23311200578212737,-0.06159340960383415,-0.05607059106174856
1782986898166316500,6.673316650390625,0.3109714905321598,-0.06215279705226421,-0.05989409487266093
1782986898176391700,6.6833916015625,0.2838397379785776,-0.07116670911312103,-0.025434520181640982
1782986898186465500,6.693465576171875,0.2187842052221298,-0.07234335167706012,-0.003699877431243658
1782986898196540700,6.703540771484375,0.09431494498848915,-0.0853068781465292,0.018043861941061914
1782986898206614500,6.713614501953125,-0.023217209458351134,-0.08841595007777213,0.013419453543424605
1782986898216689700,6.723689697265625,-0.1083902320921421,-0.09398995081782341,-0.018890761093981565
1782986898226763500,6.733763427734375,-0.12339666256606578,-0.1090261919081211,-0.047484987415559586
1782986898236838700,6.743838623046875,-0.08891104011833667,-0.10620879639983176,-0.10452387552019209
1782986898246912500,6.75391259765625,-0.2383434766948223,-0.15653203944861888,-0.20743644338622688
1782986898256987600,6.763987548828125,-0.5416910482198,-0.19071020338237285,-0.2829963459569961
1782986898267061500,6.7740615234375,-0.10024199694991111,0.03901157543957233,-0.24190909675452857
1782986898277136600,6.78413671875,0.20124094974696635,0.08193944754004479,-0.003978548242151737
1782986898287210500,6.79421044921875,0.36378187422156333,0.013034838140010833,0.1614149526519701
1782986898297284600,6.80428466796875,0.1304927583068609,-0.09552899695336818,0.1657728556005284
1782986898307359500,6.814359375,-0.3173386874765157,-0.06448036321699618,0.059817047581076616
1782986898317433600,6.82443359375,-0.15740882228314876,0.08476736444234848,-0.02403824351765215
1782986898327508500,6.834508544921875,0.3045733139276504,0.1381008952230215,0.13735610473770649
1782986898337582600,6.84458251953125,0.5440981093615294,0.07747428482472896,0.2800216775277629
1782986898347657700,6.85465771484375,0.5897673891246319,0.0558615879535675,0.2064238688101992
1782986898357731600,6.864731689453125,0.4573375252753496,0.002790507501363754,-0.008334332298859954
1782986898367806700,6.874806640625,0.3212257580429315,-0.015641805768013,-0.15122012371085583
1782986898377880600,6.884880615234375,0.1117319437354803,-0.005009352594614029,-0.1786722307926044
1782986898387955700,6.894955810546875,-0.14198971935510635,0.02715571795105934,-0.1692852841682732
1782986898398029600,6.905029541015625,-0.21682956402301787,0.03850479496121406,-0.14302666118741034
1782986898408104700,6.915104736328125,-0.1978787798374891,0.03621405367553234,0.05410593992527574
1782986898418178600,6.925178466796875,-0.135826520550251,0.12006605683863163,0.11434815411586313
1782986898428253700,6.935253662109375,-0.05500292529761791,0.11422668316066265,0.03431468632761389
1782986898438327600,6.94532763671875,0.029735213050246238,0.04301145873069763,-0.01470788591876626
1782986898448402700,6.955402587890625,0.09669511812329291,0.0046200610160827636,-0.09833674785047769
1782986898458476500,6.9654765625,0.17802374028861523,-0.030264789882302284,-0.1222950214670971
1782986898468550700,6.975550537109375,0.16902444127500058,-0.01805295856297016,-0.07837134326230734
1782986898478625500,6.98562548828125,-0.009604863691329955,0.017179098337888717,-0.06079721772484481
1782986898488699600,6.99569970703125,-0.07993336841464042,0.04009235641360283,0.019547252241335807
1782986898498774500,7.0057744140625,-0.08933891014158725,0.037709260669350625,0.12055004096329211
1782986898508848600,7.0158486328125,-0.08954349280297756,0.03336100233197212,0.1724076905051246
1782986898518923500,7.025923583984375,-0.09307692762613295,0.01444528945982456,0.16959139097537845
1782986898528997600,7.03599755859375,-0.020903671818971632,0.0007779986351728439,0.1062448175612837
1782986898539072500,7.046072509765625,0.05827507883608341,-0.026656536257266997,0.055824361215718085
1782986898549146600,7.056146728515625,0.13264964407980442,-0.03942600145936012,0.05649648832362145
1782986898559221500,7.066221435546875,0.24309154800474642,-0.06040098494887352,0.05471081048324704
1782986898569295600,7.076295654296875,0.21023849519491195,-0.04195288958847523,0.07796809622365981
1782986898579370500,7.08637060546875,0.11424421881735324,-0.05607552296519279,0.0679638944838196
1782986898589444600,7.096444580078125,-0.06871873143911361,-0.06881167041957378,0.08655136178229003
1782986898599519500,7.10651953125,-0.05394494067728519,-0.049259997731447215,0.12763335028775036
1782986898609593600,7.116593505859375,0.010506780967116356,-0.0488163456171751,0.14692918505128472
1782986898619667500,7.12666748046875,0.045914194434881206,-0.031681086421012875,0.16608221381064503
1782986898629742600,7.13674267578125,0.12072832013964652,-0.030620179191231726,0.17293032613974063
1782986898639816400,7.14681640625,0.04471592456102371,-0.02532791800200939,0.122633240445517
1782986898649891600,7.1568916015625,0.008758475995063781,-0.01779810701906681,0.09349263228755443
1782986898659965400,7.16696533203125,0.054905310142040246,-0.007440379133820533,0.08058123786412179
1782986898670040600,7.17704052734375,0.09579963058829306,-0.005196399599313736,0.09339885305687784
1782986898680114400,7.187114501953125,0.12613748570680616,-0.04049567651748657,0.08193981286622583
1782986898690189600,7.197189453125,0.10615618942975998,-0.06329670639038086,0.004851166358217597
1782986898700263400,7.207263427734375,0.0346124636977911,-0.05713526115119457,-0.041542737885005766
1782986898710338600,7.217338623046875,-0.06994915001690387,-0.05794657753407955,-0.05653817204087972
1782986898720412400,7.227412353515625,0.023483751440048217,-0.058930912396311756,-0.05085632701218128
1782986898730487600,7.237487548828125,0.15925065075755118,-0.059467503491044044,-0.0585382963495329
1782986898740561400,7.2475615234375,0.1964250738978386,-0.04539046282172203,-0.09967950422894209
1782986898750636500,7.257636474609375,0.19140753799676893,-0.07034253324866295,-0.13443481046352534
1782986898760710400,7.26771044921875,0.16943126851022242,-0.030165421161055563,-0.14136734967306255
1782986898770784500,7.277784423828125,0.17126549820005893,-0.013981179079413413,-0.16302348382715134
1782986898780859400,7.287859375,0.14012860165834426,-0.05672551130652427,-0.1534093408508226
1782986898790933500,7.29793359375,0.06375204894244671,0.005823591586947441,-0.1639157564917579
1782986898801008400,7.30800830078125,0.04431669611036777,-0.02517243517935276,-0.14623970494978128
1782986898811082500,7.31808251953125,0.009074702337384223,0.028944939455389975,-0.15167659877408296
1782986898821157400,7.328157470703125,-0.020236147820949554,0.021036358287930487,-0.15404413162302225
1782986898831231500,7.3382314453125,0.010708441019058226,0.013722235882282257,-0.13095672255679963
1782986898841306600,7.348306640625,0.07859422876536845,0.05901449902653694,-0.11086469591427593
1782986898851380500,7.35838037109375,0.11442132894992828,0.04478665170967579,-0.06608524113036691
1782986898861455600,7.36845556640625,0.07268354341685772,0.01142681842148304,-0.07061820838488637
1782986898871529500,7.378529541015625,0.049070028117299075,0.007263853523135185,-0.04907737117353826
1782986898881604600,7.3886044921875,-0.03969371248483657,0.020379940205812453,-0.04958195969481021
1782986898891678500,7.398678466796875,-0.0009118541479110718,0.022503508231043814,-0.041116511829569935
1782986898901753600,7.408753662109375,-0.011668225961923599,0.017367898908257483,-0.03253200416192412
1782986898911827500,7.418827392578125,0.00557224717438221,0.026689269483089445,-0.0005457973144948482
1782986898921901600,7.428901611328125,0.12175532509982585,0.015047347006201743,0.03636051294151693
1782986898931976400,7.4389765625,0.21313830828964708,0.01372340492606163,0.029278555323928594
1782986898942050600,7.449050537109375,0.24624796620905398,-0.0035158991664648053,-0.0058513563767075534
1782986898952125400,7.45912548828125,0.26042262203395367,-0.0029810616374015804,-0.04007986225821077
1782986898962199600,7.469199462890625,0.23913433481156823,0.009587912556529044,0.019815182462520897
1782986898972274400,7.4792744140625,0.21065233669281005,0.008518237498402595,0.09184826261401176
1782986898982348800,7.489348876953125,0.1532639775633812,-0.005296937364339828,0.14771441714484243
1782986898992423400,7.49942333984375,0.07465045957565307,0.01609188762307167,0.21646084030847995
1782986899002497800,7.509497802734375,0.04488485138714313,0.03604454232752323,0.24198450007829814
1782986899012572400,7.519572509765625,0.044597266617417336,0.05999708032310009,0.18803674638941884
1782986899022646800,7.529646728515625,0.06927344271242618,0.05024783972501754,0.12965798798315226
1782986899032721400,7.539721435546875,0.14200725501179695,0.029612463453412053,0.030228330329433083
1782986899042795800,7.549795654296875,0.15556114858984946,0.029264672929048538,-0.036604222036898136
1782986899052870400,7.559870361328125,0.12124153035879134,0.023847324055433272,-0.04447769535835832
1782986899062944800,7.56994482421875,0.08956044393777847,0.017442717710137366,-0.07324366151764988
1782986899073020200,7.580020263671875,0.07164017184376716,-0.0025520225703716277,-0.05800462786424905
1782986899083094300,7.59009423828125,0.028258126235008237,-0.054279871720075604,-0.08111337197944521
1782986899093168400,7.60016845703125,-0.03257189778089523,-0.08567454241514205,-0.1002904392015189
1782986899103243300,7.6102431640625,-0.10029811105132103,-0.0827232913941145,-0.09292780147902667
1782986899113317400,7.6203173828125,-0.062083238947391504,-0.08755787194371223,-0.0498708231061697
1782986899123392300,7.630392333984375,0.001166121169924736,-0.09753566060066222,-0.03288808759059757
1782986899133466400,7.64046630859375,0.07730886512994765,-0.11628010855913161,-0.03287968508843332
1782986899143541200,7.650541259765625,0.09967676428258418,-0.13168109130859373,-0.05803977224286645
1782986899153615400,7.660615478515625,0.1433282744824886,-0.12714870857596397,-0.0595029766632244
1782986899163690200,7.670690185546875,0.18408698585033414,-0.11489362263679503,-0.05640051713585853
1782986899173764400,7.680764404296875,0.22139526450335978,-0.0750678082048893,-0.04512874314561486
1782986899183839200,7.690839111328125,0.30187399184107777,-0.06152911219596863,-0.04046111666075885
1782986899193913300,7.700913330078125,0.4024696245342493,-0.08398761224150657,-0.015752499600872397
1782986899203988200,7.71098828125,0.5132423678487539,-0.05663023423850536,0.03361585387587547
1782986899214062300,7.721062255859375,0.7558633757323027,-0.0942646761059761,0.016326500096544624
1782986899224137200,7.73113720703125,0.8363479482889175,-0.12877134134173393,0.020894757860153913
1782986899234211300,7.74121142578125,0.8794599447846412,-0.06524725593626499,-0.0005189823728054761
1782986899244285400,7.751285400390625,0.7970937962651252,-0.035949265259504315,-0.00030091917533427474
1782986899254360300,7.7613603515625,0.43615152938365936,-0.01910217535495758,-0.1018546197783202
1782986899264434400,7.771434326171875,0.0002817395508289337,0.04240881666243076,-0.16041015952359883
1782986899274509300,7.78150927734375,-0.4500877002775669,0.11086743586063384,-0.07778667524214833
1782986899284583400,7.79158349609375,-0.6961994728863239,0.15794482885599134,0.05570325558669865
1782986899294658300,7.801658203125,-1.0721423250228166,0.25034078848063945,0.09161668234784155
1782986899304732400,7.811732421875,-1.74331432415843,0.18952946916520594,-0.0062718833437189455
1782986899314807300,7.821807373046875,-2.0277935290843248,0.17620061651468277,0.00966159884724766
1782986899324881400,7.83188134765625,-1.5469003561764954,0.29743513261079785,0.05603000332303345
1782986899334956300,7.841956298828125,-0.6609621552884578,0.31586978396773335,0.05858849216680973
1782986899345030400,7.852030517578125,0.014103928676247596,0.19463526787161825,0.18158358819466083
1782986899355105300,7.862105224609375,0.5300538019180298,0.0590291120737791,0.23366335605457425
1782986899365179400,7.872179443359375,0.840168383359909,-0.060091772869229315,0.176608265733812
1782986899375254300,7.882254150390625,1.0272960520803929,-0.12344459336102008,0.027604667294956742
1782986899385328400,7.892328369140625,1.039811834782362,-0.1801210048288107,-0.14535568865686654
1782986899395402500,7.902402587890625,0.8561842831373214,-0.26468729374110694,-0.22359997147340327
1782986899405477400,7.912477294921875,0.6550783579468726,-0.24613164635300636,-0.20025192044330759
1782986899415551500,7.922551513671875,0.4521136531472206,-0.2152075157791376,-0.13229788976637646
1782986899425626400,7.93262646484375,0.37240824826955793,-0.16756079846322536,-0.022020309557672587
1782986899435700500,7.942700439453125,0.25424013400673867,-0.14039748172760008,0.08036624340657145
1782986899445775400,7.952775390625,0.07269815646409988,-0.09619184477627277,0.15412192783327772
1782986899455849500,7.962849365234375,-0.10653612865805626,-0.0367822089523077,0.07765945039959624
1782986899465924400,7.97292431640625,-0.18317980787754057,0.03363338953256607,0.049303106220811604
1782986899475998500,7.98299853515625,-0.14743746336698532,0.07293196521997451,0.009741148623172192
1782986899486073300,7.9930732421875,-0.12593874826431273,0.08273790444135666,-0.0004597629988566041
1782986899496147500,8.0031474609375,-0.07891922293603419,0.04227729923725128,0.0497827612302266
1782986899506222300,8.013222412109375,-0.010029811105132102,0.05912731175124645,0.08842495536813512
1782986899516296400,8.02329638671875,0.027020693394541738,0.08777180695533753,0.07124848737874999
1782986899526371300,8.033371337890625,0.04832593175172806,0.08238017704486847,0.02115059578474611
1782986899536445400,8.043445556640625,0.021027590459585188,0.05399754764735698,0.0269522312682122
1782986899546519300,8.053519287109374,0.038079847547411914,0.0638134237408638,0.025101434036064893
1782986899556594400,8.063594482421875,0.04597498471140861,0.09802081376910209,0.01780945039698854
1782986899566668300,8.073668212890626,0.1526402927070856,0.02299041496515274,-0.0012853453691117464
1782986899576743400,8.083743408203125,0.2646925544381141,-0.007089666000008582,-0.001789276303257793
1782986899586817300,8.0938173828125,0.323147666016221,-0.002034136176109314,-0.05178613694189116
1782986899596892400,8.103892333984374,0.16634382388889787,0.021819033098220825,-0.12227048981403932
1782986899606966300,8.11396630859375,0.01513502528965473,0.06456687245666981,-0.14074958310090005
1782986899617041400,8.12404150390625,-0.13118132509291172,0.08389584230482577,-0.12684053767593576
1782986899627115300,8.134115234375,-0.15328852748274802,0.07057868009209632,-0.11765625575054436
1782986899637190400,8.1441904296875,-0.10989654500186442,0.01568622943162918,-0.07221296676304191
1782986899647264300,8.15426416015625,0.01091477724611759,-0.05137479792833328,-0.046843145848065613
1782986899657339400,8.16433935546875,0.09373685283958912,-0.08756196359694003,0.005012530932389199
1782986899667413200,8.174413330078124,0.12365209863185882,-0.0926215850740671,0.08443765756394714
1782986899677488400,8.18448828125,0.13767594780921935,-0.06464402934610844,0.10528492302056401
1782986899687562200,8.194562255859376,0.11342764173746109,0.0005132102191448212,0.06359035557471215
1782986899697636400,8.20463623046875,0.12220365338921546,0.07372749951183795,0.04633822853323072
1782986899707711200,8.214711181640626,0.13496259719729423,0.0837467892229557,0.03277870893198997
1782986899717785300,8.224785400390624,0.1630021122455597,0.06934358533918857,-0.0012874094620347022
1782986899727860200,8.234860107421875,0.12609130847752092,-0.003063479223847389,-0.06984375341366976
1782986899737934300,8.244934326171874,-0.0913590177923441,0.0013829787909984588,-0.1639601070901379
1782986899748009200,8.25500927734375,-0.30866262906789776,-0.03541676581799984,-0.16233681673724204
1782986899758083300,8.265083251953126,-0.2771066303312778,-0.05835457381308078,-0.06312270153034479
1782986899768158500,8.275158447265625,-0.23237784628868102,-0.0035942250996828075,0.027505444704182445
1782986899778232300,8.285232421875,-0.19200024319291115,0.04959551329612732,-0.013479257439263164
1782986899788307500,8.295307373046874,-0.05138064314723015,0.033952538484334945,-0.06067512571513652
1782986899798381300,8.30538134765625,0.04634674063324928,-0.04129997863769531,-0.04422258808612823
1782986899808456400,8.31545654296875,0.10116846414506435,-0.07996551711857318,0.0033545345922932025
1782986899818530300,8.3255302734375,0.14742168127596378,-0.045347792723774906,-0.00974854647833854
1782986899828605400,8.33560546875,0.12518413050472735,0.0002916764229536056,-0.04186097352132201
1782986899838679300,8.34567919921875,0.13219956222474574,0.010723054066300391,-0.050509888194687665
1782986899848754400,8.35575439453125,0.1517471432596445,0.019551088166236876,-0.018177827051654456
1782986899858828300,8.365828369140624,0.15367080479860304,0.014427753803133964,-0.01120053538493812
1782986899868902100,8.375902099609375,0.20450491997897624,0.020483985102176666,-0.00619286329075694
1782986899878977300,8.385977294921876,0.24218378551006317,0.05131108504235744,-0.0074483067119494074
1782986899889051100,8.396051025390625,0.24606325729191303,0.06790507696866989,-0.03988908892646432
1782986899899126300,8.406126220703126,0.1441349146902561,0.07368015323877335,-0.11030848680362104
1782986899909200400,8.416200439453124,0.026121114206314085,0.08928396508395671,-0.17076558585390447
1782986899919275300,8.426275146484375,-0.03237374486029148,0.08981997165679931,-0.10561674879081547
1782986899929349400,8.436349365234374,-0.030486908200383186,0.08092004136443137,-0.042887540090084074
1782986899939424300,8.44642431640625,0.013272154027223586,0.04010170876383781,-0.03457074344791472
1782986899949498400,8.456498291015626,0.07497954539954661,-0.010457681128382683,-0.032320516835711896
1782986899959573200,8.4665732421875,0.12780161952674388,-0.03965864117145538,-0.04506068287808448
1782986899969647400,8.4766474609375,0.09959493121802807,-0.04312953215241432,-0.002589578101783991
1782986899979722200,8.48672216796875,-0.006196516552567481,-0.03804360719025135,0.00010850187577307224
1782986899989796400,8.49679638671875,0.021170213800668716,-0.021348492977023122,0.021870215296186504
1782986899999871200,8.506871337890624,0.09083762426674366,-0.02543430098593235,0.0175226145459339
1782986900009945300,8.5169453125,0.1653811163365841,-0.048132455006241796,0.007693404046818613
1782986900020019200,8.527019287109376,0.14234861579537392,-0.04857143094539642,0.012200579272955656
1782986900030094300,8.53709423828125,0.0972796400129795,-0.02628653390109539,0.017856193881854415
1782986900040168200,8.547168212890625,0.06812836433053017,-0.022729718202352523,-0.014021876415982841
1782986900050243300,8.557243408203124,-0.04070084370076656,-0.020256606087088583,-0.07750873508360237
1782986900060317200,8.567317138671875,-0.10168518149554728,0.0018318916022777557,-0.09456917547788471
1782986900070392300,8.577392333984376,-0.11180676253736019,0.013584873238205909,-0.07824936085045338
1782986900080466000,8.5874658203125,0.002000233906507492,-0.04460018922686577,-0.06994556982032954
1782986900090540800,8.597540771484375,0.01640285326838493,-0.04239887979030609,-0.04397215698901564
1782986900100615000,8.607614990234374,-0.03728782038688659,-0.041155017209053034,-0.07701784629411995
1782986900110689800,8.617689697265625,-0.0946048678457737,0.003829787421226501,-0.10864245328754187
1782986900120764000,8.627763916015626,0.0014145429730415343,0.006263736569881439,-0.0828198471037671
1782986900130838800,8.6378388671875,0.12274316709339618,-0.003723404437303543,-0.009288089359737932
1782986900140913000,8.647912841796876,0.1623304965943098,0.019476269364356993,0.03750416655130684
1782986900150987800,8.65798779296875,0.1915308721154928,0.006688683983683586,0.015034304861538112
1782986900161062000,8.668061767578125,0.23403847297728061,0.004400865307450294,-0.04597867450583726
1782986900171136000,8.678135986328124,0.31103111176490783,0.006056815820932388,-0.030908421548083424
1782986900181211000,8.6882109375,0.3634954584956169,0.02792904041111469,0.04174121959917247
1782986900191285000,8.698284912109376,0.40153380498886104,0.0258721078813076,0.07062701274584979
1782986900201360000,8.70835986328125,0.46974575594961643,0.033459202009439463,0.03873184518273919
1782986900211434000,8.71843408203125,0.5002478617191315,0.015805471897125244,0.036623913118056954
1782986900221508900,8.7285087890625,0.48968262856304645,-0.008072831818461417,0.01337316671628505
1782986900231583000,8.7385830078125,0.4090425731837749,-0.024982465565204618,0.007010426751337945
1782986900241657900,8.748657958984374,0.3446118943274021,-0.015198153653740882,-0.002185929204337299
1782986900251732000,8.75873193359375,0.22038637972176073,0.01851005468070507,0.00960712871365249
1782986900261806800,8.768806884765626,-0.015379355439543723,0.08952595714628696,0.020670045726187525
1782986900271881000,8.778880859375,-0.44058337435126305,0.017664836028218268,-0.04519808205477893
1782986900281955800,8.788955810546875,-0.717447428098321,0.015578677403926848,-0.10414674930348991
1782986900292030000,8.799030029296874,-0.6779606363624334,0.029327801293134687,-0.06399363914597779
1782986900302104800,8.809104736328125,-0.43851299781799313,-0.06612754590213299,0.11043993116356432
1782986900312179000,8.819178955078126,-0.12206278361380099,-0.10060206243395804,0.2929675952753052
1782986900322252800,8.829252685546875,0.0626280133485794,-0.08928571864962577,0.3663410206524655
1782986900332328000,8.839327880859376,0.17291209636330604,-0.05371405453085899,0.21458357519451526
1782986900342401800,8.84940185546875,0.1903285105884075,-0.048616439130902286,0.026919607640244064
1782986900352477000,8.859476806640625,0.18078911334872244,-0.021693945413827895,-0.02296173685993999
1782986900362550800,8.86955078125,0.12192191383838653,0.026215222230553625,0.024949111284874377
1782986900372626000,8.8796259765625,0.04945639708638191,0.04567804759144783,0.04776175853032619
1782986900382699800,8.88969970703125,-0.030327918246388433,0.0538964253604412,0.08518321523424237
1782986900392775000,8.89977490234375,-0.06330839682817459,0.0676519789904356,0.06424385104738176
1782986900402848800,8.909848876953125,-0.10259177494645118,0.036927170380949975,0.057800812387838955
1782986900412924000,8.919923828125,-0.023383213675022125,-0.023434651601314544,0.013239384268783032
1782986900422997800,8.929997802734375,0.034922260299324985,-0.025275895553827286,-0.03603336334638298
1782986900433073000,8.940072998046874,0.08716624227762222,-0.02694353650510311,-0.01581383786667138
1782986900443146800,8.950146728515625,0.08615385036468505,-0.04361059366762638,0.001647548011317849
1782986900453222000,8.960221923828126,0.10259294399023056,-0.042160394859313964,0.009248999458365142
1782986900463296000,8.9702958984375,0.12504618333876133,-0.04404372438788414,-0.008480828097462654
1782986900473371000,8.980370849609375,0.06801964325904845,-0.042835517641901966,-0.05261497071515769
1782986900483445000,8.990445068359374,0.040624855855107306,-0.024037878191471098,-0.02635985486563295
1782986900493518800,9.000518798828125,0.06118541332483291,0.003957213193178177,-0.04481532981488853
1782986900503594000,9.010593994140624,0.08388006021380424,0.024088147073984146,-0.0654134062834084
1782986900513667800,9.020667724609375,0.10494272198677063,0.027103110980987548,-0.05040763339661061
1782986900523743000,9.030742919921876,0.11149638141393661,0.022886954590678212,-0.04128467147070914
1782986900533816800,9.04081689453125,0.13088964866995811,0.03118424281477928,-0.0700721918746829
1782986900543892000,9.05089208984375,0.17721183938384055,0.03240063286721706,-0.10568323815576731
1782986900553965800,9.0609658203125,0.17901333584785462,0.06168868667185306,-0.10441774826459586
1782986900564041000,9.071041015625,0.14109306277632713,0.04851707040965557,-0.08921005959752946
1782986900574114800,9.08111474609375,0.1342968267649412,0.036270752298831935,-0.07806271570455282
1782986900584190000,9.09118994140625,0.11436872197985648,0.017715689432621,-0.08808865435216576
1782986900594263800,9.101263916015625,0.0353051221370697,0.010866846451163292,-0.06258300516307354
1782986900604339000,9.1113388671875,-0.005713116949796676,-0.006288871011137962,-0.06162029761075973
1782986900614412800,9.121412841796875,0.03156184395551681,-0.016853519645333288,-0.0299516688125208
1782986900624488000,9.131488037109374,0.05788929438889026,-0.01634498560130596,0.0051680502876639365
1782986900634561800,9.141561767578125,0.12572948942780493,-0.02747252881526947,0.030252003465965387
1782986900644636000,9.151635986328126,0.16561434057056904,-0.046451370051503175,0.04203764526247978
1782986900654710800,9.161710693359375,0.12223171043992041,-0.03811901051402092,0.03913505568876862
1782986900664785000,9.171784912109375,0.017880524605512618,-0.03266659032702446,0.030625111094675958
1782986900674859800,9.18185986328125,-0.07956570414602757,-0.025291093122959137,0.01474346868880093
1782986900684934000,9.191933837890625,-0.13205050914287567,-0.01584755747318268,0.023493870975263415
1782986900695008800,9.2020087890625,-0.1255786827802658,-0.005893149691820144,0.016089695665985344
1782986900705083000,9.212082763671875,-0.07713409308493137,-0.006228665256500244,-0.0017434826664626598
1782986900715157800,9.22215771484375,0.008807575833797454,-0.07758125233054161,0.005760024831444025
1782986900725231900,9.23223193359375,0.062198389759659765,-0.08093114728033542,-0.021113442112132907
1782986900735306800,9.242306640625,0.10753858369886875,-0.026962825727462766,-0.03512859652638435
1782986900745380900,9.252380859375,0.11078209566473961,-0.04693067800104618,-0.051164735374227166
1782986900755455700,9.262455810546875,0.13585516212284565,-0.050692660883069035,-0.021131854551658034
1782986900765529900,9.27252978515625,0.15271920316219328,-0.01375730719566345,-0.021514570258930325
1782986900775604700,9.282604736328125,0.16850538583695887,-0.01584580390751362,0.0033981910709291693
1782986900785678800,9.292678955078125,0.1890735420912504,-0.004431260445713996,-0.0014478607207536697
1782986900795752700,9.302752685546874,0.23224048364460467,-0.020889058771729467,-0.004722133151069283
1782986900805827800,9.312827880859375,0.21342881566882133,-0.00537350973188877,-0.03624043022580445
1782986900815901700,9.322901611328126,0.18370821566581724,0.01051613331735134,-0.03330094270780683
1782986900825976800,9.332976806640625,0.21260288623869417,0.03422726377248764,-0.019881343033909798
1782986900836050700,9.34305078125,0.23540917680859563,0.049313189223408695,-0.03950549643635749
1782986900846125800,9.353125732421875,0.19070026651024818,0.0540098226070404,-0.08642623756527901
1782986900856199700,9.36319970703125,0.1069739355534315,0.04978489838838577,-0.095572251573205
1782986900866274800,9.37327490234375,0.09391922366917133,0.04086860148310661,-0.09691277946196496
1782986900876348700,9.3833486328125,0.14155132793784142,0.025082418808341025,-0.13449490662030875
1782986900886423800,9.393423828125,0.1675274807155132,-0.009606617256999015,-0.167497597033903
1782986900896497700,9.40349755859375,0.14476619833111762,-0.026332711130380628,-0.15171156048960982
1782986900906572800,9.41357275390625,0.17854513381421566,0.013372107270359992,-0.11566278037838637
1782986900916646700,9.423646728515624,0.15034604429006576,0.014487375035881996,-0.08119009047746657
1782986900926721800,9.4337216796875,-0.059735799038410184,0.019690204375982283,-0.08860248562581836
1782986900936795600,9.443795654296874,-0.2302262212127447,-0.010834113225340843,-0.06907667803131043
1782986900946869800,9.453869873046875,-0.2044026286482811,-0.012941899159550666,0.048559521311894054
1782986900956944600,9.463944580078126,-0.10789455752968788,0.005309796845912933,0.0961238941065967
1782986900967018800,9.474018798828125,0.002209492743015289,0.017933716097474097,0.06887326441369951
1782986900977094000,9.484093994140625,0.06855389626622199,0.024334815311431883,-0.017183263056352732
1782986900987167700,9.494167724609374,0.012862988704442977,0.021168460234999655,-0.16806304889693854
1782986900997243000,9.504242919921875,-0.046747722649574275,0.02945230445563793,-0.17504487060829996
1782986901007316700,9.514316650390626,-0.038982349345088,-0.07334872932732105,-0.13548369846194983
1782986901017391900,9.524391845703125,-0.13026421024799345,-0.04742109186649322,-0.07254055474959313
1782986901027465700,9.5344658203125,-0.30974808621704575,-0.005026303729414939,-0.07764160421565175
1782986901037540900,9.544540771484375,-0.3001011369496584,-0.0418885921806097,-0.12627842854745686
1782986901047614700,9.55461474609375,-0.14841536848843095,-0.10992109492123127,-0.15364990814104676
1782986901057689900,9.56468994140625,0.0711111795336008,-0.10948094993829727,-0.09824066706486045
1782986901067763700,9.574763671875,0.29426351683735846,-0.1168038401722908,-0.040434301719069476
1782986901077839000,9.584839111328124,0.3442804704159498,-0.12758651547133923,-0.011577552003785968
1782986901087913000,9.594912841796875,0.3252759102165699,-0.12844810073673724,-0.00030351299121975897
1782986901097987000,9.604987060546875,0.2784288188457489,-0.10297229869663714,0.04668247539363801
1782986901108062000,9.61506201171875,0.2444353638291359,-0.05405190818309784,0.0800284262869507
1782986901118136000,9.625135986328125,0.1683165852665901,-0.03620996202230453,0.0858888427529484
1782986901128211000,9.6352109375,0.06744213563203812,-0.01051964044868946,0.09761325588151812
1782986901138285000,9.64528515625,0.06838321587443351,0.005949848315119743,0.09915193669088185
1782986901148360000,9.65535986328125,0.13287526952922343,0.0014566285490989685,0.11084982713870703
1782986901158434000,9.66543408203125,0.19192659343481064,-0.009789572608470916,0.12879896000102162
1782986901168509000,9.675509033203125,0.23552783475220201,-0.022767127603292463,0.12523396099582312
1782986901178583000,9.6855830078125,0.2018967833071947,-0.006546060642600059,0.039025311703979965
1782986901188658000,9.695657958984375,0.17752046694159507,0.010170096358656882,-0.020822861667722462
1782986901198732000,9.70573193359375,0.08630757962167263,-0.0059545244902372355,0.005948021684214473
1782986901208807000,9.715806884765625,0.01440612649321556,-0.0036596915513277053,0.02758168827816844
1782986901218881000,9.725881103515626,-0.004068272352218628,-0.016666472640633583,0.04691825691089034
1782986901228956000,9.735955810546875,-0.054524201869964595,-0.01015840592086315,0.033727132230624554
1782986901239030000,9.746030029296875,-0.08281389228701591,-0.006667641195654868,0.03386354502663016
1782986901249104100,9.756104248046874,-0.046831893801689145,-0.005959200665354728,0.04824124914295971
1782986901259179000,9.766178955078125,0.017808628413081166,0.0018768997877836226,0.054735506533086294
1782986901269253000,9.776253173828126,0.12571136924922466,0.0056254386663436885,0.08573197169080377
1782986901279328000,9.786327880859375,0.1640595123440027,0.003066401833295822,0.04669358130954206
1782986901289402000,9.796402099609375,0.16084756456017493,0.004461071062088012,0.030173531402274963
1782986901299477000,9.80647705078125,0.1500742416113615,-0.0004284545451402664,0.022443594737350938
1782986901309551000,9.816551025390625,0.12001111178100109,0.029275778844952582,0.009726517309620975
1782986901319626000,9.8266259765625,0.09666589202880858,0.012862988704442977,-0.021672025842964647
1782986901329700000,9.8367001953125,0.0020598551392555235,0.013159925824403762,-0.05610979056097567
1782986901339775000,9.84677490234375,-0.011073182678222656,0.028950784674286842,-0.046858489547669885
1782986901349849000,9.85684912109375,0.022953005564212797,0.020837036323547362,-0.0712941348850727
1782986901359924000,9.866924072265626,0.066793316334486,0.0190185887247324,-0.08680179287940264
1782986901369998000,9.876998046875,0.08135726373791693,0.032545594295859334,-0.08396379297450185
1782986901380073000,9.887072998046875,0.12069675595760344,0.01101765309870243,-0.1251486207999289
1782986901390147000,9.89714697265625,0.17259645454287528,-0.01003039562702179,-0.09179872438386082
1782986901400222000,9.907221923828125,0.14050035758018492,-0.022316461226344106,-0.034719869595021005
1782986901410296000,9.917296142578126,0.1502694719225168,0.008556231421232224,-0.022525573932379483
1782986901420371000,9.927370849609375,0.13349252464473246,-0.005008768072724342,-0.04600508758872747
1782986901430445000,9.937445068359375,0.015777414846420288,-0.0012298340559005736,-0.04637494381442666
1782986901440520000,9.94752001953125,-0.06863806741833686,-0.02767301982343197,-0.04264532883204519
1782986901450594300,9.95759423828125,-0.04355857121944427,-0.023456278911232947,-0.021432956390082834
1782986901460669000,9.9676689453125,0.023478490743041036,-0.002589431971311569,0.007295417705178261
1782986901470743300,9.977743408203125,0.07761398555636405,-0.03494154952168464,-0.010288388976082205
1782986901480817200,9.987817138671875,0.11668459770679473,-0.04946341134905815,-0.04186959521919489
1782986901490892300,9.997892333984375,0.16193652884066104,-0.05662321997582912,-0.08491108376197516
1782986901500966100,10.007966064453125,0.15904139192104338,-0.05726619405448436,-0.06743475604318082
1782986901511041300,10.018041259765624,0.08845394400060176,-0.05060615164339542,-0.05429813802912831
1782986901521115100,10.028115234375,0.024345336705446242,-0.0393090970814228,-0.061946387759968635
1782986901531190300,10.038190185546876,0.019391513690352438,-0.028203765699267386,-0.09474091531559824
1782986901541264100,10.04826416015625,0.03371697616279125,0.0122258598446846,-0.08412263679802418
1782986901551339300,10.05833935546875,0.005773907226324081,0.009010989451408385,-0.027278759808838367
1782986901561413000,10.0684130859375,0.09496025715470313,-0.014849778607487677,0.00798603031784296
1782986901571488300,10.07848828125,0.1528197409272194,-0.025465280646085737,0.07205795886442065
1782986901581562000,10.08856201171875,0.08830196830928325,-0.06645780076980591,0.13563655093610286
1782986901591637200,10.09863720703125,0.060109893047809594,0.0015168343037366865,0.15137283005453644
1782986901601711000,10.108711181640626,0.183710553753376,0.08357844691872596,0.1547344885073602
1782986901611786200,10.1187861328125,0.18375322385132312,0.010039163455367088,0.15679317460283637
1782986901621860000,10.128860107421875,-0.022318214792013166,-0.08902443736493587,0.19387991945967076
1782986901631935200,10.138935302734374,-0.05286942040026187,-0.0860211638957262,0.15758081784918904
1782986901642009000,10.149009033203125,0.07997019329369068,-0.06234452023208141,0.022208543872460722
1782986901652083200,10.159083251953126,0.22351590991914272,0.047054596641659736,0.0520459751881659
1782986901662158000,10.169157958984375,0.22594518289268015,0.12184709503650665,0.1711870261363685
1782986901672232200,10.179232177734375,0.16142799479663372,0.01947685388624668,0.09538820024318992
1782986901682307000,10.18930712890625,0.1380401049464941,-0.018687164813280106,0.09042977411821485
1782986901692381200,10.199381103515625,0.08484393680989742,-0.03154372377693653,0.17584281605295835
1782986901702456000,10.2094560546875,0.040427871978282924,-0.024617723906040192,0.10754534223321825
1782986901712530200,10.2195302734375,-0.17199731960594652,-0.01490413914322853,-0.03036711774561554
1782986901722605000,10.22960498046875,-0.4345230513989925,-0.02288110937178135,-0.14611907424479723
1782986901732679200,10.23967919921875,-0.44596331382393833,0.02466740826666355,-0.1517126199355349
1782986901742754000,10.249754150390626,-0.2743862654566765,0.055363575303554534,-0.20296247630994765
1782986901752828200,10.259828125,-0.01967033063173294,-0.03588555237352848,-0.2975015854431316
1782986901762903000,10.269903076171875,0.20231004028320312,-0.08097849355340003,-0.27183168560303744
1782986901772977200,10.27997705078125,0.3375292425900698,-0.11531389387547969,-0.14975253537632524
1782986901783052000,10.290052001953125,0.3888140241473913,-0.09931962140798568,0.0025610826596617698
1782986901793126100,10.300126220703126,0.34322365483939643,-0.08381459376215934,0.08266995377168058
1782986901803201000,10.310200927734375,0.20371464638411999,-0.1004080011665821,-0.0025220658235251903
1782986901813275100,10.320275146484375,-0.05323533110320568,-0.21768471954762936,-0.032011049027740955
1782986901823349000,10.330348876953124,-0.08822773402929306,-0.1333078157275915,0.10388327606171369
1782986901833424100,10.340424072265625,-0.09050269322395324,-0.0494219102948904,0.044796150190383195
1782986901843498000,10.350498046875,-0.115274146386981,-0.04271744422018528,0.00901763838790357
1782986901853573000,10.360572998046875,-0.16816928575038909,-0.02974281183481216,0.09679441377930342
1782986901863647000,10.37064697265625,-0.15211363848447798,-0.013477905732393264,0.13407887316532432
1782986901873722000,10.38072216796875,-0.05555939013659954,-0.004358195209503174,0.05769157985970377
1782986901883796000,10.3907958984375,0.13225976797938346,-0.02650339152216911,-0.03844480840228498
1782986901893871000,10.40087109375,0.3059346654087305,-0.019679682981967924,-0.02404240823611617
1782986901903945000,10.410945068359375,0.34440029740333555,-0.02694879720211029,-0.015717428287491203
1782986901914020000,10.42102001953125,0.26155074928104877,-0.012989245432615279,-0.0018219547301530836
1782986901924094000,10.431093994140625,0.15038228464722633,0.02225625547170639,-0.016168971447274087
1782986901934169000,10.441169189453126,0.18657003483772278,-0.052370238706469535,-0.12046199735365808
1782986901944243000,10.451242919921874,0.21860300343632696,-0.07132102289199829,-0.0954170610114932
1782986901954318000,10.461318115234375,0.2013303815960884,0.03015723785459995,-0.04041377038769424
1782986901964392200,10.47139208984375,0.19885025521814823,0.03979951094686985,-0.10458601750358938
1782986901974466000,10.481466064453125,0.2044973211944103,0.0493348165333271,-0.11691972163692116
1782986901984541200,10.491541259765626,0.24145313314795494,0.05418985534906387,-0.10030359094403683
1782986901994615000,10.501614990234375,0.2954606176674366,0.0005716624081134796,-0.11084537015929817
1782986902004690200,10.511690185546875,0.25452771877646446,-0.027009002956748008,-0.1469614433530718
1782986902014764000,10.521763916015624,0.10768237608373164,-0.04497252967059612,-0.11286869268044829
1782986902024839200,10.531839111328125,-0.017988076633214948,-0.16988661106228828,0.11732822937257588
1782986902034913000,10.5419130859375,-0.16430325797200201,0.1147036530226469,0.26858780831098555
1782986902044988200,10.55198828125,-0.2698714183807373,0.21518296585977076,0.08753127619773149
1782986902055062000,10.56206201171875,-0.217978149536252,0.07476034969091415,-0.16010507562980056
1782986902065137200,10.57213720703125,-0.15550561901032925,0.01887421181797981,-0.04206482553035021
1782986902075211000,10.5822109375,-0.18952946916520594,0.10723054066300391,0.0841362999971956
1782986902085286100,10.5922861328125,-0.2432674890935421,0.13236089026629924,0.04626841470003128
1782986902095360000,10.602360107421875,-0.2960252658128738,0.04474398161172866,0.15034984368234872
