time,seconds_elapsed,z,y,x
1782986891551170600,0.058170654296875,0.0945667177438736,-0.017949439585208893,0.11720625311136246
1782986891561244400,0.068244384765625,0.11698387563228607,0.011696869507431984,0.12196159362792969
1782986891571319600,0.078319580078125,0.1421659290790558,0.01661173440515995,0.13654959201812744
1782986891581393400,0.088393310546875,0.161147341132164,0.024454476311802864,0.14368019998073578
1782986891591468500,0.098468505859375,0.17854124307632446,0.027367709204554558,0.1366494596004486
1782986891601542400,0.10854248046875,0.18597573041915894,0.024468325078487396,0.12543807923793793
1782986891611617500,0.118617431640625,0.18167711794376373,0.027544010430574417,0.11732955276966095
1782986891621691400,0.12869140625,0.16700416803359985,0.014571486040949821,0.09389134496450424
1782986891631766500,0.1387666015625,0.1442655622959137,-0.010653975419700146,0.0653904601931572
1782986891641840400,0.14884033203125,0.1189412996172905,-0.03387727215886116,0.03828240931034088
1782986891651915500,0.15891552734375,0.09852471202611923,-0.04068910703063011,0.02646516263484955
1782986891661989400,0.1689892578125,0.061641525477170944,-0.051175303757190704,0.020538831129670143
1782986891672064500,0.179064453125,0.03467009589076042,-0.06085189804434776,0.01890471577644348
1782986891682138600,0.189138671875,0.019819511100649834,-0.057504571974277496,0.026338662952184677
1782986891692212500,0.19921240234375,0.004910602699965239,-0.032709743827581406,0.02220437116920948
1782986891702287600,0.20928759765625,-0.0000679106087773107,0.0179331935942173,0.019275959581136703
1782986891712361500,0.219361572265625,0.0073628416284918785,0.06576596200466156,0.011628426611423492
1782986891722436600,0.2294365234375,0.0240803025662899,0.09019780158996582,-0.004352670628577471
1782986891732510500,0.239510498046875,0.027159981429576874,0.08218488097190857,-0.019278889521956444
1782986891742585600,0.249585693359375,0.022713568061590195,0.05675861984491348,-0.03760756179690361
1782986891752659500,0.259659423828125,0.025055285543203354,0.031124096363782883,-0.039014775305986404
1782986891762734600,0.269734619140625,0.025003619492053986,-0.0046485476195812225,-0.037460554391145706
1782986891772808400,0.279808349609375,0.029385585337877274,-0.038664039224386215,-0.04867299646139145
1782986891782883600,0.289883544921875,0.029134448617696762,-0.07516133040189743,-0.058508049696683884
1782986891792957400,0.29995751953125,0.023602796718478203,-0.09325138479471207,-0.0612172856926918
1782986891803032600,0.310032470703125,0.0179933812469244,-0.08467094600200653,-0.057014815509319305
1782986891813106400,0.3201064453125,0.010358098894357681,-0.05599695444107056,-0.0486101470887661
1782986891823181600,0.330181640625,0.01389770582318306,-0.011889150366187096,-0.037155091762542725
1782986891833255400,0.34025537109375,0.01618935540318489,0.005573996342718601,-0.0268904697149992
1782986891843330600,0.35033056640625,0.018447184935212135,0.004958007019013166,-0.01841256208717823
1782986891853404400,0.360404296875,0.020720457658171654,0.00791384931653738,-0.011463310569524765
1782986891863478800,0.370478759765625,0.024988707154989243,0.0017699368763715029,-0.007637413218617439
1782986891873553400,0.380553466796875,0.029342975467443466,0.003469299990683794,-0.004522846546024084
1782986891883627800,0.390627685546875,0.039872314780950546,0.004305799026042223,-0.0004242415598127991
1782986891893702400,0.400702392578125,0.049073003232479095,-0.016158463433384895,0.004822718445211649
1782986891903776800,0.41077685546875,0.05868115648627281,-0.05290422588586807,0.022068284451961517
1782986891913851400,0.420851318359375,0.08587735891342163,-0.04855262115597725,0.060389306396245956
1782986891923925800,0.43092578125,0.12395896017551422,-0.009512278251349926,0.10591445118188858
1782986891934000400,0.44100048828125,0.17238721251487732,0.03292492777109146,0.14254648983478546
1782986891944074800,0.45107470703125,0.20702189207077026,0.04565563425421715,0.15806926786899567
1782986891954149400,0.4611494140625,0.21426010131835938,0.029092371463775635,0.16605794429779053
1782986891964223700,0.4712236328125,0.2035328894853592,0.0012455604737624526,0.1649295687675476
1782986891974298400,0.48129833984375,0.17290253937244415,-0.006213154643774033,0.16288559138774872
1782986891984372700,0.491372802734375,0.1396886557340622,-0.004068511072546244,0.1496526151895523
1782986891994447400,0.501447265625,0.11142399907112122,-0.0018466358305886388,0.12047554552555084
1782986892004521700,0.511521728515625,0.07852943241596222,-0.007748466916382313,0.08768324553966522
1782986892014596400,0.521596435546875,0.046248454600572586,-0.021075723692774773,0.05697886273264885
1782986892024670700,0.531670654296875,0.010448912158608437,-0.023495472967624664,0.03044339269399643
1782986892034744600,0.54174462890625,-0.020289292559027672,-0.028662005439400673,0.00432976707816124
1782986892044819700,0.55181982421875,-0.03953862190246582,-0.04152959957718849,-0.014946725219488144
1782986892054893600,0.5618935546875,-0.04390407353639603,-0.04510995373129845,-0.028501149266958237
1782986892064969200,0.57196923828125,-0.042341865599155426,-0.04481514170765877,-0.03429538756608963
1782986892075043300,0.582043212890625,-0.04104384034872055,-0.03966991603374481,-0.02630430832505226
1782986892085118200,0.5921181640625,-0.037571609020233154,-0.03204741328954697,-0.015303322114050388
1782986892095192300,0.6021923828125,-0.032576851546764374,-0.006165750324726105,-0.01119326613843441
1782986892105267200,0.61226708984375,-0.023556990548968315,0.023992417380213737,-0.005833654198795557
1782986892115341300,0.62234130859375,-0.016016783192753792,0.04764555022120476,0.0004058657505083829
1782986892125416200,0.632416259765625,-0.024518925696611404,0.06729461997747421,0.005280515644699335
1782986892135490300,0.642490234375,-0.018387529999017715,0.10152316093444824,0.020709272474050522
1782986892145565200,0.652565185546875,0.010835337452590466,0.11763075739145279,0.045767754316329956
1782986892155639300,0.662639404296875,0.055148474872112274,0.07630302757024765,0.0806807279586792
1782986892165714200,0.672714111328125,0.09531453251838684,0.057739727199077606,0.14390604197978973
1782986892175788300,0.682788330078125,0.12211339175701141,0.07168164104223251,0.21768306195735931
1782986892185863200,0.69286328125,0.13731098175048828,0.11507438868284225,0.2919016182422638
1782986892195937300,0.702937255859375,0.13304167985916138,0.15658774971961975,0.3443658947944641
1782986892206011400,0.713011474609375,0.11361657828092575,0.14490045607089996,0.37384575605392456
1782986892216086300,0.723086181640625,0.09318480640649796,0.1256577968597412,0.40190136432647705
1782986892226160400,0.733160400390625,0.08191484212875366,0.13336683809757233,0.4296427071094513
1782986892236235300,0.7432353515625,0.07937285304069519,0.15571768581867218,0.4338670074939728
1782986892246309400,0.753309326171875,0.08705074340105057,0.1749774068593979,0.4188646376132965
1782986892256384300,0.76338427734375,0.09703120589256287,0.1775984913110733,0.3914729654788971
1782986892266458400,0.773458251953125,0.1006602942943573,0.16204562783241272,0.3628162741661072
1782986892276533200,0.783533203125,0.09122498333454132,0.1353072226047516,0.3379655182361603
1782986892286607400,0.793607421875,0.07260842621326447,0.10568302124738693,0.3198198080062866
1782986892296682200,0.80368212890625,0.049372076988220215,0.09230516105890274,0.3041055500507355
1782986892306756400,0.81375634765625,0.031122766435146332,0.12160978466272354,0.29200974106788635
1782986892316831200,0.823831298828125,0.02413276582956314,0.13903164863586426,0.2708171010017395
1782986892326905300,0.8339052734375,0.01998915523290634,0.12476776540279388,0.23920246958732605
1782986892336980200,0.843980224609375,0.02154257707297802,0.08211750537157059,0.2020857185125351
1782986892347054300,0.854054443359375,0.03808293864130974,0.03473933786153793,0.1794842779636383
1782986892357128200,0.864128173828125,0.05783693492412567,0.03087322786450386,0.18115487694740295
1782986892367203300,0.874203369140625,0.06788424402475357,0.07885753363370895,0.19068525731563568
1782986892377277200,0.884277099609375,0.07212319225072861,-0.05944974347949028,0.1501367688179016
1782986892387352300,0.894352294921875,0.06689567863941193,-0.10329895466566086,0.07796697318553925
1782986892397426200,0.90442626953125,0.07396503537893295,-0.10937043279409409,-0.0018676748732104897
1782986892407501300,0.914501220703125,0.07473921775817871,-0.11158698052167892,-0.09232327342033386
1782986892417575200,0.9245751953125,0.03196805343031883,-0.11648640036582947,-0.17557981610298157
1782986892427650300,0.934650390625,-0.033311616629362106,-0.1349218636751175,-0.24176868796348572
1782986892437724400,0.944724365234375,-0.09365618228912354,-0.19021014869213104,-0.29173144698143005
1782986892447799300,0.95479931640625,-0.1432301253080368,-0.22113265097141266,-0.3306349217891693
1782986892457873400,0.964873291015625,-0.19131936132907867,-0.2289775162935257,-0.36141812801361084
1782986892467948300,0.9749482421875,-0.20175069570541382,-0.2217150777578354,-0.3606950640678406
1782986892478022400,0.9850224609375,-0.15867459774017334,-0.19458305835723877,-0.32792168855667114
1782986892488097300,0.99509716796875,-0.10448619723320007,-0.18295809626579285,-0.2736528515815735
1782986892498171400,1.00517138671875,-0.06564851850271225,-0.17304182052612305,-0.20218825340270996
1782986892508246300,1.015246337890625,-0.05017635226249695,-0.15286117792129517,-0.11255637556314468
1782986892518320400,1.0253203125,-0.05910699442028999,-0.12690921127796173,-0.028058266267180443
1782986892528394200,1.035394287109375,-0.07011916488409042,-0.10758958011865616,0.02081499993801117
1782986892538469400,1.045469482421875,-0.06943659484386444,-0.11645710468292236,0.034206174314022064
1782986892548543200,1.055543212890625,-0.05896398425102234,-0.1097446084022522,0.01631106249988079
1782986892558618400,1.065618408203125,-0.041429731994867325,-0.08968780934810638,-0.017310013994574547
1782986892568692200,1.075692138671875,-0.026999393478035927,-0.08563101291656494,-0.06842593103647232
1782986892578767400,1.085767333984375,-0.016103602945804596,-0.09464235603809357,-0.1182403564453125
1782986892588841200,1.09584130859375,-0.017003217712044716,-0.07628731429576874,-0.15693847835063934
1782986892598916400,1.105916259765625,-0.014966965653002262,-0.052146557718515396,-0.1853027492761612
1782986892608990200,1.115990234375,-0.008472846820950508,-0.05570773780345917,-0.20098504424095154
1782986892619065300,1.1260654296875,0.003975833300501108,-0.06480535864830017,-0.19665074348449707
1782986892629139200,1.13613916015625,0.005086637567728758,-0.08496548980474472,-0.17788371443748474
1782986892639214300,1.14621435546875,-0.01221645250916481,-0.0830157920718193,-0.13944551348686218
1782986892649288200,1.1562880859375,-0.030375216156244278,-0.05909527838230133,-0.10192343592643738
1782986892659363300,1.16636328125,-0.0343015156686306,-0.04580423980951309,-0.07205262035131454
1782986892669437200,1.176437255859375,-0.02616955153644085,-0.04271071031689644,-0.04869110509753227
1782986892679512300,1.18651220703125,-0.015211177058517933,-0.047144077718257904,-0.027526699006557465
1782986892689586200,1.196586181640625,-0.013906228356063366,-0.040109869092702866,0.0009693906176835299
1782986892699660300,1.206660400390625,-0.013247095979750156,-0.011835354380309582,0.029172265902161598
1782986892709735200,1.216735107421875,-0.014706774614751339,0.009185508824884892,0.05205867439508438
1782986892719809300,1.226809326171875,-0.015342471189796925,0.015196263790130615,0.06956522911787033
1782986892729884200,1.23688427734375,-0.01435310672968626,-0.0034056503791362047,0.07663539052009583
1782986892739958300,1.246958251953125,-0.018428275361657143,-0.026924557983875275,0.07451178133487701
1782986892750033200,1.257033203125,-0.023872310295701027,-0.0032898029312491417,0.06437552720308304
1782986892760107300,1.267107177734375,-0.029321670532226562,0.048881787806749344,0.04681544378399849
1782986892770182100,1.27718212890625,-0.012077435851097107,0.09769193828105927,0.03761794790625572
1782986892780256300,1.28725634765625,0.0113413380458951,0.11629864573478699,0.05247838795185089
1782986892790331100,1.2973310546875,0.010729876346886158,0.13500815629959106,0.09261568635702133
1782986892800405200,1.3074052734375,-0.010391654446721077,0.18967007100582123,0.14974981546401978
1782986892810480000,1.317480224609375,-0.0381428599357605,0.2778758108615875,0.20288147032260895
1782986892820554200,1.32755419921875,-0.07286302000284195,0.3300146460533142,0.23941712081432343
1782986892830629400,1.33762939453125,-0.09339839220046997,0.3383737802505493,0.2533795237541199
1782986892840703200,1.347703125,-0.09139036387205124,0.3387538194656372,0.26324015855789185
1782986892850777000,1.357777099609375,-0.06774309277534485,0.32419776916503906,0.2821139693260193
1782986892860852200,1.367852294921875,-0.024646490812301636,0.28879985213279724,0.30666032433509827
1782986892870926000,1.377926025390625,0.02057505026459694,0.22951894998550415,0.33693835139274597
1782986892881001200,1.388001220703125,0.05681880936026573,0.1694422960281372,0.3605366051197052
1782986892891075000,1.398074951171875,0.07360418140888214,0.14103302359580994,0.38077211380004883
1782986892901150200,1.408150146484375,0.07033567875623703,0.1333410143852234,0.3802397549152374
1782986892911224000,1.41822412109375,0.05549175292253494,0.15860243141651154,0.3617909550666809
1782986892921299200,1.42829931640625,0.03539074584841728,0.1848582625389099,0.32130399346351624
1782986892931373000,1.438373046875,0.008345814421772957,0.09970448911190033,0.22593165934085846
1782986892941448200,1.4484482421875,-0.028660407289862633,-0.14028200507164001,0.07281295210123062
1782986892951522300,1.458522216796875,-0.055087219923734665,-0.21543188393115997,-0.08233002573251724
1782986892961597200,1.46859716796875,-0.06470149755477905,-0.15560024976730347,-0.19358837604522705
1782986892971671300,1.47867138671875,-0.08843452483415604,-0.0591549314558506,-0.2680050730705261
1782986892981746200,1.48874609375,-0.13080328702926636,-0.03629276156425476,-0.30625447630882263
1782986892991820300,1.4988203125,-0.14413560926914215,-0.061949919909238815,-0.2942529320716858
1782986893001895200,1.508895263671875,-0.12444712221622467,-0.03502775728702545,-0.24193672835826874
1782986893011969300,1.51896923828125,-0.08906303346157074,0.0021584921050816774,-0.1741022914648056
1782986893022043100,1.529043212890625,-0.038288265466690063,-0.01697259210050106,-0.11029321700334549
1782986893032118300,1.5391181640625,0.0018045579781755805,-0.06744349002838135,-0.049673013389110565
1782986893042192100,1.549192138671875,0.02099875919520855,-0.11846645921468735,-0.01411501970142126
1782986893052267300,1.559267333984375,0.018632806837558746,-0.17153607308864594,0.013038303703069687
1782986893062340900,1.5693408203125,0.008511196821928024,-0.17544372379779816,0.022784141823649406
1782986893072416000,1.579416015625,0.010123474523425102,-0.14018107950687408,0.023810258135199547
1782986893082489900,1.58948974609375,0.015874303877353668,-0.10162463039159775,0.010292318649590015
1782986893092565000,1.59956494140625,0.015181349590420723,-0.07363826781511307,-0.011709919199347496
1782986893102638800,1.609638916015625,0.005440039094537497,-0.053588926792144775,-0.03591805323958397
1782986893112714000,1.6197138671875,-0.008505337871611118,-0.04978513345122337,-0.05548030138015747
1782986893122787800,1.629787841796875,-0.013659087009727955,-0.030466295778751373,-0.07137085497379303
1782986893132863000,1.639863037109375,-0.018132131546735764,-0.014700116589665413,-0.0813441276550293
1782986893142937000,1.64993701171875,-0.018572086468338966,-0.008076568134129047,-0.09304738789796829
1782986893153012000,1.660011962890625,-0.027835359796881676,-0.0344112366437912,-0.10707052797079086
1782986893163086000,1.670086181640625,-0.041845984756946564,-0.04911055415868759,-0.10614108294248581
1782986893173161000,1.680160888671875,-0.043053194880485535,-0.03999881446361542,-0.08785555511713028
1782986893183235000,1.690235107421875,-0.03207378089427948,-0.016919061541557312,-0.05438068509101868
1782986893193309200,1.70030908203125,-0.011785819195210934,-0.012515525333583355,-0.028714202344417572
1782986893203384000,1.710384033203125,-0.009407083503901958,-0.03459899127483368,-0.018489262089133263
1782986893213458200,1.720458251953125,-0.009498963132500648,-0.04433603957295418,-0.01452780980616808
1782986893223533000,1.730532958984375,-0.014182398095726967,-0.022036859765648842,-0.004554271697998047
1782986893233607200,1.740607177734375,-0.015549665316939354,-0.0040765004232525826,-0.013379188254475594
1782986893243682000,1.75068212890625,-0.015854064375162125,-0.011742143891751766,-0.02840287983417511
1782986893253756200,1.760756103515625,-0.00908723846077919,-0.034392327070236206,-0.050209641456604004
1782986893263831000,1.7708310546875,0.004404069390147924,-0.06420774757862091,-0.06566396355628967
1782986893273905200,1.7809052734375,0.015927301719784737,-0.1045924574136734,-0.08054517954587936
1782986893283980000,1.79097998046875,0.015776831656694412,-0.14440883696079254,-0.08621371537446976
1782986893294054100,1.80105419921875,0.014666827395558357,-0.161334827542305,-0.0851878672838211
1782986893304129000,1.81112890625,0.017372598871588707,-0.16024932265281677,-0.08345600962638855
1782986893314203100,1.821203125,0.020855214446783066,-0.13636742532253265,-0.08975252509117126
1782986893324278000,1.831278076171875,0.016828248277306557,-0.1428583562374115,-0.09994816780090332
1782986893334352100,1.84135205078125,0.014179201796650887,-0.1553371250629425,-0.11465787142515182
1782986893344426200,1.85142626953125,-0.0018104169284924865,-0.1610562652349472,-0.12232670933008194
1782986893354501000,1.861501220703125,-0.013420467264950275,-0.1619580090045929,-0.11848030984401703
1782986893364575200,1.8715751953125,-0.023083748295903206,-0.13778875768184662,-0.11842437833547592
1782986893374650000,1.881650146484375,-0.022129271179437637,-0.10811501741409302,-0.10991771519184113
1782986893384724200,1.89172412109375,-0.022178273648023605,-0.10018279403448105,-0.09479229152202606
1782986893394799000,1.901799072265625,-0.03208789601922035,-0.10935471951961517,-0.06838012486696243
1782986893404873200,1.911873291015625,-0.04764874652028084,-0.09036850929260254,-0.031388282775878906
1782986893414948000,1.921947998046875,-0.053284261375665665,-0.059964533895254135,-0.0005930859479121864
1782986893425022200,1.932022216796875,-0.04393390193581581,-0.03520619124174118,0.028919532895088196
1782986893435097000,1.94209716796875,-0.032166190445423126,-0.043361321091651917,0.050635747611522675
1782986893445171200,1.952171142578125,-0.02556820958852768,-0.07105953246355057,0.06714042276144028
1782986893455246000,1.96224609375,-0.03651806339621544,-0.07292614132165909,0.09138797223567963
1782986893465320200,1.9723203125,-0.0492413155734539,-0.03223197162151337,0.109674833714962
1782986893475395000,1.98239501953125,-0.052623264491558075,-0.003430684097111225,0.11479049921035767
1782986893485469200,1.99246923828125,-0.039686158299446106,-0.013015666976571083,0.11404348164796829
1782986893495544000,2.0025439453125,-0.029463350772857666,0.0036171053070575,0.10080437362194061
1782986893505618200,2.0126181640625,-0.033371806144714355,0.014705442823469639,0.0859476625919342
1782986893515692000,2.022692138671875,-0.041973017156124115,0.0313134491443634,0.061950452625751495
1782986893525767200,2.03276708984375,-0.04724634066224098,0.035707663744688034,0.03062502108514309
1782986893535841000,2.042841064453125,-0.0403897687792778,0.011983426287770271,-0.003704457078129053
1782986893545916200,2.052916259765625,-0.01878487318754196,0.010250506922602654,-0.029459355399012566
1782986893555990000,2.062989990234375,0.019163575023412704,0.03429538756608963,-0.04917580261826515
1782986893566065200,2.073065185546875,0.059906210750341415,0.03236273303627968,-0.06168573349714279
1782986893576139000,2.083138916015625,0.0748864933848381,0.008285626769065857,-0.05217265710234642
1782986893586214100,2.093214111328125,0.05934081971645355,-0.012465192005038261,-0.020850686356425285
1782986893596288000,2.1032880859375,0.03157443925738335,-0.022713035345077515,0.010088054463267326
1782986893606363100,2.113363037109375,0.020370518788695335,-0.023929568007588387,0.022879216820001602
1782986893616437000,2.12343701171875,0.02618206851184368,-0.03765736520290375,0.014505705796182156
1782986893626512100,2.13351220703125,0.0326082780957222,-0.047741424292325974,-0.0037984666414558887
1782986893636586000,2.1435859375,0.035654399544000626,-0.03785283863544464,-0.015352857299149036
1782986893646661000,2.1536611328125,0.021915152668952942,-0.014578942209482193,-0.02081313729286194
1782986893656735200,2.1637353515625,0.009679258801043034,0.003337739733979106,-0.021526064723730087
1782986893666809000,2.17380908203125,0.005151352379471064,-0.013866547495126724,-0.016391489654779434
1782986893676884200,2.18388427734375,0.006518885493278503,-0.02376924455165863,-0.010118413716554642
1782986893686958000,2.1939580078125,0.012312060222029686,-0.03485971316695213,-0.001341434195637703
1782986893697033200,2.204033203125,0.018802981823682785,-0.07214423269033432,0.002529470482841134
1782986893707107000,2.214107177734375,0.020314060151576996,-0.11598891764879227,-0.005526325665414333
1782986893717182200,2.22418212890625,0.010760768316686153,-0.14482936263084412,-0.01894759200513363
1782986893727256000,2.234256103515625,-0.005652026738971472,-0.13744467496871948,-0.04157833755016327
1782986893737331200,2.244331298828125,-0.019520437344908714,-0.09629138559103012,-0.0684719979763031
1782986893747405000,2.254405029296875,-0.029341377317905426,-0.0658770203590393,-0.08569386601448059
1782986893757480200,2.264480224609375,-0.038241926580667496,-0.02985057421028614,-0.10138361155986786
1782986893767554000,2.274553955078125,-0.03906644135713577,0.002010686555877328,-0.09867464751005173
1782986893777629200,2.284629150390625,-0.026521621271967888,0.025944780558347702,-0.07571020722389221
1782986893787703000,2.294703125,-0.006875482853502035,0.037207022309303284,-0.041668083518743515
1782986893797778200,2.304778076171875,-0.0027561055030673742,0.051417119801044464,-0.00646615494042635
1782986893807852000,2.31485205078125,0.004474110435694456,0.028895298019051552,0.03357074409723282
1782986893817926100,2.324926025390625,0.018679145723581314,-0.011722436174750328,0.06806746870279312
1782986893828001000,2.3350009765625,0.030470557510852814,-0.03840677812695503,0.09387722611427307
1782986893838075100,2.3450751953125,0.042267296463251114,-0.035348135977983475,0.11529570072889328
1782986893848150000,2.35514990234375,0.05149408429861069,-0.013204218819737434,0.12288251519203186
1782986893858224000,2.36522412109375,0.058156512677669525,-0.00803475733846426,0.11189591139554977
1782986893868299000,2.375299072265625,0.057943195104599,-0.03081011027097702,0.09164895862340927
1782986893878373000,2.385373046875,0.05413753539323807,-0.02562520280480385,0.0752050057053566
1782986893888448000,2.395447998046875,0.057022806257009506,-0.0034583809319883585,0.06180237978696823
1782986893898522000,2.405522216796875,0.05825105682015419,-0.002043177140876651,0.046059638261795044
1782986893908597000,2.415596923828125,0.05373912677168846,-0.012764797545969486,0.029223665595054626
1782986893918671000,2.425671142578125,0.05043547600507736,-0.0211231280118227,0.01016954705119133
1782986893928746000,2.43574609375,0.040285371243953705,-0.021324463188648224,-0.005864547099918127
1782986893938820000,2.445820068359375,0.029631128534674644,-0.020591827109456062,-0.010397779755294323
1782986893948895000,2.45589501953125,0.021618476137518883,-0.018984610214829445,-0.007619037292897701
1782986893958969000,2.465968994140625,0.011998605914413929,-0.020496752113103867,0.0006838997360318899
1782986893969043000,2.47604296875,0.00854501873254776,-0.0062248725444078445,0.021211279556155205
1782986893979118000,2.4861181640625,-0.00299286050722003,0.01961657777428627,0.03825391083955765
1782986893989192000,2.49619189453125,-0.016280703246593475,0.02437085285782814,0.05642998591065407
1782986893999267000,2.50626708984375,-0.030599720776081085,0.03635507822036743,0.07139455527067184
1782986894009341000,2.5163408203125,-0.0366608090698719,0.08174972236156464,0.0734180212020874
1782986894019416000,2.526416015625,-0.025622272863984108,0.09504848718643188,0.068207286298275
1782986894029490000,2.536489990234375,-0.014734204858541489,0.08101176470518112,0.057203102856874466
1782986894039565000,2.54656494140625,-0.0029787456151098013,0.07386144250631332,0.04463750869035721
1782986894049639000,2.556638916015625,-0.0015371765475720167,0.04633207991719246,0.04094290733337402
1782986894059714000,2.566714111328125,-0.008382033556699753,0.015361113473773003,0.031262047588825226
1782986894069787600,2.57678759765625,-0.01852654665708542,0.009768474847078323,0.02286909706890583
1782986894079862500,2.586862548828125,-0.01543461624532938,0.017184313386678696,0.009082444943487644
1782986894089936600,2.5969365234375,-0.0015169365797191858,0.013403689488768578,0.0007901599165052176
1782986894100011500,2.607011474609375,0.010801780968904495,0.02834988199174404,0.0009118663729168475
1782986894110085600,2.617085693359375,0.011929363943636417,0.05373486876487732,0.010499512776732445
1782986894120159700,2.62715966796875,0.012190619483590126,0.04420767351984978,0.029256155714392662
1782986894130234600,2.637234619140625,0.00875088106840849,0.020777450874447823,0.04135356470942497
1782986894140308700,2.647308837890625,0.006874417886137962,0.004917260725051165,0.04301084950566292
1782986894150383600,2.657383544921875,0.008296545594930649,-0.009037436917424202,0.03737533465027809
1782986894160457700,2.667457763671875,0.009433715604245663,-0.006966030225157738,0.030825024470686913
1782986894170532600,2.67753271484375,0.011261709034442902,-0.011723235249519348,0.02883138135075569
1782986894180606700,2.687606689453125,0.004745486658066511,0.0008668589289300144,0.026635073125362396
1782986894190681600,2.697681640625,-0.0031004520133137703,0.023481890559196472,0.01985439844429493
1782986894200755700,2.707755615234375,-0.00014647385978605598,0.01775715872645378,0.008474178612232208
1782986894210830600,2.71783056640625,0.005702360533177853,-0.004262122791260481,0.008280566893517971
1782986894220904700,2.72790478515625,0.0010823087068274617,-0.0163616631180048,0.011671037413179874
1782986894230979600,2.7379794921875,-0.008783637546002865,-0.00788641907274723,0.015586948953568935
1782986894241053700,2.7480537109375,-0.0214749313890934,-0.003625893732532859,0.017162742093205452
1782986894251128600,2.758128662109375,-0.021529527381062508,-0.006202235817909241,0.016112390905618668
1782986894261202700,2.76820263671875,-0.012627378106117249,-0.009593505412340164,0.015065768733620644
1782986894271276800,2.77827685546875,-0.003035471076145768,-0.01721147820353508,0.020479975268244743
1782986894281351700,2.7883515625,0.0007283745799213648,-0.00236328924074769,0.039633963257074356
1782986894291425800,2.79842578125,0.0005765743553638458,0.023600401356816292,0.05469200760126114
1782986894301500700,2.808500732421875,-0.0020032296888530254,0.047037817537784576,0.0732041746377945
1782986894311574800,2.81857470703125,-0.00993225909769535,0.05723932012915611,0.08770668506622314
1782986894321649700,2.828649658203125,-0.01757792755961418,0.06823151558637619,0.09489721804857254
1782986894331723800,2.838723876953125,-0.014705176465213299,0.06476061791181564,0.08121895790100098
1782986894341798700,2.848798583984375,-0.005632585845887661,0.034266892820596695,0.05726275593042374
1782986894351872800,2.858872802734375,0.013265738263726234,0.004644286818802357,0.03295581787824631
1782986894361947600,2.86894775390625,0.02485554851591587,-0.011835088022053242,0.003864779369905591
1782986894372021800,2.879021728515625,0.030254041776061058,-0.018325477838516235,-0.021995579823851585
1782986894382096600,2.8890966796875,0.04266037791967392,-0.027041736990213394,-0.03905472531914711
1782986894392170800,2.899170654296875,0.051710065454244614,-0.028976790606975555,-0.046486277133226395
1782986894402245600,2.90924560546875,0.04632488638162613,-0.022546587511897087,-0.04499224200844765
1782986894412319700,2.91931982421875,0.037503432482481,-0.001178182428702712,-0.029887059703469276
1782986894422395000,2.929394775390625,0.03392015025019646,0.008376972749829292,-0.01738990843296051
1782986894432468700,2.93946875,0.030176011845469475,0.008417719043791294,-0.0018064221367239952
1782986894442542800,2.94954296875,0.02828303724527359,0.028666531667113304,0.011597533710300922
1782986894452617700,2.95961767578125,0.018638132140040398,0.041854772716760635,0.023075757548213005
1782986894462691800,2.96969189453125,0.014884673990309238,0.031511854380369186,0.030377347022294998
1782986894472766700,2.9797666015625,0.014484932646155357,0.04459809511899948,0.0296710766851902
1782986894482840800,2.9898408203125,0.021561484783887863,0.049615755677223206,0.02472585253417492
1782986894492915700,2.999915771484375,0.03193822503089905,0.03675534948706627,0.017559818923473358
1782986894502989800,3.00998974609375,0.05006183683872223,0.03562217578291893,0.012053200975060463
1782986894513064700,3.020064697265625,0.05943989008665085,0.033367544412612915,0.0023238742724061012
1782986894523138800,3.030138916015625,0.060264140367507935,0.02822844125330448,-0.005464540328830481
1782986894533213700,3.040213623046875,0.05263444781303406,0.047034621238708496,-0.003751861397176981
1782986894543287800,3.050287841796875,0.05341102555394173,0.06130436807870865,-0.0032373385038226843
1782986894553362700,3.06036279296875,0.0567929744720459,0.04261324182152748,-0.005793174263089895
1782986894563436800,3.070436767578125,0.053278133273124695,-0.0025654230266809464,-0.010459299199283123
1782986894573511700,3.08051171875,0.04138791933655739,-0.023312779143452644,-0.017248494550585747
1782986894583585800,3.090585693359375,0.032763540744781494,-0.009912285953760147,-0.022963106632232666
1782986894593659600,3.10065966796875,0.02557113952934742,-0.005572664551436901,-0.03862409293651581
1782986894603734800,3.11073486328125,0.024887239560484886,-0.00484189298003912,-0.05332474038004875
1782986894613808600,3.12080859375,0.027944017201662064,-0.013019129633903503,-0.07077430188655853
1782986894623883800,3.1308837890625,0.02695811353623867,-0.01625247299671173,-0.08726859092712402
1782986894633957600,3.14095751953125,0.024512799456715584,-0.0054397727362811565,-0.08905051648616791
1782986894644032800,3.15103271484375,0.016933709383010864,-0.00006231796578504145,-0.08916503190994263
1782986894654106600,3.161106689453125,0.007865645922720432,-0.01732492819428444,-0.08113240450620651
1782986894664181800,3.171181640625,0.00956660695374012,-0.031242340803146362,-0.061464160680770874
1782986894674255600,3.181255615234375,0.02004348300397396,-0.03755243495106697,-0.04318928346037865
1782986894684330800,3.191330810546875,0.024344753473997116,-0.03229961544275284,-0.023036610335111618
1782986894694404600,3.201404541015625,0.023631026968359947,-0.022787071764469147,-0.013920076191425323
1782986894704479700,3.211479736328125,0.01774757169187069,-0.023062707856297493,-0.011464109644293785
1782986894714553600,3.2215537109375,0.017541177570819855,-0.030732613056898117,-0.013817545026540756
1782986894724628700,3.231628662109375,0.010366354137659073,-0.07788627594709396,-0.03600460663437843
1782986894734702600,3.24170263671875,0.00868962798267603,-0.05048368126153946,-0.049015481024980545
1782986894744776700,3.251776611328125,0.007729292381554842,-0.02634878270328045,-0.04867752268910408
1782986894754851600,3.2618515625,0.0016924388473853469,-0.008216917514801025,-0.0417567677795887
1782986894764925700,3.27192578125,-0.005541505757719278,0.01563781499862671,-0.024895230308175087
1782986894775000800,3.282000732421875,-0.010855576954782009,0.02417990379035473,-0.006108758971095085
1782986894785074700,3.29207470703125,-0.008359662257134914,0.014300109818577766,0.013683321885764599
1782986894795149800,3.30214990234375,-0.010384996421635151,0.0043737092055380344,0.029695844277739525
1782986894805223700,3.3122236328125,-0.009002815932035446,0.006857373286038637,0.04422685131430626
1782986894815298800,3.322298828125,-0.015505456365644932,0.009165534749627113,0.04386385902762413
1782986894825372700,3.33237255859375,-0.01858779974281788,0.023094667121767998,0.03683098405599594
1782986894835447800,3.34244775390625,-0.016522783786058426,0.02845694124698639,0.028379976749420166
1782986894845521700,3.352521728515625,-0.015094530768692493,0.016762468963861465,0.013629525899887085
1782986894855596800,3.3625966796875,-0.008952216245234013,0.014784804545342922,0.010325341485440731
1782986894865670700,3.372670654296875,-0.0026487798895686865,0.02172526903450489,0.012383699417114258
1782986894875745800,3.382745849609375,0.0025981799699366093,0.0185846034437418,0.01278583612293005
1782986894885819600,3.392819580078125,-0.003287938656285405,0.004393416922539473,0.009676862508058548
1782986894895893500,3.4028935546875,-0.013048158027231693,0.01871616393327713,0.005754558369517326
1782986894905968600,3.41296875,-0.012855078093707561,0.038535673171281815,0.005028048064559698
1782986894916042800,3.423042724609375,-0.0032591766212135553,0.03308578208088875,-0.008452340960502625
1782986894926117600,3.43311767578125,0.006195844151079655,0.008363124914467335,-0.015149923972785473
1782986894936191700,3.443191650390625,0.016034627333283424,0.002445048186928034,-0.015737684443593025
1782986894946266600,3.4532666015625,0.01727299578487873,0.014986139722168446,-0.0093905720859766
1782986894956340700,3.4633408203125,0.01581677980720997,0.031094003468751907,-0.0006436860421672463
1782986894966415600,3.47341552734375,0.015723569318652153,0.044022850692272186,0.005940447095781565
1782986894976489700,3.48348974609375,0.022844595834612846,0.048771265894174576,0.007907191291451454
1782986894986564600,3.493564697265625,0.03298937529325485,0.033435188233852386,0.008580172434449196
1782986894996638700,3.503638671875,0.05000431090593338,0.023752734065055847,0.010781541466712952
1782986895006713600,3.513713623046875,0.05812055990099907,0.005307946354150772,0.006015548016875982
1782986895016787700,3.52378759765625,0.060560017824172974,-0.0233513955026865,-0.008614793419837952
1782986895026862600,3.533862548828125,0.053050167858600616,-0.04025287926197052,-0.024236630648374557
1782986895036936700,3.543936767578125,0.04839443042874336,-0.03815484046936035,-0.036557476967573166
1782986895047010600,3.554010498046875,0.0401436910033226,-0.027047064155340195,-0.047260988503694534
1782986895057085700,3.564085693359375,0.026145583018660545,-0.012087022885680199,-0.05263365060091019
1782986895067160000,3.57416015625,0.021615812554955482,0.00811971165239811,-0.049441851675510406
1782986895077235000,3.58423486328125,0.025715216994285583,0.02370080165565014,-0.03622538223862648
1782986895087309000,3.59430908203125,0.029876139014959335,0.02052871137857437,-0.015054317191243172
1782986895097384000,3.604384033203125,0.03405623883008957,0.0012575446162372828,0.0038285604678094387
1782986895107458000,3.6144580078125,0.034322552382946014,-0.011415107175707817,0.02165469527244568
1782986895117533000,3.624532958984375,0.034031204879283905,-0.017416007816791534,0.03549860417842865
1782986895127607000,3.63460693359375,0.03392574191093445,-0.01158368494361639,0.040769267827272415
1782986895137682000,3.644681884765625,0.030012227594852448,-0.0010194580536335707,0.041606564074754715
1782986895147756000,3.654756103515625,0.028388498350977898,0.00392683083191514,0.03211905434727669
1782986895157831000,3.664830810546875,0.023992683738470078,0.004719654098153114,0.029397036880254745
1782986895167905000,3.674905029296875,0.018793128430843353,0.006902380846440792,0.029401831328868866
1782986895177980200,3.684980224609375,0.018617626279592514,0.015282283537089825,0.029022596776485443
1782986895188054000,3.695053955078125,0.012027101591229439,0.02057025581598282,0.036924462765455246
1782986895198127900,3.7051279296875,0.005862682592123747,0.007773767225444317,0.041980206966400146
1782986895208203000,3.715203125,-0.0004269047058187425,-0.008014783263206482,0.038609977811574936
1782986895218276900,3.72527685546875,0.003457315731793642,-0.012229768559336662,0.034392595291137695
1782986895228352000,3.73535205078125,-0.0001960086519829929,-0.002552373567596078,0.029439382255077362
1782986895238425900,3.74542578125,-0.0029758161399513483,-0.000841825210954994,0.018021877855062485
1782986895248501000,3.7555009765625,-0.0062733422964811325,-0.010645453818142414,0.008416388183832169
1782986895258574800,3.765574951171875,-0.008641424588859081,-0.01708124950528145,0.006871222052723169
1782986895268650000,3.77564990234375,-0.012747220695018768,-0.007188670802861452,0.010230266489088535
1782986895278723800,3.785723876953125,-0.014129933901131153,0.005935120861977339,0.02377084270119667
1782986895288799000,3.795799072265625,-0.014956578612327576,0.01691346988081932,0.0393010675907135
1782986895298873000,3.805873046875,-0.011952799744904041,0.007388674188405275,0.049006957560777664
1782986895308948000,3.815947998046875,-0.001927595934830606,-0.001278849900700152,0.04735366627573967
1782986895319022000,3.82602197265625,0.0007840346079319715,-0.004574511665850878,0.046716637909412384
1782986895329097000,3.836096923828125,0.009188970550894737,0.002285258611664176,0.04097006842494011
1782986895339171000,3.846171142578125,0.013076920062303543,0.003608849598094821,0.031614117324352264
1782986895349245200,3.8562451171875,0.016056731343269348,-0.009255816228687763,0.02004454843699932
1782986895359320000,3.866320068359375,0.02460574358701706,-0.02881540358066559,0.013076653704047203
1782986895369394200,3.876394287109375,0.030315561220049858,-0.024520788341760635,0.007819573394954205
1782986895379469000,3.886468994140625,0.030371220782399178,-0.01629534922540188,0.009166866540908813
1782986895389543200,3.896543212890625,0.02430640533566475,-0.02104962430894375,0.011736550368368626
1782986895399618000,3.9066181640625,0.018143849447369576,-0.03141571208834648,0.0072717610746622086
1782986895409692200,3.916692138671875,0.011181015521287918,-0.025478195399045944,0.00762782571837306
1782986895419767000,3.92676708984375,0.007721569389104843,0.0018466358305886388,0.005944442003965378
1782986895429841200,3.936841064453125,0.0029787456151098013,0.01751561090350151,0.0043926178477704525
1782986895439916000,3.946916015625,0.0002793656021822244,0.02154790237545967,0.009761017747223377
1782986895449990100,3.956990234375,0.0013986921403557062,0.014196246862411499,0.012440424412488937
1782986895460065000,3.96706494140625,0.004575843457132578,0.0022037657909095287,0.01894945651292801
1782986895470139100,3.97713916015625,0.009150621481239796,-0.004563859198242426,0.019115637987852097
1782986895480214000,3.987214111328125,0.015230884775519371,-0.008723184466362,0.023306654766201973
1782986895490288000,3.9972880859375,0.012234295718371868,-0.013066001236438751,0.020795026794075966
1782986895500362200,4.0073623046875,0.013046293519437313,-0.00529569573700428,0.02183845266699791
1782986895510437000,4.01743701171875,0.02058543637394905,0.007604389917105436,0.022590529173612595
1782986895520511200,4.02751123046875,0.02407151460647583,0.013046027161180973,0.029758960008621216
1782986895530586000,4.037586181640625,0.02623107098042965,0.003913515247404575,0.03423653170466423
1782986895540660200,4.04766015625,0.02117905393242836,0.0007153250626288354,0.0349595807492733
1782986895550735000,4.057735107421875,0.016628244891762733,-0.00159470085054636,0.02857491932809353
1782986895560809200,4.067809326171875,0.015026086941361427,-0.00692155584692955,0.022722622379660606
1782986895570884000,4.077884033203125,0.012377840466797352,-0.005531918257474899,0.013441773131489754
1782986895580958200,4.087958251953125,0.0060211410745978355,-0.0030959248542785645,0.005813147872686386
1782986895591033000,4.098033203125,0.009630256332457066,0.0012540825409814715,0.0035167040769010782
1782986895601107200,4.108107177734375,0.011954396963119507,0.013007411733269691,0.007148989476263523
1782986895611182000,4.11818212890625,0.005869873333722353,0.007719704881310463,0.02196362242102623
1782986895621256200,4.128256103515625,-0.0035595810040831566,0.009437177330255508,0.03159574419260025
1782986895631331000,4.1383310546875,-0.01318051666021347,0.026993799954652786,0.04656057804822922
1782986895641405200,4.1484052734375,-0.012735236436128616,0.04482686147093773,0.05414179712533951
1782986895651479000,4.15847900390625,-0.009542904794216156,0.03669649362564087,0.05158942565321922
1782986895661554200,4.16855419921875,-0.006258961278945208,0.023604128509759903,0.04003024101257324
1782986895671628000,4.1786279296875,0.0020034960471093655,0.013440441340208054,0.01931031420826912
1782986895681703200,4.188703125,0.014689996838569641,-0.0030218889005482197,0.002041046740487218
1782986895691777000,4.198777099609375,0.02688674069941044,-0.0191944669932127,-0.030377879738807678
1782986895701852200,4.20885205078125,0.03163702040910721,-0.029168272390961647,-0.049496978521347046
1782986895711926000,4.218926025390625,0.029256155714392662,-0.022820360958576202,-0.06126682087779045
1782986895722001200,4.229001220703125,0.02299319952726364,-0.0035390746779739857,-0.060320597141981125
1782986895732075000,4.239074951171875,0.019300993531942368,0.010192982852458954,-0.0495971143245697
1782986895742150100,4.249150146484375,0.013063870370388031,0.013878530822694302,-0.03535852208733559
1782986895752224000,4.25922412109375,0.01883440837264061,0.014513162896037102,-0.007277354132384062
1782986895762299100,4.269299072265625,0.02936108410358429,0.018914036452770233,0.02412078157067299
1782986895772373000,4.279373046875,0.03900332376360893,0.014599182642996311,0.04199645295739174
1782986895782448000,4.2894482421875,0.042705386877059937,-0.00714792450889945,0.04562687501311302
1782986895792522000,4.29952197265625,0.03917829692363739,-0.007517038378864527,0.0443381704390049
1782986895802596000,4.30959619140625,0.03560273349285126,0.0013078784104436636,0.03608476743102074
1782986895812671200,4.319671142578125,0.029988525435328484,0.012618057429790497,0.020443489775061607
1782986895822745000,4.3297451171875,0.02568991668522358,0.016596287488937378,0.0018133464036509395
1782986895832820200,4.3398203125,0.028912873938679695,0.027475032955408096,-0.007934622466564178
1782986895842894000,4.34989404296875,0.027244670316576958,0.039988163858652115,-0.017943579703569412
1782986895852969200,4.35996923828125,0.027955202385783195,0.03551165387034416,-0.02160143293440342
1782986895863043000,4.37004296875,0.021818745881319046,0.013220463879406452,-0.021893048658967018
1782986895873118200,4.3801181640625,0.023792147636413574,-0.001067661214619875,-0.021261345595121384
1782986895883192000,4.390192138671875,0.023244336247444153,-0.006512227933853865,-0.016658339649438858
1782986895893267200,4.40026708984375,0.019848007708787918,0.01356587652117014,-0.011144263669848442
1782986895903341000,4.410341064453125,0.012348279356956482,0.022490927949547768,-0.0023782027419656515
1782986895913416200,4.420416259765625,0.01044411864131689,0.01569480635225773,0.00048655952559784055
1782986895923490000,4.430489990234375,0.011960788629949093,0.008674181997776031,0.002237321576103568
1782986895933565200,4.440565185546875,0.01118953712284565,0.014159495010972023,-0.005175320897251368
1782986895943639000,4.45063916015625,0.013457485474646091,0.019337745383381844,-0.009021191857755184
1782986895953713200,4.460713134765625,0.011776498518884182,0.016532903537154198,-0.014012222178280354
1782986895963788000,4.4707880859375,0.011520301923155785,0.02412104792892933,-0.021265873685479164
1782986895973862100,4.480862060546875,0.013432984240353107,0.04021506384015083,-0.027423102408647537
1782986895983937000,4.49093701171875,0.013995977118611336,0.04910869151353836,-0.032394424080848694
1782986895994011100,4.50101123046875,0.006873086094856262,0.04198127239942551,-0.025079520419239998
1782986896004086000,4.5110859375,0.004459463059902191,0.0314125157892704,-0.018486332148313522
1782986896014160100,4.52116015625,0.008654740639030933,0.030233269557356834,-0.010791128501296043
1782986896024235000,4.531235107421875,0.011877432465553284,0.029921947047114372,0.007645935285836458
1782986896034309000,4.54130908203125,0.012879312969744205,0.02238280326128006,0.017901502549648285
1782986896044384000,4.551384033203125,0.013966682367026806,0.010665693320333958,0.026916569098830223
1782986896054458000,4.5614580078125,0.011664379388093948,0.007132478058338165,0.029512351378798485
1782986896064532700,4.57153271484375,0.015777364373207092,0.013143498450517654,0.02816479280591011
1782986896074606800,4.58160693359375,0.016351809725165367,0.016578709706664085,0.01926504075527191
1782986896084681700,4.591681640625,0.014659903012216091,0.012562929652631283,0.0007701861904934049
1782986896094755800,4.601755859375,0.01423539500683546,0.010699249804019928,-0.009259544312953949
1782986896104829700,4.61182958984375,0.010494452901184559,0.00983585324138403,-0.013261476531624794
1782986896114904800,4.62190478515625,0.00418409239500761,0.007195328362286091,-0.011626828461885452
1782986896124978700,4.631978759765625,-0.006818757392466068,0.011290471069514751,0.0009717874927446246
1782986896135053800,4.6420537109375,-0.006401440128684044,0.014020477421581745,0.017245832830667496
1782986896145127700,4.652127685546875,-0.00392683083191514,0.0046325684525072575,0.026090988889336586
1782986896155202800,4.662202880859375,0.0049649314023554325,-0.009608685038983822,0.031800538301467896
1782986896165276700,4.672276611328125,0.008406533859670162,-0.014460165984928608,0.03110865131020546
1782986896175351800,4.682351806640625,0.009694971144199371,-0.009184976108372211,0.025465944781899452
1782986896185425700,4.69242578125,0.006615824531763792,-0.004120975267142057,0.018701782450079918
1782986896195500800,4.702500732421875,-0.0021065603941679,-0.009187639690935612,0.0073476615361869335
1782986896205574700,4.71257470703125,-0.00914289802312851,-0.01290487963706255,-0.005655488930642605
1782986896215649800,4.72264990234375,-0.01690840907394886,-0.013582920655608177,-0.019235480576753616
1782986896225723600,4.7327236328125,-0.021888520568609238,-0.012050803750753403,-0.028430042788386345
1782986896235798800,4.742798828125,-0.022009428590536118,-0.004071706905961037,-0.03897163271903992
1782986896245873000,4.752872802734375,-0.025948243215680122,-0.003739078063517809,-0.04126088693737984
1782986896255946800,4.76294677734375,-0.02521214634180069,-0.007878695614635944,-0.044732317328453064
1782986896266022000,4.77302197265625,-0.02406751923263073,-0.008912534452974796,-0.038891471922397614
1782986896276095700,4.783095703125,-0.020487165078520775,-0.00048416267964057624,-0.023870978504419327
1782986896286171000,4.7931708984375,-0.018759839236736298,0.015455123037099838,-0.0023441144730895758
1782986896296244700,4.80324462890625,-0.024384435266256332,0.03460271656513214,0.019412845373153687
1782986896306320000,4.81331982421875,-0.018817629665136337,0.04192614555358887,0.03592524304986
1782986896316393700,4.823393798828125,-0.00857431348413229,0.02708088606595993,0.04159671068191528
1782986896326468900,4.83346875,0.006667756475508213,-0.004086087923496962,0.03428446874022484
1782986896336542700,4.843542724609375,0.021408619359135628,-0.029256688430905342,0.020485566928982735
1782986896346617900,4.853617919921875,0.035900477319955826,-0.05343899130821228,-0.008421714417636395
1782986896356691700,4.863691650390625,0.04152693599462509,-0.0569426454603672,-0.03912236914038658
1782986896366766800,4.873766845703125,0.036433108150959015,-0.04607508331537247,-0.059972524642944336
1782986896376840700,4.8838408203125,0.02533145621418953,-0.022582273930311203,-0.06464503705501556
1782986896386915800,4.893915771484375,0.01702266000211239,0.0036557212006300688,-0.054172955453395844
1782986896396989700,4.90398974609375,0.006494118366390467,0.013265471905469894,-0.027404192835092545
1782986896407064000,4.91406396484375,0.012134959921240807,0.005083441734313965,0.0017749968683347106
1782986896417138700,4.924138671875,0.01618189923465252,-0.00956660695374012,0.025606293231248856
1782986896427213000,4.934213134765625,0.01763545349240303,-0.03325755521655083,0.04487479850649834
1782986896437287700,4.94428759765625,0.016566725447773933,-0.0434526689350605,0.049558766186237335
1782986896447362000,4.954362060546875,0.016166185960173607,-0.04105129465460777,0.045459359884262085
1782986896457437000,4.96443701171875,0.009488044306635857,-0.02550855651497841,0.0354437455534935
1782986896467511000,4.974510986328125,0.008044344373047352,-0.01643090508878231,0.01667698100209236
1782986896477586000,4.9845859375,0.004781173076480627,-0.015986423939466476,0.0033273533917963505
1782986896487660000,4.994659912109375,0.005869340617209673,-0.009489375166594982,-0.006421413738280535
1782986896497735000,5.00473486328125,0.007013967260718346,-0.011483284644782543,-0.0016487629618495703
1782986896507809000,5.01480908203125,0.009919475764036179,-0.02491280622780323,0.011423363350331783
1782986896517884000,5.0248837890625,0.008764729835093021,-0.03867602348327637,0.029990123584866524
1782986896527958000,5.0349580078125,0.007864315062761307,-0.05465312674641609,0.04309473931789398
1782986896538033000,5.045032958984375,0.005762814078480005,-0.0675865039229393,0.04547533765435219
1782986896548107000,5.05510693359375,0.005819805897772312,-0.07235462218523026,0.04057112708687782
1782986896558180900,5.065180908203125,0.011451592668890953,-0.06677450239658356,0.036077577620744705
1782986896568256000,5.075256103515625,0.006578274071216583,-0.06203807145357132,0.036559343338012695
1782986896578329900,5.085329833984375,0.002296976512297988,-0.05510266497731209,0.03620274364948273
1782986896588405000,5.095405029296875,-0.004347876645624638,-0.03558169677853584,0.04797897860407829
1782986896598478800,5.105478759765625,-0.012345083057880402,-0.018543589860200882,0.058632154017686844
1782986896608554000,5.115553955078125,-0.01558348722755909,-0.01050190906971693,0.06704055517911911
1782986896618627800,5.1256279296875,-0.016570720821619034,-0.000850879936479032,0.07568410784006119
1782986896628703000,5.135702880859375,-0.014069479890167713,0.008549013175070286,0.08076222240924835
1782986896638776800,5.14577685546875,-0.011814847588539124,0.023684024810791016,0.08153533935546875
1782986896648852000,5.15585205078125,-0.004962534178048372,0.023456590250134468,0.07493815571069717
1782986896658925800,5.16592578125,-0.005313006229698658,0.01890658028423786,0.06268788129091263
1782986896669001000,5.1760009765625,0.0028937908355146646,0.012681174091994762,0.05263844504952431
1782986896679074800,5.18607470703125,0.013378389179706573,0.003173955250531435,0.0398414209485054
1782986896689150000,5.19614990234375,0.017357418313622475,-0.011294200085103512,0.03117283247411251
1782986896699223800,5.206223876953125,0.020542824640870094,-0.013353089801967144,0.019089272245764732
1782986896709298000,5.2162978515625,0.018686868250370026,-0.0029087045695632696,0.009069927968084812
1782986896719372800,5.226372802734375,0.021191038191318512,0.004119643941521645,0.004765726625919342
1782986896729447000,5.236447021484375,0.01398905273526907,0.013177587650716305,0.0017070862231776118
1782986896739521800,5.246521728515625,0.006958307232707739,0.0264771468937397,0.007533550262451172
1782986896749596000,5.256595947265625,0.0006668555433861911,0.022722356021404266,0.012397813610732555
1782986896759671000,5.266671142578125,-0.0007235808880068362,-0.0014977618120610714,0.0179947130382061
1782986896769745000,5.276744873046875,0.0007741809240542352,0.0019632822368294,0.023204920813441277
1782986896779820000,5.286820068359375,0.004375840071588755,0.015050055459141731,0.02552213706076145
1782986896789894000,5.296893798828125,-0.000284159294096753,0.015935823321342468,0.024719195440411568
1782986896799969000,5.306968994140625,-0.004629373084753752,0.003195527009665966,0.017769675701856613
1782986896810043000,5.31704296875,0.00042876892257481813,-0.007129015866667032,0.009109608829021454
1782986896820118000,5.327117919921875,0.003652791725471616,-0.010881676338613033,0.0049164616502821445
1782986896830191900,5.33719189453125,0.003005110891535878,-0.02028503082692623,-0.0013840447645634413
1782986896840267000,5.34726708984375,-0.0018258632626384497,-0.0420803427696228,-0.007796936668455601
1782986896850340900,5.3573408203125,-0.008808405138552189,-0.05741375684738159,-0.016220515593886375
1782986896860414700,5.367414794921875,-0.012192750349640846,-0.04854010418057442,-0.026087792590260506
1782986896870489900,5.37748974609375,-0.016570720821619034,-0.039212651550769806,-0.0440518781542778
1782986896880564000,5.38756396484375,-0.024578314274549484,-0.03404398635029793,-0.059665992856025696
1782986896890638800,5.397638916015625,-0.030586937442421913,-0.032935578376054764,-0.0738273486495018
1782986896900713000,5.407712890625,-0.038781750947237015,-0.026104304939508438,-0.07586200535297394
1782986896910787800,5.417787841796875,-0.04259433224797249,-0.019455190747976303,-0.06728024035692215
1782986896920862000,5.427862060546875,-0.05354897677898407,0.00729413190856576,-0.07043422013521194
1782986896930936800,5.437936767578125,-0.06016933172941208,0.03127696365118027,-0.07079694420099258
1782986896941011000,5.448010986328125,-0.06577901542186737,0.05614449456334114,-0.059061720967292786
1782986896951085800,5.4580859375,-0.06313369423151016,0.07050692290067673,-0.030374417081475258
1782986896961160000,5.468159912109375,-0.06626397371292114,0.05842842161655426,-0.003466104157269001
1782986896971234800,5.47823486328125,-0.0642242580652237,0.04284706711769104,0.015044462867081165
1782986896981309000,5.488308837890625,-0.056477658450603485,0.020733240991830826,0.011726164259016514
1782986896991383800,5.4983837890625,-0.032036229968070984,-0.0022122878581285477,-0.0038634478114545345
1782986897001458000,5.5084580078125,-0.01341460831463337,-0.015859389677643776,-0.03267485648393631
1782986897011531800,5.51853173828125,-0.000916393706575036,-0.022960443049669266,-0.053458698093891144
1782986897021606000,5.52860595703125,0.0012516856659203768,-0.008436894044280052,-0.06268522143363953
1782986897031679700,5.5386796875,-0.00005246427463134751,0.010470484383404255,-0.05175560712814331
1782986897041755000,5.5487548828125,-0.006564692128449678,0.020306870341300964,-0.03428446874022484
1782986897051828700,5.558828857421875,-0.010179134085774422,0.025067802518606186,-0.008584433235228062
1782986897061904000,5.56890380859375,-0.00415399856865406,0.016713200137019157,0.02413276582956314
1782986897071977700,5.578977783203125,0.0051713259890675545,-0.0016588830621913075,0.05235721543431282
1782986897082052600,5.589052490234375,0.008932242169976234,-0.00893623661249876,0.06279813498258591
1782986897092126700,5.599126708984375,0.011361311189830303,0.005312207154929638,0.06332464516162872
1782986897102201600,5.60920166015625,0.008829178288578987,0.01853879727423191,0.048409342765808105
1782986897112275700,5.619275634765625,0.002409628126770258,0.02996508963406086,0.02298521064221859
1782986897122350600,5.6293505859375,-0.0015243934467434883,0.028974127024412155,-0.0003832288784906268
1782986897132424700,5.6394248046875,0.00446825148537755,0.025257419794797897,-0.01630626805126667
1782986897142499600,5.64949951171875,0.004877845756709576,0.016523582860827446,-0.020055200904607773
1782986897152573700,5.65957373046875,0.006687197368592024,0.011869709007441998,-0.017953965812921524
1782986897162648600,5.669648681640625,0.010011621750891209,0.011233213357627392,-0.013605823740363121
1782986897172722700,5.67972265625,0.009603625163435936,-0.0007909588166512549,-0.004099403973668814
1782986897182797600,5.689797607421875,0.0004394215648062527,-0.018507104367017746,0.002499376656487584
1782986897192872000,5.699871826171875,-0.0032562471460551023,-0.028263594955205917,0.004891428165137768
1782986897202945800,5.70994580078125,-0.00378967821598053,-0.025661688297986984,-0.005285575985908508
1782986897213021000,5.72002099609375,-0.0024735440965741873,-0.02569950371980667,-0.023000124841928482
1782986897223094800,5.7300947265625,-0.0028663603588938713,-0.02732882648706436,-0.047079361975193024
1782986897233170000,5.740169921875,-0.010246512480080128,-0.029821278527379036,-0.06599659472703934
1782986897243243800,5.750243896484375,-0.022657375782728195,-0.019882628694176674,-0.08128873258829117
1782986897253319000,5.76031884765625,-0.026391394436359406,-0.031010912731289864,-0.08630479127168655
1782986897263392800,5.770392822265625,-0.029274532571434975,-0.029380526393651962,-0.07773447781801224
1782986897273468000,5.780468017578125,-0.03329004719853401,-0.015955796465277672,-0.06166842579841614
1782986897283541800,5.790541748046875,-0.0350370779633522,-0.0156527291983366,-0.04953346401453018
1782986897293617000,5.800616943359375,-0.031088143587112427,-0.013230584561824799,-0.04831506684422493
1782986897303690800,5.810690673828125,-0.01726260967552662,-0.013997574336826801,-0.04638640582561493
1782986897313766000,5.820765869140625,0.0010287790792062879,-0.015075888484716415,-0.050327885895967484
1782986897323839700,5.83083984375,0.015245531685650349,-0.01197809912264347,-0.052146293222904205
1782986897333913900,5.840913818359375,0.02869396284222603,-0.014218617230653763,-0.04619519039988518
1782986897343988700,5.85098876953125,0.03425624221563339,-0.0160660520195961,-0.0419011116027832
1782986897354062800,5.861062744140625,0.03848773613572121,-0.010939200408756733,-0.028773324564099312
1782986897364137700,5.8711376953125,0.044136568903923035,0.0002103897277265787,-0.01350462343543768
1782986897374212900,5.881212890625,0.04820800945162773,0.008665393106639385,0.0000601874417043291
1782986897384286700,5.89128662109375,0.052205681800842285,0.012857475318014622,0.005377454683184624
1782986897394361900,5.90136181640625,0.0604148730635643,0.01733877696096897,0.012656140141189098
1782986897404435700,5.911435791015625,0.06113872304558754,0.018483402207493782,0.011657987721264362
1782986897414510800,5.9215107421875,0.05636633560061455,0.008212389424443245,0.013902499340474606
1782986897424584700,5.931584716796875,0.04900402948260307,0.006335127633064985,0.0054674698039889336
1782986897434658800,5.941658935546875,0.04538692161440849,0.00771624268963933,0.0052320463582873344
1782986897444733700,5.951733642578125,0.044197820127010345,0.010945059359073639,-0.00030306773260235786
1782986897454807800,5.961807861328125,0.044685978442430496,0.01955346204340458,0.004013916477560997
1782986897464882700,5.971882568359375,0.04664206877350807,0.02756691351532936,0.003528422210365534
1782986897474956800,5.981956787109375,0.04651423916220665,0.0296644177287817,0.010272877290844917
1782986897485031700,5.99203173828125,0.04518452286720276,0.019835224375128746,0.017728663980960846
1782986897495105800,6.002105712890625,0.03904860094189644,0.009840380400419235,0.02822151780128479
1782986897505180700,6.0121806640625,0.03834206238389015,0.0014144048327580094,0.041140779852867126
1782986897515254800,6.0222548828125,0.030371487140655518,0.007571633439511061,0.04466094449162483
1782986897525329700,6.03232958984375,0.02027437835931778,0.007606787141412497,0.047447144985198975
1782986897535403800,6.04240380859375,0.011508850380778313,0.002703641075640917,0.038723427802324295
1782986897545478700,6.052478759765625,0.006042712368071079,-0.00449861166998744,0.019107913598418236
1782986897555552800,6.062552734375,-0.0004753742541652173,-0.009581254795193672,-0.002428004052489996
1782986897565627600,6.072627685546875,-0.002388855442404747,-0.021318072453141212,-0.02400999516248703
1782986897575701800,6.08270166015625,-0.002569417702034116,-0.025680329650640488,-0.037147101014852524
1782986897585775600,6.092775634765625,-0.007625695317983627,-0.016339825466275215,-0.03665788099169731
1782986897595850800,6.102850830078125,-0.015165637247264385,-0.0024517059791833162,-0.02636556141078472
1782986897605924600,6.112924560546875,-0.024440094828605652,0.008832373656332493,-0.005041896365582943
1782986897615999700,6.122999755859375,-0.02889076992869377,0.007704258430749178,0.012317919172346592
1782986897626073600,6.133073486328125,-0.037576138973236084,0.038542065769433975,0.007799599785357714
1782986897636148700,6.143148681640625,-0.0393439419567585,0.0652754083275795,-0.02839435636997223
1782986897646222600,6.15322265625,-0.021166272461414337,0.00723394425585866,-0.07576000690460205
1782986897656297700,6.163297607421875,0.0062911855056881905,-0.03645654395222664,-0.10395941883325577
1782986897666371600,6.17337158203125,0.02327948994934559,-0.06083511933684349,-0.10958295315504074
1782986897676446700,6.18344677734375,0.022903185337781906,-0.07832702994346619,-0.10015509277582169
1782986897686520600,6.1935205078125,0.023428626358509064,-0.07557331770658493,-0.07542205601930618
1782986897696595700,6.203595703125,0.024101607501506805,-0.04839443042874336,-0.04267502576112747
1782986897706669800,6.213669921875,0.022128205746412277,-0.02159024588763714,-0.007898936048150063
1782986897716744700,6.22374462890625,0.02305525168776512,-0.0013246563030406833,0.027784492820501328
1782986897726818800,6.23381884765625,0.02467125840485096,0.02503184974193573,0.05595274642109871
1782986897736893700,6.243893798828125,0.025229189544916153,0.041244108229875565,0.07299032062292099
1782986897746967800,6.2539677734375,0.02786811627447605,0.039872583001852036,0.08158647269010544
1782986897757041700,6.264041748046875,0.024713069200515747,0.033790986984968185,0.07444174587726593
1782986897767116800,6.27411669921875,0.01824212074279785,0.036201149225234985,0.055265385657548904
1782986897777190700,6.284190673828125,0.010582337155938148,0.034876223653554916,0.0295493695884943
1782986897787265800,6.294265869140625,0.0046629286371171474,0.03858973830938339,0.006213154643774033
1782986897797339600,6.304339599609375,0.0027017768006771803,0.04659439995884895,-0.013865215703845024
1782986897807414800,6.314414794921875,0.0021110877860337496,0.04614752158522606,-0.016596021130681038
1782986897817488600,6.324488525390625,0.004823783412575722,0.03148948401212692,-0.01768365502357483
1782986897827563800,6.334563720703125,0.005625395104289055,0.016413327306509018,-0.0062304651364684105
1782986897837637600,6.3446376953125,0.00518757151439786,0.0028778119012713432,0.006342850625514984
1782986897847712800,6.354712646484375,0.0014836470363661647,-0.008526909165084362,0.008528240956366062
1782986897857786600,6.36478662109375,-0.002094576135277748,-0.012810603715479374,0.0028628981672227383
1782986897867861800,6.37486181640625,-0.008043012581765652,-0.013034042902290821,0.0024860608391463757
1782986897877935600,6.384935546875,-0.015918511897325516,-0.010044378228485584,-0.01690787635743618
1782986897888010800,6.3950107421875,-0.02298094891011715,-0.00800146721303463,-0.036003272980451584
1782986897898084600,6.405084716796875,-0.03157097473740578,-0.008564991876482964,-0.04817977920174599
1782986897908158700,6.41515869140625,-0.03479712828993797,-0.022163625806570053,-0.056477125734090805
1782986897918233600,6.425233642578125,-0.03618090599775314,-0.034813374280929565,-0.06671218574047089
1782986897928307700,6.4353076171875,-0.005825931206345558,-0.04511980712413788,-0.07816378027200699
1782986897938382600,6.445382568359375,0.029709959402680397,-0.06346206367015839,-0.0842304602265358
1782986897948456700,6.455456787109375,0.03062448836863041,-0.07657333463430405,-0.07106272131204605
1782986897958531600,6.465531494140625,0.01685488037765026,-0.0720536857843399,-0.04793583229184151
1782986897968605700,6.475605712890625,-0.003296993440017104,-0.059541624039411545,-0.03092862106859684
1782986897978680600,6.4856806640625,-0.017161943018436432,-0.05143123120069504,-0.02341531030833721
1782986897988754700,6.495754638671875,-0.018689798191189766,-0.04457758739590645,-0.024020381271839142
1782986897998829600,6.50582958984375,-0.009502424858510494,-0.04147979989647865,-0.03898681327700615
1782986898008903700,6.515903564453125,0.008624913170933723,-0.05685742199420929,-0.067404605448246
1782986898018978600,6.525978515625,0.02407790534198284,-0.09396857023239136,-0.10605426132678986
1782986898029052700,6.536052734375,0.03533615171909332,-0.12333311885595322,-0.1492166519165039
1782986898039127600,6.54612744140625,0.045954443514347076,-0.13288986682891846,-0.1884748339653015
1782986898049201700,6.55620166015625,0.0324290469288826,-0.1000397801399231,-0.2130504846572876
1782986898059275500,6.566275634765625,0.004307130351662636,-0.04909989982843399,-0.2032034546136856
1782986898069350400,6.576350341796875,-0.02840793877840042,0.0013257216196507215,-0.16993950307369232
1782986898079424500,6.586424560546875,-0.04471314325928688,0.02407923713326454,-0.11539530009031296
1782986898089499400,6.59649951171875,-0.03821076825261116,0.02365925721824169,-0.062311578541994095
1782986898099573500,6.606573486328125,-0.010642523877322674,-0.001680454588495195,-0.009974337182939053
1782986898109648400,6.6166484375,0.013117133639752865,-0.02413942478597164,0.03136724233627319
1782986898119722500,6.626722412109375,0.01782027631998062,-0.02863963507115841,0.05080219358205795
1782986898129797400,6.63679736328125,0.015391472727060318,-0.024754349142313004,0.054071757942438126
1782986898139871500,6.64687158203125,0.004483431577682495,-0.013832191936671734,0.035885561257600784
1782986898149946400,6.6569462890625,-0.002644518855959177,-0.005314870737493038,0.0016247945604845881
1782986898160020500,6.6670205078125,-0.009692042134702206,-0.005673864856362343,-0.033605895936489105
1782986898170095600,6.677095703125,-0.010521350428462029,-0.010508034378290176,-0.06812658905982971
1782986898180169500,6.68716943359375,-0.007078149355947971,-0.021453626453876495,-0.0844392478466034
1782986898190244600,6.69724462890625,-0.004967061802744865,-0.03025723807513714,-0.08893067389726639
1782986898200318500,6.707318359375,-0.0017334514996036887,-0.04892546311020851,-0.07187152653932571
1782986898210393600,6.7173935546875,-0.0003808320325333625,-0.06500297039747238,-0.04325000196695328
1782986898220467500,6.727467529296875,-0.007003314793109894,-0.06271318346261978,-0.007534348871558905
1782986898230541600,6.73754150390625,-0.013185310177505016,-0.05967345088720322,0.01888793706893921
1782986898240616400,6.747616455078125,-0.026261432096362114,-0.0022114890161901712,0.0660269558429718
1782986898250690600,6.757690673828125,-0.048352617770433426,0.028069451451301575,0.12562450766563416
1782986898260765400,6.767765380859375,-0.05356469005346298,-0.007739146240055561,0.12400823086500168
1782986898270839600,6.777839599609375,-0.027177825570106506,0.004839496221393347,0.09193897992372513
1782986898280914400,6.78791455078125,0.0018706043483689427,0.0012833772925660014,0.05102403461933136
1782986898290988800,6.79798876953125,0.011573831550776958,0.031552597880363464,0.041187651455402374
1782986898301063400,6.8080634765625,0.005846703890711069,0.062487877905368805,0.08169406652450562
1782986898311137800,6.8181376953125,-0.013733655214309692,0.00848722830414772,0.10215060412883759
1782986898321212400,6.82821240234375,-0.005912750028073788,-0.05888941511511803,0.08064770698547363
1782986898331286800,6.838286865234375,0.016404272988438606,-0.09261728823184967,0.017311345785856247
1782986898341361400,6.848361328125,0.030245786532759666,-0.11352656036615372,-0.06083352118730545
1782986898351435800,6.858435791015625,0.031385887414216995,-0.11042424291372299,-0.13458363711833954
1782986898361510400,6.868510498046875,0.01847248338162899,-0.083077572286129,-0.17794789373874664
1782986898371584800,6.878584716796875,0.002624545246362686,-0.04904956743121147,-0.17796200513839722
1782986898381658600,6.88865869140625,-0.00842544250190258,-0.029740851372480392,-0.1384233832359314
1782986898391733800,6.898733642578125,-0.015033011324703693,-0.03681500628590584,-0.07890626788139343
1782986898401807600,6.9088076171875,0.00015472965606022626,-0.03309856355190277,-0.01318264752626419
1782986898411882800,6.9188828125,0.021824605762958527,-0.03917935863137245,0.040040891617536545
1782986898421956600,6.92895654296875,0.030640998855233192,-0.054483748972415924,0.06999373435974121
1782986898432031700,6.93903173828125,0.028187962248921394,-0.04806765913963318,0.08012865483760834
1782986898442105600,6.949105712890625,0.016989635303616524,-0.03634442389011383,0.0695045068860054
1782986898452180700,6.9591806640625,0.0007422229973599315,-0.01577523536980152,0.041789259761571884
1782986898462254600,6.969254638671875,-0.012220713309943676,0.006995059084147215,0.01569693721830845
1782986898472329700,6.979329833984375,-0.02660311572253704,0.04053783789277077,0.016390690580010414
1782986898482403600,6.989403564453125,-0.03099360130727291,0.047195207327604294,0.028798092156648636
1782986898492478700,6.999478759765625,-0.027831364423036575,0.040105875581502914,0.05798953399062157
1782986898502552600,7.009552490234375,-0.02117426134645939,0.01872441917657852,0.08339981734752655
1782986898512627700,7.019627685546875,-0.01702745258808136,0.008895223960280418,0.10901756584644318
1782986898522701600,7.02970166015625,-0.01842028647661209,0.002906573936343193,0.11935355514287949
1782986898532775700,7.039775634765625,-0.019877301529049873,0.01552250050008297,0.11050866544246674
1782986898542850600,7.0498505859375,-0.024595623835921288,0.019761187955737114,0.088333860039711
1782986898552924700,7.059924560546875,-0.01961764320731163,0.024408936500549316,0.05197771266102791
1782986898562999600,7.06999951171875,-0.015725433826446533,0.0355212427675724,0.023519175127148628
1782986898573073700,7.08007373046875,-0.014275874942541122,0.06010141968727112,0.01836409419775009
1782986898583148500,7.0901484375,-0.011424162425100803,0.0766897201538086,0.03323305398225784
1782986898593222700,7.10022265625,-0.008802546188235283,0.06611829996109009,0.05891231819987297
1782986898603297500,7.110297607421875,-0.005286374595016241,0.04948366433382034,0.07739812135696411
1782986898613371600,7.12037158203125,0.000773381965700537,0.034925226122140884,0.08468452841043472
1782986898623446500,7.130446533203125,0.007159908767789602,0.025492310523986816,0.07578370720148087
1782986898633520600,7.140520751953125,0.005642439238727093,0.04989032819867134,0.07298925518989563
1782986898643595500,7.150595458984375,0.001121989800594747,0.051831506192684174,0.06531243026256561
1782986898653669600,7.160669677734375,-0.004652009811252356,0.05097796395421028,0.055878445506095886
1782986898663744500,7.17074462890625,0.0019078885670751333,0.04803357273340225,0.0434287004172802
1782986898673818600,7.180818603515625,0.005976133514195681,0.04254426434636116,0.033004820346832275
1782986898683893800,7.190893798828125,0.0073348782025277615,0.042826827615499496,0.03207457810640335
1782986898693967600,7.200967529296875,0.0019217369845137,0.03444159775972366,0.04470435529947281
1782986898704041500,7.21104150390625,0.002855441300198436,0.032218657433986664,0.06552921235561371
1782986898714116600,7.22111669921875,0.012073706835508347,0.016572851687669754,0.07784659415483475
1782986898724190500,7.2311904296875,0.013043363578617573,0.008636631071567535,0.06340000778436661
1782986898734265600,7.241265625,0.014434599317610264,0.004719654098153114,0.04771319404244423
1782986898744339500,7.25133935546875,0.01546497642993927,0.025852369144558907,0.032112929970026016
1782986898754414600,7.26141455078125,0.017956363037228584,0.030885212123394012,0.018612300977110863
1782986898764488400,7.271488525390625,0.018379272893071175,0.0394054614007473,0.007208378054201603
1782986898774563600,7.2815634765625,0.014340057037770748,0.03886350989341736,0.005033107940107584
1782986898784637400,7.291637451171875,0.010123740881681442,0.018918031826615334,0.010242783464491367
1782986898794712600,7.301712646484375,0.00723634148016572,0.022040054202079773,0.018995262682437897
1782986898804786700,7.31178662109375,0.006607302464544773,0.02989904209971428,0.03177444264292717
1782986898814861600,7.321861572265625,0.0017355820164084435,0.019822441041469574,0.0398307703435421
1782986898824935700,7.331935791015625,-0.0012253203894942999,0.01605965942144394,0.04547560587525368
1782986898835010600,7.342010498046875,-0.00009720538218971342,0.024643294513225555,0.03459366410970688
1782986898845084700,7.352084716796875,0.0019270633347332478,0.04869456961750984,0.01763172447681427
1782986898855158500,7.362158447265625,0.0019390475936233997,0.054786015301942825,0.006846720818430185
1782986898865233700,7.372233642578125,-0.0027148264925926924,0.05326242372393608,0.006686931010335684
1782986898875307500,7.3823076171875,-0.0076126460917294025,0.05632559210062027,0.021468540653586388
1782986898885382700,7.392382568359375,-0.022722888737916946,0.07046830654144287,0.028621524572372437
1782986898895456500,7.40245654296875,-0.019356919452548027,0.06665492802858353,0.05253244936466217
1782986898905531600,7.41253173828125,-0.019281553104519844,0.03555479645729065,0.06889864057302475
1782986898915605500,7.42260546875,-0.02214871160686016,-0.004113518632948399,0.07946792989969254
1782986898925680600,7.4326806640625,-0.020438961684703827,-0.02280970849096775,0.07219803333282471
1782986898935754500,7.44275439453125,-0.020388096570968628,-0.020175842568278313,0.05444752797484398
1782986898945829600,7.45282958984375,-0.015254320576786995,-0.008495749905705452,0.028857214376330376
1782986898955903500,7.462903564453125,-0.010512827895581722,0.016701215878129005,0.004450674634426832
1782986898965978600,7.472978515625,-0.0006325007416307926,0.03169028460979462,-0.00794447585940361
1782986898976052500,7.483052490234375,0.009828928858041763,0.033364880830049515,-0.012373312376439571
1782986898986127600,7.493127685546875,0.023194268345832825,0.01563515141606331,-0.00830879621207714
1782986898996201500,7.503201416015625,0.03140585869550705,-0.014436463825404644,-0.0039007319137454033
1782986899006275600,7.513275634765625,0.035357724875211716,-0.04694487154483795,-0.005475192796438932
1782986899016350500,7.5233505859375,0.0375702790915966,-0.060131512582302094,-0.017855962738394737
1782986899026424600,7.533424560546875,0.03149161487817764,-0.06728050112724304,-0.034204307943582535
1782986899036499500,7.54349951171875,0.02526354417204857,-0.0501856729388237,-0.04916514828801155
1782986899046573600,7.553573486328125,0.02190263569355011,-0.028475848957896233,-0.06299387663602829
1782986899056648400,7.5636484375,0.021209681406617165,-0.00990296434611082,-0.06909145414829254
1782986899066722600,7.57372265625,0.02401132695376873,0.005095692351460457,-0.06094617396593094
1782986899076798200,7.583798095703125,0.024468058720231056,0.014162690378725529,-0.04673394933342934
1782986899086872300,7.593872314453125,0.02340678870677948,0.008762865327298641,-0.027178358286619186
1782986899096947500,7.603947509765625,0.020432038232684135,0.0109842075034976,0.002519882982596755
1782986899107021300,7.614021240234375,0.023394538089632988,-0.004698881413787603,0.01924799755215645
1782986899117096400,7.624096435546875,0.025432122871279716,-0.02123178541660309,0.02538338676095009
1782986899127170300,7.63417041015625,0.029037244617938995,-0.03534147888422012,0.0166170597076416
1782986899137245400,7.644245361328125,0.03021276369690895,-0.041370343416929245,-0.005016330163925886
1782986899147319300,7.6543193359375,0.030286267399787903,-0.04012531414628029,-0.03967071324586868
1782986899157393200,7.66439306640625,0.030673757195472717,-0.039925046265125275,-0.065350241959095
1782986899167468300,7.67446826171875,0.029446838423609734,-0.04650278761982918,-0.08249567449092865
1782986899177542100,7.684542236328125,0.025982864201068878,-0.05805957317352295,-0.10459591448307037
1782986899187617300,7.6946171875,0.028189027681946754,-0.09055066853761673,-0.12619149684906006
1782986899197691100,7.704691162109375,0.037757497280836105,-0.13798663020133972,-0.16372981667518616
1782986899207766300,7.714766357421875,0.036371055990457535,-0.21522176265716553,-0.2333613485097885
1782986899217840400,7.72484033203125,0.04488092288374901,-0.22036565840244293,-0.31004494428634644
1782986899227915300,7.734915283203125,0.055932775139808655,-0.2449708729982376,-0.4038641154766083
1782986899237989400,7.7449892578125,0.0639510229229927,-0.26529210805892944,-0.4842982292175293
1782986899248064300,7.755064208984375,0.07140520960092545,-0.2518322467803955,-0.5229572057723999
1782986899258138400,7.765138427734375,0.08056062459945679,-0.20998093485832214,-0.5081801414489746
1782986899268213200,7.775213134765625,0.08681132644414902,-0.13223926723003387,-0.4338401257991791
1782986899278287400,7.785287353515625,0.0792146623134613,-0.008657936938107014,-0.33589252829551697
1782986899288362200,7.7953623046875,0.08826114982366562,0.04767164960503578,-0.18433494865894318
1782986899298436400,7.805436279296875,0.09580455720424652,0.04933851957321167,0.045649509876966476
1782986899308510200,7.81551025390625,0.09525860846042633,0.08581903576850891,0.35053884983062744
1782986899318585300,7.82558544921875,0.0725351870059967,0.039154861122369766,0.6006064414978027
1782986899328659200,7.8356591796875,0.040647294372320175,-0.030658310279250145,0.7203762531280518
1782986899338734300,7.845734375,0.042389269918203354,-0.07462949305772781,0.722743809223175
1782986899348808200,7.85580810546875,0.07040625810623169,-0.07575973868370056,0.6105214357376099
1782986899358883300,7.86588330078125,0.08948354423046112,-0.05115826055407524,0.44085994362831116
1782986899368957200,7.875957275390625,0.08405175805091858,-0.04315199702978134,0.22856366634368896
1782986899379032300,7.8860322265625,0.06245885044336319,-0.022246716544032097,0.02369813807308674
1782986899389106200,7.896106201171875,0.03419498726725578,0.018670890480279922,-0.1302749216556549
1782986899399181300,7.906181396484375,0.009034774266183376,0.05288532003760338,-0.23503568768501282
1782986899409255200,7.916255126953125,-0.006682670209556818,0.054060306400060654,-0.28773483633995056
1782986899419330300,7.926330322265625,-0.012416722252964973,0.042574092745780945,-0.30326932668685913
1782986899429404200,7.936404052734375,-0.006389189511537552,0.0014863101532682776,-0.28784990310668945
1782986899439479300,7.946479248046875,0.001520132296718657,-0.038715969771146774,-0.24563026428222656
1782986899449553200,7.95655322265625,0.009384446777403355,-0.05260169133543968,-0.1828523725271225
1782986899459628300,7.966628173828125,0.013199958018958569,-0.05685582384467125,-0.10490430891513824
1782986899469702100,7.9767021484375,0.007184143178164959,-0.041058219969272614,-0.025911757722496986
1782986899479776300,7.9867763671875,-0.0016626114957034588,-0.01859072782099247,0.03895485773682594
1782986899489851100,7.99685107421875,-0.012842295691370964,-0.013991449028253555,0.076884925365448
1782986899499925200,8.00692529296875,-0.010900052264332771,-0.014680941589176655,0.08748271316289902
1782986899510000000,8.017000244140625,-0.0017369136912748218,-0.009301622398197651,0.08185917884111404
1782986899520074200,8.02707421875,0.0038570561446249485,0.006097839679569006,0.06365807354450226
1782986899530149000,8.037149169921875,-0.00048602689639665186,0.020958011969923973,0.04367397725582123
1782986899540223500,8.047223388671876,-0.0067820060066878796,0.03310548886656761,0.02335166186094284
1782986899550298000,8.057298095703125,0.006355101242661476,0.06383783370256424,-0.012194348499178886
1782986899560372500,8.06737255859375,0.0072954632341861725,0.03194009140133858,-0.030002640560269356
1782986899570447000,8.077447021484375,0.00708667142316699,-0.006964432541280985,-0.048581916838884354
1782986899580521500,8.087521484375,0.0019680759869515896,-0.05751362815499306,-0.04840082302689552
1782986899590596000,8.09759619140625,-0.004312722943723202,-0.05658098682761192,-0.046178147196769714
1782986899600670500,8.10767041015625,-0.015080149285495281,-0.031005851924419403,-0.02756291814148426
1782986899610745300,8.117745361328126,-0.016585102304816246,0.017162209376692772,-0.002767557045444846
1782986899620819500,8.1278193359375,-0.012732572853565216,0.0847359299659729,0.026741599664092064
1782986899630893300,8.137893310546875,-0.011969311162829399,0.10734057426452637,0.05545686557888985
1782986899640968400,8.147968505859374,-0.017236243933439255,0.10412240773439407,0.07177911698818207
1782986899651042300,8.158042236328125,-0.022159630432724953,0.0639941617846489,0.06591776013374329
1782986899661117400,8.168117431640624,-0.023959660902619362,0.01076636090874672,0.04247342422604561
1782986899671191300,8.17819140625,-0.01683676987886429,-0.02329147420823574,0.013623134233057499
1782986899681266400,8.188266357421876,-0.004818723537027836,-0.02454955130815506,-0.016945160925388336
1782986899691340300,8.19834033203125,0.00869042705744505,-0.013021259568631649,-0.043779972940683365
1782986899701415400,8.20841552734375,0.009929063729941845,-0.00250496924854815,-0.05697939544916153
1782986899711489300,8.2184892578125,0.006695719435811043,0.017612548545002937,-0.06377098709344864
1782986899721564400,8.228564453125,-0.014376276172697544,0.027162112295627594,-0.05729950964450836
1782986899731638500,8.238638427734376,-0.005917810369282961,0.08005888015031815,-0.02562653459608555
1782986899741713400,8.24871337890625,-0.014423414133489132,0.08778737485408783,0.03359204903244972
1782986899751787500,8.25878759765625,-0.02442145347595215,0.0607251338660717,0.09286602586507797
1782986899761862400,8.2688623046875,-0.015911854803562164,0.04406199976801872,0.149417445063591
1782986899771936500,8.2789365234375,0.0025244103744626045,0.05192791298031807,0.19018405675888062
1782986899782010400,8.28901025390625,0.0029843382071703672,0.04139484465122223,0.19629760086536407
1782986899792085500,8.29908544921875,-0.00339153571985662,0.04338422417640686,0.18409714102745056
1782986899802159400,8.309159423828126,-0.007574296556413174,0.054723165929317474,0.15661783516407013
1782986899812234500,8.319234375,-0.008672317489981651,0.058035604655742645,0.1150195300579071
1782986899822308400,8.329308349609375,-0.014516091905534267,0.05842309445142746,0.08321153372526169
1782986899832383500,8.339383544921875,-0.018162492662668228,0.049934271723032,0.05938982218503952
1782986899842457300,8.349457275390625,-0.020552413538098335,0.0360991470515728,0.03934421017765999
1782986899852532500,8.359532470703124,-0.013249225914478302,0.024271517992019653,0.028659608215093613
1782986899862606300,8.3696064453125,-0.01104679238051176,0.009638778865337372,0.02027704194188118
1782986899872681500,8.379681396484376,-0.010357033461332321,0.000800279900431633,0.007435013074427843
1782986899882755300,8.38975537109375,-0.010890464298427105,0.00920335203409195,-0.00944916158914566
1782986899892830500,8.39983056640625,-0.01594594307243824,0.03038906492292881,-0.014597318135201931
1782986899902904300,8.409904296875,-0.02864842303097248,0.03476464003324509,-0.002551840851083398
1782986899912979500,8.4199794921875,-0.0385814793407917,0.045830871909856796,0.023455791175365448
1782986899923053300,8.43005322265625,-0.04674060642719269,0.05458308383822441,0.0541125051677227
1782986899933127400,8.44012744140625,-0.051236022263765335,0.03555027022957802,0.06541895121335983
1782986899943202300,8.450202392578126,-0.05115692690014839,0.026864103972911835,0.06580085307359695
1782986899953276400,8.4602763671875,-0.04922240599989891,0.03350310027599335,0.04974332079291344
1782986899963351300,8.470351318359375,-0.04686630889773369,0.038412902504205704,0.03797454759478569
1782986899973425400,8.48042529296875,-0.03995567187666893,0.042757581919431686,0.02852059155702591
1782986899983500300,8.490500244140625,-0.032585907727479935,0.038779884576797485,0.02496154233813286
1782986899993574400,8.500574462890626,-0.030366161838173866,0.031034614890813828,0.01708231493830681
1782986900003649300,8.510649169921875,-0.0332876481115818,0.0032591766212135553,-0.0021584921050816774
1782986900013723400,8.520723388671875,-0.029147231951355934,-0.011816179379820824,-0.02159104496240616
1782986900023798300,8.53079833984375,-0.02425580471754074,-0.01173308864235878,-0.040659546852111816
1782986900033872400,8.540872314453125,-0.025422802194952965,0.0038772961124777794,-0.05350556969642639
1782986900043947300,8.550947265625,-0.030348584055900574,0.011036938056349754,-0.04686843976378441
1782986900054021400,8.561021484375,-0.03651779890060425,0.026700586080551147,-0.031978171318769455
1782986900064096300,8.57109619140625,-0.03501683846116066,0.029499568045139313,-0.0016964336391538382
1782986900074169900,8.581169921875,-0.039695482701063156,0.02021605521440506,0.025357820093631744
1782986900084244700,8.59124462890625,-0.043356794863939285,0.004986502695828676,0.03666560351848602
1782986900094318800,8.60131884765625,-0.042100049555301666,0.011488344520330429,0.05345337092876434
1782986900104392700,8.611392822265625,-0.04340127110481262,0.034213896840810776,0.06808264553546906
1782986900114467800,8.6214677734375,-0.045524608343839645,0.0404353067278862,0.07388301193714142
1782986900124541700,8.631541748046875,-0.04597628116607666,0.024596689268946648,0.06824350357055664
1782986900134616800,8.641616943359375,-0.03642458841204643,0.013919278047978878,0.053765758872032166
1782986900144690700,8.651690673828124,-0.027832696214318275,0.007017962168902159,0.031802136451005936
1782986900154765800,8.661765869140625,-0.026340793818235397,0.010608701966702938,0.019407786428928375
1782986900164839700,8.671839599609376,-0.030662305653095245,0.0015001586871221662,-0.0006660565850324929
1782986900174914800,8.681914794921875,-0.02412877231836319,-0.02310984581708908,-0.0235226359218359
1782986900184988700,8.69198876953125,-0.02851393260061741,-0.04254612699151039,-0.05667952448129654
1782986900195063800,8.702063720703125,-0.025411350652575493,-0.052147090435028076,-0.09544103592634201
1782986900205137700,8.7121376953125,-0.02094016969203949,-0.0537300743162632,-0.13765107095241547
1782986900215212800,8.722212890625,-0.018194716423749924,-0.03651859611272812,-0.17905843257904053
1782986900225286700,8.73228662109375,-0.018730809912085533,-0.05353566259145737,-0.2158910185098648
1782986900235360800,8.74236083984375,-0.020722588524222374,-0.07076817750930786,-0.24341771006584167
1782986900245435600,8.752435546875,-0.02851846069097519,-0.06903313100337982,-0.2526591420173645
1782986900255509800,8.762509765625,-0.03771062567830086,-0.051607001572847366,-0.23437096178531647
1782986900265584600,8.772584716796874,-0.05095639079809189,0.010099506005644798,-0.1578918993473053
1782986900275658800,8.78265869140625,-0.06538699567317963,0.0777595117688179,-0.03978203237056732
1782986900285733600,8.792733642578124,-0.06854124367237091,0.10824045538902283,0.08118113875389099
1782986900295807700,8.802807861328125,-0.06733030080795288,0.0798807144165039,0.1578674018383026
1782986900305883000,8.8128828125,-0.04474776238203049,0.016223710030317307,0.17335528135299683
1782986900315956700,8.822956787109375,-0.014071610756218433,-0.025616146624088287,0.13892006874084473
1782986900326032000,8.833031982421875,0.009761816821992397,-0.030544593930244446,0.08562622219324112
1782986900336105700,8.843105712890624,0.018604310229420662,-0.022394254803657532,0.02117958664894104
1782986900346180900,8.853180908203125,0.014435664750635624,0.001059139147400856,-0.035172369331121445
1782986900356254700,8.863254638671876,0.007192398887127638,0.028197016566991806,-0.061034057289361954
1782986900366329900,8.873329833984375,0.0014969628537073731,0.04845461621880531,-0.061107560992240906
1782986900376403700,8.88340380859375,0.0028415927663445473,0.049276202917099,-0.039074432104825974
1782986900386478800,8.893478759765625,0.0034171019215136766,0.05559881404042244,-0.011403655633330345
1782986900396552700,8.903552734375,0.006812898442149162,0.05317720025777817,0.015680693089962006
1782986900406626800,8.913626708984374,0.008655806072056293,0.05029246583580971,0.03861983120441437
1782986900416701700,8.92370166015625,0.010366620495915413,0.05662359669804573,0.05168423429131508
1782986900426775800,8.93377587890625,0.013683321885764599,0.04951828345656395,0.051890093833208084
1782986900436850700,8.9438505859375,0.0219135545194149,0.047446876764297485,0.05452502891421318
1782986900446924800,8.9539248046875,0.025543443858623505,0.03971359133720398,0.05191433057188988
1782986900456999700,8.963999755859374,0.026153041049838066,0.023573769256472588,0.04117034003138542
1782986900467073800,8.97407373046875,0.026707511395215988,0.023490678519010544,0.028368791565299034
1782986900477148700,8.984148681640624,0.031258318573236465,0.04254426434636116,0.015837285667657852
1782986900487222800,8.994222900390625,0.02888384647667408,0.05391622707247734,0.007122091483324766
1782986900497297700,9.004297607421876,0.019568907096982002,0.06282103806734085,0.0046546729281544685
1782986900507371800,9.014371826171875,0.01564447395503521,0.05173962563276291,0.001600559800863266
1782986900517446700,9.02444677734375,0.011594604700803757,0.04482606053352356,-0.0015824503498151898
1782986900527520800,9.034520751953124,0.003910852130502462,0.04320339858531952,-0.0027885958552360535
1782986900537595600,9.044595703125,-0.0038048583082854748,0.042985282838344574,-0.0010306433541700244
1782986900547669800,9.054669677734376,-0.011748002842068672,0.04939098656177521,-0.007989216595888138
1782986900557743900,9.064743896484375,-0.014108361676335335,0.058328285813331604,-0.0030298782512545586
1782986900567819000,9.074819091796876,-0.02087412215769291,0.05240008980035782,-0.006193447392433882
1782986900577892900,9.084892822265624,-0.020081833004951477,0.05053640902042389,-0.0016881778137758374
1782986900587968000,9.094968017578125,-0.020362529903650284,0.06645146012306213,0.002814162289723754
1782986900598041900,9.105041748046874,-0.017733989283442497,0.06529565155506134,0.012271313928067684
1782986900608117000,9.115116943359375,-0.01452807616442442,0.06339548528194427,0.023139407858252525
1782986900618190800,9.12519091796875,-0.011564777232706547,0.056888848543167114,0.031973645091056824
1782986900628266000,9.135265869140625,-0.008505071513354778,0.033196303993463516,0.030647657811641693
1782986900638339800,9.14533984375,-0.00387356779538095,0.01889139972627163,0.021682659164071083
1782986900648415000,9.1554150390625,-0.00012090751260984689,0.02154577150940895,0.010113620199263096
1782986900658488800,9.16548876953125,-0.0019116170005872846,0.028728317469358444,0.005420864559710026
1782986900668564000,9.17556396484375,-0.004671450704336166,0.03617185354232788,0.01085903961211443
1782986900678637800,9.185637939453125,-0.0068267472088336945,0.03292785584926605,0.028075575828552246
1782986900688713000,9.195712890625,-0.013775999657809734,0.04202628135681152,0.050100717693567276
1782986900698786800,9.205786865234375,-0.012278770096600056,0.03429831936955452,0.06458884477615356
1782986900708862000,9.215862060546876,-0.011066232807934284,0.018090587109327316,0.0723586156964302
1782986900718935800,9.225935791015624,-0.013488644734025002,0.024814270436763763,0.071476049721241
1782986900729010000,9.236010009765625,-0.012768791988492012,0.03997164964675903,0.060084640979766846
1782986900739084800,9.246084716796876,-0.010548247955739498,0.049070075154304504,0.043604735285043716
1782986900749159000,9.256158935546875,-0.010127735324203968,0.060570668429136276,0.03019838221371174
1782986900759233800,9.26623388671875,-0.010788732208311558,0.06727810949087143,0.01979048177599907
1782986900769308000,9.276307861328124,-0.00939030572772026,0.054720502346754074,0.012414325028657913
1782986900779382800,9.2863828125,0.00020666129421442747,0.04270964488387108,0.005599296186119318
1782986900789457000,9.296456787109374,0.002275671111419797,0.029766418039798737,-0.005375590641051531
1782986900799532000,9.306531982421875,0.0020562265999615192,0.02359720505774021,-0.016111591830849648
1782986900809606000,9.31660595703125,0.0002639192680362612,0.020200077444314957,-0.02905508689582348
1782986900819681000,9.326680908203125,-0.0012290488230064511,0.010517888702452183,-0.039922382682561874
1782986900829755000,9.3367548828125,-0.0035116442013531923,0.007443268783390522,-0.055323708802461624
1782986900839830000,9.346830078125,-0.008648348972201347,0.00577852688729763,-0.06330440193414688
1782986900849903900,9.35690380859375,-0.014932077378034592,0.008106395602226257,-0.06428951025009155
1782986900859979000,9.36697900390625,-0.01804371550679207,0.0015531554818153381,-0.06303462386131287
1782986900870052900,9.377052978515625,-0.024272317066788673,-0.004093278665095568,-0.06658674776554108
1782986900880126700,9.387126708984376,-0.029080387204885483,-0.0046751792542636395,-0.0750979483127594
1782986900890201900,9.397201904296875,-0.030673224478960037,-0.0005483448621816933,-0.0845676138997078
1782986900900275700,9.407275634765625,-0.032886311411857605,0.014180799946188927,-0.10015882551670074
1782986900910350800,9.417350830078124,-0.031097466126084328,0.03260188549757004,-0.10146377235651016
1782986900920424700,9.4274248046875,-0.028387965634465218,0.06497474014759064,-0.07694724202156067
1782986900930499800,9.437499755859376,-0.02443823032081127,0.06575983762741089,-0.02972034551203251
1782986900940574000,9.447573974609375,-0.021691180765628815,0.03431642800569534,0.011262241750955582
1782986900950648800,9.45764892578125,-0.013252422213554382,-0.010132262483239174,0.03039678744971752
1782986900960723000,9.467722900390624,-0.005672533065080643,-0.043590620160102844,0.026700319722294807
1782986900970797800,9.4777978515625,-0.005927397403866053,-0.04646763205528259,0.001606152392923832
1782986900980872000,9.487871826171874,-0.011032677255570889,0.012657471932470798,-0.02467551827430725
1782986900990946800,9.49794677734375,-0.018202705308794975,0.04995530843734741,-0.040955688804388046
1782986901001021000,9.50802099609375,-0.03105645254254341,0.04198819771409035,-0.02310105785727501
1782986901011095800,9.518095703125,-0.032402146607637405,0.009075254201889038,0.0246060099452734
1782986901021170000,9.528169921875,-0.02827824279665947,-0.011396997608244419,0.09002362936735153
1782986901031243800,9.538243896484374,-0.03267618641257286,0.006479470990598202,0.1579323709011078
1782986901041319000,9.54831884765625,-0.03961025923490524,0.03297632560133934,0.1948576420545578
1782986901051392800,9.558392822265626,-0.0388035885989666,0.04434003308415413,0.1926402896642685
1782986901061468000,9.568468017578125,-0.0315142497420311,0.032349418848752975,0.16071271896362305
1782986901071541800,9.578541748046876,-0.02286350354552269,0.034514568746089935,0.11398302763700485
1782986901081616100,9.5886162109375,-0.016770990565419197,0.025357820093631744,0.0671878233551979
1782986901091691000,9.59869091796875,-0.011468370445072651,0.014485731720924377,0.024710671976208687
1782986901101765000,9.60876513671875,-0.0038506644777953625,0.016805611550807953,0.00011904330312972888
1782986901111840000,9.618840087890625,-0.004748948849737644,0.01788073033094406,-0.009852897375822067
1782986901121914000,9.6289140625,-0.004332430195063353,0.012990366667509079,-0.002861832967028022
1782986901131989000,9.638989013671875,-0.0037031255196779966,0.008449677377939224,0.004219778813421726
1782986901142063000,9.64906298828125,-0.006506368983536959,-0.011406851932406425,0.00469515286386013
1782986901152138000,9.659137939453124,-0.0019313243683427572,-0.03825045004487038,-0.0041060615330934525
1782986901162212000,9.669212158203125,0.001270594191737473,-0.04025368019938469,-0.018222413957118988
1782986901172287000,9.679286865234374,0.005288771353662014,-0.031215976923704147,-0.033126793801784515
1782986901182361000,9.689361083984375,0.005420331843197346,-0.022952720522880554,-0.046602655202150345
1782986901192436000,9.69943603515625,0.002323341788724065,-0.010342918336391449,-0.04974598437547684
1782986901202510000,9.709510009765625,0.006458964664489031,-0.0051987566985189915,-0.043888360261917114
1782986901212585000,9.7195849609375,0.00959936436265707,0.0005659217131324112,-0.03644296154379845
1782986901222659000,9.7296591796875,0.012917396612465382,0.01107422262430191,-0.01330142468214035
1782986901232733000,9.73973291015625,0.0128159299492836,0.013459882698953152,0.009934656322002411
1782986901242808000,9.74980810546875,0.011175689287483692,0.0037374801468104124,0.0226198248565197
1782986901252882000,9.7598818359375,0.01375283021479845,-0.004716191906481981,0.023361248895525932
1782986901262957000,9.76995703125,0.017663415521383286,-0.0033004553988575935,0.01667964458465576
1782986901273031000,9.780031005859374,0.018375812098383904,-0.0022855247370898724,0.0005291700945235789
1782986901283106000,9.79010595703125,0.020978251472115517,-0.007276288699358702,-0.011960522271692753
1782986901293180000,9.800179931640624,0.0258070956915617,-0.010773551650345325,-0.021512215957045555
1782986901303255000,9.810255126953125,0.02797544188797474,-0.005135905928909779,-0.025192171335220337
1782986901313329000,9.820328857421876,0.023245135322213173,-0.015049522742629051,-0.025069933384656906
1782986901323404000,9.830404052734375,0.026487000286579132,-0.018790198490023613,-0.01991325430572033
1782986901333478000,9.840477783203125,0.027030285447835922,-0.016173910349607468,-0.010220413096249104
1782986901343553000,9.850552978515625,0.02544783614575863,-0.012897955253720284,0.0011257182341068983
1782986901353627000,9.860626953125,0.019636817276477814,-0.005554821342229843,0.006828877609223127
1782986901363702000,9.870701904296874,0.020624319091439247,-0.000026365294615970924,0.007851265370845795
1782986901373777200,9.880777099609375,0.013014867901802063,0.0031273500062525272,0.0023406522814184427
1782986901383851000,9.89085107421875,0.014009292237460613,-0.0014287859667092562,-0.008429703302681446
1782986901393926100,9.900926025390625,0.017139039933681488,-0.003984888084232807,-0.02551654540002346
1782986901404000000,9.911,0.017611751332879066,-0.003195793367922306,-0.033967021852731705
1782986901414074000,9.92107421875,0.02058170735836029,-0.0037609159480780363,-0.03893621265888214
1782986901424149000,9.93114892578125,0.018035193905234337,-0.002671949565410614,-0.02521560713648796
1782986901434223000,9.94122314453125,0.020184097811579704,-0.004502340219914913,-0.008654474280774593
1782986901444298000,9.951298095703125,0.02094043605029583,-0.0183518435806036,0.006162820849567652
1782986901454372000,9.9613720703125,0.023363113403320312,-0.028790369629859924,0.006654973141849041
1782986901464447000,9.971447021484375,0.028557077050209045,-0.037994254380464554,-0.0015931029338389635
1782986901474521000,9.98152099609375,0.03116963803768158,-0.03129959851503372,-0.015665778890252113
1782986901484596000,9.991595947265624,0.028834577649831772,-0.009434781037271023,-0.02400386892259121
1782986901494670000,10.001670166015625,0.02858557179570198,-0.00833729188889265,-0.0279203150421381
1782986901504745000,10.011744873046876,0.034980885684490204,-0.017359282821416855,-0.017782192677259445
1782986901514819000,10.021819091796875,0.02978958748281002,-0.016269251704216003,-0.007290936075150967
1782986901524894000,10.03189404296875,0.021564681082963943,-0.01088913343846798,0.008187889121472836
1782986901534968000,10.041968017578125,0.01121989730745554,-0.006392118986696005,0.022476280108094215
1782986901545043000,10.05204296875,0.007005445193499327,0.01985386572778225,0.032390695065259933
1782986901555117000,10.062116943359374,-0.00044554684427566826,0.04182867333292961,0.035590749233961105
1782986901565191000,10.07219091796875,-0.001175519311800599,0.042685411870479584,0.01840697042644024
1782986901575266000,10.08226611328125,-0.0031166973058134317,0.03449725732207298,-0.005908222869038582
1782986901585340000,10.09233984375,0.00019094864546786994,0.046418629586696625,-0.03917616605758667
1782986901595415000,10.1024150390625,0.003945473115891218,0.05927424132823944,-0.07694032043218613
1782986901605489000,10.112489013671874,0.005625128746032715,-0.015731824561953545,-0.10088906437158585
1782986901615564000,10.12256396484375,0.006820355542004108,-0.07419087737798691,-0.09323406964540482
1782986901625638000,10.132637939453126,-0.0016223976854234934,-0.08514206111431122,-0.07369499653577805
1782986901635713000,10.142713134765625,-0.02466406673192978,-0.08075609803199768,-0.06848398596048355
1782986901645787000,10.152786865234376,-0.04900402948260307,-0.10894858837127686,-0.08676232397556305
1782986901655862000,10.162862060546875,-0.06083858385682106,-0.11732503026723862,-0.09931965917348862
1782986901665936000,10.172935791015625,-0.0874616727232933,-0.10120970755815506,-0.13324114680290222
1782986901676011000,10.183010986328124,-0.09182552993297577,-0.0873602032661438,-0.1796344816684723
1782986901686084900,10.1930849609375,-0.07538823038339615,-0.10168721526861191,-0.2136952430009842
1782986901696160000,10.203159912109374,-0.0570230707526207,-0.10419058054685593,-0.23745037615299225
1782986901706233900,10.21323388671875,-0.06155204400420189,-0.11844196170568466,-0.2148987203836441
1782986901716309000,10.22330908203125,-0.06796733289957047,-0.11745020002126694,-0.15029416978359222
1782986901726382800,10.2333828125,-0.06546901911497116,-0.090398870408535,-0.05940207466483116
1782986901736457200,10.243457275390625,-0.05216040462255478,-0.045340318232774734,0.007268831599503756
1782986901746531800,10.25353173828125,-0.038551654666662216,0.0332636795938015,0.02455035038292408
1782986901756606200,10.263606201171875,-0.03266473487019539,0.12703891098499298,0.004084490239620209
1782986901766680800,10.273680908203126,-0.029461486265063286,0.1947750747203827,-0.05578097328543663
1782986901776755200,10.283755126953125,-0.006771353539079428,0.23329024016857147,-0.11816898733377457
1782986901786830000,10.293830078125,0.02129649929702282,0.2879268527030945,-0.17402319610118866
1782986901796904200,10.303904296875,0.04099643602967262,0.260951429605484,-0.2027168869972229
1782986901806979000,10.31397900390625,0.05494740605354309,0.1950720250606537,-0.20110754668712616
1782986901817053200,10.32405322265625,0.06193554028868675,0.15578746795654297,-0.1733560711145401
1782986901827128000,10.334128173828125,0.05892590060830116,0.10452907532453537,-0.12036821991205215
1782986901837202200,10.3442021484375,0.04111174866557121,0.04331711307168007,-0.06680459529161453
1782986901847277000,10.354277099609375,0.030837541446089745,-0.02792004868388176,-0.01155678741633892
1782986901857351200,10.36435107421875,0.021222464740276337,-0.06871408224105835,0.029414881020784378
1782986901867426000,10.374426025390624,0.009694439359009266,-0.06988108158111572,0.04869003966450691
1782986901877500200,10.384500244140625,0.0029904635157436132,-0.04006992280483246,0.030654581263661385
1782986901887574000,10.394573974609376,0.007045126520097256,-0.013774401508271694,-0.009696569293737411
1782986901897649200,10.404649169921875,0.00577746145427227,0.004803543444722891,-0.059054531157016754
1782986901907723000,10.414722900390625,0.005833387840539217,0.021442973986268044,-0.08924412727355957
1782986901917798100,10.424798095703125,0.013856160454452038,0.020846692845225334,-0.09538537263870239
1782986901927872300,10.434872314453125,0.015002917498350143,0.030650055035948753,-0.09959450364112854
1782986901937947100,10.444947021484374,0.01720801554620266,0.04566388949751854,-0.12158875167369843
1782986901948021200,10.455021240234375,0.02586914785206318,0.0781099796295166,-0.136005237698555
1782986901958096100,10.46509619140625,0.02570349909365177,0.11130202561616898,-0.14725975692272186
1782986901968170200,10.475170166015625,0.024447552859783173,0.13366591930389404,-0.14812342822551727
1782986901978245000,10.4852451171875,0.02448164112865925,0.13000407814979553,-0.14354172348976135
1782986901988319200,10.4953193359375,0.04206516221165657,0.1372513324022293,-0.14287352561950684
1782986901998394000,10.50539404296875,0.05031563341617584,0.15290485322475433,-0.11986462026834488
1782986902008468200,10.51546826171875,0.006099970545619726,0.1313636153936386,-0.004968393128365278
1782986902018543000,10.525543212890625,-0.04236050695180893,-0.023869113996624947,0.019108179956674576
1782986902028617200,10.5356171875,-0.009064601734280586,-0.11220483481884003,0.009244364686310291
1782986902038692000,10.545692138671875,-0.0002937466779258102,-0.08735860884189606,-0.025904035195708275
1782986902048766200,10.55576611328125,-0.034455977380275726,-0.025842249393463135,-0.10023712366819382
1782986902058840000,10.565840087890624,-0.06421706825494766,0.016264723613858223,-0.1513623595237732
1782986902068915200,10.575915283203125,-0.09593664854764938,0.012178368866443634,-0.1261211782693863
1782986902078989000,10.585989013671876,-0.10427314043045044,-0.03924460709095001,-0.0353875532746315
1782986902089064200,10.596064208984375,-0.11225064098834991,-0.15838271379470825,0.07250162959098816
