time,seconds_elapsed,z,y,x
1782985825615587300,0.07358740234375,0.49803544636666774,0.014425415715575218,0.06771189248412847
1782985825625661400,0.083661376953125,0.54163493411839,0.04816051205694675,0.220381265155226
1782985825635735300,0.0937353515625,0.4307505471229553,0.07721709519326686,0.2934706128939986
1782985825645809200,0.10380908203125,0.1657294913828373,0.14045359582901001,0.28589316337704657
1782985825655883300,0.11388330078125,-0.10600421373844146,0.22517595208585262,0.18705606478899717
1782985825665957000,0.12395703125,-0.21909166373610495,0.2662771932810545,0.11965908347293734
1782985825676030200,0.1340302734375,-0.18586159430742263,0.265970319288969,0.09897416897118091
1782985825686104300,0.144104248046875,-0.11254735177159308,0.2660416309595108,0.09013736704289912
1782985825696178200,0.15417822265625,-0.04614566510319709,0.256207050165534,0.12035364160835742
1782985825706252300,0.164252197265625,0.08680033157467841,0.2888029133439064,0.16819076692983506
1782985825716326100,0.174326171875,0.1780418604671955,0.2973030306637287,0.18754896287247538
1782985825726400300,0.184400146484375,0.262712194275856,0.27656010236442086,0.12225173031464219
1782985825736474400,0.194474365234375,0.267671277987957,0.2935924857079983,0.06824760679602622
1782985825746548200,0.20454833984375,0.25188392626941203,0.2503741062283516,0.034301498052477834
1782985825756622300,0.214622314453125,0.25125848784744736,0.19232757545113563,0.008670797711610794
1782985825766696200,0.2246962890625,0.16881985861361026,0.20902795036137103,0.06043225686997175
1782985825776769300,0.234769287109375,0.08796703726649284,0.24229659823477268,0.0382667484216392
1782985825786843400,0.244843505859375,0.10855740535259246,0.2910626749694347,0.019740911649912596
1782985825796917200,0.254917236328125,0.18509236350059508,0.3000689882457256,0.077898501586169
1782985825806991400,0.264991455078125,0.25249650520980355,0.28235037620365616,0.13884806032851338
1782985825817065200,0.275065185546875,0.2531359721571207,0.2963794860780239,0.10953165721222757
1782985825827139300,0.285139404296875,0.2677922740191221,0.28943127437531946,-0.006887567556649446
1782985825837213200,0.295213134765625,0.26726211266517635,0.2679080093532801,-0.05010419347062706
1782985825847287300,0.305287353515625,0.3029278848081827,0.2618605458825827,-0.06666545217111707
1782985825857361400,0.315361328125,0.33693244574069975,0.27161621622145177,-0.09334741513058542
1782985825867435300,0.325435302734375,0.34929742179512974,0.3225719119548797,-0.10391557089611887
1782985825877509400,0.33550927734375,0.34317513952255246,0.36288404859900475,-0.06883943520933389
1782985825887582200,0.345582275390625,0.4110363773494959,0.4655050496399402,-0.1124151036940515
1782985825897656300,0.35565625,0.5377262362420558,0.5598194101065397,-0.08212430258765817
1782985825907730400,0.36573046875,0.7968962278664111,0.6575473784089088,-0.030274580623954533
1782985825917804300,0.37580419921875,1.1233429354280233,0.85751114782691,0.03537731059044599
1782985825927878400,0.38587841796875,1.364527773028612,1.0248778850227593,0.2230643667593598
1782985825937952300,0.3959521484375,1.4621213012963532,1.1709504897773264,0.4519681071966886
1782985825948026000,0.406026123046875,1.4998720630198716,1.2686065618872642,0.6380537195183337
1782985825958100200,0.416100341796875,1.3995757055342197,1.2648989395409822,0.8202515306212007
1782985825968174300,0.42617431640625,1.1216524981230496,1.2149334238886833,0.8797294093757867
1782985825978248400,0.43624853515625,0.8814403049468994,1.2339099270373581,0.727853963561356
1782985825988321300,0.4463212890625,0.6765858408778905,1.187055821403861,0.5812840768091381
1782985825998395100,0.45639501953125,0.36038580204248427,1.0229530544400214,0.5717318200878798
1782985826008469200,0.46646923828125,0.067878773483634,0.8556973764032125,0.4866857848346233
1782985826018543400,0.47654345703125,-0.23979484454691408,0.6281570332735776,0.3450171141274273
1782985826028617500,0.486617431640625,-0.5457540598750115,0.3802519475072622,0.17315335777327417
1782985826038691300,0.49669140625,-0.8202069608271122,0.1916840168505907,-0.038931057549268004
1782985826048765200,0.50676513671875,-1.0222112961620091,0.03936345761716366,-0.25760274230763314
1782985826058839300,0.51683935546875,-1.0482271964281797,-0.09187164348959923,-0.40984804434776306
1782985826068913200,0.5269130859375,-1.0106377627462149,-0.2527700614541769,-0.3920506679810583
1782985826078987300,0.5369873046875,-1.008043070077896,-0.3636813364565372,-0.3116641489714384
1782985826089060400,0.547060302734375,-0.9761801973491907,-0.3821469674736261,-0.3078925214782357
1782985826099134200,0.55713427734375,-0.8819044153273106,-0.4184083674222231,-0.2996818886242807
1782985826109208300,0.567208251953125,-0.7673948235720396,-0.5077022693783044,-0.22540157753527162
1782985826119282200,0.5772822265625,-0.6180196701407432,-0.5954752453774214,-0.23152385980784893
1782985826129356300,0.587356201171875,-0.46043782937824723,-0.6636573857218027,-0.29394349110275503
1782985826139430400,0.597430419921875,-0.35990240243971344,-0.7514952436506748,-0.24029563367590306
1782985826149504300,0.607504150390625,-0.33616087684631346,-0.7907558254152536,-0.14313801260739564
1782985826159578400,0.617578369140625,-0.28087796556353567,-0.7321455232754349,-0.13445683963224292
1782985826169652200,0.62765234375,-0.18072949211597442,-0.6758364838153124,-0.1326867612197995
1782985826179726300,0.637726318359375,-0.09510755667090415,-0.6976625311762094,-0.05484992669299245
1782985826189799400,0.64779931640625,-0.10692542023658752,-0.7049716851457953,-0.053865299569815395
1782985826199873300,0.657873291015625,-0.16630641448795794,-0.7067249585539103,-0.07261033205017448
1782985826209947400,0.667947509765625,-0.1901712742000818,-0.670605889685452,-0.09522226909175514
1782985826220021200,0.678021240234375,-0.1443751531869173,-0.629273470082879,-0.08764818057566881
1782985826230095000,0.68809521484375,-0.08155658570230007,-0.6330246393099427,-0.05683277107328176
1782985826240169000,0.6981689453125,-0.11068506503105163,-0.6668374770626425,-0.051164223917573685
1782985826250243000,0.7082431640625,-0.23672318201661108,-0.6370160470336675,-0.1622718982748687
1782985826260317200,0.718317138671875,-0.4026671929329633,-0.6374453783616423,-0.2810356403432786
1782985826270391300,0.728391357421875,-0.5363637157171964,-0.6568132189154624,-0.31600466239377856
1782985826280465200,0.738465087890625,-0.5635995131671429,-0.6166653329223394,-0.34012466591075063
1782985826290538000,0.7485380859375,-0.46804771986007687,-0.5473348993256688,-0.3137359868094325
1782985826300612000,0.758612060546875,-0.300353650406003,-0.4879994977816939,-0.23448650900572537
1782985826310686200,0.768686279296875,-0.1563613590568304,-0.42865942006260155,-0.19252879711166024
1782985826320760300,0.77876025390625,-0.08198387120366096,-0.36900107017457484,-0.17190072736367581
1782985826330834200,0.788834228515625,0.0019131401449441908,-0.30236323666274545,-0.21400544651299713
1782985826340908000,0.798907958984375,0.0830535462617874,-0.2670274271264672,-0.20730770244002342
1782985826350982100,0.808982177734375,0.046941783916950225,-0.2351800442278385,-0.18152078862413762
1782985826361056000,0.819055908203125,0.04154489330947399,-0.14928776740878819,-0.16719634906500577
1782985826371130000,0.829130126953125,-0.005118073666095733,-0.10713351002931594,-0.0678565616518259
1782985826381204200,0.839204345703125,-0.09295067089796066,-0.04142155919075012,0.029965953066200018
1782985826391278000,0.849278076171875,-0.08941372894346714,0.09029664925783872,0.0029947979018092154
1782985826401351200,0.85935107421875,-0.08896540065407753,0.13475333836078643,-0.008260755605995655
1782985826411425000,0.869425048828125,-0.10364040721654891,0.13034136713743208,0.03867357565686107
1782985826421499100,0.8794990234375,-0.05561725780367851,0.1413777249366045,0.06337824719399214
1782985826431573200,0.8895732421875,0.002215337961912155,0.12425941687524318,0.04195990385115146
1782985826441647000,0.899647216796875,0.0016238018095493317,0.15177929196357726,0.057876434907317156
1782985826451721200,0.90972119140625,-0.020232056167721748,0.13576163862049578,0.0629506694316864
1782985826461795000,0.919795166015625,-0.07960486711263656,0.1487085062161088,0.09483721529692411
1782985826471869200,0.929869140625,-0.1719511423766613,0.22689649226814507,0.09138122962415218
1782985826481943000,0.939943115234375,-0.216549578037858,0.26673896557390686,0.09815306184664369
1782985826492017200,0.95001708984375,-0.23970658174157142,0.21160364606827498,0.09825345348119735
1782985826502090200,0.96009033203125,-0.21909633991122243,0.1754284630984068,0.05511106184720993
1782985826512164000,0.9701640625,-0.12123743870556354,0.15240297681987286,0.0016140110678970812
1782985826522238200,0.98023828125,-0.0184521870136261,0.1051093107253313,-0.013778934505581856
1782985826532312000,0.99031201171875,0.10028700513541698,0.06378098277598619,-0.056262423839420074
1782985826542386200,1.00038623046875,0.19258418056070803,0.014584405669569969,-0.10302446727529167
1782985826552460300,1.010460205078125,0.18403028722703454,-0.02016658971607685,-0.10939926300421357
1782985826562534100,1.0205341796875,0.08718260889053345,0.019591127915680406,-0.1130402498550713
1782985826572608300,1.030608154296875,-0.007288987964391708,0.07931231390684843,-0.15522899402603507
1782985826582682000,1.04068212890625,-0.08652969793975353,0.10665332529693841,-0.1331485335126519
1782985826592756000,1.050755859375,-0.029040801045298575,0.06429156264662743,-0.06924976957589388
1782985826602829300,1.060829345703125,0.03880465469062328,0.004297404932975769,-0.010087532641738653
1782985826612903200,1.070903076171875,0.11653437558114528,-0.031339141115546226,0.010745558159053325
1782985826622977300,1.080977294921875,0.14473931032419204,-0.05464578242301941,0.03683437753096223
1782985826633051100,1.091051025390625,0.12593348756730555,-0.01943769091963768,0.01592676018923521
1782985826643125000,1.101125,0.11017360837757587,-0.0024731121152639386,-0.028824381815642116
1782985826653199000,1.11119921875,0.13677870670855044,0.004879588735103607,-0.07497954539954661
1782985826663273200,1.121273193359375,0.1799982552319765,-0.05710106662064791,-0.1279436583459377
1782985826673347300,1.131347412109375,0.23554069423377513,-0.08720160585194825,-0.07608955246806144
1782985826683421200,1.141421142578125,0.21837854703068732,-0.042191374519467355,0.011075666896253824
1782985826693495000,1.1514951171875,0.14921967060863972,0.03245908505618572,0.014076017756015061
1782985826703569200,1.161569091796875,0.09754384390711784,0.09798720376044512,0.04180164454951882
1782985826713642200,1.171642333984375,0.038139468780159946,0.07825140667706727,0.0987486165869981
1782985826723716400,1.18171630859375,0.008927987343072891,0.08773439755439758,0.0833498257946223
1782985826733790200,1.191790283203125,0.015184125128388404,0.08499152858704329,0.07284640582837164
1782985826743864000,1.201864013671875,0.11723638637065886,0.09978197822272777,0.11359189238846301
1782985826753938200,1.211938232421875,0.21267770504057407,0.1476817935168743,0.19993797738961874
1782985826764012000,1.222011962890625,0.3151215959489345,0.16831892335414886,0.24409276093654333
1782985826774086100,1.232086181640625,0.3706616968631744,0.18817951586097478,0.2578192346025258
1782985826784160300,1.24216015625,0.37531682919263837,0.19718582913726568,0.26826924388110635
1782985826794234000,1.252234130859375,0.32411271165609357,0.1844295156776905,0.2526700351458043
1782985826804308200,1.26230810546875,0.2536830846458673,0.20211773258149623,0.14007935568913815
1782985826814381000,1.272381103515625,0.10136427897810936,0.17832447680085897,0.08145129869692028
1782985826824455200,1.282455078125,-0.07533668827414512,0.17447276980876922,0.09675145142041146
1782985826834529300,1.292529296875,-0.1282107848495245,0.24072891052663326,0.12088643331080674
1782985826844603100,1.30260302734375,-0.08343640809953212,0.30019290688633915,0.1320999012425542
1782985826854677200,1.31267724609375,-0.06832768629491329,0.32943215311318635,0.1783092061664909
1782985826864751000,1.322751220703125,-0.05494798023998737,0.306584653750062,0.203905273585394
1782985826874825200,1.3328251953125,-0.04379588710665703,0.24793840351402757,0.18396065605692563
1782985826884899000,1.342899169921875,-0.12609364656507968,0.12600363019406793,0.20443543493933974
1782985826894973000,1.352972900390625,-0.23197101905345915,0.08369125964343548,0.18470256046541034
1782985826905047300,1.36304736328125,-0.3350263198584318,0.1156184297800064,0.1483433261655271
1782985826915120000,1.3731201171875,-0.3161363259494305,0.06749766521155834,0.040712022681906816
1782985826925194200,1.3831943359375,-0.26199615496098994,0.015139701464772224,-0.03149740041717887
1782985826935268000,1.39326806640625,-0.12602058132886887,-0.035839375144243235,-0.10294080757983028
1782985826945342000,1.403342041015625,0.034089316606521605,-0.09074526980817317,-0.10119958993569016
1782985826955416300,1.413416259765625,0.10615735847353934,-0.18603636635243892,-0.07564020126536489
1782985826965490200,1.423490234375,0.09576163666546345,-0.22450316739082335,-0.08548449973575771
1782985826975564300,1.433564208984375,0.06650163991153239,-0.20562895557284355,-0.0897361658308655
1782985826985638100,1.44363818359375,-0.06398527317643166,-0.20483634389042854,-0.055944443931430575
1782985826995712000,1.4537119140625,-0.14819441921412943,-0.16693828265070915,-0.08736709861196577
1782985827005786000,1.4637861328125,-0.27375965799093244,-0.1426928991883993,-0.14972082506380974
1782985827015859200,1.473859130859375,-0.391418069165945,-0.11578326495289802,-0.16764109715782105
1782985827025933000,1.48393310546875,-0.34430209772586823,-0.11396189474463463,-0.1657788834825158
1782985827036007200,1.494007080078125,-0.2494499771207571,-0.15272680194675922,-0.12030264207348226
1782985827046081000,1.5040810546875,-0.17749650154411792,-0.1813011545240879,-0.03774265148229897
1782985827056155100,1.514155029296875,-0.15343641152083873,-0.15430559557080267,-0.02717347280345857
1782985827066229000,1.52422900390625,-0.13688333612680434,-0.11579027921557426,-0.0654201282851398
1782985827076303400,1.534303466796875,-0.05691314283311367,-0.07324936060607433,-0.07698525919876992
1782985827086377200,1.544377197265625,-0.0437707526654005,-0.09891454773843288,-0.0625105244487524
1782985827096451000,1.554451171875,-0.10572598131895064,-0.13836802172660828,-0.11867547926306724
1782985827106525200,1.564525146484375,-0.11218144106864929,-0.17840075690746307,-0.41072029713764785
1782985827116598000,1.574597900390625,-0.06887538330554961,-0.10036591559052467,-0.5727006651200354
1782985827126672100,1.584672119140625,-0.12612637979090213,0.05207797776162624,0.03811221544705331
1782985827136746200,1.594746337890625,0.010483400091528892,-0.03312427096664906,0.26358064767345785
1782985827146820000,1.604820068359375,0.2544417940586805,0.03111585375368595,-0.08002265413329004
1782985827156894200,1.614894287109375,0.3246551479697227,0.22699030803143977,-0.05512494424208998
1782985827166968000,1.624968017578125,0.3053951517045498,0.29283319177329536,0.3134874919410795
1782985827177042200,1.635042236328125,0.23264964896738527,0.13093290328979493,0.3261811154279858
1782985827187116000,1.645115966796875,0.24425474656522272,0.18740648566186427,0.12103322137035429
1782985827197190100,1.655190185546875,0.3259171307295561,0.15388357076644896,-0.20876330807581542
1782985827207264300,1.66526416015625,0.43325697698593135,0.35275194616317745,0.0440131100539118
1782985827217337000,1.675337158203125,0.44395022043585775,0.4118278199881315,0.11807634432613849
1782985827227411000,1.685410888671875,0.2582330030351877,0.32503158006668087,0.15827771407216787
1782985827237485000,1.695485107421875,0.2345569438934326,0.43919221225380894,0.3013889848031103
1782985827247559000,1.705558837890625,0.32741993650794027,0.6097475163578987,0.28607487661950287
1782985827257633000,1.715633056640625,0.4319944097042083,0.5293336709499359,0.169741649633646
1782985827267707000,1.725706787109375,0.47503567905127997,0.43986675051450724,0.18399119732566177
1782985827277781000,1.735781005859375,0.39416766013503074,0.4211129502058029,0.1663506920211017
1782985827287854800,1.745854736328125,0.3244815449684858,0.36251346172094345,0.1334885791219771
1782985827297929000,1.755928955078125,0.20142039796710012,0.3323047859400511,0.08571823542639613
1782985827308003000,1.766003173828125,-0.11654314340949058,0.38285131635069847,0.07332366795130074
1782985827318076000,1.776075927734375,-0.25485972720980643,0.6406675552785396,0.20070340880416332
1782985827328150000,1.78614990234375,-0.1930862848639488,0.6741495536416768,0.2721520766638219
1782985827338223900,1.796223876953125,0.04087736931145191,0.6254682325810194,0.42210517611354587
1782985827348297700,1.806297607421875,0.3467804705381393,0.48515316843986506,0.3189407889109105
1782985827358372000,1.8163720703125,0.6503484068155289,0.616653057962656,0.4457913913231343
1782985827368446000,1.826446044921875,0.878594852387905,0.7358189510911702,0.3225358907934278
1782985827378520000,1.83652001953125,1.0454770209372044,0.7314449737906455,0.38434666947498913
1782985827388594000,1.846593994140625,1.15341307952106,0.8641711902379989,0.3488501894842833
1782985827398668000,1.85666796875,1.1999538814216852,0.9118775287866592,0.15398403546623884
1782985827408742000,1.866741943359375,1.1478548608720303,1.186893324318528,0.3298182298213243
1782985827418815000,1.87681494140625,1.0773141747027635,1.4774065487116574,0.19136895955204963
1782985827428889000,1.88688916015625,1.0883604693740605,1.488659179610014,-0.02190020857565105
1782985827438963000,1.896962890625,1.360100019714236,1.4508131408184766,-0.11740326737016439
1782985827449036800,1.907036865234375,1.6995254513144493,1.2099684949576854,-0.15880363764241337
1782985827459111000,1.91711083984375,1.8930378526359795,0.9189683638304471,-0.1844200902622193
1782985827469184800,1.927184814453125,1.8145453306794166,0.6913567090302706,-0.27382921609580513
1782985827479259100,1.937259033203125,1.6180898616433144,0.46547874615490437,-0.3974821915104985
1782985827489333000,1.9473330078125,1.315767541512847,0.2963403231114149,-0.48261729328669606
1782985827499407000,1.957406982421875,1.0231056146532296,0.24394085831046103,-0.4349192841749638
1782985827509481000,1.96748095703125,0.712773591068387,0.20612930631041526,-0.3561566400401294
1782985827519553800,1.9775537109375,0.2399608487635851,0.153503047016263,-0.3388187344113365
1782985827529628200,1.987628173828125,-0.23082243354022502,0.0854325503528118,-0.2317336301010102
1782985827539702000,1.997701904296875,-0.5859235731780529,0.0013163432955741882,-0.12465747628211975
1782985827549776000,2.00777587890625,-1.012569607591629,-0.149385090303421,-0.014921601734682917
1782985827559850000,2.01785009765625,-1.39060446357131,-0.2537362761378288,0.07186141337901353
1782985827569923800,2.027923828125,-1.6210954732000826,-0.26069793184399603,0.03208396813347936
1782985827579998000,2.037998046875,-1.6331407157808542,-0.2693096928447485,0.007555091554671526
1782985827590071800,2.04807177734375,-1.5268302125722168,-0.30332711325883865,0.08876246196050197
1782985827600146200,2.058146240234375,-1.4132722224533556,-0.40338557033538813,0.23520667650643734
1782985827610219000,2.068218994140625,-1.364335465326905,-0.4729185407668352,0.30112657100725915
1782985827620292900,2.07829296875,-1.2638146514356137,-0.4672533546119928,0.22977277835682033
1782985827630367000,2.088366943359375,-1.172775367116928,-0.4993219790458679,0.22132135901693253
1782985827640440800,2.09844091796875,-1.0693208378612995,-0.5583195269376039,0.23753230644240975
1782985827650515000,2.108514892578125,-0.8593757726550102,-0.6035802258998155,0.21480675295852122
1782985827660589000,2.118589111328125,-0.6529436840057372,-0.6716629975229501,0.20358038901258257
1782985827670663000,2.128662841796875,-0.5338239681065082,-0.819351220780611,0.20848792520053683
1782985827680737000,2.138737060546875,-0.5324041644364595,-0.8986194032847881,0.12505224775336682
1782985827690811000,2.148810791015625,-0.5942313827961683,-0.8949135345041751,0.005405804566293955
1782985827700884700,2.158884765625,-0.667619859611988,-0.8883189585447311,-0.1722637885224074
1782985827710958000,2.1689580078125,-0.7884124771595,-0.900523775601387,-0.27338390174740923
1782985827721032000,2.179031982421875,-0.8669009074628352,-0.8765811744779348,-0.2703237652581185
1782985827731106000,2.18910595703125,-0.7547299877882003,-0.8333493509948253,-0.22305505094174294
1782985827741180000,2.199179931640625,-0.5261263993412256,-0.7389841371238232,-0.11985667013796046
1782985827751253800,2.209253662109375,-0.30734803933799265,-0.5982482172220945,0.0012612155748531221
1782985827761327900,2.219327880859375,-0.2837748560488224,-0.4836877720624208,0.06991868181340397
1782985827771402000,2.229402099609375,-0.28212358171045776,-0.392483068048954,0.07722308654263615
1782985827781476000,2.23947607421875,-0.21694471483528613,-0.31481179934740067,0.07299564157333224
1782985827791550000,2.249550048828125,-0.057153381329774856,-0.23803952531218528,0.10223298810403793
1782985827801623800,2.259623779296875,0.13121814997196196,-0.20330138940811157,0.14454687475832179
1782985827811697000,2.26969677734375,0.24858897637724875,-0.16439385886490343,0.1659453443569131
1782985827821771000,2.27977099609375,0.29641572643518443,-0.13786708646714688,0.12197939791297539
1782985827831845000,2.28984521484375,0.38458617731928824,-0.09333470177948475,0.06539523130590096
1782985827841919000,2.2999189453125,0.48901218195557594,-0.07747077769339084,0.08284982211692259
1782985827851992800,2.309992919921875,0.5919149225473403,-0.1323228963434696,0.03358916679834947
1782985827862067000,2.32006689453125,0.530588639447093,-0.20838965245783328,-0.07130706743188202
1782985827872140800,2.330140869140625,0.30574586483836175,-0.16908581607341766,-0.16914275215873495
1782985827882215000,2.34021484375,0.17378887919783592,-0.10798340485692023,-0.29180249701868743
1782985827892289000,2.3502890625,0.11473054102957247,-0.08768354414999484,-0.3673381784636527
1782985827902361900,2.36036181640625,0.008155833926796913,-0.11530220343768596,-0.32823739037066696
1782985827912436000,2.37043603515625,-0.04357961400747299,-0.12293255218565463,-0.28704057984650133
1782985827922509800,2.380509765625,-0.01582125398814678,-0.09292553645670414,-0.22680505112502722
1782985827932584000,2.390583984375,-0.07322364164292812,-0.060438978871703145,-0.16536001874962822
1782985827942658000,2.400657958984375,-0.14998364071846007,-0.019175825113058088,-0.10890056536761111
1782985827952732000,2.41073193359375,-0.24876141033470628,-0.02367664366364479,-0.06187659219307825
1782985827962806000,2.420805908203125,-0.2698492065489292,-0.002680617386102676,-0.10998316383939236
1782985827972880000,2.4308798828125,-0.26388240709900856,0.042782326149940486,-0.152117803202942
1782985827982954000,2.4409541015625,-0.21501929973065853,0.05942892504632473,-0.11383103490658104
1782985827993027800,2.45102783203125,-0.19887012896239756,0.053873629006743425,-0.06447733100969344
1782985828003102000,2.46110205078125,-0.21755320212244986,0.08234452120959758,-0.09370500552975572
1782985828013175000,2.471175048828125,-0.18823767578899858,0.1205938801050186,-0.12667391240475698
1782985828023249000,2.481248779296875,-0.1018108537018299,0.1372866562306881,-0.15454022631058467
1782985828033323000,2.491322998046875,-0.0690028090775013,0.1216571254223585,-0.09710671286517754
1782985828043396900,2.50139697265625,-0.05229483538269997,0.10204992315471172,-0.0419143613761058
1782985828053471000,2.511470947265625,-0.005657002848386764,0.14712065250277517,-0.009184327591164037
1782985828063545000,2.521545166015625,0.06915361572504043,0.19480828635096548,0.03159539003209211
1782985828073619000,2.531618896484375,0.18381810578107832,0.19780162294805048,0.06394675866379403
1782985828083693000,2.541693115234375,0.2301823820710182,0.19149813888967035,0.07647096213423646
1782985828093767000,2.551766845703125,0.2400432663500309,0.21700024441480636,0.09816316311554983
1782985828103840000,2.561840087890625,0.3122013245880604,0.2445002457588911,0.14487956817825323
1782985828113914000,2.5719140625,0.2790828988403082,0.2304389871805906,0.1607190428096801
1782985828123988000,2.581988037109375,0.14546294842362403,0.20458149234652517,0.1504557152096182
1782985828134062000,2.59206201171875,0.12065934655666351,0.20500936236977577,0.11197609122227876
1782985828144136000,2.602135986328125,0.1731535039037466,0.20607377673089503,0.08800667515713721
1782985828154209800,2.612209716796875,0.23704759166538714,0.20059739114642142,0.11733664100789465
1782985828164284000,2.622283935546875,0.349168242457509,0.17691548678576946,0.1311534598384518
1782985828174358000,2.63235791015625,0.3957248264491558,0.13183482056558132,0.10910520282792859
1782985828184432000,2.64243212890625,0.39099370627403257,0.10028758965730666,0.07692752852900885
1782985828194506000,2.652506103515625,0.38136312361955643,0.061545478808879846,0.033256308981636534
1782985828204578800,2.662578857421875,0.31218320440948005,0.07254559625089169,-0.01661097959373146
1782985828214653000,2.67265283203125,0.18591770840883254,0.07692775685787201,-0.026133411998883818
1782985828224727000,2.68272705078125,0.047753100299835205,0.11701777518391608,-0.057922831332311034
1782985828234801400,2.692801513671875,-0.00627718057334423,0.1113093344092369,-0.06836216395325027
1782985828244875800,2.702875732421875,-0.05440554392635822,0.04984861127436161,0.014213793675333727
1782985828254949600,2.71294970703125,-0.09662439097464084,0.007361468678712844,0.04064464283438865
1782985828265023700,2.723023681640625,-0.07579144630432129,-0.01750876868367195,-0.01071518585367594
1782985828275097600,2.73309765625,-0.042733226311206816,-0.058197337424755094,-0.033219899661117235
1782985828285171700,2.743171630859375,-0.050718964368104934,-0.11747779391109943,-0.025431252795609177
1782985828295245600,2.75324560546875,-0.15281155762076376,-0.1225683950483799,-0.02764582585582975
1782985828305318700,2.763318603515625,-0.226605692628026,-0.10793430501818656,-0.06362525792473461
1782985828315392800,2.773392822265625,-0.22757541444301604,-0.10658990467190742,-0.06885340436918196
1782985828325466600,2.783466552734375,-0.18189853589534757,-0.1029705451309681,-0.0042861711529083545
1782985828335540500,2.79354052734375,-0.12134206812381744,-0.10673661966621875,0.060593137386953454
1782985828345614600,2.803614501953125,-0.009440028518438339,-0.0723749158591032,0.11382696151966229
1782985828355688400,2.8136884765625,0.05649170255064964,-0.08530512458086013,0.1410605122135952
1782985828365762800,2.8237626953125,0.05286591326892376,-0.11620178262591362,0.14061844013505614
1782985828375836700,2.833836669921875,0.06687924105226993,-0.128597738340497,0.10627595248506404
1782985828385910800,2.843910888671875,0.12229425428211688,-0.11351064384579658,0.08472675843732431
1782985828395983600,2.853983642578125,0.18575930297672746,-0.11654255888760089,0.09995249421773478
1782985828406057500,2.864057373046875,0.3015542583674192,-0.0665104077398777,0.1629010630238801
1782985828416131800,2.8741318359375,0.40243689130842686,-0.032521044376492496,0.24603114512059837
1782985828426205700,2.884205810546875,0.3679483462512493,-0.017911504265666008,0.25608645599316804
1782985828436279600,2.894279541015625,0.2545253806889057,-0.012727964147925376,0.2371749078394845
1782985828446353700,2.904353759765625,0.1407236449420452,-0.005942834052443504,0.18622536785220725
1782985828456427500,2.914427490234375,0.04299041594266891,0.01063946743607521,0.17821495201177895
1782985828466501600,2.924501708984375,-0.060600306913256644,0.058337038156390186,0.17158201680332422
1782985828476575500,2.934575439453125,-0.24145956288874149,0.1687041232794523,0.11203983150771818
1782985828486649900,2.94464990234375,-0.4053934030264616,0.22279577895104885,0.052633775880327444
1782985828496722700,2.95472265625,-0.5012549929350614,0.1690191805779934,0.05435076326550915
1782985828506796500,2.964796630859375,-0.5134159708499908,0.08931845187544822,0.04703675045771524
1782985828516870700,2.97487060546875,-0.4243465252995491,0.09202654179036616,0.05957916543828323
1782985828526944500,2.984944580078125,-0.3381646178841591,0.11244739852845669,0.14571038384605198
1782985828537018600,2.9950185546875,-0.2797743882358074,0.15832242999672888,0.23332729250062256
1782985828547092700,3.0050927734375,-0.2697317176491022,0.21958383116722105,0.22813571520689874
1782985828557166600,3.01516650390625,-0.19923662418723107,0.22627485323846339,0.20440023576179517
1782985828567240700,3.02524072265625,-0.06373217519819736,0.19964169785678385,0.11827449724674224
1782985828577314600,3.035314453125,0.09736614925265312,0.17365736177265642,0.0333459874259308
1782985828587387600,3.0453876953125,0.22193594725131988,0.10224164633452892,0.003676259093638509
1782985828597461800,3.055461669921875,0.32104280269145963,0.044181087031960484,0.004859733257163316
1782985828607535600,3.06553564453125,0.33801614932417867,0.031157354807853695,-0.0067112611416727305
1782985828617609700,3.075609619140625,0.27507541676461694,0.05287058944404125,-0.0077029207938350734
1782985828627683600,3.08568359375,0.2237345211058855,0.08780161757171154,-0.025339297912549227
1782985828637757400,3.09575732421875,0.21613865914940833,0.13598083432912825,-0.04282753526484594
1782985828647831600,3.10583154296875,0.19641513702571392,0.1666740787565708,-0.00548900760402903
1782985828657905700,3.11590576171875,0.08567571145892143,0.17190554966926574,0.03692147129252553
1782985828667979800,3.125979736328125,-0.008154080361127853,0.1995610338360071,0.020645258344803005
1782985828678053600,3.1360537109375,0.02808276966810226,0.18289689928293226,-0.017491507021617142
1782985828688126500,3.14612646484375,0.04424655348360538,0.18788579361140728,-0.037263946320954706
1782985828698200600,3.15620068359375,0.0817161601781845,0.16568272963166236,-0.0570517475862056
1782985828708274700,3.166274658203125,0.1370236213803291,0.20038111804723738,-0.08971912336451933
1782985828718348800,3.176348876953125,0.11166180110871791,0.304307356467843,-0.11437158065722323
1782985828728422700,3.186422607421875,0.08220657404363155,0.3427034303575754,-0.12794037041030823
1782985828738496500,3.19649658203125,0.17746318379640577,0.33679274500906464,-0.0489948987881653
1782985828748570600,3.206570556640625,0.246268424475193,0.25468904681801796,0.003844126473832875
1782985828758644500,3.21664453125,0.21242928323745727,0.18748481159508226,-0.011948275879165157
1782985828768718600,3.226718505859375,0.20409107848107813,0.20783669475018976,-0.06467667124038562
1782985828778792700,3.236792724609375,0.20813655447959897,0.18150632170736788,-0.0699368202582933
1782985828788865500,3.246865478515625,0.2139315044939518,0.13184300387203693,-0.015404462481336667
1782985828798939600,3.256939697265625,0.16425065100193023,0.07953004831075668,-0.023707933851052073
1782985828809013500,3.267013427734375,0.14221066862940787,0.06272679754793643,-0.07487121705370954
1782985828819087600,3.277087646484375,0.12931728478670118,0.030372341910004614,-0.10610523556065746
1782985828829161700,3.28716162109375,0.12197861246168613,0.0060655836492776866,-0.07816932701733895
1782985828839235600,3.297235595703125,0.131992056953907,-0.04397533532679081,-0.022127519092080182
1782985828849309700,3.307309814453125,0.13002806340456008,-0.08020049491822719,0.000029828882683068513
1782985828859383600,3.317383544921875,0.14229425525963305,-0.11511281834542751,-0.0008094806188251823
1782985828869457700,3.327457763671875,0.0325906024813652,-0.1661561923623085,0.014705337768653407
1782985828879530800,3.33753076171875,-0.14534955117702483,-0.18354221144914626,-0.006203432633832562
1782985828889604600,3.3476044921875,-0.2953659251213074,-0.20454875912070272,-0.02387479430095991
1782985828899678700,3.3576787109375,-0.5203244350641966,-0.2336988657593727,-0.13264414592077955
1782985828909752600,3.367752685546875,-0.5969406417548656,-0.22116028670370577,-0.16241715196445583
1782985828919826700,3.37782666015625,-0.47057636155486104,-0.2152595382273197,-0.10436562535171397
1782985828929900500,3.387900634765625,-0.29840543894767757,-0.21855624168515203,-0.002161511715711094
1782985828939974700,3.397974609375,-0.1993950296193361,-0.24864976665377617,0.1310032925117295
1782985828950048800,3.408048828125,-0.17355390139818191,-0.24241174904704094,0.1629225442033261
1782985828960122600,3.41812255859375,-0.13746844253838061,-0.23701719652712344,0.0955936048884876
1782985828970196700,3.42819677734375,-0.038213118538260454,-0.24943185694217682,0.033233921336603814
1782985828980269600,3.43826953125,0.03369184172153473,-0.2682499546587467,0.008003148132713977
1782985828990343700,3.44834375,0.11518237645030022,-0.2527314830094576,-0.01692717168672243
1782985829000417800,3.458417724609375,0.05057926363646984,-0.22020868506729602,-0.04691095038726926
1782985829010491600,3.46849169921875,0.047537411722540855,-0.16588555872738361,-0.043344266315060664
1782985829020565800,3.478565673828125,0.08525193308889865,-0.143417121809721,-0.041119484671368264
1782985829030639600,3.4886396484375,0.14499533091187478,-0.14703180517554282,0.023925136248709167
1782985829040713500,3.49871337890625,0.18244857099354267,-0.11627777047157287,0.06213995583700016
1782985829050787600,3.50878759765625,0.10378595316708088,-0.04506780673861503,0.09469175154478289
1782985829060861700,3.51886181640625,-0.006238602128624916,0.01574292805492878,0.0389475520263426
1782985829070934500,3.5289345703125,-0.01972469116747379,0.05423252544701099,0.03736292003326816
1782985829081008600,3.539008544921875,0.05778583401441574,0.04741875377893447,0.057654745847498995
1782985829091082500,3.54908251953125,0.16907295659184454,0.04031330568790435,0.08771205785842612
1782985829101156600,3.559156494140625,0.27999884464144703,0.031499884635210036,0.06858810449650045
1782985829111230700,3.569230712890625,0.25630408079922196,0.018919220003485678,0.044705106339487245
1782985829121304800,3.579304931640625,0.1858463967382908,0.03725333359539509,0.04083662174253259
1782985829131378700,3.589378662109375,0.08203998530507087,0.05564999102950096,0.032498563116625884
1782985829141452500,3.59945263671875,-0.0017529811471700667,0.09588146365284919,0.025746074915421194
1782985829151526700,3.609526611328125,-0.05324176084399223,0.08694120135009288,0.028689183729188515
1782985829161600500,3.6196005859375,-0.08630757962167263,0.11147767671346664,0.05536329674234148
1782985829171673600,3.629673583984375,-0.10528642085790633,0.1165729540258646,0.08400028905998914
1782985829181747700,3.639747802734375,-0.1066518639922142,0.1602788247615099,0.18962434437442569
1782985829191821600,3.649821533203125,-0.09075871381163597,0.21385785473585128,0.2545859152371064
1782985829201895700,3.659895751953125,-0.08538695764541626,0.20577274795770645,0.23834616184225305
1782985829211969500,3.669969482421875,-0.0950572877883911,0.17756079895198343,0.22590848587779327
1782985829222043600,3.680043701171875,-0.08220072882473468,0.1842722792893648,0.20810351072652264
1782985829232117000,3.690116943359375,-0.00324818814098835,0.1929991911023855,0.15153350050896405
1782985829242191000,3.700191162109375,0.03874444893598556,0.15738836401700973,0.14676519012860953
1782985829252265000,3.710264892578125,0.05599076729118824,0.1193611234396696,0.10799379838677123
1782985829262338000,3.720338134765625,0.10982055715620517,0.10966390528976917,0.05132576202168129
1782985829272412200,3.730412109375,0.19050036002397536,0.06121230133175849,0.016821775083488318
1782985829282486000,3.740486083984375,0.23637246888279914,0.02902794156372547,-0.014018499432096723
1782985829292560100,3.75056005859375,0.28037527673840523,-0.007369651985168457,-0.020762322552944534
1782985829302634000,3.760634033203125,0.27993688532114025,-0.007877016985416412,-0.03436182482141303
1782985829312707800,3.770707763671875,0.21858312969207763,0.037350948750972744,-0.01745227098977193
1782985829322782000,3.780781982421875,0.13570552451908588,0.08532967450022697,-0.002190351934416685
1782985829332856000,3.79085595703125,0.04870470193624496,0.11167582963407038,0.039865799382422115
1782985829342930200,3.80093017578125,0.024818799436092377,0.10886603291034698,0.07274229699992574
1782985829353004000,3.811004150390625,0.05933773963153362,0.08378653671145439,0.09916559075689874
1782985829363076900,3.821076904296875,0.17404548430740832,0.019017419680953024,0.1012936614273116
1782985829373151000,3.83115087890625,0.252264450019598,-0.004848024553060532,0.07472541537485085
1782985829383225000,3.84122509765625,0.27378596147596834,0.008730418944358826,0.0136709760525031
1782985829393299200,3.85129931640625,0.2886754875719547,0.017861819905042646,-0.004020987727947067
1782985829403373000,3.861373046875,0.2262958960264921,0.009179916277527808,0.009760597675736062
1782985829413447000,3.871447021484375,0.13376082019209862,0.027201310658454894,-0.008350970623118337
1782985829423521000,3.88152099609375,0.06843231571316719,0.08448270228207111,-0.06049807494806591
1782985829433595000,3.891594970703125,0.0361462491363287,0.0844569833189249,-0.04282671784751583
1782985829443669000,3.9016689453125,0.023021394625306127,0.055467620199918743,0.025923034350946544
1782985829453743000,3.9117431640625,0.028946108499169346,0.050593876683712,0.07759472373346797
1782985829463816000,3.92181591796875,0.002760696884989738,0.0655517918407917,0.10797088330206461
1782985829473890000,3.93189013671875,-0.009411971467733383,0.0736252081811428,0.1269276405706536
1782985829483964000,3.9419638671875,-0.017389526218175886,0.08954816897809505,0.1066637188267894
1782985829494038000,3.9520380859375,-0.015442483803629874,0.0493652116715908,0.06847578496213537
1782985829504112000,3.962112060546875,0.00037467853128910064,0.04970657245516777,0.004156459238214302
1782985829514186000,3.97218603515625,0.044504327636957164,0.05723638343811035,-0.016367760263761737
1782985829524259000,3.982259033203125,0.04529810836315155,0.05613689776360988,-0.010322425959713291
1782985829534333000,3.9923330078125,0.10069090976119041,0.056223991525173184,0.00998394668638939
1782985829544407000,4.002406982421875,0.1606225236326456,0.05244447298645973,0.01027187851598719
1782985829554481200,4.012481201171875,0.14961363836228847,0.04343406805694103,0.06009587365561164
1782985829564555000,4.022554931640625,0.07756430119574069,0.028879473003745076,0.032111591359344306
1782985829574629000,4.032629150390625,-0.06520517036020755,0.0359936889231205,-0.035806303991703314
1782985829584702000,4.042701904296875,-0.15936521704792975,0.037383681976795195,-0.08817778480718844
1782985829594775800,4.05277587890625,-0.19836510204970836,0.03600128770768642,-0.09002448125295341
1782985829604850200,4.06285009765625,-0.18615093264281748,0.029382746350765227,-0.10082414421942085
1782985829614924000,4.072924072265625,-0.14893734653592108,0.05330430468618869,-0.09628915853775105
1782985829624998100,4.082998046875,-0.042132337808609005,0.05700257468223571,-0.029844112218241205
1782985829635072000,4.093072021484375,0.04857084642350673,0.06737608465850353,0.02774832724907901
1782985829645146000,4.10314599609375,0.07023205861151217,0.05765373206734657,0.03760555826628115
1782985829655220000,4.113219970703125,0.015679799690842627,0.04900982236266136,0.03772158586138394
1782985829665293800,4.1232939453125,-0.08022913649082183,0.055010524082183834,0.016919301190809345
1782985829675368200,4.1333681640625,-0.13289280518591404,0.07249883449971675,0.018725455563631838
1782985829685441000,4.14344091796875,-0.10162731382846832,0.06835574334561824,0.005909032247541472
1782985829695515000,4.153514892578125,-0.016896774265170098,0.0489034393787384,0.007129632684215903
1782985829705589000,4.163589111328125,0.0825011730760336,-0.0009936872124671936,-0.0025775360375409942
1782985829715662800,4.173662841796875,0.14251695809960366,-0.04590542660653591,-0.01783793213937897
1782985829725737200,4.1837373046875,0.09354454513788223,-0.05142272872328758,-0.017741339897108264
1782985829735811000,4.19381103515625,0.05548164872527122,-0.00027297172248363493,0.000386076708137989
1782985829745885200,4.20388525390625,0.05670096138715744,0.017798691540956497,0.022839941677753814
1782985829755959000,4.213958984375,0.07797288199663162,0.03529401622116565,0.031982599251391367
1782985829766033000,4.224032958984375,0.1265069035410881,0.039024434921145434,0.046106305773765774
1782985829776106200,4.234106201171875,0.12333178063631058,0.050994274178147316,0.09164672129307873
1782985829786180000,4.24418017578125,0.10088204841911792,0.06856792479157447,0.11763578835125081
1782985829796254000,4.25425390625,0.07124561956822872,0.0936813232600689,0.09818263500100001
1782985829806328000,4.264328125,0.0613689531981945,0.1025391679763794,0.07464647752027959
1782985829816402000,4.27440185546875,0.036084874337911604,0.08617255506515502,0.021187032504728993
1782985829826476000,4.28447607421875,0.07685059996843338,0.08493570674657822,-0.00595982171986252
1782985829836550000,4.2945498046875,0.11029869606196879,0.0900204626649618,-0.0037986570640234276
1782985829846624300,4.304624267578125,0.09335574456751346,0.08586158941984176,-0.018452657371084206
1782985829856698000,4.314697998046875,0.06662672759592533,0.09506371752917767,0.00728037996625062
1782985829866772000,4.32477197265625,0.055279404151439664,0.13622925613224507,0.05584926276153419
1782985829876846000,4.33484619140625,0.05081833308935165,0.1409013395965099,0.1190138261056505
1782985829886920000,4.344919921875,0.04033434847593307,0.15310381856560706,0.1502970540491864
1782985829896993000,4.354992919921875,0.0313140066742897,0.1312993985146284,0.13811265872605144
1782985829907067100,4.365067138671875,-0.010644143611192702,0.0764835202217102,0.11806015124316327
1782985829917141000,4.37514111328125,-0.032924949002265926,0.058823360368609426,0.07037960472288542
1782985829927215000,4.385215087890625,-0.02187982337474823,0.04406535169780254,-0.010511132915248163
1782985829937289000,4.3952890625,-0.04198328472673893,0.032604046484827995,-0.023015558539563788
1782985829947363000,4.405363037109375,-0.10718611699938774,-0.009902385333180427,-0.018875983649957923
1782985829957437000,4.41543701171875,-0.1700035154402256,0.008656769186258316,-0.012612169448263011
1782985829967511000,4.425510986328125,-0.20007775118649004,0.06487491549253463,0.006536808757064864
1782985829977585200,4.435585205078125,-0.19706570988893507,0.09071662823557854,0.01849624078448396
1782985829987659000,4.445658935546875,-0.13512392523884773,0.07174597030580043,0.04422649707626551
1782985829997731800,4.45573193359375,-0.018114333361387253,0.03731003221869469,0.03052029444675427
1782985830007806000,4.465805908203125,0.05746142436563968,0.011005962660908699,0.005469448953610845
1782985830017880000,4.475880126953125,0.10349544578790663,-0.02637362766265869,0.017175463342387228
1782985830027954200,4.4859541015625,0.13749708411097525,0.01903729342520237,-0.035668256361037494
1782985830038028000,4.496028076171875,0.1662514694303274,0.02226093164682388,-0.02104193864534609
1782985830048102000,4.506101806640625,0.12903496071398257,0.006476502537727356,0.008042911604233085
1782985830058176000,4.516176025390625,-0.004357610687613487,0.02686813318133354,0.01580813877824694
1782985830068249900,4.526249755859375,-0.013334113347530364,0.049909401550889014,-0.0012859983896603808
1782985830078324000,4.536323974609375,0.0868447552382946,0.017796937975287436,0.03713653424873482
1782985830088397000,4.54639697265625,0.1822504180729389,-0.031630233016610144,0.13671512168673797
1782985830098471000,4.556470947265625,0.21950141358077524,-0.048640404528379436,0.20197344700628891
1782985830108545000,4.566544921875,0.1834609629064798,-0.03657704176902771,0.1624647904984653
1782985830118619000,4.576618896484375,0.06684475426077842,-0.010574585506319999,0.11651184408892877
1782985830128693000,4.58669287109375,-0.03511515252292156,0.006909048736095428,0.0556295236302074
1782985830138767000,4.59676708984375,-0.08157821301221847,0.020097616133093833,0.031137773324549197
1782985830148841000,4.606841064453125,-0.11031564719676971,0.007801613661646842,0.015892679823120124
1782985830158915000,4.6169150390625,-0.15672142454087734,0.009481529572606087,0.02481434702326078
1782985830168989000,4.626989013671875,-0.1424625975638628,0.051017655053734776,0.05951749381234404
1782985830179063000,4.63706298828125,-0.11107669469714164,0.07663900304436683,0.11704892837400548
1782985830189136100,4.64713623046875,-0.06968611516654491,0.08599602945446967,0.1733091876558028
1782985830199210000,4.6572099609375,-0.05033785609602928,0.0907879399061203,0.15663263201257213
1782985830209284000,4.6672841796875,-0.03116904524564743,0.10504852044880389,0.09743589002061635
1782985830219358000,4.67735791015625,0.08854922106862068,0.09947919588387012,0.03433079264562111
1782985830229432000,4.68743212890625,0.22323650845587253,0.07416413736343383,0.01821371578236576
1782985830239506200,4.697506103515625,0.3526508238762617,0.011786299383640288,0.02169021908678114
1782985830249580000,4.707580078125,0.3476443938910961,-0.032549685949087144,-0.006678811043640598
1782985830259654400,4.717654296875,0.27830723829269405,-0.003822773158550262,-0.07789652882479131
1782985830269728300,4.727728271484375,0.22686171321570872,0.010338438662886619,-0.15409429090768098
1782985830279801000,4.737801025390625,0.20759353364408015,-0.00043254619836807247,-0.15522884789556263
1782985830289875200,4.747875244140625,0.1699029776751995,-0.012756021198630332,-0.12778387380749917
1782985830299949000,4.757948974609375,0.058546296992897984,-0.010284078127145766,-0.15745207690298557
1782985830310023200,4.768023193359375,0.0017664251506328583,0.0019406126737594603,-0.1481343778562732
1782985830320097300,4.77809716796875,0.037031215277314185,0.0021089549779891967,-0.1482999436815269
1782985830330171100,4.788171142578125,0.0560837062716484,-0.030255437532067296,-0.1120025134383235
1782985830340245200,4.798245361328125,0.07989303640425205,-0.05316928012967109,-0.10317605024096556
1782985830350319000,4.808319091796875,0.07241174073815346,-0.024534137275815007,-0.06921254740462172
1782985830360393200,4.818393310546875,0.051875148665904994,0.010046762239933013,-0.018195883298153057
1782985830370467000,4.828467041015625,-0.005078326177597046,0.056333881640434263,0.011142265859059988
1782985830380540200,4.8385400390625,-0.03428746952712536,0.08534896372258663,0.06067498415124137
1782985830390614300,4.8486142578125,-0.01629237863123417,0.07510463308393955,0.09358484061565249
1782985830400688000,4.858688232421875,-0.11851415122151374,0.04261106123626232,0.10449782776348292
1782985830410762000,4.868761962890625,-0.20150690720677375,0.061844169494509695,0.0792649950332474
1782985830420836000,4.878836181640625,-0.19018705629110336,0.1051093107253313,0.05437339978900272
1782985830430910200,4.88891015625,-0.1660521474659443,0.12548925093114374,0.1390632283159997
1782985830440984300,4.898984375,-0.18687573978602884,0.1261708034545183,0.20104756433302534
1782985830451058200,4.90905810546875,-0.1565185954451561,0.15166647923886775,0.23295659602470695
1782985830461132300,4.91913232421875,-0.08979951339066028,0.14380641338825226,0.26809142136247827
1782985830471206100,4.9292060546875,-0.02502338209748268,0.12719313223958015,0.28482821929296476
1782985830481279200,4.939279296875,0.027389526706933974,0.11220365290045738,0.24743816237431018
1782985830491353300,4.949353271484375,0.07482640066444873,0.08494856622815132,0.18042638098355382
1782985830501427200,4.95942724609375,0.07853519205451011,0.05850245785117149,0.10752248194743878
1782985830511501000,4.9695009765625,0.07846680299341678,0.03782908765673637,0.06438304032236337
1782985830521575200,4.9795751953125,0.04805529811680317,0.037970541954040524,0.05264985023229383
1782985830531649000,4.98964892578125,0.06414075599908828,0.057787587580084794,0.03497789262683364
1782985830541723100,4.99972314453125,0.12826572990715504,0.07441022107899188,0.04420953680831007
1782985830551797200,5.00979736328125,0.18957389282882212,0.061060910162329674,0.08173488314496352
1782985830561871400,5.019871337890625,0.2706815657198429,0.05554653065502643,0.09024217912424355
1782985830571944200,5.029944091796875,0.31891572753489017,0.030911855614185333,0.07992761452728882
1782985830582018000,5.04001806640625,0.30505905161797997,0.05410451515316963,0.07383410169146955
1782985830592092200,5.050092041015625,0.24854572175741194,0.07248246788680553,0.047890325946593655
1782985830602166300,5.060166259765625,0.2108329539567232,0.05075403568148613,-0.013858221703313757
1782985830612240100,5.070240234375,0.13671324025690554,0.018976503148674963,-0.03676142189260572
1782985830622314200,5.080314208984375,0.011545476365089416,-0.02142097369134426,-0.08378484707786701
1782985830632388000,5.09038818359375,0.005182371073961258,-0.004233692046999931,-0.1234482374896761
1782985830642462200,5.100462158203125,0.012276128727197647,-0.028935002583265302,-0.08332227106741628
1782985830652536000,5.1105361328125,0.011608604729175567,-0.04250058659911155,0.010139961515297181
1782985830662610200,5.120610107421875,0.013439911809563635,-0.003149403941631317,0.034928635241184385
1782985830672683300,5.130683349609375,-0.013036007183790206,0.024084639942646025,0.00525215750769712
1782985830682757000,5.140757080078125,-0.11963175707459449,0.014890110617876052,-0.03415014341566711
1782985830692831200,5.150831298828125,-0.15499942305386066,0.013373860836029051,-0.03559721411855425
1782985830702905000,5.160905029296875,-0.14739537779092787,0.0068710548132658,-0.03207446965277195
1782985830712979200,5.170979248046875,-0.0842518161356449,0.005717793124914169,0.017666548494691958
1782985830723053300,5.18105322265625,0.002565466573834419,0.012311784562468528,0.04142943196995184
1782985830733127200,5.191127197265625,0.024291560691595077,0.045699674901366234,0.07651284221431706
1782985830743201300,5.201201171875,-0.0041653029859066,0.09638298343420028,0.07006604982826392
1782985830753275100,5.211275146484375,-0.0003179799079895019,0.12362754871249199,0.062456332876370285
1782985830763348200,5.22134814453125,0.03627016777694225,0.1336439158141613,0.06647518116286956
1782985830773422300,5.23142236328125,0.07469312967360019,0.12985913657844067,0.0958537719283253
1782985830783496200,5.24149609375,0.11869243039786814,0.14028057734966276,0.1409240628849715
1782985830793570300,5.2515703125,0.13328034319877624,0.13594108684062958,0.13024746004259213
1782985830803644200,5.26164404296875,0.21599486676454543,0.08028641963601112,0.14848772133858873
1782985830813718000,5.271718017578125,0.2300035183727741,0.01123158811032772,0.13577084484025836
1782985830823792000,5.281792236328125,0.20461481009423732,0.003987023809552193,0.11679404029748403
1782985830833866200,5.2918662109375,0.14253975445330141,0.022049334722757337,0.030267552661546505
1782985830843940400,5.3019404296875,0.13568506625294685,0.023571429723501205,-0.05195925131936092
1782985830854014200,5.31201416015625,0.1623696595609188,-0.03630640813410282,-0.022511691537499427
1782985830864087000,5.322087158203125,0.16647475679218768,-0.07420973007082939,-0.0013247423728054853
1782985830874161200,5.3321611328125,0.11477554921507835,-0.07014905650317668,0.009177200305700534
1782985830884235300,5.3422353515625,0.031715573212504386,-0.07226677930951118,0.01834649358286988
1782985830894309400,5.352309326171875,-0.01836100159883499,-0.04281856650710106,0.01913271205711644
1782985830904383200,5.36238330078125,-0.023754969596862793,-0.027389526706933974,0.03739746847355272
1782985830914457000,5.37245703125,0.05449439125359058,-0.014437690675258635,0.05615890409944113
1782985830924531200,5.38253125,0.17964228140115737,-0.046586979129910465,0.03053617928576423
1782985830934605000,5.39260498046875,0.23017945946156979,-0.11449965488314628,0.022509723342698996
1782985830944679200,5.40267919921875,0.31645489037930963,-0.11685118644535541,-0.047392057568253945
1782985830954753300,5.412753173828125,0.24796529152095317,-0.12233809342384337,-0.11405194764826446
1782985830964826000,5.422826171875,0.07163315758109093,-0.13014789039194583,-0.11059824526412412
1782985830974900200,5.432900146484375,-0.06621522418558597,-0.12307225291728972,-0.12099411320267245
1782985830984974000,5.44297412109375,-0.13371873461604117,-0.10241408029198645,-0.14037548909150063
1782985830995048200,5.453048095703125,-0.12483458641469478,-0.08252747656106948,-0.13752230075062252
1782985831005122300,5.463122314453125,-0.19302374102175235,-0.07683423335552216,-0.11599168353918939
1782985831015196200,5.473196044921875,-0.24660686264932155,-0.07496084069907664,-0.03685542716885684
1782985831025270300,5.483270263671875,-0.23704350001215935,-0.026059154886007307,-0.009222578383964718
1782985831035344100,5.49334423828125,-0.15845979264080523,0.06423194141387939,0.03402882087422768
1782985831045418200,5.503418212890625,-0.10351415048837662,0.05323650014698505,0.1585676734620705
1782985831055491300,5.5134912109375,-0.07516659240424632,0.04642915821969509,0.24823406199235468
1782985831065565200,5.523565185546875,-0.03581131809353828,0.10434007991850376,0.2363083724043332
1782985831075639300,5.533639404296875,-0.04496142375469207,0.15552257014513016,0.19658722392329944
1782985831085713200,5.543713134765625,-0.0587286678224802,0.1858493193477392,0.14081249226927756
1782985831095787300,5.553787353515625,-0.03213525992929935,0.17678806101381778,0.08725681577106006
1782985831105861000,5.563861083984375,0.02429974399805069,0.14689502705335616,0.055327814437006594
1782985831115935000,5.57393505859375,0.0669242492377758,0.10197276626527309,0.03125828758181305
1782985831126009300,5.58400927734375,0.15315525649189948,0.11396131022274493,0.05897811253890395
1782985831136083200,5.594083251953125,0.20268004263937472,0.13931611623167992,0.08728203241070732
1782985831146157300,5.6041572265625,0.14046937792003153,0.1204027414470911,0.11277799132284708
1782985831156230100,5.614230224609375,0.07802022826969623,0.12799042009711264,0.0718383019314846
1782985831166304000,5.624303955078125,0.057986325022578236,0.13869944563806055,0.028433957725949584
1782985831176378400,5.63437841796875,0.07789572510719299,0.1254354749172926,0.03292401513721561
1782985831186452200,5.6444521484375,0.14484393974244594,0.08651274680495262,0.05616737510026432
1782985831196526300,5.6545263671875,0.19498364291787146,0.06784954738914967,0.036501690960896664
1782985831206600200,5.66460009765625,0.22924363991618155,0.07402735924124718,-0.011040105817461152
1782985831216674000,5.674674072265625,0.2663420752108097,0.05605623374283313,-0.05360742038518656
1782985831226748200,5.684748046875,0.3013870851069689,0.045078328132629394,-0.1097707631977275
1782985831236822000,5.694822021484375,0.30716040781140325,0.040049686315655704,-0.12405203033541329
1782985831246895000,5.70489501953125,0.28958792624175544,-0.0197591779589653,-0.14908861897434106
1782985831256969000,5.714968994140625,0.32546997148394585,-0.049966100174188614,-0.14350385024510323
1782985831267043000,5.72504296875,0.3168494426548481,-0.051150926044583316,-0.10468414411582053
1782985831277117000,5.735116943359375,0.19660101498663424,-0.060061962252855296,-0.10667772908583283
1782985831287191000,5.74519091796875,0.06318214010000228,-0.049020928278565405,-0.1674561507786624
1782985831297265200,5.75526513671875,-0.01629705480635166,-0.007727963903546333,-0.23836793528264388
1782985831307339000,5.765339111328125,-0.01971826142668724,-0.007112462353706359,-0.24546571152387187
1782985831317413000,5.7754130859375,0.05329787494540214,-0.024055998370051384,-0.1690501419718377
1782985831327487000,5.785487060546875,0.10610825863480568,-0.03401742041409016,-0.05720023897907231
1782985831337560000,5.79556005859375,0.16765841361880301,-0.031151509588956832,-0.009960821539128663
1782985831347634200,5.80563427734375,0.13103051844537258,-0.05364098929464817,-0.01867442406271584
1782985831357708000,5.8157080078125,0.06924421661794185,-0.05348842908143997,-0.016952134881331585
1782985831367782100,5.8257822265625,-0.06885317147374152,-0.08526245448291302,0.07251725607239641
1782985831377856000,5.83585595703125,-0.18972469947636125,-0.06139701024889946,0.10806648916364647
1782985831387929900,5.845929931640625,-0.2731079160839319,-0.01910217535495758,0.08120490445410833
1782985831398004000,5.85600390625,-0.32140403721928595,0.016059738919138908,0.11190743729970418
1782985831408078000,5.866078125,-0.3412690136402845,0.032607553616166116,0.16937626865366473
1782985831418152200,5.876152099609375,-0.34806934130489825,0.06438157901763916,0.19421868642736226
1782985831428226000,5.88622607421875,-0.28595979887247086,0.07228080783486365,0.19784811070458963
1782985831438299000,5.896298828125,-0.2720236279785633,0.09141571641564368,0.2118976605787873
1782985831448373000,5.906373046875,-0.22206804919838904,0.11760872681438922,0.192614319970645
1782985831458447000,5.916447021484375,-0.12022738488018513,0.1213438216894865,0.18221755698295308
1782985831468521200,5.926521240234375,-0.035463527569174765,0.10164777209460735,0.2400610212024301
1782985831478595000,5.936594970703125,0.05842120930850506,0.13041326332986353,0.2488722502980381
1782985831488669000,5.9466689453125,0.10774141279458999,0.12331366045773029,0.2193206319200806
1782985831498743000,5.956742919921875,0.06838906109333039,0.10118073910474777,0.1514612937892787
1782985831508817000,5.96681689453125,0.05037994167208671,0.12741174342632294,0.08189763595862314
1782985831518891000,5.97689111328125,0.15023264704346656,0.1468593712180853,0.03792881257100962
1782985831528964000,5.986964111328125,0.27813772694468497,0.12199497907459735,0.11468101193257607
1782985831539038000,5.997037841796875,0.37697804040312766,0.09522095391750335,0.23207444289531556
1782985831549112000,6.007112060546875,0.4254442574083805,0.13172726853787897,0.29031744609270244
1782985831559186000,6.01718603515625,0.4226397213816642,0.16997019769251345,0.24569035059260202
1782985831569260000,6.027260009765625,0.3662567399024963,0.16199790363907812,0.1492459010284394
1782985831579334100,6.037334228515625,0.26009236716628076,0.12747954796552657,0.04818786585475318
1782985831589408000,6.047407958984375,0.1871054568886757,0.11832359708547592,-0.08884329951121471
1782985831599482000,6.057482177734375,0.19322423202991484,0.12759762138724326,-0.13048123226584865
1782985831609556000,6.067555908203125,0.18293138607442377,0.10428513486087322,-0.08820766848879866
1782985831619630000,6.077630126953125,0.129565706589818,0.07933774060904979,-0.041230721926921975
1782985831629703200,6.087703125,0.001429156020283699,0.09259645063281059,-0.016545915000885723
1782985831639777000,6.097777099609375,-0.057360302078723904,0.10581365960240363,0.006149060681648552
1782985831649851100,6.10785107421875,-0.05424889205992221,0.06671791301071643,-0.001551549424091354
1782985831659925000,6.117925048828125,-0.0414005164027214,-0.005793196448683738,-0.015199313564365729
1782985831669999000,6.1279990234375,-0.03325871100127697,-0.029456980630755424,-0.041686420672014356
1782985831680073000,6.138072998046875,-0.03744681034088135,-0.10169044219255446,-0.08085160663756541
1782985831690146800,6.148146728515625,-0.07043956388235091,-0.1648573847234249,-0.040757332261512055
1782985831700221200,6.15822119140625,-0.1360568221747875,-0.16914719087183475,-0.022156439225887878
1782985831710295000,6.168294921875,-0.16784487610161303,-0.13669628912210463,-0.02002932753670029
1782985831720367900,6.178367919921875,-0.20188976904451847,-0.07897066086232661,-0.021776481731282545
1782985831730442000,6.18844189453125,-0.20693010129928588,-0.08219839073717594,0.002154922144720331
1782985831740515800,6.198515869140625,-0.24836802710294723,-0.09048165043592453,0.01216220175763592
1782985831750590200,6.208590087890625,-0.26805355530381203,-0.048077509948611256,0.005584010677412152
1782985831760664000,6.2186640625,-0.23687340414226055,-0.05300386043488979,-0.0170252503498923
1782985831770738200,6.22873828125,-0.13971476016044615,-0.06442834076881408,-0.021829499693308024
1782985831780812000,6.23881201171875,-0.049044893676042554,-0.061191843065619464,-0.027541876857588066
1782985831790886000,6.248885986328125,0.030712533649802205,-0.04862754504680633,-0.043087976299319417
1782985831800960000,6.2589599609375,0.052852469265460965,-0.0514829344779253,-0.05086311294599436
1782985831811033900,6.269033935546875,-0.0038490766435861586,-0.048339375755190844,-0.07236295142667368
1782985831821107000,6.27910693359375,-0.04214227468073368,-0.019929858350753782,-0.06296915493644774
1782985831831181000,6.28918115234375,-0.01393207924067974,-0.02499941670000553,-0.05099378098780289
1782985831841255000,6.2992548828125,0.053307811817526814,0.0033358664244413374,-0.0194302473986987
1782985831851329000,6.3093291015625,0.06655424688160419,0.002970540243387222,0.028166054904228074
1782985831861403000,6.31940283203125,0.07044540910124779,0.0395312153995037,0.01801782331750728
1782985831871477200,6.329477294921875,0.07685878327488899,0.06588438479602336,0.019427425253950057
1782985831881551000,6.339551025390625,0.10135726471543312,0.06542378154695033,0.025083286458021027
1782985831891625000,6.349625,0.1490238557755947,0.06375029537677765,0.038250418341346085
1782985831901699000,6.359698974609375,0.13549743472635745,0.05974573591053486,0.07441727187428623
1782985831911772000,6.36977197265625,0.08810732252001761,0.1030833578556776,0.07956638913261704
1782985831921846000,6.379845947265625,0.11507482442259788,0.11778232981562614,0.046983001843327654
1782985831931920100,6.389920166015625,0.1572235288441181,0.10969020877480506,0.005494524029362947
1782985831941994000,6.399993896484375,0.1750315727353096,0.07779343377649783,0.018288877077540382
1782985831952068000,6.410068115234375,0.19078326861858366,0.09074585433006287,0.01638631312553771
1782985831962142000,6.420141845703125,0.12926175520718097,0.10782558394670486,0.062472420928068456
1782985831972216000,6.430216064453125,0.024673838007450103,0.12731938896775244,0.08422053508139216
1782985831982290000,6.4402900390625,-0.10248889909386634,0.12777590056359767,0.09175709546552971
1782985831992364000,6.450364013671875,-0.13907120155990124,0.13991232855916022,0.08437993602734059
1782985832002437000,6.46043701171875,-0.09035831631720065,0.11780044999420643,0.07117190587804652
1782985832012511000,6.470510986328125,-0.011649521261453627,0.10460253024697304,0.06959913100283592
1782985832022584800,6.480584716796875,0.06606032588481903,0.07137479890584945,0.08419696240955964
1782985832032659000,6.490658935546875,0.09374912779927254,0.06125964760482311,0.0991243728305213
1782985832042733000,6.500733154296875,0.09014204321801662,0.07062719540894032,0.09485670544868334
1782985832052807200,6.51080712890625,0.06578969224989414,0.05608604435920715,0.07717454382632859
1782985832062881000,6.520881103515625,0.023888825109601018,0.0025087679505348204,0.0357749681385234
1782985832072955100,6.530955078125,0.026629648250341413,-0.006267243701219559,-0.026725811234349382
1782985832083029000,6.541029052734375,0.031012393379211425,0.0038929157853126524,-0.045885470663895825
1782985832093102800,6.551102783203125,0.013230068451166152,-0.002583586752414703,-0.04194583879318088
1782985832103176200,6.56117626953125,0.049825230398774144,0.0033791210442781446,-0.005119918563310057
1782985832113250000,6.57125,0.048832127708196636,-0.0018225392520427703,0.011887896594591439
1782985832123324000,6.581323974609375,0.035652328139543533,0.0104220252931118,0.0021346282753627746
1782985832133398000,6.59139794921875,0.03505027059316635,0.017841946160793303,-0.04128738401760347
1782985832143471900,6.601471923828125,0.09074059363305569,0.03828793734014034,-0.028503725893376394
1782985832153546000,6.6115458984375,0.08484510585367679,0.05366846182346344,0.021354603057401254
1782985832163620000,6.6216201171875,0.07947042707800865,0.03915419878065586,0.037098499226709825
1782985832173694200,6.631694091796875,0.08622282394766807,0.027397125491499898,0.017553539407160132
1782985832183768000,6.64176806640625,0.017294249150156975,0.0308522343814373,-0.005895396447833627
1782985832193841000,6.6518408203125,-0.08452537238001823,0.059709495553374285,-0.022570335522713137
1782985832203915000,6.6619150390625,-0.111840664806962,0.08918284279704093,-0.0036981877976562825
1782985832213989000,6.671989013671875,-0.08896540065407753,0.14572306066453455,0.0692431937046349
1782985832224063000,6.68206298828125,0.006316343539953232,0.13602642703652382,0.15215274665215983
1782985832234137000,6.69213720703125,0.15322189198732375,0.11485270610451698,0.18201175047885626
1782985832244211500,6.70221142578125,0.22518296634852886,0.061796238699555396,0.1703775729170069
1782985832254285300,6.712285400390625,0.20603519828617572,0.029728783309459685,0.11710333457551896
1782985832264359400,6.722359375,0.14801964716911314,0.08587620246708393,0.06566332592386752
1782985832274433300,6.732433349609375,0.0539969631254673,0.06221592541635036,0.03325592538914643
1782985832284506400,6.74250634765625,-0.034870822373032566,0.10808920331895351,0.012121394823212176
1782985832294580500,6.75258056640625,-0.11506488755047321,0.07457213364243508,-0.02263310769377276
1782985832304654300,6.762654296875,-0.19450024331510066,0.0741349112689495,0.030208420052565632
1782985832314728400,6.772728515625,-0.1980102972626686,0.10632219364643096,0.1351708057210315
1782985832324802300,6.78280224609375,-0.23547522778213023,0.10004442855119705,0.24853874402735382
1782985832334876400,6.79287646484375,-0.29934418110251426,0.14260872803628444,0.28323448382811617
1782985832344950500,6.802950439453125,-0.3572077565282583,0.21621932317018508,0.22160149113256483
1782985832355024400,6.8130244140625,-0.3753706052064895,0.23765783251821992,0.22384280378594992
1782985832365098500,6.823098388671875,-0.3825122936546802,0.238168704649806,0.3410257794689387
1782985832375171300,6.83317138671875,-0.37442952496409415,0.20099369698762892,0.35394192313272504
1782985832385245400,6.843245361328125,-0.43183132809698577,0.17633622559309003,0.2115340331644751
1782985832395319600,6.853319580078125,-0.429167661845684,0.16193594431877134,0.015139859011687804
1782985832405393400,6.863393310546875,-0.3278010447800159,0.1531014804780483,-0.08736723560928367
1782985832415467500,6.873467529296875,-0.15619301675260067,0.15105097768902778,-0.08416193676195106
1782985832425541400,6.883541259765625,0.13703648086190223,0.09697101245522499,-0.029260268465278204
1782985832435615200,6.893615234375,0.4053115699619055,-0.01806347995698452,0.020522081772994714
1782985832445689300,6.903689453125,0.5483446608901024,-0.13898586136400698,0.06150191366178914
1782985832455763500,6.913763427734375,0.5242255341559648,-0.18015139996707438,0.029532959343260154
1782985832465837600,6.923837646484375,0.4032008614182472,-0.12940145593881605,-0.06857113052881322
1782985832475910400,6.933910400390625,0.316299407556653,-0.03364741805791854,-0.12035459145642817
1782985832485984300,6.943984375,0.33060967245996,-0.052148704910278315,-0.13501047319332138
1782985832496058400,6.954058349609375,0.34868951902985573,-0.14887012651860712,-0.10410381434406153
1782985832506132500,6.964132568359375,0.29637597894668577,-0.19820435853004453,-0.02600398149951361
1782985832516206600,6.97420654296875,0.17744272553026674,-0.18434125287234782,-0.03936914757243357
1782985832526280400,6.984280517578125,0.0786357298195362,-0.08761807769834995,-0.05697170461993664
1782985832536354300,6.994354248046875,0.06186638132631778,-0.04587269338071346,-0.13345356260752306
1782985832546428400,7.004428466796875,-0.04258534227311611,-0.045216275298595426,-0.1718984988739714
1782985832556502300,7.014502197265625,-0.1210778642296791,-0.04092939175963402,-0.12200317151420749
1782985832566575400,7.024575439453125,-0.075861004409194,-0.03142857296466827,-0.09186651978990994
1782985832576649500,7.0346494140625,0.0035772739648818968,-0.015251929667592048,-0.04347009835154749
1782985832586723300,7.044723388671875,0.16462825214266777,-0.020427286478877066,0.05492132969507947
1782985832596797400,7.05479736328125,0.32644203138649464,-0.07945113785564899,0.2085255172645673
1782985832606871300,7.064871337890625,0.38310909050405023,-0.06429039360284805,0.3203324989976361
1782985832616945400,7.0749453125,0.31960020266771316,-0.0033428806871175763,0.23999504329413174
1782985832627019500,7.08501953125,0.2318739884197712,0.0954588543266058,0.18551519202254713
1782985832637093400,7.09509326171875,0.0471691629320383,0.1793237169712782,0.15633050726084038
1782985832647167500,7.10516748046875,-0.18445406559705732,0.16791501872837541,0.05806599352951161
1782985832657241300,7.115241455078125,-0.43769466717243194,0.1391945356786251,-0.004853595777321607
1782985832667314200,7.125314208984375,-0.5410311230063438,0.13908406104147433,-0.019115811154665423
1782985832677388500,7.135388427734375,-0.4700122979313135,0.17582827607095242,-0.06201568100336007
1782985832687462400,7.14546240234375,-0.39486324118375776,0.17258651767075062,-0.051386205238336695
1782985832697536500,7.15553662109375,-0.30859424000680447,0.14729600906968116,0.009983305082283914
1782985832707610400,7.1656103515625,-0.13114450021386145,0.12184066529572009,0.08439328869925812
1782985832717684500,7.1756845703125,0.09261223272383212,0.13481354411542415,0.19078423673296346
1782985832727758300,7.18575830078125,0.33563889879882336,0.16830489482879638,0.2850150653682649
1782985832737832200,7.195832275390625,0.4945376673787832,0.21029986999332903,0.31578111930359154
1782985832747906600,7.205906494140625,0.44614568465352056,0.22933424080908296,0.278707142596785
1782985832757979400,7.2159794921875,0.27622224871218204,0.22674773144721982,0.17902391204079612
1782985832768053200,7.22605322265625,0.07219955929219722,0.2342605912953615,0.06406228393539785
1782985832778127400,7.23612744140625,-0.04028057246208191,0.24121640178263187,-0.06608856559861451
1782985832788201200,7.246201171875,0.00982990461885929,0.23408698829412458,-0.15024276657868177
1782985832798275600,7.256275634765625,0.0832850169301033,0.1609445951938629,-0.1516099998112768
1782985832808349400,7.266349365234375,0.14154080654382706,0.03279927679598331,-0.12177912610052152
1782985832818423600,7.276423583984375,0.08656652281880378,-0.05895780040323734,-0.09786730370782315
1782985832828497400,7.286497314453125,-0.003804652979969978,-0.0483890601158142,-0.17278826905423775
1782985832838571300,7.2965712890625,0.015275895065069198,-0.006315759018063545,-0.2455992199767381
1782985832848644600,7.30664453125,0.10025427190959453,0.003830371943116188,-0.2256226729400456
1782985832858718500,7.316718505859375,0.1979278796762228,-0.04092646915018558,-0.12445957908984273
1782985832868792300,7.326792236328125,0.26029928791522977,-0.08367547755241393,-0.06398319081719965
1782985832878866400,7.336866455078125,0.255179460683465,-0.08354863630235194,-0.1030074248089455
1782985832888940300,7.346940185546875,0.2340080778390169,-0.05192834015786647,-0.12447340668579562
1782985832899014400,7.357014404296875,0.2181225264430046,-0.060628363963961596,-0.10317158412840216
1782985832909088300,7.367088134765625,0.13473521818220616,-0.03922375688552856,0.022092991201393304
1782985832919162600,7.37716259765625,-0.005649404063820839,-0.021408114209771154,0.07160411414969713
1782985832929236500,7.387236572265625,-0.03111760731935501,-0.00989654011428356,0.005108209859207272
1782985832939309300,7.397309326171875,0.020742928299307822,-0.030745266875624656,-0.04271837580194696
1782985832949383400,7.407383544921875,0.13432605285942553,-0.05256429997384548,-0.05462824676632881
1782985832959457300,7.417457275390625,0.23085224415659902,-0.06741583214700221,-0.017684490576758978
1782985832969531400,7.427531494140625,0.3156143479019403,-0.04690437451601028,0.03625712563227862
1782985832979605500,7.43760546875,0.2700760010421276,-0.07175123100280761,0.06752804208351298
1782985832989679400,7.447679443359375,0.13851064506769178,-0.07222820086479187,0.019164116408955306
1782985832999753500,7.45775341796875,-0.12038345222473144,-0.020536592072248457,-0.02971161297895014
1782985833009827300,7.467827392578125,-0.28732348844110966,0.05295417607426643,-0.11484834045665337
1782985833019901200,7.477901123046875,-0.32116438324451446,0.04953998371660709,-0.15278205753164364
1782985833029975300,7.487975341796875,-0.23274141890406608,0.016087795969843863,-0.09949063059333711
1782985833040048400,7.49804833984375,-0.11387713907063007,-0.01161503446996212,0.055409624668676404
1782985833050122500,7.50812255859375,-0.07728665329813957,0.020572832429409025,0.1349211692083627
1782985833060196400,7.5181962890625,-0.15891630423665046,0.059848027241230006,0.15437961065508424
1782985833070270200,7.528270263671875,-0.16802432432174683,0.07988251501023769,0.1499513458840549
1782985833080344300,7.53834423828125,-0.19651567479074,0.07312953361868858,0.1956757168352604
1782985833090418400,7.54841845703125,-0.23737667748928068,0.11983809330165386,0.18665542983254416
1782985833100492500,7.558492431640625,-0.26179975560605523,0.16011048245728016,0.05960488440142944
1782985833110566400,7.56856640625,-0.13398586111962796,0.12314882528483867,0.002044073048233986
1782985833120640300,7.57864013671875,0.034169980627298355,0.048430561169981956,0.015461791292298584
1782985833130713300,7.58871337890625,0.17295476646125316,-0.008701192849874495,0.040350842953007664
1782985833140787500,7.598787353515625,0.26409225045740603,-0.014085808497667312,0.07016730454592034
1782985833150861600,7.608861572265625,0.3222328892588615,0.03919920696616173,0.09349062299355863
1782985833160935400,7.618935302734375,0.3659615563482046,0.06437339571118354,0.09220821850020437
1782985833171009300,7.62900927734375,0.40054888560473917,0.07551379840672015,0.08397033231314271
1782985833181083400,7.63908349609375,0.38781040006279943,0.05471709409356117,0.051410143236350264
1782985833191157200,7.6491572265625,0.2718593773275614,0.014338321954011916,0.02788609631853178
1782985833201231400,7.6592314453125,0.1286637893140316,0.023825112223625183,0.006287939429376274
1782985833211305500,7.669305419921875,0.023224223721027372,0.048640404528379436,-0.0021462730473838744
1782985833221378300,7.67937841796875,-0.02519113987982273,0.041432080584764476,0.013742073093913496
1782985833231452400,7.689452392578125,-0.02798223190307617,0.026374212184548378,0.008593019767664372
1782985833241526000,7.699526123046875,-0.0061129299223423,0.027925533279776572,-0.005394515987299383
1782985833251600100,7.70960009765625,0.053369186615943906,0.041271921586990355,0.027975564700271932
1782985833261674000,7.719674072265625,0.04884323362410068,0.05790683004558086,0.06321763153849169
1782985833271747800,7.729747802734375,0.04155190757215023,0.08705518311858176,0.04726465919576585
1782985833281822000,7.739822021484375,0.09392097723484039,0.11577449712455272,0.01325456357160583
1782985833291895800,7.749895751953125,0.16801906362473965,0.07751520135700703,-0.00414234223542735
1782985833301970000,7.759969970703125,0.19926292767226694,0.03979775738120079,-0.014505878806952387
1782985833312043000,7.77004296875,0.19964929664134978,-0.002465513330698013,-0.08572493916181848
1782985833322116900,7.780116943359375,0.11661211699247359,-0.04114215772747993,-0.12024672890147194
1782985833332191000,7.79019091796875,-0.020166005194187164,0.008194996893405913,-0.11744884181125088
1782985833342264800,7.800264892578125,-0.14464344873428345,0.06628361324667931,-0.09344272873122245
1782985833352339000,7.8103388671875,-0.16965104874074458,0.12565057897269724,-0.07615163965253159
1782985833362413000,7.8204130859375,-0.12904898923933505,0.12369009255468845,0.019752729951869694
1782985833372487000,7.83048681640625,-0.07728606877624988,0.102752518466115,0.08248234051140024
1782985833382561000,7.84056103515625,-0.027774142110347746,0.08854922106862068,0.08430447790464386
1782985833392635000,7.850634765625,0.025770401072502135,0.1006213516563177,0.0850099410265684
1782985833402708000,7.8607080078125,0.07380465640127658,0.12822890502810477,0.0413778844458051
1782985833412782000,7.870781982421875,0.09796177705824374,0.11389642829298972,0.03056011956706643
1782985833422856000,7.88085595703125,0.03771627493202686,0.12110709032416343,0.021769367003906515
1782985833432930000,7.890929931640625,-0.0352051688939333,0.12636544924378396,0.0027851372065022585
1782985833443004000,7.90100390625,-0.022782909694314003,0.13023498415350912,-0.05881040955549106
1782985833453078000,7.911078125,0.0001239186406135559,0.06631693099439144,-0.04210407982850447
1782985833463151900,7.92115185546875,0.034897710379958154,0.043002106380462646,0.009044709057919681
1782985833473225700,7.931225830078125,0.09800853880941868,0.06117547645270824,0.017192725004442036
1782985833483300000,7.941300048828125,0.15667758539915083,0.061248541688919064,0.028860311645548788
1782985833493373000,7.951373046875,0.17856266947090624,0.05295183798670768,0.08052115997364744
1782985833503446800,7.96144677734375,0.20897008269429207,0.03715162678658962,0.07422200503051281
1782985833513521000,7.97152099609375,0.1726484769910574,0.006471241840720177,0.04733662845343351
1782985833523594800,7.9815947265625,0.062116556695103645,0.06289513985216617,0.023627872618474065
1782985833533669000,7.991669189453125,0.03858253637254238,0.10768120703995228,-0.03354373848773539
1782985833543743000,8.001742919921876,0.061197103762626645,0.07828209407627582,0.018729761845991014
1782985833553817000,8.011817138671875,0.10199205548763275,0.0378887088894844,0.1357086480579339
1782985833563891000,8.021890869140625,0.18289397667348384,0.003984101200103759,0.11696226387070491
1782985833573963800,8.0319638671875,0.21644553314149378,-0.048074002817273136,0.09138683738103136
1782985833584038100,8.0420380859375,0.1403968972057104,-0.051308746954798694,0.0769628647038713
1782985833594112000,8.052112060546875,0.0274754514247179,0.003433481580018997,0.06925406215852126
1782985833604185900,8.062185791015626,-0.05074000715613365,0.04475508752763271,-0.018297909767366945
1782985833614260000,8.072260009765625,-0.13251988022029398,0.03825812672376633,-0.033897008904814716
1782985833624333800,8.082333740234375,-0.18389467814862728,0.03377425930798054,-0.04174416047492996
1782985833634408000,8.092407958984374,-0.1999234374076128,0.016183073037862778,-0.037739144350960846
1782985833644481800,8.102481689453125,-0.21141981393396853,0.024648119044303893,-0.003685410514473915
1782985833654556200,8.11255615234375,-0.20315292084813116,0.055904258051514624,0.0450651946564205
1782985833664629000,8.12262890625,-0.12252104877531528,0.0861784002840519,0.03883841082975268
1782985833674702800,8.132702880859375,-0.05505202513635158,0.08452420333623886,0.07852965736286714
1782985833684777000,8.14277685546875,-0.006025251638889313,0.09894611192047595,0.08902894914327189
1782985833694850800,8.152850830078124,0.07871054862141609,0.08181786698698996,0.06974692370938136
1782985833704925000,8.162925048828125,0.13785130437612533,0.09679682493209839,0.09331356765991076
1782985833714999000,8.1729990234375,0.17262509611546992,0.08723521586060523,0.08488439668444916
1782985833725073000,8.183072998046875,0.21958266212344169,0.05713876828253269,0.04479456102149561
1782985833735147000,8.19314697265625,0.22638591239750383,0.012376666492223739,-0.032945041942223904
1782985833745220900,8.203220947265624,0.18495558537840842,0.02272854915857315,-0.05762264280933886
1782985833755294000,8.2132939453125,0.14431611647605896,0.04241349283754825,-0.02446271600741893
1782985833765368000,8.2233681640625,0.05137947410345077,0.001710311049222946,0.043312578835431485
1782985833775442000,8.23344189453125,-0.027952421286702153,0.0039016836136579513,0.04087676652325317
1782985833785516000,8.24351611328125,-0.06031564475297928,0.047020109850168225,-0.05236811981461942
1782985833795590000,8.25358984375,-0.03490355559885502,0.04149053277373314,-0.04885382808335125
1782985833805663700,8.263663818359374,0.008436404433846472,0.03485971645712852,0.02797209410155192
1782985833815737900,8.27373779296875,0.07533376566469668,0.04630407053530216,0.0966603208045475
1782985833825812000,8.28381201171875,0.08145429437160491,0.05705342808663845,0.14443928619800134
1782985833835886000,8.293885986328124,0.04783785597383976,0.07904314157664775,0.1662946144523099
1782985833845959000,8.303958984375,0.011827800437808036,0.059469841578602786,0.10464088949598371
1782985833856032800,8.31403271484375,-0.0325642989963293,0.046648938450217246,0.009549955166317521
1782985833866107000,8.32410693359375,-0.03529460074305534,0.005175356811285018,-0.06866181362010539
1782985833876181800,8.334181640625,-0.0670984367609024,-0.030948680493235587,0.004114175586868077
1782985833886255000,8.344255126953126,-0.03290975143313408,0.0028238252490758895,0.025843174047768116
1782985833896329000,8.354328857421875,-0.041136312508583066,0.0077425769507884976,0.08207505661845206
1782985833906402800,8.36440283203125,-0.029801264023780822,0.003769581666588783,0.13126708541391416
1782985833916477000,8.374476806640626,-0.02806114235818386,0.005126841494441032,0.10662974349195137
1782985833926550800,8.38455078125,0.004355857121944427,0.04381400728523731,0.023760486022196707
1782985833936625000,8.394625,0.09266425517201424,0.028166356298327443,0.009044873454701155
1782985833946699000,8.404698974609374,0.13427812206447123,0.002627425894141197,0.0009477109125815332
1782985833956773000,8.414773193359375,0.11864742221236228,-0.02330313417613506,0.0386296086509712
1782985833966847000,8.424846923828126,0.06054068568050861,-0.00942950712442398,0.011612312789913266
1782985833976920800,8.4349208984375,0.014824644166231155,-0.004879004213213921,-0.06246292244736105
1782985833986994000,8.444993896484375,-0.09152502200901508,-0.02606909175813198,-0.10878030912196263
1782985833997068000,8.455068115234376,-0.16638941659629344,-0.04253390434682369,-0.16244897187482565
1782985834007142000,8.465141845703124,-0.15896014337837694,-0.006816109755635261,-0.18519005172140895
1782985834017216000,8.475216064453125,-0.14084931714832782,0.0012806874603033065,-0.08350253213830292
1782985834027289900,8.485289794921876,-0.04363397454321384,0.02062719296514988,-0.04512004838250577
1782985834037364000,8.495364013671875,0.07721358806192874,0.06704758335649967,0.021529913958534597
1782985834047437800,8.505437744140625,0.21829496040046215,0.08354279108345508,0.05971811725124716
1782985834057512000,8.515511962890624,0.3094371205717325,0.04961772512793541,0.0661519496910274
1782985834067586000,8.5255859375,0.31210137134492394,0.046830724757909774,0.06681275168731808
1782985834077659000,8.535658935546875,0.24764029735028742,0.07554886972010136,0.030090675424411892
1782985834087733000,8.54573291015625,0.13998188666403294,0.10206512072384356,-0.0001029854504391551
1782985834097806800,8.555806884765625,0.026196517530083653,0.07744447420835494,-0.00678673753067851
1782985834107880700,8.565880615234375,-0.01579553502500057,0.06656827540695667,-0.0018115794666111469
1782985834117955000,8.575955078125,0.0047474867880344385,0.07676584429442881,-0.012376045437715947
1782985834128029000,8.58602880859375,0.015813655203580856,0.05334522121846676,-0.023866832473501562
1782985834138103000,8.59610302734375,0.028980595290660858,0.046612698093056674,-0.030319698407314716
1782985834148177000,8.606177001953125,0.038653263521194456,0.03528700195848942,-0.05729260713737458
1782985834158251000,8.6162509765625,0.05259118798077106,0.04301087420880794,-0.08281279630847274
1782985834168324000,8.626323974609376,0.06822188783288001,0.054506081691384316,-0.0812496751775965
1782985834178398000,8.63639794921875,0.18396482077538967,0.05468260730206966,-0.07269782767053692
1782985834188472000,8.64647216796875,0.3743886084318161,0.0526724365234375,-0.03135134300999343
1782985834198546000,8.6565458984375,0.500058476626873,0.027819150295853613,0.0665705404292792
1782985834208619800,8.666619873046875,0.5364870498359203,0.0033715222597122192,0.07207527532540262
1782985834218694000,8.67669384765625,0.45937809119224543,0.005651742151379585,0.06542305089458823
1782985834228767700,8.686767822265624,0.2816863593369722,-0.0054822308033704754,0.016169775164872408
1782985834238842400,8.69684228515625,0.02003624133467674,0.013111410507559776,-0.07355181415136904
1782985834248916500,8.70691650390625,-0.1860024640828371,0.030694413471221923,-0.10490955036953091
1782985834258989300,8.7169892578125,-0.2736012525588274,0.016770517536997796,-0.09039853872973472
1782985834269063200,8.727063232421875,-0.27138123842179773,0.0205652336448431,-0.0007078560084104537
1782985834279137300,8.73713720703125,-0.27957623531520365,0.0037900399327278136,0.1356091880051419
1782985834289211400,8.74721142578125,-0.2712263401210308,0.031198855862021445,0.21753288998678325
1782985834299285200,8.75728515625,-0.2771644979983568,0.07361059513390064,0.28623543747607616
1782985834309359400,8.767359375,-0.25565233889222144,0.08685352306663989,0.3007819953532889
1782985834319433200,8.77743310546875,-0.21434183886051178,0.09246376416385173,0.2378844078157097
1782985834329507300,8.78750732421875,-0.10907704531252384,0.059411389389634126,0.16402115309499204
1782985834339581200,8.797581298828124,-0.035330256578326225,0.02321779398024082,0.09898443463686853
1782985834349654300,8.807654296875,0.037785833036899565,0.0011930091768503188,0.07695826159399002
1782985834359728400,8.817728271484375,0.06628419776856899,-0.023465046739578246,0.04205317162517458
1782985834369802200,8.82780224609375,0.042642040896415705,-0.04570785820782184,0.0013581731433048843
1782985834379876400,8.83787646484375,0.039160043999552724,-0.0346124636977911,-0.013494235812686384
1782985834389950200,8.8479501953125,0.07297697340548039,0.003866612300276756,0.03130527537856251
1782985834400024000,8.858024169921874,0.08317220420539378,0.03698386900424957,0.07988719118535519
1782985834410098400,8.868098388671875,0.09887538477182388,0.02011690535545349,0.12598463323265313
1782985834420172300,8.87817236328125,0.11219488507211207,0.03760346220731735,0.15497220625337213
1782985834430246400,8.888246337890624,0.126201198592782,0.05548457133471965,0.14561079592909662
1782985834440319200,8.8983193359375,0.16092998214662074,0.053282092854380604,0.09381050259768962
1782985834450393000,8.90839306640625,0.17360475480258464,0.05186345822811127,0.06514664510600268
1782985834460467500,8.918467529296874,0.1634942796766758,0.02503039636015892,0.061951721522212025
1782985834470541300,8.928541259765625,0.14421674775481222,-0.002024199303984642,-0.001246456397138536
1782985834480615400,8.938615478515626,0.12774608994722367,0.019637012884020803,-0.026386012220196424
1782985834490689300,8.948689208984375,0.13144085281193255,0.02144844622015953,0.008336999179981649
1782985834500763100,8.95876318359375,0.07669102549254894,0.039539983227849004,0.08729830769207328
1782985834510837200,8.968837158203126,-0.017517536512017248,0.05562661015391349,0.10109397413674741
1782985834520911000,8.9789111328125,-0.14649053790569305,0.055609659019112585,0.0674501362754032
1782985834530985500,8.9889853515625,-0.22490356488525867,0.10242226359844207,0.022056422050669787
1782985834541058300,8.999058349609374,-0.2138911724835634,0.09284019626080989,0.012920344914868473
1782985834551132200,9.009132080078125,-0.18324761241674423,0.10523732101917266,0.022831461543776094
1782985834561206300,9.019206298828125,-0.08645312557220458,0.10973521696031092,0.025519604649208483
1782985834571280100,9.029280029296874,0.04582768519520759,0.10192658903598785,0.052658115737140174
1782985834581354500,9.0393544921875,0.0871060365229845,0.06318798531889915,0.09434588811602443
1782985834591428400,9.049428466796876,0.08351707212030887,0.08039981688261032,0.07666011889763176
1782985834601502200,9.059502197265624,0.047347442108392715,0.10843640932142734,0.013711349162086843
1782985834611576300,9.069576416015625,0.025573417195677756,0.10113222378790378,0.0027500658931210635
1782985834621649200,9.079649169921876,0.00165828860104084,0.1030441948890686,0.009759506263770163
1782985834631723300,9.08972314453125,0.014196867656707763,0.12788462163507938,0.012996661554090677
1782985834641797400,9.09979736328125,0.03280395297110081,0.11870178274810314,0.03635536184236407
1782985834651871200,9.109871337890626,0.08850596644878386,0.0915501564502716,0.051569882109016175
1782985834661945300,9.1199453125,0.14082535175085067,0.07518646614849567,0.023273177429288625
1782985834672019200,9.130019287109375,0.18527590337395666,0.07042027465999126,-0.02307663194388151
1782985834682093300,9.14009326171875,0.20011340702176092,0.09710369892418384,-0.08753036288227885
1782985834692167200,9.150167236328125,0.20677578752040862,0.06282090557217597,-0.10748276185840368
1782985834702241300,9.1602412109375,0.20289105504155158,0.04407178143858909,-0.12966383320204913
1782985834712315400,9.1703154296875,0.19622867454290388,0.004910568395256996,-0.12538385432790963
1782985834722388200,9.18038818359375,0.12629121496379375,-0.009667992055416106,-0.12511512038912623
1782985834732462000,9.190462158203125,0.03014847002625465,-0.00395838223695755,-0.15082794605549424
1782985834742536200,9.2005361328125,0.036463644522428514,0.02756780588328838,-0.20874058478735386
1782985834752610300,9.2106103515625,0.0965390507787466,0.025190555357933044,-0.14041333688385785
1782985834762684400,9.220684326171876,0.16325813283324242,-0.01780804389119148,-0.10785532149784266
1782985834772758300,9.23075830078125,0.2005722567051649,-0.04738777411878109,-0.052682300330325955
1782985834782832400,9.240832275390625,0.19760230098366735,-0.054607788500189776,-0.011296068181283772
1782985834792906200,9.25090625,0.1577992829054594,-0.024264088162779807,0.026876316487789154
1782985834802980000,9.26097998046875,0.05100538009405136,0.02065466549396515,0.06027626259066164
1782985834813053400,9.271053466796875,-0.03204465903639793,0.06995090358257293,0.08932466242052614
1782985834823127300,9.281127197265626,-0.02875380079746246,0.07696925791203975,0.07729841680116951
1782985834833201200,9.291201171875,-0.026097148808836935,0.035550621330738066,0.07107987107988446
1782985834843275300,9.301275146484375,-0.06912380510866642,-0.01601122360229492,0.05589245801586657
1782985834853349000,9.31134912109375,-0.06882277633547783,0.02027414174377918,0.05501172965858131
1782985834863423200,9.32142333984375,0.004693126252293587,0.05481354020535945,-0.007616941277123987
1782985834873497300,9.331497314453125,0.20953999153673647,0.021788053438067435,-0.004637158281356096
1782985834883571500,9.341571533203124,0.36477497691214084,0.039327801781892775,0.1439458218589425
1782985834893645300,9.351645263671875,0.07892682172060013,0.062222355157136915,0.23786709135472772
1782985834903718100,9.36171826171875,-0.13063128999471663,0.07797872721552848,0.17576054459698498
1782985834913792300,9.371792236328124,-0.22770810091197488,0.1548363414466381,0.24396734445858745
1782985834923866400,9.381866455078125,-0.4143243129789829,0.07369418176412582,0.3017194223338738
1782985834933940200,9.391940185546876,-0.46319911078512666,0.09763152219057082,0.07911653560642153
1782985834944014300,9.402014404296875,-0.2218833402812481,0.21440262913703917,-0.2031470390966162
1782985834954088200,9.412088134765625,0.03435293597877025,0.15606792906820774,-0.1415169142115861
1782985834964162300,9.422162353515626,0.21139818662405013,-0.016343816557526588,0.08720880277771502
1782985834974236200,9.432236083984375,0.3666933777540922,-0.09800035550296306,0.12531257918998598
1782985834984310300,9.442310302734375,0.34696693302094933,0.06076105043292045,0.002926116579771042
1782985834994383400,9.45238330078125,0.2549310388803482,0.02418108605444431,-0.02572579474579543
