time,seconds_elapsed,z,y,x
1782985825615587300,0.07358740234375,-0.021182196214795113,0.10857623815536499,-0.028826914727687836
1782985825625661400,0.083661376953125,-0.00633454043418169,0.043066736310720444,-0.09753140807151794
1782985825635735300,0.0937353515625,0.020289668813347816,-0.020196307450532913,-0.14675067365169525
1782985825645809200,0.10380908203125,0.046999309211969376,-0.028020408004522324,-0.14589419960975647
1782985825655883300,0.11388330078125,0.06302618980407715,0.00035430071875452995,-0.11971361935138702
1782985825665957000,0.12395703125,0.06919753551483154,0.027721211314201355,-0.07832090556621552
1782985825676030200,0.1340302734375,0.0781286209821701,0.04147328808903694,-0.03732766956090927
1782985825686104300,0.144104248046875,0.08370767533779144,0.03687374293804169,-0.007028619293123484
1782985825696178200,0.15417822265625,0.09067791700363159,0.045634929090738297,0.014222128316760063
1782985825706252300,0.164252197265625,0.10005597025156021,0.038158368319272995,0.018511682748794556
1782985825716326100,0.174326171875,0.1185467541217804,0.02729625068604946,0.012348753400146961
1782985825726400300,0.184400146484375,0.13632868230342865,0.023663433268666267,-0.0066249375231564045
1782985825736474400,0.194474365234375,0.1561189591884613,0.03223622962832451,-0.03410321846604347
1782985825746548200,0.20454833984375,0.15239505469799042,0.038042984902858734,-0.06391997635364532
1782985825756622300,0.214622314453125,0.14478956162929535,0.03672870248556137,-0.08095813542604446
1782985825766696200,0.2246962890625,0.14038816094398499,0.031579747796058655,-0.07566989213228226
1782985825776769300,0.234769287109375,0.13572099804878235,0.04187440872192383,-0.05015318840742111
1782985825786843400,0.244843505859375,0.13831357657909393,0.03881443664431572,-0.03294384106993675
1782985825796917200,0.254917236328125,0.15045693516731262,0.014383161440491676,-0.021671799942851067
1782985825806991400,0.264991455078125,0.16665083169937134,-0.0029582784045487642,-0.01927601918578148
1782985825817065200,0.275065185546875,0.18210941553115845,-0.011460686102509499,-0.01843179762363434
1782985825827139300,0.285139404296875,0.1818167269229889,-0.011401031166315079,-0.03593702241778374
1782985825837213200,0.295213134765625,0.1825537532567978,0.002318011363968253,-0.055362433195114136
1782985825847287300,0.305287353515625,0.18598763644695282,0.022415824234485626,-0.07029052078723907
1782985825857361400,0.315361328125,0.18109744787216187,0.041050538420677185,-0.08192454278469086
1782985825867435300,0.325435302734375,0.18006813526153564,0.06601154804229736,-0.07526184618473053
1782985825877509400,0.33550927734375,0.17694728076457977,0.09619870036840439,-0.04397182911634445
1782985825887582200,0.345582275390625,0.1610300987958908,0.10824204236268997,-0.005535758566111326
1782985825897656300,0.35565625,0.14468549191951752,0.12749704718589783,0.02671528421342373
1782985825907730400,0.36573046875,0.1209988072514534,0.13068696856498718,0.04987040162086487
1782985825917804300,0.37580419921875,0.10335566848516464,0.11021393537521362,0.03514077886939049
1782985825927878400,0.38587841796875,0.09637845307588577,0.05885513871908188,-0.00761813810095191
1782985825937952300,0.3959521484375,0.1058117225766182,0.009772500954568386,-0.0793522447347641
1782985825948026000,0.406026123046875,0.14399264752864838,-0.054585184901952744,-0.19619522988796234
1782985825958100200,0.416100341796875,0.20903153717517853,-0.1150057315826416,-0.3366122245788574
1782985825968174300,0.42617431640625,0.281528115272522,-0.10548226535320282,-0.4705873429775238
1782985825978248400,0.43624853515625,0.3481391668319702,-0.07295173406600952,-0.5996825695037842
1782985825988321300,0.4463212890625,0.41477200388908386,-0.04598935693502426,-0.7166251540184021
1782985825998395100,0.45639501953125,0.4917115569114685,-0.025090258568525314,-0.78834468126297
1782985826008469200,0.46646923828125,0.5460888147354126,-0.02818724885582924,-0.8239535689353943
1782985826018543400,0.47654345703125,0.5753997564315796,-0.057560063898563385,-0.817837655544281
1782985826028617500,0.486617431640625,0.5735688209533691,-0.09058699011802673,-0.759993314743042
1782985826038691300,0.49669140625,0.5528199672698975,-0.1030905619263649,-0.6783934831619263
1782985826048765200,0.50676513671875,0.515341579914093,-0.08214586228132248,-0.5967822074890137
1782985826058839300,0.51683935546875,0.4557523727416992,-0.053832124918699265,-0.5390092730522156
1782985826068913200,0.5269130859375,0.4123649299144745,-0.02757175639271736,-0.5029303431510925
1782985826078987300,0.5369873046875,0.38267993927001953,0.010767629370093346,-0.4783087372779846
1782985826089060400,0.547060302734375,0.35707899928092957,0.054333481937646866,-0.4487985074520111
1782985826099134200,0.55713427734375,0.3341124951839447,0.08513262867927551,-0.4237900972366333
1782985826109208300,0.567208251953125,0.31694284081459045,0.10848215967416763,-0.3988751769065857
1782985826119282200,0.5772822265625,0.2975093722343445,0.1162707507610321,-0.38200244307518005
1782985826129356300,0.587356201171875,0.26905402541160583,0.10127049684524536,-0.3714672327041626
1782985826139430400,0.597430419921875,0.23946227133274078,0.08811865746974945,-0.359687477350235
1782985826149504300,0.607504150390625,0.22024144232273102,0.08563739061355591,-0.3337051570415497
1782985826159578400,0.617578369140625,0.1979970782995224,0.07819683849811554,-0.30317914485931396
1782985826169652200,0.62765234375,0.1894959956407547,0.06270390003919601,-0.28650084137916565
1782985826179726300,0.637726318359375,0.191596120595932,0.034282904118299484,-0.2742844521999359
1782985826189799400,0.64779931640625,0.19221104681491852,0.015370731242001057,-0.2540156841278076
1782985826199873300,0.657873291015625,0.1887512058019638,0.009960218332707882,-0.2236478477716446
1782985826209947400,0.667947509765625,0.18915386497974396,0.01984880305826664,-0.18717879056930542
1782985826220021200,0.678021240234375,0.1889059841632843,-0.0032318076118826866,-0.16347776353359222
1782985826230095000,0.68809521484375,0.19860228896141052,-0.043574970215559006,-0.14228938519954681
1782985826240169000,0.6981689453125,0.20708715915679932,-0.07631971687078476,-0.12441208213567734
1782985826250243000,0.7082431640625,0.19954322278499603,-0.09558182954788208,-0.10511322319507599
1782985826260317200,0.718317138671875,0.18250083923339844,-0.08105369657278061,-0.08299422264099121
1782985826270391300,0.728391357421875,0.15906235575675964,-0.04620489850640297,-0.05458148941397667
1782985826280465200,0.738465087890625,0.13078729808330536,-0.01622370257973671,-0.02955363132059574
1782985826290538000,0.7485380859375,0.10747212171554565,-0.0019808514043688774,-0.013918479904532433
1782985826300612000,0.758612060546875,0.09480579942464828,-0.004817662760615349,-0.011737195774912834
1782985826310686200,0.768686279296875,0.08450868725776672,-0.008958611637353897,-0.01549757830798626
1782985826320760300,0.77876025390625,0.06977847963571548,-0.014992003329098225,-0.01803397387266159
1782985826330834200,0.788834228515625,0.04745585843920708,-0.02047198824584484,-0.027335595339536667
1782985826340908000,0.798907958984375,0.03403068333864212,-0.026285182684659958,-0.0321497917175293
1782985826350982100,0.808982177734375,0.01922164484858513,-0.016743343323469162,-0.03344142436981201
1782985826361056000,0.819055908203125,-0.00275024794973433,-0.033853691071271896,-0.03308578580617905
1782985826371130000,0.829130126953125,-0.01829884760081768,-0.05824078992009163,-0.028332045301795006
1782985826381204200,0.839204345703125,-0.019462397322058678,-0.06283827126026154,-0.015404688194394112
1782985826391278000,0.849278076171875,-0.02453598566353321,-0.061033181846141815,-0.004682003054767847
1782985826401351200,0.85935107421875,-0.02379816211760044,-0.04152430221438408,-0.0008827864076010883
1782985826411425000,0.869425048828125,-0.019709143787622452,-0.017595265060663223,-0.009339387528598309
1782985826421499100,0.8794990234375,-0.01761758141219616,0.0007478352636098862,-0.023677315562963486
1782985826431573200,0.8895732421875,-0.014327513054013252,0.007689098361879587,-0.03867410868406296
1782985826441647000,0.899647216796875,-0.005309910513460636,0.005042551085352898,-0.05764828249812126
1782985826451721200,0.90972119140625,-0.0008179570431821048,0.002987123792991042,-0.07082879543304443
1782985826461795000,0.919795166015625,0.010803226381540298,0.00677745183929801,-0.07389814406633377
1782985826471869200,0.929869140625,0.03126269206404686,0.009118370711803436,-0.06117675453424454
1782985826481943000,0.939943115234375,0.0512232668697834,0.0009094891138374805,-0.03604210540652275
1782985826492017200,0.95001708984375,0.06920067220926285,-0.007013681344687939,0.00011509883916005492
1782985826502090200,0.96009033203125,0.07421544194221497,-0.00891862902790308,0.02870924398303032
1782985826512164000,0.9701640625,0.07812842726707458,-0.010592957958579063,0.04575826972723007
1782985826522238200,0.98023828125,0.07785262167453766,-0.014152249321341515,0.05515006557106972
1782985826532312000,0.99031201171875,0.07300913333892822,-0.01714484393596649,0.04853237792849541
1782985826542386200,1.00038623046875,0.06042315810918808,-0.023771820589900017,0.022055385634303093
1782985826552460300,1.010460205078125,0.04888287931680679,-0.024561181664466858,-0.000019555787730496377
1782985826562534100,1.0205341796875,0.04844962805509567,-0.00416541937738657,-0.012673348188400269
1782985826572608300,1.030608154296875,0.05076524615287781,0.02006082609295845,-0.008386990986764431
1782985826582682000,1.04068212890625,0.04890283942222595,0.04842101037502289,0.005837804637849331
1782985826592756000,1.050755859375,0.0557548850774765,0.05521633103489876,0.03587000444531441
1782985826602829300,1.060829345703125,0.061324555426836014,0.04239705577492714,0.05018119141459465
1782985826612903200,1.070903076171875,0.0603887215256691,0.008791159838438034,0.06902892142534256
1782985826622977300,1.080977294921875,0.06479644030332565,-0.028172068297863007,0.09209498018026352
1782985826633051100,1.091051025390625,0.06397299468517303,-0.04358404502272606,0.109616719186306
1782985826643125000,1.101125,0.06606094539165497,-0.03670789301395416,0.11959723383188248
1782985826653199000,1.11119921875,0.06619437038898468,-0.029815897345542908,0.12133841216564178
1782985826663273200,1.121273193359375,0.04262164980173111,-0.023915467783808708,0.10015919059515
1782985826673347300,1.131347412109375,0.024733196943998337,-0.02308988757431507,0.07762991636991501
1782985826683421200,1.141421142578125,0.021200640127062798,-0.020485084503889084,0.06391681730747223
1782985826693495000,1.1514951171875,0.02061021700501442,-0.02400791458785534,0.05970422923564911
1782985826703569200,1.161569091796875,0.03112025558948517,-0.03325677290558815,0.06164109706878662
1782985826713642200,1.171642333984375,0.03911293298006058,-0.030832761898636818,0.07876202464103699
1782985826723716400,1.18171630859375,0.038834117352962494,-0.03281967714428902,0.09137598425149918
1782985826733790200,1.191790283203125,0.03196422755718231,-0.027383899316191673,0.1041189432144165
1782985826743864000,1.201864013671875,0.03347567841410637,-0.03345121815800667,0.1066051572561264
1782985826753938200,1.211938232421875,0.04557229205965996,-0.056539226323366165,0.10737188160419464
1782985826764012000,1.222011962890625,0.059534937143325806,-0.0844624787569046,0.09735648334026337
1782985826774086100,1.232086181640625,0.07107308506965637,-0.10988394916057587,0.08288513123989105
1782985826784160300,1.24216015625,0.0818260982632637,-0.11446312814950943,0.06559104472398758
1782985826794234000,1.252234130859375,0.09494642913341522,-0.07885799556970596,0.04141539707779884
1782985826804308200,1.26230810546875,0.10945277661085129,-0.034247491508722305,0.013226530514657497
1782985826814381000,1.272381103515625,0.1070476770401001,-0.012573088519275188,0.007470640819519758
1782985826824455200,1.282455078125,0.09870787709951401,0.0030581732280552387,0.043170422315597534
1782985826834529300,1.292529296875,0.0921437218785286,0.005151950754225254,0.08268348127603531
1782985826844603100,1.30260302734375,0.1009790301322937,0.006165886297821999,0.10766088962554932
1782985826854677200,1.31267724609375,0.12524282932281494,0.027913523837924004,0.12468089163303375
1782985826864751000,1.322751220703125,0.1519964039325714,0.03643264248967171,0.13228857517242432
1782985826874825200,1.3328251953125,0.17456242442131042,0.04199172556400299,0.12581336498260498
1782985826884899000,1.342899169921875,0.17378166317939758,0.03505334258079529,0.1238040179014206
1782985826894973000,1.352972900390625,0.17952929437160492,0.036363352090120316,0.13586334884166718
1782985826905047300,1.36304736328125,0.17795415222644806,0.041820865124464035,0.15325500071048737
1782985826915120000,1.3731201171875,0.17271092534065247,0.05982436612248421,0.16474947333335876
1782985826925194200,1.3831943359375,0.1583867371082306,0.07095834612846375,0.1599079668521881
1782985826935268000,1.39326806640625,0.13596664369106293,0.056395918130874634,0.14372685551643372
1782985826945342000,1.403342041015625,0.11743199080228806,0.026695314794778824,0.10901063680648804
1782985826955416300,1.413416259765625,0.09798745065927505,0.005921326577663422,0.0696864053606987
1782985826965490200,1.423490234375,0.07411178201436996,0.003718649037182331,0.025278085842728615
1782985826975564300,1.433564208984375,0.05584622547030449,0.007557329721748829,-0.013613919727504253
1782985826985638100,1.44363818359375,0.0473969392478466,0.03755514323711395,-0.04273393377661705
1782985826995712000,1.4537119140625,0.04119284078478813,0.07170751690864563,-0.05025523528456688
1782985827005786000,1.4637861328125,0.033280737698078156,0.09941229224205017,-0.040687087923288345
1782985827015859200,1.473859130859375,0.023248344659805298,0.1290263831615448,-0.0049171047285199165
1782985827025933000,1.48393310546875,0.015214387327432632,0.13299928605556488,0.023808283731341362
1782985827036007200,1.494007080078125,0.01845358870923519,0.1038733497262001,0.048198044300079346
1782985827046081000,1.5040810546875,0.03383002057671547,0.07582071423530579,0.06132178381085396
1782985827056155100,1.514155029296875,0.04545072466135025,0.0665033832192421,0.06957704573869705
1782985827066229000,1.52422900390625,0.04715070500969887,0.06622316688299179,0.08117857575416565
1782985827076303400,1.534303466796875,0.045571450144052505,0.05412602424621582,0.08935607969760895
1782985827086377200,1.544377197265625,0.040182825177907944,0.050340477377176285,0.0889669880270958
1782985827096451000,1.554451171875,0.027593528851866722,0.08480232208967209,0.08797788619995117
1782985827106525200,1.564525146484375,-0.036254677921533585,0.1017715111374855,0.09869727492332458
1782985827116598000,1.574597900390625,-0.11770986020565033,0.11654646694660187,0.13032551109790802
1782985827126672100,1.584672119140625,-0.10334108769893646,0.12778812646865845,0.1626315712928772
1782985827136746200,1.594746337890625,-0.04779660701751709,0.14363259077072144,0.16960957646369934
1782985827146820000,1.604820068359375,-0.06755765527486801,0.08746975660324097,0.16672906279563904
1782985827156894200,1.614894287109375,-0.09340256452560425,0.06263471394777298,0.183916836977005
1782985827166968000,1.624968017578125,-0.04255172237753868,0.03989643231034279,0.18522045016288757
1782985827177042200,1.635042236328125,0.021160410717129707,0.052918754518032074,0.1934799700975418
1782985827187116000,1.645115966796875,0.012485627084970474,0.025242235511541367,0.2307201772928238
1782985827197190100,1.655190185546875,-0.06118859350681305,-0.011186080053448677,0.28910332918167114
1782985827207264300,1.66526416015625,-0.09800682216882706,-0.0496484600007534,0.3376384675502777
1782985827217337000,1.675337158203125,-0.07914498448371887,-0.07537858933210373,0.3679031729698181
1782985827227411000,1.685410888671875,-0.044540390372276306,-0.04635025933384895,0.41543126106262207
1782985827237485000,1.695485107421875,-0.027009598910808563,-0.039569318294525146,0.4678308367729187
1782985827247559000,1.705558837890625,-0.006243305746465921,-0.07624436914920807,0.4970489740371704
1782985827257633000,1.715633056640625,0.007662922143936157,-0.11123857647180557,0.49366384744644165
1782985827267707000,1.725706787109375,0.018097413703799248,-0.13457746803760529,0.45850738883018494
1782985827277781000,1.735781005859375,0.037760332226753235,-0.11272143572568893,0.38974055647850037
1782985827287854800,1.745854736328125,0.07143533229827881,-0.05481715500354767,0.3152000904083252
1782985827297929000,1.755928955078125,0.08463848382234573,-0.025605741888284683,0.26574569940567017
1782985827308003000,1.766003173828125,0.07983964681625366,0.06878125667572021,0.2822874188423157
1782985827318076000,1.776075927734375,0.10358146578073502,0.136785089969635,0.32621198892593384
1782985827328150000,1.78614990234375,0.14610667526721954,0.1863853484392166,0.38299062848091125
1782985827338223900,1.796223876953125,0.1877923309803009,0.1821671724319458,0.44054365158081055
1782985827348297700,1.806297607421875,0.19441907107830048,0.11828752607107162,0.4832756817340851
1782985827358372000,1.8163720703125,0.21788658201694489,0.07183214277029037,0.49117380380630493
1782985827368446000,1.826446044921875,0.26794901490211487,0.034142762422561646,0.4808843731880188
1782985827378520000,1.83652001953125,0.32466262578964233,0.016221286728978157,0.46332189440727234
1782985827388594000,1.846593994140625,0.3616294860839844,-0.02784542553126812,0.463619589805603
1782985827398668000,1.85666796875,0.35818228125572205,-0.11899717897176743,0.4991823732852936
1782985827408742000,1.866741943359375,0.3954334557056427,-0.1912834346294403,0.5780391693115234
1782985827418815000,1.87681494140625,0.43109744787216187,-0.24599620699882507,0.6573593020439148
1782985827428889000,1.88688916015625,0.44489145278930664,-0.22466591000556946,0.6865167021751404
1782985827438963000,1.896962890625,0.44601717591285706,-0.22379106283187866,0.6360841989517212
1782985827449036800,1.907036865234375,0.43549656867980957,-0.2447243332862854,0.5115006566047668
1782985827459111000,1.91711083984375,0.41384002566337585,-0.2985984683036804,0.33766043186187744
1782985827469184800,1.927184814453125,0.383074551820755,-0.33630919456481934,0.1464667171239853
1782985827479259100,1.937259033203125,0.33368515968322754,-0.36235809326171875,-0.04609421268105507
1782985827489333000,1.9473330078125,0.2825619876384735,-0.3665706515312195,-0.224160298705101
1782985827499407000,1.957406982421875,0.23232969641685486,-0.35257279872894287,-0.3795485496520996
1782985827509481000,1.96748095703125,0.18055908381938934,-0.3506579101085663,-0.523085355758667
1782985827519553800,1.9775537109375,0.15121078491210938,-0.2899782955646515,-0.6396812200546265
1782985827529628200,1.987628173828125,0.13535407185554504,-0.20998606085777283,-0.7381927371025085
1782985827539702000,1.997701904296875,0.13596287369728088,-0.15751752257347107,-0.810182511806488
1782985827549776000,2.00777587890625,0.14348554611206055,-0.1061629056930542,-0.8228381872177124
1782985827559850000,2.01785009765625,0.1474270224571228,-0.059800464659929276,-0.7765681743621826
1782985827569923800,2.027923828125,0.1370430439710617,-0.018250970169901848,-0.6889828443527222
1782985827579998000,2.037998046875,0.1271480768918991,0.011949009262025356,-0.5833243131637573
1782985827590071800,2.04807177734375,0.1310102343559265,0.009695257991552353,-0.4852353632450104
1782985827600146200,2.058146240234375,0.1602640002965927,-0.004503918346017599,-0.38791677355766296
1782985827610219000,2.068218994140625,0.18583190441131592,-0.014493911527097225,-0.2855914235115051
1782985827620292900,2.07829296875,0.19007112085819244,-0.050139524042606354,-0.1926702857017517
1782985827630367000,2.088366943359375,0.19291765987873077,-0.06903374940156937,-0.1202380508184433
1782985827640440800,2.09844091796875,0.20795279741287231,-0.05016498267650604,-0.06732796877622604
1782985827650515000,2.108514892578125,0.22629910707473755,-0.029748983681201935,-0.05103559419512749
1782985827660589000,2.118589111328125,0.24342961609363556,-0.03136419132351875,-0.06254337728023529
1782985827670663000,2.128662841796875,0.2595634460449219,-0.036752864718437195,-0.08944764733314514
1782985827680737000,2.138737060546875,0.26958200335502625,-0.027919959276914597,-0.1142619177699089
1782985827690811000,2.148810791015625,0.26617732644081116,-0.00766843743622303,-0.11942658573389053
1782985827700884700,2.158884765625,0.24906650185585022,0.020644426345825195,-0.09837669134140015
1782985827710958000,2.1689580078125,0.2232178896665573,0.04724761098623276,-0.04071376845240593
1782985827721032000,2.179031982421875,0.18312852084636688,0.06742505729198456,0.039212487637996674
1782985827731106000,2.18910595703125,0.14012134075164795,0.07779105752706528,0.11561783403158188
1782985827741180000,2.199179931640625,0.11361942440271378,0.07035151869058609,0.16333502531051636
1782985827751253800,2.209253662109375,0.11815819144248962,0.058034319430589676,0.19239814579486847
1782985827761327900,2.219327880859375,0.13581867516040802,0.05651178956031799,0.22140449285507202
1782985827771402000,2.229402099609375,0.15158843994140625,0.07328960299491882,0.2530105412006378
1782985827781476000,2.23947607421875,0.15744340419769287,0.08433106541633606,0.2922210395336151
1782985827791550000,2.249550048828125,0.16180910170078278,0.07548291236162186,0.31803596019744873
1782985827801623800,2.259623779296875,0.17602479457855225,0.052907027304172516,0.33942487835884094
1782985827811697000,2.26969677734375,0.19854238629341125,0.039091091603040695,0.35617703199386597
1782985827821771000,2.27977099609375,0.20687276124954224,0.006507048383355141,0.3825841248035431
1782985827831845000,2.28984521484375,0.20314107835292816,-0.041200365871191025,0.40834999084472656
1782985827841919000,2.2999189453125,0.1764969527721405,-0.1333867609500885,0.42354652285575867
1782985827851992800,2.309992919921875,0.1434345841407776,-0.2519000172615051,0.4121538996696472
1782985827862067000,2.32006689453125,0.11485379934310913,-0.32793647050857544,0.39270031452178955
1782985827872140800,2.330140869140625,0.08539340645074844,-0.3080750107765198,0.35977914929389954
1782985827882215000,2.34021484375,0.05184822902083397,-0.26637524366378784,0.31038445234298706
1782985827892289000,2.3502890625,0.0038196188397705555,-0.21912677586078644,0.2579666078090668
1782985827902361900,2.36036181640625,-0.029779620468616486,-0.14511486887931824,0.20081117749214172
1782985827912436000,2.37043603515625,-0.05458411946892738,-0.07420630007982254,0.14067460596561432
1782985827922509800,2.380509765625,-0.0591445192694664,-0.029148278757929802,0.08774881064891815
1782985827932584000,2.390583984375,-0.057358529418706894,0.0015954035334289074,0.06494533270597458
1782985827942658000,2.400657958984375,-0.05536036193370819,-0.0011444565607234836,0.0655384212732315
1782985827952732000,2.41073193359375,-0.05278991907835007,-0.02108675055205822,0.09362859278917313
1782985827962806000,2.420805908203125,-0.05858415737748146,-0.044576097279787064,0.12582407891750336
1782985827972880000,2.4308798828125,-0.06083827465772629,-0.06553870439529419,0.1532912254333496
1782985827982954000,2.4409541015625,-0.05765127018094063,-0.07840177416801453,0.17000868916511536
1782985827993027800,2.45102783203125,-0.04946425184607506,-0.07674357295036316,0.174451544880867
1782985828003102000,2.46110205078125,-0.03738708049058914,-0.053140778094530106,0.1855766326189041
1782985828013175000,2.471175048828125,-0.037985846400260925,-0.02801487036049366,0.18503865599632263
1782985828023249000,2.481248779296875,-0.04184742644429207,-0.004363072104752064,0.16770946979522705
1782985828033323000,2.491322998046875,-0.03979404643177986,0.019385354593396187,0.1457277536392212
1782985828043396900,2.50139697265625,-0.03490501642227173,0.044157810509204865,0.1302097737789154
1782985828053471000,2.511470947265625,-0.029922913759946823,0.05940064787864685,0.11486601829528809
1782985828063545000,2.521545166015625,-0.027577999979257584,0.057188890874385834,0.10786323994398117
1782985828073619000,2.531618896484375,-0.026760002598166466,0.042471498250961304,0.0925540030002594
1782985828083693000,2.541693115234375,-0.023402288556098938,0.03903122618794441,0.07922568172216415
1782985828093767000,2.551766845703125,-0.017642194405198097,0.02557978592813015,0.06214608624577522
1782985828103840000,2.561840087890625,-0.009699848480522633,0.0072724176570773125,0.04540625587105751
1782985828113914000,2.5719140625,0.012912027537822723,-0.0001679102424532175,0.033463627099990845
1782985828123988000,2.581988037109375,0.030147207900881767,0.01384857390075922,0.03456990420818329
1782985828134062000,2.59206201171875,0.034565139561891556,0.010639533400535583,0.048127688467502594
1782985828144136000,2.602135986328125,0.037687163800001144,0.00023030187003314495,0.0562247633934021
1782985828154209800,2.612209716796875,0.043482568114995956,-0.010590897873044014,0.05329118296504021
1782985828164284000,2.622283935546875,0.05570967122912407,-0.03059523180127144,0.043044671416282654
1782985828174358000,2.63235791015625,0.06001828610897064,-0.051806069910526276,0.029990067705512047
1782985828184432000,2.64243212890625,0.059797246009111404,-0.07421230524778366,0.01397461537271738
1782985828194506000,2.652506103515625,0.05016736686229706,-0.08969743549823761,-0.009816944599151611
1782985828204578800,2.662578857421875,0.04061327874660492,-0.0866294726729393,-0.038371890783309937
1782985828214653000,2.67265283203125,0.03630441054701805,-0.051654212176799774,-0.06248942390084267
1782985828224727000,2.68272705078125,0.027849938720464706,-0.011125428602099419,-0.07827877998352051
1782985828234801400,2.692801513671875,0.020015593618154526,0.008394245058298111,-0.0967923179268837
1782985828244875800,2.702875732421875,0.015458658337593079,0.017998402938246727,-0.10352026671171188
1782985828254949600,2.71294970703125,0.02172117680311203,0.0263802632689476,-0.10836935043334961
1782985828265023700,2.723023681640625,0.022583773359656334,0.027980823069810867,-0.11833596229553223
1782985828275097600,2.73309765625,0.020185275003314018,0.024680551141500473,-0.12945061922073364
1782985828285171700,2.743171630859375,0.01621716469526291,0.031113151460886,-0.14199170470237732
1782985828295245600,2.75324560546875,0.014651931822299957,0.04980818182229996,-0.13587522506713867
1782985828305318700,2.763318603515625,0.00696844607591629,0.053403716534376144,-0.11935590207576752
1782985828315392800,2.773392822265625,-0.0076637654565274715,0.04559672623872757,-0.10007105022668839
1782985828325466600,2.783466552734375,-0.014072928577661514,0.0377662368118763,-0.08344307541847229
1782985828335540500,2.79354052734375,-0.007008809130638838,0.039684735238552094,-0.07778065651655197
1782985828345614600,2.803614501953125,0.004412956070154905,0.03240657597780228,-0.08564284443855286
1782985828355688400,2.8136884765625,0.012880869209766388,0.028210733085870743,-0.0978696271777153
1782985828365762800,2.8237626953125,0.015094755217432976,0.021379193291068077,-0.11880660057067871
1782985828375836700,2.833836669921875,0.005650331266224384,0.022019336000084877,-0.1443670392036438
1782985828385910800,2.843910888671875,-0.0018169062677770853,0.0327950194478035,-0.18484708666801453
1782985828395983600,2.853983642578125,-0.008450347930192947,0.04975907877087593,-0.23357419669628143
1782985828406057500,2.864057373046875,-0.008338228799402714,0.06315691024065018,-0.2891325056552887
1782985828416131800,2.8741318359375,-0.0053419917821884155,0.07013310492038727,-0.3576447665691376
1782985828426205700,2.884205810546875,0.009696345776319504,0.08426010608673096,-0.40407031774520874
1782985828436279600,2.894279541015625,0.021747315302491188,0.09914316236972809,-0.43954163789749146
1782985828446353700,2.904353759765625,0.02374095842242241,0.11294446140527725,-0.4503015875816345
1782985828456427500,2.914427490234375,0.029519444331526756,0.11994030326604843,-0.4441918432712555
1782985828466501600,2.924501708984375,0.03645218536257744,0.13431711494922638,-0.42348337173461914
1782985828476575500,2.934575439453125,0.043152377009391785,0.16711893677711487,-0.3828440010547638
1782985828486649900,2.94464990234375,0.041529979556798935,0.2039075642824173,-0.323055237531662
1782985828496722700,2.95472265625,0.03846180811524391,0.21841254830360413,-0.24419189989566803
1782985828506796500,2.964796630859375,0.018795426934957504,0.19925856590270996,-0.14706934988498688
1782985828516870700,2.97487060546875,0.0032646162435412407,0.14560005068778992,-0.05099868401885033
1782985828526944500,2.984944580078125,0.007128063589334488,0.07441668212413788,0.033253081142902374
1782985828537018600,2.9950185546875,0.03445092961192131,0.025374814867973328,0.09851633757352829
1782985828547092700,3.0050927734375,0.0664815679192543,0.011710667982697487,0.1575961858034134
1782985828557166600,3.01516650390625,0.08783923089504242,0.024781636893749237,0.19614650309085846
1782985828567240700,3.02524072265625,0.09417834877967834,0.04653992876410484,0.21229670941829681
1782985828577314600,3.035314453125,0.0910123884677887,0.05753212794661522,0.21161094307899475
1782985828587387600,3.0453876953125,0.09032689034938812,0.062429945915937424,0.19379094243049622
1782985828597461800,3.055461669921875,0.08656489104032516,0.04645943269133568,0.16378040611743927
1782985828607535600,3.06553564453125,0.08343780785799026,0.024413252249360085,0.1385546773672104
1782985828617609700,3.075609619140625,0.07967699319124222,0.021035054698586464,0.10739745944738388
1782985828627683600,3.08568359375,0.07954702526330948,0.025491055101156235,0.08003853261470795
1782985828637757400,3.09575732421875,0.08126355707645416,0.04011204466223717,0.04886415973305702
1782985828647831600,3.10583154296875,0.08986476808786392,0.050557225942611694,0.024392370134592056
1782985828657905700,3.11590576171875,0.10618636012077332,0.07304631918668747,0.016502436250448227
1782985828667979800,3.125979736328125,0.11635217815637589,0.08490297943353653,0.019122455269098282
1782985828678053600,3.1360537109375,0.1166633814573288,0.07064419239759445,0.029890360310673714
1782985828688126500,3.14612646484375,0.11573393642902374,0.061554018408060074,0.04407142475247383
1782985828698200600,3.15620068359375,0.11473091691732407,0.049579765647649765,0.05076517537236214
1782985828708274700,3.166274658203125,0.10834092646837234,0.021703924983739853,0.05084853246808052
1782985828718348800,3.176348876953125,0.1073966696858406,0.021457942202687263,0.057365018874406815
1782985828728422700,3.186422607421875,0.10943026095628738,0.060152340680360794,0.06654973328113556
1782985828738496500,3.19649658203125,0.11368649452924728,0.04193397983908653,0.05689561367034912
1782985828748570600,3.206570556640625,0.12259077280759811,0.003139712382107973,0.05386679992079735
1782985828758644500,3.21664453125,0.12123966217041016,-0.007326730526983738,0.047588128596544266
1782985828768718600,3.226718505859375,0.1135399341583252,-0.02414539083838463,0.045781172811985016
1782985828778792700,3.236792724609375,0.10669879615306854,-0.036630094051361084,0.03150593861937523
1782985828788865500,3.246865478515625,0.10857898741960526,-0.03607082739472389,0.010416898876428604
1782985828798939600,3.256939697265625,0.11030328273773193,-0.031810861080884933,-0.006112970877438784
1782985828809013500,3.267013427734375,0.09884263575077057,-0.034772295504808426,-0.016560284420847893
1782985828819087600,3.277087646484375,0.07960470020771027,-0.04169286787509918,-0.032196979969739914
1782985828829161700,3.28716162109375,0.06658423691987991,-0.04758378118276596,-0.04740948975086212
1782985828839235600,3.297235595703125,0.060743436217308044,-0.05340730398893356,-0.07439951598644257
1782985828849309700,3.307309814453125,0.061651043593883514,-0.05695303529500961,-0.10574971139431
1782985828859383600,3.317383544921875,0.056916605681180954,-0.0672563761472702,-0.1359313726425171
1782985828869457700,3.327457763671875,0.056255873292684555,-0.06427736580371857,-0.15784385800361633
1782985828879530800,3.33753076171875,0.054612547159194946,-0.03385884314775467,-0.16229383647441864
1782985828889604600,3.3476044921875,0.05236830189824104,-0.0063670314848423,-0.14771996438503265
1782985828899678700,3.3576787109375,0.04720858484506607,0.03348195180296898,-0.10454654693603516
1782985828909752600,3.367752685546875,0.01927655003964901,0.06580740213394165,-0.041719380766153336
1782985828919826700,3.37782666015625,-0.005409660749137402,0.058224305510520935,0.01273795310407877
1782985828929900500,3.387900634765625,-0.009058191440999508,0.01739724539220333,0.05683430656790733
1782985828939974700,3.397974609375,0.008570235222578049,-0.019680902361869812,0.08085373044013977
1782985828950048800,3.408048828125,0.023875689134001732,-0.027901815250515938,0.09624546766281128
1782985828960122600,3.41812255859375,0.023743636906147003,-0.03983835503458977,0.09508251398801804
1782985828970196700,3.42819677734375,0.021656250581145287,-0.03935445845127106,0.08297312259674072
1782985828980269600,3.43826953125,0.009111179038882256,-0.03894879296422005,0.06205921620130539
1782985828990343700,3.44834375,0.003959028050303459,-0.022249439731240273,0.03276843950152397
1782985829000417800,3.458417724609375,-0.001878857146948576,0.01795084774494171,0.008123333565890789
1782985829010491600,3.46849169921875,-0.0065817334689199924,0.04581256955862045,-0.009551799856126308
1782985829020565800,3.478565673828125,-0.02109058015048504,0.04020749777555466,-0.017830556258559227
1782985829030639600,3.4886396484375,-0.029064882546663284,0.011117258109152317,-0.02272278442978859
1782985829040713500,3.49871337890625,-0.02531159482896328,-0.01718779094517231,-0.024265021085739136
1782985829050787600,3.50878759765625,-0.015278934501111507,-0.02555517479777336,-0.014258194714784622
1782985829060861700,3.51886181640625,-0.007020064629614353,-0.013482233509421349,0.001043476746417582
1782985829070934500,3.5289345703125,-0.0042756772600114346,-0.01462872326374054,0.024897942319512367
1782985829081008600,3.539008544921875,-0.0008439277880825102,-0.026019863784313202,0.03777725622057915
1782985829091082500,3.54908251953125,0.002238947432488203,-0.04766656830906868,0.037930119782686234
1782985829101156600,3.559156494140625,0.0014708214439451694,-0.07376036792993546,0.02241550385951996
1782985829111230700,3.569230712890625,-0.0010128426365554333,-0.08173973113298416,0.0005565442843362689
1782985829121304800,3.579304931640625,-0.00811116211116314,-0.06662748008966446,-0.02412525936961174
1782985829131378700,3.589378662109375,-0.010772725567221642,-0.030296100303530693,-0.05047590658068657
1782985829141452500,3.59945263671875,-0.017097465693950653,0.011822856962680817,-0.07129489630460739
1782985829151526700,3.609526611328125,-0.021033085882663727,0.04644554853439331,-0.07608166337013245
1782985829161600500,3.6196005859375,-0.03747480735182762,0.058502502739429474,-0.07223643362522125
1782985829171673600,3.629673583984375,-0.04536149278283119,0.05728836730122566,-0.0566265806555748
1782985829181747700,3.639747802734375,-0.02823631837964058,0.05362085625529289,-0.042625438421964645
1782985829191821600,3.649821533203125,-0.009128403849899769,0.03141488879919052,-0.02352684549987316
1782985829201895700,3.659895751953125,0.007913289591670036,0.02066633477807045,-0.008856769651174545
1782985829211969500,3.669969482421875,0.019656497985124588,0.01868600957095623,0.005863053258508444
1782985829222043600,3.680043701171875,0.03248428553342819,0.01618053950369358,0.01697983406484127
1782985829232117000,3.690116943359375,0.04245356470346451,0.014596758410334587,0.0231168232858181
1782985829242191000,3.700191162109375,0.047930605709552765,0.011786788702011108,0.02963208593428135
1782985829252265000,3.710264892578125,0.050821736454963684,0.013616912066936493,0.03178657963871956
1782985829262338000,3.720338134765625,0.04573020711541176,0.017137518152594566,0.0251768846064806
1782985829272412200,3.730412109375,0.04395388066768646,0.02383270487189293,0.008977409452199936
1782985829282486000,3.740486083984375,0.04055098816752434,0.03447265923023224,-0.017969787120819092
1782985829292560100,3.75056005859375,0.02419438399374485,0.033496610820293427,-0.042183250188827515
1782985829302634000,3.760634033203125,0.011951902881264687,0.027655383571982384,-0.06282130628824234
1782985829312707800,3.770707763671875,0.010647752322256565,0.025493696331977844,-0.0733245462179184
1782985829322782000,3.780781982421875,0.014151845127344131,0.030381303280591965,-0.07267872989177704
1782985829332856000,3.79085595703125,0.02002917416393757,0.030032962560653687,-0.04664792865514755
1782985829342930200,3.80093017578125,0.02351473458111286,0.03170575946569443,-0.01584991067647934
1782985829353004000,3.811004150390625,0.0258583165705204,0.019210210070014,0.01641162298619747
1782985829363076900,3.821076904296875,0.028838489204645157,-0.01648564264178276,0.037177085876464844
1782985829373151000,3.83115087890625,0.027632875367999077,-0.051703281700611115,0.048631876707077026
1782985829383225000,3.84122509765625,0.017243603244423866,-0.07310345768928528,0.042795129120349884
1782985829393299200,3.85129931640625,0.003414873732253909,-0.08505119383335114,0.02086533233523369
1782985829403373000,3.861373046875,-0.0006808266043663025,-0.07461553066968918,-0.009052510373294353
1782985829413447000,3.871447021484375,-0.0026233363896608353,-0.038074836134910583,-0.03405240178108215
1782985829423521000,3.88152099609375,-0.0050815497525036335,0.002604324836283922,-0.06349503248929977
1782985829433595000,3.891594970703125,-0.008260831236839294,0.02976377308368683,-0.07874429225921631
1782985829443669000,3.9016689453125,-0.006803338415920734,0.03330356627702713,-0.08822695910930634
1782985829453743000,3.9117431640625,-0.000591781921684742,0.01604335382580757,-0.07944971323013306
1782985829463816000,3.92181591796875,0.0072679356671869755,-0.008128179237246513,-0.06278135627508163
1782985829473890000,3.93189013671875,0.02076510153710842,-0.037077806890010834,-0.0436827689409256
1782985829483964000,3.9419638671875,0.027541475370526314,-0.05400247126817703,-0.026088913902640343
1782985829494038000,3.9520380859375,0.029314609244465828,-0.06199541687965393,-0.010763220489025116
1782985829504112000,3.962112060546875,0.025571675971150398,-0.061568476259708405,-0.003738120198249817
1782985829514186000,3.97218603515625,0.016166722401976585,-0.060003072023391724,-0.008158434182405472
1782985829524259000,3.982259033203125,0.011970489285886288,-0.07085848599672318,-0.019759271293878555
1782985829534333000,3.9923330078125,0.01671464368700981,-0.07872786372900009,-0.04155351594090462
1782985829544407000,4.002406982421875,0.028712984174489975,-0.08371835947036743,-0.06394937634468079
1782985829554481200,4.012481201171875,0.03411334007978439,-0.07782159000635147,-0.08283331245183945
1782985829564555000,4.022554931640625,0.03449142724275589,-0.060219645500183105,-0.08649489283561707
1782985829574629000,4.032629150390625,0.024528540670871735,-0.03737052157521248,-0.08258723467588425
1782985829584702000,4.042701904296875,0.008470186032354832,-0.026022467762231827,-0.06648778915405273
1782985829594775800,4.05277587890625,-0.011522696353495121,-0.01392452698200941,-0.051206570118665695
1782985829604850200,4.06285009765625,-0.02533714659512043,-0.0014337915927171707,-0.04227102920413017
1782985829614924000,4.072924072265625,-0.03374500945210457,-0.003412786405533552,-0.038496796041727066
1782985829624998100,4.082998046875,-0.03007272258400917,-0.014660299755632877,-0.039038535207509995
1782985829635072000,4.093072021484375,-0.02001316472887993,-0.018971692770719528,-0.04936147853732109
1782985829645146000,4.10314599609375,-0.012742132879793644,-0.018952365964651108,-0.04645160585641861
1782985829655220000,4.113219970703125,-0.00841609388589859,-0.009984171018004417,-0.03473236411809921
1782985829665293800,4.1232939453125,-0.009809459559619427,0.005559368524700403,-0.01745111122727394
1782985829675368200,4.1333681640625,-0.01160416379570961,0.013005832210183144,-0.0004170007596258074
1782985829685441000,4.14344091796875,-0.010411977767944336,0.005462532863020897,0.014104790985584259
1782985829695515000,4.153514892578125,-0.015387827530503273,-0.013002760708332062,0.015939975157380104
1782985829705589000,4.163589111328125,-0.025852300226688385,-0.025902673602104187,0.007316071540117264
1782985829715662800,4.173662841796875,-0.030071547254920006,-0.02538415417075157,-0.009082076139748096
1782985829725737200,4.1837373046875,-0.030924858525395393,-0.0030267336405813694,-0.019765501841902733
1782985829735811000,4.19381103515625,-0.038882914930582047,0.01070212759077549,-0.02697228267788887
1782985829745885200,4.20388525390625,-0.04296107962727547,0.012952222488820553,-0.03144942969083786
1782985829755959000,4.213958984375,-0.03870135173201561,-0.00599057599902153,-0.031051289290189743
1782985829766033000,4.224032958984375,-0.035257741808891296,-0.025029746815562248,-0.02972215786576271
1782985829776106200,4.234106201171875,-0.02516702562570572,-0.0376315601170063,-0.023774519562721252
1782985829786180000,4.24418017578125,-0.015033502131700516,-0.04022669047117233,-0.02233625203371048
1782985829796254000,4.25425390625,-0.013002042658627033,-0.03191656619310379,-0.021704550832509995
1782985829806328000,4.264328125,-0.01285939197987318,-0.018694330006837845,-0.015930816531181335
1782985829816402000,4.27440185546875,-0.02017243206501007,-0.0054717352613806725,-0.016659457236528397
1782985829826476000,4.28447607421875,-0.029935093596577644,-0.0055425167083740234,-0.0197976753115654
1782985829836550000,4.2945498046875,-0.03279106691479683,-0.00867972057312727,-0.014980283565819263
1782985829846624300,4.304624267578125,-0.039848946034908295,-0.017488785088062286,-0.0026822835206985474
1782985829856698000,4.314697998046875,-0.04385540634393692,-0.0334634892642498,-0.00029342802008613944
1782985829866772000,4.32477197265625,-0.027887161821126938,-0.04279189556837082,0.001155491336248815
1782985829876846000,4.33484619140625,-0.010768629610538483,-0.04117189347743988,-0.007375146262347698
1782985829886920000,4.344919921875,0.004784482065588236,-0.033683422952890396,-0.023412596434354782
1782985829896993000,4.354992919921875,0.015409429557621479,-0.021812913939356804,-0.028857428580522537
1782985829907067100,4.365067138671875,0.013070687651634216,-0.01790877804160118,-0.03178402781486511
1782985829917141000,4.37514111328125,0.005859113298356533,-0.02194773033261299,-0.03147616609930992
1782985829927215000,4.385215087890625,-0.002465089550241828,-0.025002095848321915,-0.03206627070903778
1782985829937289000,4.3952890625,-0.007504056673496962,-0.02394162490963936,-0.01893635466694832
1782985829947363000,4.405363037109375,-0.005644903983920813,-0.023132823407649994,-0.0019741489086300135
1782985829957437000,4.41543701171875,-0.0027692224830389023,-0.013339314609766006,0.010158680379390717
1782985829967511000,4.425510986328125,0.011758587323129177,-0.0003763779532164335,0.02751396782696247
1782985829977585200,4.435585205078125,0.02143251895904541,-0.00028183567337691784,0.04985016584396362
1782985829987659000,4.445658935546875,0.02039305865764618,-0.013837996870279312,0.056772731244564056
1782985829997731800,4.45573193359375,0.014261928386986256,-0.03025585226714611,0.06216057389974594
1782985830007806000,4.465805908203125,0.008493621833622456,-0.04121340811252594,0.05321917310357094
1782985830017880000,4.475880126953125,0.002027201233431697,-0.037638381123542786,0.04124400392174721
1782985830027954200,4.4859541015625,-0.00502516096457839,-0.03414478525519371,0.022138535976409912
1782985830038028000,4.496028076171875,-0.0035673468373715878,-0.011601393111050129,0.006152378395199776
1782985830048102000,4.506101806640625,-0.005532377399504185,0.04164860397577286,0.005493567790836096
1782985830058176000,4.516176025390625,-0.013300552032887936,0.06961605697870255,0.0181124247610569
1782985830068249900,4.526249755859375,-0.025965118780732155,0.040540289133787155,0.030423417687416077
1782985830078324000,4.536323974609375,-0.029175827279686928,-0.0003714566119015217,0.04444655776023865
1782985830088397000,4.54639697265625,-0.020282717421650887,-0.05274670943617821,0.03856006637215614
1782985830098471000,4.556470947265625,-0.016419002786278725,-0.07990536093711853,0.022814659401774406
1782985830108545000,4.566544921875,-0.00961434468626976,-0.06188448145985603,0.004548465367406607
1782985830118619000,4.576618896484375,-0.008671586401760578,-0.027815992012619972,-0.00952660758048296
1782985830128693000,4.58669287109375,-0.013955619186162949,0.008773096837103367,-0.02175499126315117
1782985830138767000,4.59676708984375,-0.020566117018461227,0.03945750370621681,-0.021267632022500038
1782985830148841000,4.606841064453125,-0.02498258277773857,0.05107398331165314,-0.010004968382418156
1782985830158915000,4.6169150390625,-0.022495988756418228,0.04211883991956711,0.009146621450781822
1782985830168989000,4.626989013671875,-0.017808223143219948,0.02235034480690956,0.028023481369018555
1782985830179063000,4.63706298828125,-0.006678872741758823,-0.0003064987249672413,0.049694955348968506
1782985830189136100,4.64713623046875,0.008467704057693481,-0.008208803832530975,0.06190560385584831
1782985830199210000,4.6572099609375,0.015509102493524551,0.004454260692000389,0.06466250866651535
1782985830209284000,4.6672841796875,0.014608184807002544,0.0062951757572591305,0.062108058482408524
1782985830219358000,4.67735791015625,0.008711147122085094,-0.009807094931602478,0.04414317011833191
1782985830229432000,4.68743212890625,0.007476923055946827,-0.037990085780620575,0.011082368902862072
1782985830239506200,4.697506103515625,0.006546947173774242,-0.046667203307151794,-0.022560810670256615
1782985830249580000,4.707580078125,0.0009085877682082355,-0.026683151721954346,-0.05161403492093086
1782985830259654400,4.717654296875,-0.010781890712678432,-0.00736591313034296,-0.0762149840593338
1782985830269728300,4.727728271484375,-0.021957533434033394,-0.003379486734047532,-0.09268748760223389
1782985830279801000,4.737801025390625,-0.02620634064078331,-0.0031208936125040054,-0.09221716970205307
1782985830289875200,4.747875244140625,-0.025271182879805565,0.003892043838277459,-0.0741938054561615
1782985830299949000,4.757948974609375,-0.03535977378487587,0.0007492476142942905,-0.0439770482480526
1782985830310023200,4.768023193359375,-0.048959314823150635,-0.02614244818687439,-0.020701445639133453
1782985830320097300,4.77809716796875,-0.05767344683408737,-0.049344174563884735,-0.008144374005496502
1782985830330171100,4.788171142578125,-0.06229905039072037,-0.053472597151994705,-0.007580798584967852
1782985830340245200,4.798245361328125,-0.06808263808488846,-0.05014071613550186,-0.020101383328437805
1782985830350319000,4.808319091796875,-0.07002082467079163,-0.03326025605201721,-0.04054263234138489
1782985830360393200,4.818393310546875,-0.06157221272587776,-0.0030735929030925035,-0.0584728978574276
1782985830370467000,4.828467041015625,-0.05325709283351898,0.012700692750513554,-0.06552185863256454
1782985830380540200,4.8385400390625,-0.04505002871155739,0.008919003419578075,-0.07184500247240067
1782985830390614300,4.8486142578125,-0.04164045304059982,0.011505315080285072,-0.06365056335926056
1782985830400688000,4.858688232421875,-0.045680202543735504,0.018369879573583603,-0.033720359206199646
1782985830410762000,4.868761962890625,-0.05357971787452698,0.017015986144542694,-0.008301236666738987
1782985830420836000,4.878836181640625,-0.05291445925831795,0.016908928751945496,0.015100758522748947
1782985830430910200,4.88891015625,-0.04035578668117523,0.02162105217576027,0.03976099565625191
1782985830440984300,4.898984375,-0.025866858661174774,0.015128000639379025,0.055150605738162994
1782985830451058200,4.90905810546875,-0.012457048520445824,0.005024038255214691,0.06559854745864868
1782985830461132300,4.91913232421875,0.0006875155377201736,0.002831191523000598,0.06810352206230164
1782985830471206100,4.9292060546875,0.012158453464508057,0.003014590358361602,0.061674121767282486
1782985830481279200,4.939279296875,0.015273554250597954,0.012437919154763222,0.04913435876369476
1782985830491353300,4.949353271484375,0.008808419108390808,0.025852054357528687,0.03004913590848446
1782985830501427200,4.95942724609375,0.002682348946109414,0.03422476351261139,0.02188015542924404
1782985830511501000,4.9695009765625,-0.0007842580089345574,0.04668903350830078,0.02291884273290634
1782985830521575200,4.9795751953125,-0.006062376778572798,0.05179724097251892,0.028423864394426346
1782985830531649000,4.98964892578125,0.0006484120967797935,0.037092432379722595,0.03767313063144684
1782985830541723100,4.99972314453125,0.0036212990526109934,0.017408477142453194,0.038623612374067307
1782985830551797200,5.00979736328125,0.005388779100030661,-0.0050283996388316154,0.033830877393484116
1782985830561871400,5.019871337890625,0.007775237318128347,-0.02735660783946514,0.018644733354449272
1782985830571944200,5.029944091796875,0.015460492111742496,-0.027177467942237854,0.003804003819823265
1782985830582018000,5.04001806640625,0.01814868673682213,-0.012374022044241428,-0.012426631525158882
1782985830592092200,5.050092041015625,0.016038091853260994,-0.0012574675492942333,-0.026995772495865822
1782985830602166300,5.060166259765625,0.013886789791285992,0.011134753935039043,-0.029735632240772247
1782985830612240100,5.070240234375,0.0030299280770123005,0.02592429332435131,-0.020459894090890884
1782985830622314200,5.080314208984375,-0.011674981564283371,0.02303130179643631,-0.015202281065285206
1782985830632388000,5.09038818359375,-0.022089099511504173,0.0025988479610532522,-0.011353378184139729
1782985830642462200,5.100462158203125,-0.01784588396549225,0.0002837618812918663,-0.009569326415657997
1782985830652536000,5.1105361328125,-0.010408726520836353,0.002367755165323615,-0.019851896911859512
1782985830662610200,5.120610107421875,-0.005013694521039724,0.006341191008687019,-0.01810086891055107
1782985830672683300,5.130683349609375,-0.0035593975335359573,0.022613290697336197,-0.004044916946440935
1782985830682757000,5.140757080078125,-0.01259816624224186,0.03092821128666401,0.008672209456562996
1782985830692831200,5.150831298828125,-0.018552154302597046,0.026857048273086548,0.023465855047106743
1782985830702905000,5.160905029296875,-0.020661644637584686,0.01700974442064762,0.032861486077308655
1782985830712979200,5.170979248046875,-0.02340715378522873,0.0046270303428173065,0.024053402245044708
1782985830723053300,5.18105322265625,-0.01901213824748993,0.007750386372208595,0.006120207719504833
1782985830733127200,5.191127197265625,-0.009198389947414398,0.028694283217191696,-0.005579591263085604
1782985830743201300,5.201201171875,-0.005305114667862654,0.049808356910943985,-0.012293686158955097
1782985830753275100,5.211275146484375,-0.0063091665506362915,0.051341261714696884,-0.017195552587509155
1782985830763348200,5.22134814453125,-0.00011918123345822096,0.05665959417819977,-0.01573001593351364
1782985830773422300,5.23142236328125,0.009360184893012047,0.0625099241733551,-0.002730701118707657
1782985830783496200,5.24149609375,0.01960350200533867,0.0473107285797596,0.01334493886679411
1782985830793570300,5.2515703125,0.017240574583411217,0.004567352123558521,0.019674204289913177
1782985830803644200,5.26164404296875,0.018929818645119667,-0.02982710674405098,0.020547721534967422
1782985830813718000,5.271718017578125,0.023359833285212517,-0.033427074551582336,0.008193905465304852
1782985830823792000,5.281792236328125,0.024742014706134796,-0.012284772470593452,-0.009403464384377003
1782985830833866200,5.2918662109375,0.013676189817488194,0.00593101792037487,-0.03234771639108658
1782985830843940400,5.3019404296875,0.008889423683285713,0.01191700529307127,-0.0555688813328743
1782985830854014200,5.31201416015625,0.006131453439593315,0.017759447917342186,-0.07346399128437042
1782985830864087000,5.322087158203125,0.013161933049559593,0.015578319318592548,-0.08235815167427063
1782985830874161200,5.3321611328125,0.01711602322757244,0.019200311973690987,-0.07631624490022659
1782985830884235300,5.3422353515625,0.018274763599038124,0.012844677083194256,-0.05935616418719292
1782985830894309400,5.352309326171875,0.025644810870289803,0.000004847999662160873,-0.03315902128815651
1782985830904383200,5.36238330078125,0.0366966649889946,-0.006379282101988792,-0.023782828822731972
1782985830914457000,5.37245703125,0.040589798241853714,-0.03250119835138321,-0.025175077840685844
1782985830924531200,5.38253125,0.03942146897315979,-0.04612033814191818,-0.033479880541563034
1782985830934605000,5.39260498046875,0.03314460813999176,-0.06456520408391953,-0.058195289224386215
1782985830944679200,5.40267919921875,0.01773795671761036,-0.07011150568723679,-0.08373501151800156
1782985830954753300,5.412753173828125,0.006779792718589306,-0.04684434458613396,-0.09907768666744232
1782985830964826000,5.422826171875,-0.004061403684318066,-0.013007287867367268,-0.11340336501598358
1782985830974900200,5.432900146484375,-0.019259700551629066,0.02051427960395813,-0.11637226492166519
1782985830984974000,5.44297412109375,-0.039178017526865005,0.03820778802037239,-0.11403080821037292
1782985830995048200,5.453048095703125,-0.05084114149212837,0.05438540503382683,-0.09547054767608643
1782985831005122300,5.463122314453125,-0.05859919637441635,0.06191602349281311,-0.0579812228679657
1782985831015196200,5.473196044921875,-0.06901638209819794,0.06576617062091827,-0.035267338156700134
1782985831025270300,5.483270263671875,-0.06619076430797577,0.03834333270788193,-0.017632419243454933
1782985831035344100,5.49334423828125,-0.045158129185438156,0.014959260821342468,-0.0035651233047246933
1782985831045418200,5.503418212890625,-0.01978566125035286,-0.005266914144158363,0.011018079705536366
1782985831055491300,5.5134912109375,0.00047052832087501884,-0.02558898739516735,0.016641508787870407
1782985831065565200,5.523565185546875,0.01611819863319397,-0.015106786042451859,0.022638414055109024
1782985831075639300,5.533639404296875,0.024278176948428154,0.0004296449478715658,0.028233395889401436
1782985831085713200,5.543713134765625,0.02473517693579197,0.008311802521348,0.029786551371216774
1782985831095787300,5.553787353515625,0.01801259070634842,0.015540558844804764,0.03555181622505188
1782985831105861000,5.563861083984375,0.007933058775961399,0.014426559209823608,0.034429293125867844
1782985831115935000,5.57393505859375,0.00048223085468634963,0.013249952346086502,0.022294970229268074
1782985831126009300,5.58400927734375,0.004626641981303692,0.010933535173535347,0.008819643408060074
1782985831136083200,5.594083251953125,0.012855403125286102,0.022698014974594116,0.0011505908332765102
1782985831146157300,5.6041572265625,0.01579207181930542,0.02699156291782856,0.00045444053830578923
1782985831156230100,5.614230224609375,0.008516269735991955,0.018749935552477837,0.01760977692902088
1782985831166304000,5.624303955078125,0.0019068364053964615,-0.0007830194663256407,0.030149003490805626
1782985831176378400,5.63437841796875,-0.0010052301222458482,-0.023797236382961273,0.037468332797288895
1782985831186452200,5.6444521484375,-0.0016790097579360008,-0.04427081719040871,0.02931240014731884
1782985831196526300,5.6545263671875,-0.006790374405682087,-0.05050287023186684,0.009845277294516563
1782985831206600200,5.66460009765625,-0.014047222211956978,-0.03831810876727104,-0.021687347441911697
1782985831216674000,5.674674072265625,-0.021492715924978256,-0.010856217704713345,-0.05806532874703407
1782985831226748200,5.684748046875,-0.021365417167544365,0.0015045779291540384,-0.09261718392372131
1782985831236822000,5.694822021484375,-0.021878821775317192,0.006848025601357222,-0.11860116571187973
1782985831246895000,5.70489501953125,-0.026821382343769073,-0.01438482478260994,-0.13192282617092133
1782985831256969000,5.714968994140625,-0.028765136376023293,-0.05200521647930145,-0.13989898562431335
1782985831267043000,5.72504296875,-0.02453443966805935,-0.05525107681751251,-0.1312791407108307
1782985831277117000,5.735116943359375,-0.03253321722149849,-0.03421935439109802,-0.11162858456373215
1782985831287191000,5.74519091796875,-0.05209600180387497,-0.022754978388547897,-0.09068068861961365
1782985831297265200,5.75526513671875,-0.0750979632139206,-0.012323434464633465,-0.06745937466621399
1782985831307339000,5.765339111328125,-0.0845324769616127,-0.017426850274205208,-0.06209895759820938
1782985831317413000,5.7754130859375,-0.0863099917769432,-0.0230549443513155,-0.0610884390771389
1782985831327487000,5.785487060546875,-0.08348677307367325,-0.02799191139638424,-0.07798752933740616
1782985831337560000,5.79556005859375,-0.09070232510566711,-0.014002788811922073,-0.10749945789575577
1782985831347634200,5.80563427734375,-0.09086184948682785,-0.014806531369686127,-0.13820569217205048
1782985831357708000,5.8157080078125,-0.08447518199682236,0.0003090731333941221,-0.14772681891918182
1782985831367782100,5.8257822265625,-0.08449089527130127,0.01534394919872284,-0.14222580194473267
1782985831377856000,5.83585595703125,-0.08739344030618668,0.029829425737261772,-0.12287016212940216
1782985831387929900,5.845929931640625,-0.08402267843484879,0.03253892436623573,-0.09589473158121109
1782985831398004000,5.85600390625,-0.07760857790708542,0.026214219629764557,-0.0639088898897171
1782985831408078000,5.866078125,-0.06665845960378647,0.026370281353592873,-0.02460835501551628
1782985831418152200,5.876152099609375,-0.062234945595264435,0.015688607469201088,0.0035266100894659758
1782985831428226000,5.88622607421875,-0.05997898057103157,0.024715391919016838,0.030842918902635574
1782985831438299000,5.896298828125,-0.05450015887618065,0.048889413475990295,0.04377666488289833
1782985831448373000,5.906373046875,-0.04234149679541588,0.06377408653497696,0.04328105226159096
1782985831458447000,5.916447021484375,-0.024867616593837738,0.05555499717593193,0.034852415323257446
1782985831468521200,5.926521240234375,-0.0066710347309708595,0.033252619206905365,0.033160507678985596
1782985831478595000,5.936594970703125,0.002595981815829873,0.019171223044395447,0.03094278648495674
1782985831488669000,5.9466689453125,0.0009421588038094342,0.027834486216306686,0.028145402669906616
1782985831498743000,5.956742919921875,-0.00921405665576458,0.0618487149477005,0.03332354873418808
1782985831508817000,5.96681689453125,-0.015430141240358353,0.0702400729060173,0.028080318123102188
1782985831518891000,5.97689111328125,-0.008181861601769924,0.0492970310151577,0.017818942666053772
1782985831528964000,5.986964111328125,0.003166134236380458,0.007302975282073021,0.004088215995579958
1782985831539038000,5.997037841796875,0.02623530477285385,-0.029649032279849052,-0.02236245945096016
1782985831549112000,6.007112060546875,0.05211297422647476,-0.057111818343400955,-0.054221853613853455
1782985831559186000,6.01718603515625,0.06802424788475037,-0.06654481589794159,-0.08348222076892853
1782985831569260000,6.027260009765625,0.06587427854537964,-0.030662447214126587,-0.10625890642404556
1782985831579334100,6.037334228515625,0.05342883989214897,0.007619508542120457,-0.12796957790851593
1782985831589408000,6.047407958984375,0.04241027683019638,0.03305935487151146,-0.14218099415302277
1782985831599482000,6.057482177734375,0.036564163863658905,0.04477841034531593,-0.14895960688591003
1782985831609556000,6.067555908203125,0.03775752708315849,0.03479182347655296,-0.14410997927188873
1782985831619630000,6.077630126953125,0.044026341289281845,0.03250150382518768,-0.1243988648056984
1782985831629703200,6.087703125,0.047038909047842026,0.032746780663728714,-0.10424832254648209
1782985831639777000,6.097777099609375,0.045406829565763474,0.03133814036846161,-0.08940280228853226
1782985831649851100,6.10785107421875,0.049568552523851395,0.034094247967004776,-0.08959081768989563
1782985831659925000,6.117925048828125,0.05135468766093254,0.04718560352921486,-0.10672341287136078
1782985831669999000,6.1279990234375,0.04299955070018768,0.04687987267971039,-0.11707405745983124
1782985831680073000,6.138072998046875,0.033846817910671234,0.03882601484656334,-0.11580968648195267
1782985831690146800,6.148146728515625,0.022841567173600197,0.032594483345746994,-0.11415693163871765
1782985831700221200,6.15822119140625,0.016424275934696198,0.02117614448070526,-0.09661676734685898
1782985831710295000,6.168294921875,0.01427323929965496,0.014935025945305824,-0.0718107521533966
1782985831720367900,6.178367919921875,0.01848660223186016,0.0010179372038692236,-0.03866947069764137
1782985831730442000,6.18844189453125,0.021716482937335968,0.0020043719559907913,-0.006338430568575859
1782985831740515800,6.198515869140625,0.021342771127820015,0.001786375418305397,0.03240459784865379
1782985831750590200,6.208590087890625,0.014742660336196423,0.0009906226769089699,0.05687052756547928
1782985831760664000,6.2186640625,0.008191308937966824,0.004059857688844204,0.07202087342739105
1782985831770738200,6.22873828125,0.007077308371663094,0.004175173118710518,0.07315804064273834
1782985831780812000,6.23881201171875,0.001172647811472416,0.00045822211541235447,0.07092168182134628
1782985831790886000,6.248885986328125,-0.0011943697463721037,-0.006799690425395966,0.06534714996814728
1782985831800960000,6.2589599609375,-0.007726078387349844,0.004112865775823593,0.0627230852842331
1782985831811033900,6.269033935546875,-0.01536136120557785,0.017068877816200256,0.06627121567726135
1782985831821107000,6.27910693359375,-0.0200502946972847,0.012603383511304855,0.06254491955041885
1782985831831181000,6.28918115234375,-0.02264794148504734,0.009535420686006546,0.056838035583496094
1782985831841255000,6.2992548828125,-0.017751634120941162,0.010749243199825287,0.050478141754865646
1782985831851329000,6.3093291015625,-0.016323912888765335,0.011722629889845848,0.05083846673369408
1782985831861403000,6.31940283203125,-0.013277498073875904,0.006696654483675957,0.05538863316178322
1782985831871477200,6.329477294921875,-0.01672336272895336,-0.005739775486290455,0.05402802675962448
1782985831881551000,6.339551025390625,-0.01982554793357849,-0.019043967127799988,0.050856951624155045
1782985831891625000,6.349625,-0.01316338311880827,-0.029325367882847786,0.04528268799185753
1782985831901699000,6.359698974609375,-0.004238769877701998,-0.01750696450471878,0.03876806050539017
1782985831911772000,6.36977197265625,-0.00689793610945344,-0.014924497343599796,0.032324809581041336
1782985831921846000,6.379845947265625,-0.015887053683400154,-0.016594741493463516,0.013478738255798817
1782985831931920100,6.389920166015625,-0.021490877494215965,0.0022900011390447617,-0.008213507942855358
1782985831941994000,6.399993896484375,-0.019961586222052574,0.0011555158998817205,-0.034180767834186554
1782985831952068000,6.410068115234375,-0.013037635013461113,0.00045803398825228214,-0.050130173563957214
1782985831962142000,6.420141845703125,-0.002770850667729974,0.011492393910884857,-0.053831279277801514
1782985831972216000,6.430216064453125,0.006405070889741182,0.01889944262802601,-0.03694603592157364
1782985831982290000,6.4402900390625,0.011116907000541687,0.021174222230911255,-0.011689413338899612
1782985831992364000,6.450364013671875,0.006762371864169836,0.011468864977359772,0.017465543001890182
1782985832002437000,6.46043701171875,0.004879878833889961,-0.01163050252944231,0.03219441697001457
1782985832012511000,6.470510986328125,0.0063707162626087666,-0.03379599377512932,0.037023793905973434
1782985832022584800,6.480584716796875,0.007144606206566095,-0.03612779825925827,0.025315849110484123
1782985832032659000,6.490658935546875,0.012027512304484844,-0.041100721806287766,0.0032520920503884554
1782985832042733000,6.500733154296875,0.020994359627366066,-0.0210272129625082,-0.02215702272951603
1782985832052807200,6.51080712890625,0.017628390341997147,0.011187183670699596,-0.042587727308273315
1782985832062881000,6.520881103515625,0.013595565222203732,0.023469414561986923,-0.05397327244281769
1782985832072955100,6.530955078125,0.009965410456061363,0.021373506635427475,-0.053299225866794586
1782985832083029000,6.541029052734375,0.004824570380151272,0.01040045078843832,-0.04283348470926285
1782985832093102800,6.551102783203125,0.005210462026298046,-0.013830586336553097,-0.03399791568517685
1782985832103176200,6.56117626953125,0.003441848559305072,-0.028563333675265312,-0.02731258049607277
1782985832113250000,6.57125,0.005713791586458683,-0.03216845542192459,-0.02442171797156334
1782985832123324000,6.581323974609375,0.002053621457889676,-0.021666521206498146,-0.024456234648823738
1782985832133398000,6.59139794921875,-0.005808030255138874,-0.01110122911632061,-0.03476932644844055
1782985832143471900,6.601471923828125,-0.005690795835107565,0.0029030852019786835,-0.04495836794376373
1782985832153546000,6.6115458984375,-0.0071137226186692715,0.010414531454443932,-0.05723021551966667
1782985832163620000,6.6216201171875,-0.010006112046539783,0.002787388162687421,-0.06175162270665169
1782985832173694200,6.631694091796875,-0.01091478206217289,0.0034888649825006723,-0.053071316331624985
1782985832183768000,6.64176806640625,-0.014368941076099873,0.004383142106235027,-0.03716111183166504
1782985832193841000,6.6518408203125,-0.013442960567772388,0.015245643444359303,-0.011494362726807594
1782985832203915000,6.6619150390625,-0.012022430077195168,0.03276950865983963,0.00998775940388441
1782985832213989000,6.671989013671875,-0.004780230578035116,0.03801992908120155,0.02283191867172718
1782985832224063000,6.68206298828125,0.006412925664335489,0.019801616668701172,0.018240470439195633
1782985832234137000,6.69213720703125,0.00992244016379118,-0.010076386854052544,0.014455585740506649
1782985832244211500,6.70221142578125,0.003966906573623419,-0.018639955669641495,0.009385190904140472
1782985832254285300,6.712285400390625,-0.005481456406414509,-0.029451590031385422,-0.004677097778767347
1782985832264359400,6.722359375,-0.006524546071887016,-0.014250116422772408,-0.01042995136231184
1782985832274433300,6.732433349609375,-0.005777529440820217,0.011487206444144249,-0.011821719817817211
1782985832284506400,6.74250634765625,-0.003333742031827569,0.03026423789560795,0.0013703556032851338
1782985832294580500,6.75258056640625,0.0025917913299053907,0.04677584022283554,0.02897082455456257
1782985832304654300,6.762654296875,0.023151449859142303,0.03539516404271126,0.05501781404018402
1782985832314728400,6.772728515625,0.05262438580393791,0.0033373653423041105,0.10176029056310654
1782985832324802300,6.78280224609375,0.08395294100046158,-0.014131790027022362,0.17131023108959198
1782985832334876400,6.79287646484375,0.10822552442550659,-0.04094023257493973,0.24122406542301178
1782985832344950500,6.802950439453125,0.12592028081417084,-0.08742927014827728,0.3131643235683441
1782985832355024400,6.8130244140625,0.13711966574192047,-0.14065547287464142,0.3918071985244751
1782985832365098500,6.823098388671875,0.13328011333942413,-0.17692147195339203,0.44299808144569397
1782985832375171300,6.83317138671875,0.12060133367776871,-0.14863631129264832,0.4643673002719879
1782985832385245400,6.843245361328125,0.09743247181177139,-0.06773637980222702,0.4587809443473816
1782985832395319600,6.853319580078125,0.06895102560520172,0.0030469747725874186,0.4264373779296875
1782985832405393400,6.863393310546875,0.04583609104156494,0.059868842363357544,0.3665684163570404
1782985832415467500,6.873467529296875,0.03113943710923195,0.09353039413690567,0.27325472235679626
1782985832425541400,6.883541259765625,0.030702395364642143,0.10842911899089813,0.1576981246471405
1782985832435615200,6.893615234375,0.031618788838386536,0.13533157110214233,0.03408590331673622
1782985832445689300,6.903689453125,0.028037386015057564,0.15174071490764618,-0.059355203062295914
1782985832455763500,6.913763427734375,0.008012811653316021,0.16486689448356628,-0.11905129253864288
1782985832465837600,6.923837646484375,-0.015823403373360634,0.16826406121253967,-0.15274806320667267
1782985832475910400,6.933910400390625,-0.03570256754755974,0.167639821767807,-0.17074249684810638
1782985832485984300,6.943984375,-0.03939392417669296,0.14158140122890472,-0.18664775788784027
1782985832496058400,6.954058349609375,-0.03162547945976257,0.09064337611198425,-0.18536438047885895
1782985832506132500,6.964132568359375,-0.025739002972841263,0.05051736161112785,-0.1562941074371338
1782985832516206600,6.97420654296875,-0.030872244387865067,0.006166673265397549,-0.11594481766223907
1782985832526280400,6.984280517578125,-0.053423840552568436,-0.014402170665562153,-0.07800761610269547
1782985832536354300,6.994354248046875,-0.05573812499642372,0.009988656267523766,-0.05443117767572403
1782985832546428400,7.004428466796875,-0.04511291906237602,0.05311707779765129,-0.03191814571619034
1782985832556502300,7.014502197265625,-0.04328545928001404,0.06233587488532066,-0.004868684336543083
1782985832566575400,7.024575439453125,-0.049161966890096664,0.04841680824756622,0.011425225995481014
1782985832576649500,7.0346494140625,-0.055306412279605865,-0.008488018997013569,0.006896520499140024
1782985832586723300,7.044723388671875,-0.04485141485929489,-0.09554143995046616,-0.01484424713999033
1782985832596797400,7.05479736328125,-0.027852188795804977,-0.1448112577199936,-0.04774573817849159
1782985832606871300,7.064871337890625,-0.015117078088223934,-0.13990886509418488,-0.08710864186286926
1782985832616945400,7.0749453125,-0.005744349677115679,-0.14152033627033234,-0.12731198966503143
1782985832627019500,7.08501953125,-0.012665105983614922,-0.11331135034561157,-0.1484668105840683
1782985832637093400,7.09509326171875,-0.04131592810153961,-0.06185348331928253,-0.16344736516475677
1782985832647167500,7.10516748046875,-0.05011546239256859,0.016998745501041412,-0.15613794326782227
1782985832657241300,7.115241455078125,-0.06986413151025772,0.07685435563325882,-0.1345500946044922
1782985832667314200,7.125314208984375,-0.08048920333385468,0.10794645547866821,-0.1220051571726799
1782985832677388500,7.135388427734375,-0.08672180026769638,0.1186068207025528,-0.09991610050201416
1782985832687462400,7.14546240234375,-0.09478877484798431,0.10418915003538132,-0.06430165469646454
1782985832697536500,7.15553662109375,-0.110149085521698,0.06559674441814423,-0.04457162693142891
1782985832707610400,7.1656103515625,-0.10927079617977142,0.004097222350537777,-0.034093309193849564
1782985832717684500,7.1756845703125,-0.08559982478618622,-0.04706636071205139,-0.048723116517066956
1782985832727758300,7.18575830078125,-0.0525071807205677,-0.07779392600059509,-0.08724505454301834
1782985832737832200,7.195832275390625,-0.00724222743883729,-0.07848262041807175,-0.1268387883901596
1782985832747906600,7.205906494140625,0.03564203530550003,-0.032857298851013184,-0.15259210765361786
1782985832757979400,7.2159794921875,0.06553974747657776,0.0405077300965786,-0.14944078028202057
1782985832768053200,7.22605322265625,0.07281075417995453,0.11259784549474716,-0.12877629697322845
1782985832778127400,7.23612744140625,0.072841115295887,0.14178556203842163,-0.09949751198291779
1782985832788201200,7.246201171875,0.07268878072500229,0.12047281116247177,-0.06734383851289749
1782985832798275600,7.256275634765625,0.07014758884906769,0.08662962913513184,-0.034849006682634354
1782985832808349400,7.266349365234375,0.06191455200314522,0.05018675699830055,-0.006728635169565678
1782985832818423600,7.276423583984375,0.04614544287323952,0.057174623012542725,0.037614595144987106
1782985832828497400,7.286497314453125,0.018887760117650032,0.06827868521213531,0.07063864171504974
1782985832838571300,7.2965712890625,0.0016262149438261986,0.049561724066734314,0.08332834392786026
1782985832848644600,7.30664453125,0.002050472190603614,0.025431424379348755,0.08196283131837845
1782985832858718500,7.316718505859375,0.003281651297584176,0.009720103815197945,0.06018882617354393
1782985832868792300,7.326792236328125,0.0002638213918544352,0.02769613079726696,0.03373532369732857
1782985832878866400,7.336866455078125,-0.01143704354763031,0.05696240812540054,0.010927214287221432
1782985832888940300,7.346940185546875,-0.023624703288078308,0.05715801939368248,0.001894625136628747
1782985832899014400,7.357014404296875,-0.013736652210354805,0.05106630548834801,0.02245342917740345
1782985832909088300,7.367088134765625,0.0017930942121893167,0.04882267490029335,0.06598860770463943
1782985832919162600,7.37716259765625,0.006535917520523071,0.020200084894895554,0.11755140125751495
1782985832929236500,7.387236572265625,-0.003566799219697714,-0.030155032873153687,0.1576339453458786
1782985832939309300,7.397309326171875,-0.01270463690161705,-0.07476324588060379,0.17515860497951508
1782985832949383400,7.407383544921875,-0.020134983584284782,-0.10843675583600998,0.16761808097362518
1782985832959457300,7.417457275390625,-0.020576268434524536,-0.14224371314048767,0.1376045197248459
1782985832969531400,7.427531494140625,-0.02579798363149166,-0.14272263646125793,0.09554926306009293
1782985832979605500,7.43760546875,-0.02626856416463852,-0.12838657200336456,0.06556153297424316
1782985832989679400,7.447679443359375,-0.030945897102355957,-0.0823974534869194,0.05957166478037834
1782985832999753500,7.45775341796875,-0.0488860160112381,-0.013149674981832504,0.07536234706640244
1782985833009827300,7.467827392578125,-0.068624347448349,0.03710343316197395,0.07985755056142807
1782985833019901200,7.477901123046875,-0.07737123221158981,0.040188707411289215,0.08037180453538895
1782985833029975300,7.487975341796875,-0.07272791117429733,0.029696406796574593,0.08372142165899277
1782985833040048400,7.49804833984375,-0.061371393501758575,0.012518219649791718,0.10358647257089615
1782985833050122500,7.50812255859375,-0.06009145453572273,-0.027059607207775116,0.1155540719628334
1782985833060196400,7.5181962890625,-0.04407919943332672,-0.04539893567562103,0.12511828541755676
1782985833070270200,7.528270263671875,-0.0284139271825552,-0.027304621413350105,0.13299357891082764
1782985833080344300,7.53834423828125,-0.006540587171912193,0.007445902563631535,0.1458025872707367
1782985833090418400,7.54841845703125,-0.003205744782462716,0.051732756197452545,0.15868498384952545
1782985833100492500,7.558492431640625,-0.013144129887223244,0.06913384795188904,0.16316920518875122
1782985833110566400,7.56856640625,-0.02027965523302555,0.06831914931535721,0.15614336729049683
1782985833120640300,7.57864013671875,-0.03247985988855362,0.04326866194605827,0.14315806329250336
1782985833130713300,7.58871337890625,-0.03944682329893112,0.015190262347459793,0.11023665219545364
1782985833140787500,7.598787353515625,-0.03717408329248428,0.014877606183290482,0.08086278289556503
1782985833150861600,7.608861572265625,-0.02113940939307213,0.019847271963953972,0.04117683693766594
1782985833160935400,7.618935302734375,-0.008133064024150372,0.02212321013212204,-0.0008936499943956733
1782985833171009300,7.62900927734375,-0.006687586661428213,0.020284611731767654,-0.038334768265485764
1782985833181083400,7.63908349609375,-0.007035395130515099,0.023846320807933807,-0.05960303544998169
1782985833191157200,7.6491572265625,-0.010618255473673344,0.03638724982738495,-0.05887988209724426
1782985833201231400,7.6592314453125,-0.011493103578686714,0.03610149025917053,-0.05170798674225807
1782985833211305500,7.669305419921875,-0.007576736155897379,0.035520363599061966,-0.027263469994068146
1782985833221378300,7.67937841796875,-0.008885147050023079,0.027983088046312332,0.001741016865707934
1782985833231452400,7.689452392578125,-0.010368411429226398,0.004026127979159355,0.025312546640634537
1782985833241526000,7.699526123046875,-0.013644366525113583,-0.012002373114228249,0.044797297567129135
1782985833251600100,7.70960009765625,-0.005515873432159424,-0.019327271729707718,0.05546778813004494
1782985833261674000,7.719674072265625,0.0023937150835990906,-0.01506887748837471,0.05879727005958557
1782985833271747800,7.729747802734375,0.009356150403618813,-0.011981634423136711,0.0532640740275383
1782985833281822000,7.739822021484375,0.00957932323217392,-0.020139962434768677,0.030605364590883255
1782985833291895800,7.749895751953125,0.008680185303092003,-0.03315411135554314,0.006254540290683508
1782985833301970000,7.759969970703125,-0.00648625148460269,-0.03924795985221863,-0.018724046647548676
1782985833312043000,7.77004296875,-0.027704188600182533,-0.03933238238096237,-0.04401608929038048
1782985833322116900,7.780116943359375,-0.04248659685254097,-0.014855800196528435,-0.06337034702301025
1782985833332191000,7.79019091796875,-0.044059980660676956,0.03297897428274155,-0.0712067037820816
1782985833342264800,7.800264892578125,-0.03759888559579849,0.05656712129712105,-0.07333803176879883
1782985833352339000,7.8103388671875,-0.02890222705900669,0.051791492849588394,-0.06409440189599991
1782985833362413000,7.8204130859375,-0.0166852418333292,0.03461916744709015,-0.04639822989702225
1782985833372487000,7.83048681640625,-0.009395950473845005,0.008286688476800919,-0.021273383870720863
1782985833382561000,7.84056103515625,-0.004243000410497189,-0.009340508840978146,-0.004523432347923517
1782985833392635000,7.850634765625,-0.0013101068325340748,-0.027226505801081657,0.006654171738773584
1782985833402708000,7.8607080078125,0.00003026222111657262,-0.02869337610900402,0.006464021746069193
1782985833412782000,7.870781982421875,0.008206925354897976,-0.013362633995711803,0.008958552964031696
1782985833422856000,7.88085595703125,0.013328983448445797,0.006081903353333473,0.020897770300507545
1782985833432930000,7.890929931640625,0.012267619371414185,0.010233944281935692,0.026869377121329308
1782985833443004000,7.90100390625,0.004089584108442068,0.006957457400858402,0.035781379789114
1782985833453078000,7.911078125,-0.003227983368560672,0.0023848097771406174,0.04343423992395401
1782985833463151900,7.92115185546875,-0.007912483997642994,0.002201051451265812,0.04095830023288727
1782985833473225700,7.931225830078125,-0.007226022891700268,-0.003001189325004816,0.0319095179438591
1782985833483300000,7.941300048828125,-0.009148558601737022,-0.006117087788879871,0.016168901696801186
1782985833493373000,7.951373046875,-0.009059256874024868,-0.01785874553024769,-0.011546348221600056
1782985833503446800,7.96144677734375,-0.005228299181908369,-0.020002856850624084,-0.032158683985471725
1782985833513521000,7.97152099609375,-0.0055527882650494576,0.013202410191297531,-0.03832528740167618
1782985833523594800,7.9815947265625,-0.013440272770822048,0.031579818576574326,-0.03688185662031174
1782985833533669000,7.991669189453125,-0.008345427922904491,0.03394055739045143,-0.03653036430478096
1782985833543743000,8.001742919921876,-0.0015157510060817003,0.0222570039331913,-0.025029240176081657
1782985833553817000,8.011817138671875,-0.0026627262122929096,-0.010161503218114376,-0.01721733808517456
1782985833563891000,8.021890869140625,-0.010654606856405735,-0.05052357167005539,-0.028092090040445328
1782985833573963800,8.0319638671875,-0.012424622662365437,-0.057720258831977844,-0.04321974888443947
1782985833584038100,8.0420380859375,-0.006191494408994913,-0.03194485232234001,-0.055290792137384415
1782985833594112000,8.052112060546875,-0.004562037531286478,-0.01716979779303074,-0.06230630725622177
1782985833604185900,8.062185791015626,-0.006703218910843134,-0.003087000921368599,-0.05771288648247719
1782985833614260000,8.072260009765625,-0.012469434179365635,0.006971769034862518,-0.04023098945617676
1782985833624333800,8.082333740234375,-0.019192585721611977,0.007445279508829117,-0.022995011880993843
1782985833634408000,8.092407958984374,-0.018041206523776054,0.01683061756193638,-0.004106808919459581
1782985833644481800,8.102481689453125,-0.011144416406750679,0.03183300420641899,0.018808893859386444
1782985833654556200,8.11255615234375,-0.00912690069526434,0.029511164873838425,0.028146736323833466
1782985833664629000,8.12262890625,0.0019502511713653803,0.02562588080763817,0.044083356857299805
1782985833674702800,8.132702880859375,0.010133950039744377,0.02232957072556019,0.05852019786834717
1782985833684777000,8.14277685546875,0.014249332249164581,-0.001490541035309434,0.06694989651441574
1782985833694850800,8.152850830078124,0.01792953908443451,-0.021897081285715103,0.06462906301021576
1782985833704925000,8.162925048828125,0.022230276837944984,-0.029600273817777634,0.056401755660772324
1782985833714999000,8.1729990234375,0.014309323392808437,-0.03499056026339531,0.027575967833399773
1782985833725073000,8.183072998046875,0.0071566058322787285,-0.02602289617061615,-0.004314320627599955
1782985833735147000,8.19314697265625,-0.0015586437657475471,-0.001342932926490903,-0.03253605216741562
1782985833745220900,8.203220947265624,-0.00583141902461648,-0.0028590704314410686,-0.04710753634572029
1782985833755294000,8.2132939453125,-0.0035008629783988,0.004561504349112511,-0.04815240204334259
1782985833765368000,8.2233681640625,-0.01059978548437357,0.029720386490225792,-0.035541001707315445
1782985833775442000,8.23344189453125,-0.01808575913310051,0.03421437740325928,-0.02198311686515808
1782985833785516000,8.24351611328125,-0.024137526750564575,0.029256371781229973,-0.003947922494262457
1782985833795590000,8.25358984375,-0.027254510670900345,0.01581752859055996,0.0102008618414402
1782985833805663700,8.263663818359374,-0.020399000495672226,-0.010373062454164028,0.012549503706395626
1782985833815737900,8.27373779296875,-0.004642168525606394,-0.028410861268639565,0.004929243586957455
1782985833825812000,8.28381201171875,0.006000089459121227,-0.02639165148139,-0.002009090268984437
1782985833835886000,8.293885986328124,0.015424585901200771,-0.010383367538452148,-0.013541748747229576
1782985833845959000,8.303958984375,0.010485753417015076,0.014014916494488716,-0.019838260486721992
1782985833856032800,8.31403271484375,-0.0010217815870419145,0.029227357357740402,-0.028418060392141342
1782985833866107000,8.32410693359375,-0.0097431018948555,0.04281187430024147,-0.028431909158825874
1782985833876181800,8.334181640625,-0.019871369004249573,0.049149930477142334,-0.019942549988627434
1782985833886255000,8.344255126953126,-0.019580285996198654,0.04364331439137459,-0.01164706889539957
1782985833896329000,8.354328857421875,-0.009324617683887482,0.030505694448947906,-0.0012957336148247123
1782985833906402800,8.36440283203125,-0.0009862600127235055,0.016552859917283058,0.011498358100652695
1782985833916477000,8.374476806640626,0.0024019782431423664,0.01422177441418171,0.02785826288163662
1782985833926550800,8.38455078125,-0.0005147157935425639,0.016666289418935776,0.04273894056677818
1782985833936625000,8.394625,-0.005690021440386772,0.008159689605236053,0.04274363070726395
1782985833946699000,8.404698974609374,-0.0016667837044224143,-0.0017893477343022823,0.03603113442659378
1782985833956773000,8.414773193359375,0.0014471898321062326,0.009126938879489899,0.017827782779932022
1782985833966847000,8.424846923828126,-0.0014178389683365822,0.019500216469168663,0.004282679874449968
1782985833976920800,8.4349208984375,-0.008062701672315598,0.03978164866566658,-0.00772018451243639
1782985833986994000,8.444993896484375,-0.015623149462044239,0.07409994304180145,-0.004687376320362091
1782985833997068000,8.455068115234376,-0.037080056965351105,0.09233944118022919,0.004590277094393969
1782985834007142000,8.465141845703124,-0.05875019729137421,0.09279350936412811,0.024092605337500572
1782985834017216000,8.475216064453125,-0.06513018161058426,0.0903022289276123,0.042788371443748474
1782985834027289900,8.485289794921876,-0.0643852949142456,0.07346412539482117,0.04655248299241066
1782985834037364000,8.495364013671875,-0.052803151309490204,0.06248479709029198,0.05038631334900856
1782985834047437800,8.505437744140625,-0.04471699520945549,0.0358598418533802,0.04086923971772194
1782985834057512000,8.515511962890624,-0.032651882618665695,0.002749941311776638,0.019506055861711502
1782985834067586000,8.5255859375,-0.021764343604445457,-0.010110197588801384,0.00019494279695209116
1782985834077659000,8.535658935546875,-0.015001035295426846,-0.010896709747612476,-0.02007725089788437
1782985834087733000,8.54573291015625,-0.012629223987460136,-0.009846359491348267,-0.032573603093624115
1782985834097806800,8.555806884765625,-0.011125016026198864,0.005389933008700609,-0.029110748320817947
1782985834107880700,8.565880615234375,-0.004862858913838863,0.011565802618861198,-0.019284216687083244
1782985834117955000,8.575955078125,-0.0026756280567497015,0.0070283664390444756,-0.008739321492612362
1782985834128029000,8.58602880859375,-0.0015552362892776728,0.0009291945025324821,0.0029237258713692427
1782985834138103000,8.59610302734375,-0.0018796866061165929,-0.009016459807753563,0.009796543046832085
1782985834148177000,8.606177001953125,-0.003310869447886944,-0.016233893111348152,0.022914208471775055
1782985834158251000,8.6162509765625,-0.01211494393646717,-0.012966043315827847,0.03758593648672104
1782985834168324000,8.626323974609376,-0.02138114534318447,-0.00796595774590969,0.04450802505016327
1782985834178398000,8.63639794921875,-0.030027881264686584,-0.004343191161751747,0.04171852022409439
1782985834188472000,8.64647216796875,-0.03329344838857651,-0.023342980071902275,0.025039944797754288
1782985834198546000,8.6565458984375,-0.031881287693977356,-0.049435462802648544,-0.004613447468727827
1782985834208619800,8.666619873046875,-0.030887126922607422,-0.07129602134227753,-0.04314060136675835
1782985834218694000,8.67669384765625,-0.03516727313399315,-0.07840484380722046,-0.08675757795572281
1782985834228767700,8.686767822265624,-0.038571059703826904,-0.05489898473024368,-0.1255103051662445
1782985834238842400,8.69684228515625,-0.04614904895424843,-0.008318688720464706,-0.15258528292179108
1782985834248916500,8.70691650390625,-0.061705369502305984,0.04335755482316017,-0.15824928879737854
1782985834258989300,8.7169892578125,-0.07664167135953903,0.0765456110239029,-0.14637713134288788
1782985834269063200,8.727063232421875,-0.07520409673452377,0.08120641112327576,-0.12427982687950134
1782985834279137300,8.73713720703125,-0.06381207704544067,0.06743555516004562,-0.08553241938352585
1782985834289211400,8.74721142578125,-0.04569379240274429,0.02738027647137642,-0.041886407881975174
1782985834299285200,8.75728515625,-0.022152138873934746,-0.015643194317817688,0.0058274767361581326
1782985834309359400,8.767359375,0.002022438682615757,-0.03628508746623993,0.04961730167269707
1782985834319433200,8.77743310546875,0.018934084102511406,-0.038043562322854996,0.07574643194675446
1782985834329507300,8.78750732421875,0.027407463639974594,-0.023823345080018044,0.07508409768342972
1782985834339581200,8.797581298828124,0.032211821526288986,-0.006173443514853716,0.060189999639987946
1782985834349654300,8.807654296875,0.031005140393972397,0.003921002149581909,0.0423971526324749
1782985834359728400,8.817728271484375,0.028116339817643166,0.008566469885408878,0.031100714579224586
1782985834369802200,8.82780224609375,0.020828068256378174,0.019882507622241974,0.021086962893605232
1782985834379876400,8.83787646484375,0.006713173817843199,0.03662869706749916,0.01783582754433155
1782985834389950200,8.8479501953125,0.003122699912637472,0.040260981768369675,0.01819056086242199
1782985834400024000,8.858024169921874,0.011292675510048866,0.04123208671808243,0.021458152681589127
1782985834410098400,8.868098388671875,0.013613353483378887,0.02560092881321907,0.027292873710393906
1782985834420172300,8.87817236328125,0.02438008226454258,0.009821987710893154,0.03168032318353653
1782985834430246400,8.888246337890624,0.031389523297548294,-0.0002349077258259058,0.035743776708841324
1782985834440319200,8.8983193359375,0.035817455500364304,-0.010879583656787872,0.03067801706492901
1782985834450393000,8.90839306640625,0.0405656062066555,-0.013250863179564476,0.01738671213388443
1782985834460467500,8.918467529296874,0.03858013078570366,0.00041132583282887936,0.0074816192500293255
1782985834470541300,8.928541259765625,0.024211574345827103,0.015661118552088737,-0.008742357604205608
1782985834480615400,8.938615478515626,0.013827526941895485,0.025346944108605385,-0.020932767540216446
1782985834490689300,8.948689208984375,0.010932670906186104,0.020646197721362114,-0.02852836810052395
1782985834500763100,8.95876318359375,0.017784733325242996,0.012507647275924683,-0.031541842967271805
1782985834510837200,8.968837158203126,0.026621900498867035,-0.0008126851171255112,-0.02248150110244751
1782985834520911000,8.9789111328125,0.026919320225715637,0.012320345267653465,-0.010849825106561184
1782985834530985500,8.9889853515625,0.02501516044139862,0.02691952884197235,0.017521629109978676
1782985834541058300,8.999058349609374,0.024261275306344032,0.0473276786506176,0.0356004424393177
1782985834551132200,9.009132080078125,0.02388976328074932,0.06682948023080826,0.058308687061071396
1782985834561206300,9.019206298828125,0.02026553824543953,0.06505808979272842,0.07044322043657303
1782985834571280100,9.029280029296874,0.017834339290857315,0.03609621524810791,0.06368784606456757
1782985834581354500,9.0393544921875,0.024671275168657303,0.0186526607722044,0.06250550597906113
1782985834591428400,9.049428466796876,0.026788754388689995,0.012768671847879887,0.05180226266384125
1782985834601502200,9.059502197265624,0.02509789913892746,0.027535831555724144,0.04288024827837944
1782985834611576300,9.069576416015625,0.02148052677512169,0.03891871124505997,0.03554430603981018
1782985834621649200,9.079649169921876,0.016484007239341736,0.05561941862106323,0.027532877400517464
1782985834631723300,9.08972314453125,0.019680865108966827,0.06188024580478668,0.02312055230140686
1782985834641797400,9.09979736328125,0.02477923594415188,0.05186549574136734,0.015791960060596466
1782985834651871200,9.109871337890626,0.0324384905397892,0.03331684321165085,0.010415304452180862
1782985834661945300,9.1199453125,0.0353134423494339,0.022468077018857002,0.0016858355375006795
1782985834672019200,9.130019287109375,0.03639042377471924,0.016880230978131294,-0.0054580941796302795
1782985834682093300,9.14009326171875,0.033095795661211014,0.02199549600481987,-0.016812002286314964
1782985834692167200,9.150167236328125,0.028874151408672333,0.021464195102453232,-0.020975055173039436
1782985834702241300,9.1602412109375,0.024993017315864563,0.011851350776851177,-0.024132659658789635
1782985834712315400,9.1703154296875,0.019844327121973038,-0.01457759365439415,-0.02500191517174244
1782985834722388200,9.18038818359375,0.014570659957826138,-0.01995699107646942,-0.02038612775504589
1782985834732462000,9.190462158203125,0.007829133421182632,0.0001285690814256668,-0.01556740328669548
1782985834742536200,9.2005361328125,-0.004145252984017134,0.025417398661375046,-0.009980353526771069
1782985834752610300,9.2106103515625,-0.011165079660713673,0.042503971606492996,-0.01133883185684681
1782985834762684400,9.220684326171876,-0.015186641365289688,0.037455178797245026,-0.017450949177145958
1782985834772758300,9.23075830078125,-0.02447015419602394,0.013817492872476578,-0.03322085738182068
1782985834782832400,9.240832275390625,-0.03066031076014042,0.0015904821921139956,-0.05615493282675743
1782985834792906200,9.25090625,-0.03200414404273033,-0.01553577370941639,-0.08159185200929642
1782985834802980000,9.26097998046875,-0.01919308677315712,0.001934804255142808,-0.0958356037735939
1782985834813053400,9.271053466796875,-0.008821937255561352,0.04030323401093483,-0.1027505025267601
1782985834823127300,9.281127197265626,-0.00936106313019991,0.04681676998734474,-0.0930224061012268
1782985834833201200,9.291201171875,-0.0074624959379434586,0.044618330895900726,-0.07168275862932205
1782985834843275300,9.301275146484375,-0.008307556621730328,0.04693260416388512,-0.04768507182598114
1782985834853349000,9.31134912109375,-0.00745055079460144,0.061540573835372925,-0.029482629150152206
1782985834863423200,9.32142333984375,-0.017567116767168045,0.06928497552871704,-0.043780770152807236
1782985834873497300,9.331497314453125,-0.01951814815402031,0.09275861084461212,-0.09469881653785706
1782985834883571500,9.341571533203124,0.0019938878249377012,0.09755997359752655,-0.15703941881656647
1782985834893645300,9.351645263671875,-0.02093060314655304,0.07970002293586731,-0.07958617061376572
1782985834903718100,9.36171826171875,-0.06187954917550087,-0.03858752176165581,0.01974174752831459
1782985834913792300,9.371792236328124,-0.04531548544764519,-0.22355709969997406,0.09024973213672638
1782985834923866400,9.381866455078125,-0.00819921214133501,-0.22458326816558838,0.12929454445838928
1782985834933940200,9.391940185546876,0.011601656675338745,-0.09188753366470337,0.12802767753601074
1782985834944014300,9.402014404296875,0.0017982707358896732,0.02510545216500759,0.050828080624341965
1782985834954088200,9.412088134765625,0.007212743628770113,0.11216524988412857,-0.030106715857982635
1782985834964162300,9.422162353515626,0.02604386769235134,0.12477564066648483,-0.1026938334107399
1782985834974236200,9.432236083984375,0.02536795847117901,0.0802885964512825,-0.13909605145454407
1782985834984310300,9.442310302734375,0.025804663076996803,0.019574031233787537,-0.09400628507137299
1782985834994383400,9.45238330078125,0.009341000579297543,-0.049761101603507996,-0.03546467795968056
